PART_ID,Trial_no,Trial_type,CSI,Stim_letter,Key_pressed,letter_choose,Rt,Corr,Stimulus Time,nDropped
162K27S1,1,training,120,↓,no_key,no_letter,-1.0,False,60,0
162K27S1,2,training,120,↑,up,↑,0.8337692000204697,True,60,0
162K27S1,3,training,120,→,right,→,0.8478707000031136,True,60,0
162K27S1,4,training,120,↑,up,↑,0.772409500030335,True,60,0
162K27S1,5,training,120,↑,up,↑,0.7004497000016272,True,60,0
162K27S1,6,training,120,←,no_key,no_letter,-1.0,False,60,0
162K27S1,7,training,120,→,right,→,0.6724260000046343,True,60,0
162K27S1,8,training,120,↓,down,↓,0.7318909000023268,True,60,0
162K27S1,9,training,120,↓,down,↓,0.6859679000335746,True,60,0
162K27S1,10,training,120,↑,up,↑,0.8412784999818541,True,60,0
162K27S1,11,training,120,↑,up,↑,0.5343711000168696,True,60,0
162K27S1,12,training,120,↓,down,↓,0.7367432999890298,True,60,0
162K27S1,13,training,120,↑,up,↑,0.4354587999987416,True,60,0
162K27S1,14,training,120,↓,down,↓,1.3889227000181563,True,60,0
162K27S1,15,training,120,↑,up,↑,0.501936000015121,True,60,0
162K27S1,16,training,120,←,left,←,0.48519500001566485,True,60,0
162K27S1,17,training,120,→,left,←,0.5008237999863923,False,60,0
162K27S1,18,training,120,→,right,→,0.6340737999998964,True,60,0
162K27S1,19,training,120,→,right,→,0.6091951000271365,True,60,0
162K27S1,20,training,120,←,left,←,0.7050310000195168,True,60,0
162K27S1,21,no_adaptation,120,→,right,→,0.4508281999733299,True,36,0
162K27S1,22,no_adaptation,120,→,right,→,0.40186199999880046,True,36,0
162K27S1,23,no_adaptation,120,←,left,←,0.3431914999964647,True,36,0
162K27S1,24,no_adaptation,120,←,left,←,0.3850275999866426,True,36,0
162K27S1,25,no_adaptation,120,→,left,←,0.35988550004549325,False,36,0
162K27S1,26,no_adaptation,120,↑,up,↑,0.7505735000013374,True,36,0
162K27S1,27,no_adaptation,120,→,right,→,0.5516853000153787,True,36,0
162K27S1,28,no_adaptation,120,↓,no_key,no_letter,-1.0,False,36,0
162K27S1,29,no_adaptation,120,←,left,←,0.6729283999884501,True,36,0
162K27S1,30,no_adaptation,120,←,left,←,0.845000000030268,True,36,0
162K27S1,31,no_adaptation,120,→,right,→,0.4825004999875091,True,36,0
162K27S1,32,no_adaptation,120,←,left,←,0.6620119999861345,True,36,0
162K27S1,33,no_adaptation,120,←,left,←,1.466801000002306,True,36,0
162K27S1,34,no_adaptation,120,↑,up,↑,0.7670496999635361,True,36,0
162K27S1,35,no_adaptation,120,←,left,←,0.503488100017421,True,36,0
162K27S1,36,no_adaptation,120,↑,up,↑,0.7706779000000097,True,36,0
162K27S1,37,no_adaptation,120,←,left,←,1.002540500019677,True,36,0
162K27S1,38,no_adaptation,120,←,left,←,0.657357599993702,True,36,0
162K27S1,39,no_adaptation,120,→,right,→,0.7661958999815397,True,36,0
162K27S1,40,no_adaptation,120,←,left,←,0.6305811000056565,True,36,0
162K27S1,41,training,104,→,right,→,0.7488649999722838,True,36,0
162K27S1,42,training,108,→,left,←,0.9782190999831073,False,36,1
162K27S1,43,experiment,90,↑,up,↑,0.7169605999952182,True,36,1
162K27S1,44,experiment,66,→,right,→,0.6661041000043042,True,36,1
162K27S1,45,experiment,52,→,right,→,0.6698151000309736,True,36,1
162K27S1,46,experiment,79,↓,down,↓,0.9365536000113934,True,36,1
162K27S1,47,experiment,108,→,right,→,0.6870374999707565,True,36,1
162K27S1,48,experiment,73,↓,down,↓,0.8027568000252359,True,36,1
162K27S1,49,experiment,105,←,left,←,0.6635024000424892,True,36,1
162K27S1,50,experiment,81,↑,up,↑,0.7060774000128731,True,36,1
162K27S1,51,experiment,106,←,right,→,0.705579100002069,False,36,1
162K27S1,52,experiment,50,←,left,←,0.7403579999809153,True,36,1
162K27S1,53,experiment,56,→,no_key,no_letter,-1.0,False,36,1
162K27S1,54,experiment,68,↑,up,↑,0.6462336000404321,True,36,1
162K27S1,55,experiment,84,↓,down,↓,0.8316105999983847,True,36,1
162K27S1,56,experiment,99,←,left,←,0.4852816999773495,True,36,1
162K27S1,57,experiment,58,↓,down,↓,0.637773800001014,True,36,1
162K27S1,58,experiment,80,↑,up,↑,0.5051464999560267,True,36,1
162K27S1,59,experiment,67,→,right,→,0.49429719999898225,True,36,1
162K27S1,60,experiment,60,→,right,→,1.046245900040958,True,36,1
162K27S1,61,experiment,98,↑,up,↑,0.6913359999889508,True,36,1
162K27S1,62,experiment,83,↓,left,←,0.4416536000207998,False,36,1
162K27S1,63,experiment,59,↑,no_key,no_letter,-1.0,False,36,0
162K27S1,64,experiment,102,↑,up,↑,0.6766358999884687,True,36,1
162K27S1,65,experiment,100,←,left,←,0.503904799988959,True,36,1
162K27S1,66,experiment,65,→,right,→,0.5256897999788634,True,36,1
162K27S1,67,experiment,57,←,left,←,0.5816399999894202,True,36,1
162K27S1,68,experiment,54,←,left,←,0.9720800000359304,True,36,1
162K27S1,69,experiment,70,↓,down,↓,0.6772463999805041,True,36,1
162K27S1,70,experiment,85,←,left,←,0.7735474000219256,True,36,1
162K27S1,71,experiment,61,↓,down,↓,0.8419985999935307,True,36,1
162K27S1,72,experiment,76,→,right,→,0.742639500007499,True,36,1
162K27S1,73,experiment,71,↓,down,↓,0.6650649000075646,True,36,1
162K27S1,74,experiment,74,←,left,←,0.7572197000263259,True,36,1
162K27S1,75,experiment,72,↑,up,↑,0.6227490999735892,True,36,1
162K27S1,76,experiment,64,←,left,←,0.8241660999483429,True,36,1
162K27S1,77,experiment,91,↓,down,↓,0.8485695999697782,True,36,1
162K27S1,78,experiment,75,→,right,→,0.7492729999939911,True,36,1
162K27S1,79,experiment,69,→,left,←,0.90414649999002,False,36,1
162K27S1,80,experiment,95,↑,up,↑,0.5719690000405535,True,36,1
162K27S1,81,experiment,49,↑,up,↑,0.6123884000116959,True,36,1
162K27S1,82,experiment,107,←,no_key,no_letter,-1.0,False,36,1
162K27S1,83,experiment,103,↑,up,↑,0.6945948000065982,True,36,1
162K27S1,84,experiment,93,←,left,←,0.699567899981048,True,36,1
162K27S1,85,experiment,87,→,right,→,0.7861842999700457,True,36,1
162K27S1,86,experiment,104,↓,up,↑,1.4239053999772295,False,36,1
162K27S1,87,experiment,48,←,left,←,0.7346091000363231,True,36,1
162K27S1,88,experiment,89,↓,no_key,no_letter,-1.0,False,36,1
162K27S1,89,experiment,51,→,right,→,0.6992460999754258,True,36,1
162K27S1,90,experiment,77,→,right,→,0.5171608999953605,True,36,1
162K27S1,91,experiment,82,↑,up,↑,0.6769507999997586,True,36,1
162K27S1,92,experiment,92,↑,up,↑,0.6912957000313327,True,36,1
162K27S1,93,experiment,53,←,left,←,0.5334220000077039,True,36,1
162K27S1,94,experiment,63,↑,up,↑,0.7787354999454692,True,36,1
162K27S1,95,experiment,97,←,left,←,0.4174416000023484,True,36,1
162K27S1,96,experiment,78,→,right,→,0.4882532999617979,True,36,0
162K27S1,97,experiment,96,↑,up,↑,0.6279651999939233,True,36,1
162K27S1,98,experiment,55,↓,down,↓,0.6483922000043094,True,36,1
162K27S1,99,experiment,86,↑,up,↑,0.5614507999853231,True,36,1
162K27S1,100,experiment,88,↓,down,↓,0.7975751999765635,True,36,1
162K27S1,101,experiment,94,↓,no_key,no_letter,-1.0,False,36,1
162K27S1,102,experiment,62,↑,up,↑,0.4745482000289485,True,36,1
162K27S1,103,experiment,101,↓,down,↓,0.6369108000071719,True,36,1
162K27S1,104,training,67,↑,up,↑,0.5718261000001803,True,36,0
162K27S1,105,training,54,↓,down,↓,0.5464110000175424,True,36,1
162K27S1,106,experiment,78,←,no_key,no_letter,-1.0,False,36,1
162K27S1,107,experiment,97,↑,up,↑,0.4343951999908313,True,36,1
162K27S1,108,experiment,57,↑,no_key,no_letter,-1.0,False,36,0
162K27S1,109,experiment,91,←,left,←,0.4963297000504099,True,36,1
162K27S1,110,experiment,56,←,left,←,0.8976297999615781,True,36,1
162K27S1,111,experiment,61,↓,down,↓,0.7050448000081815,True,36,1
162K27S1,112,experiment,51,↑,up,↑,0.7157181999646127,True,36,1
162K27S1,113,experiment,87,←,left,←,0.5214343999978155,True,36,1
162K27S1,114,experiment,79,←,left,←,0.5622463000472635,True,36,1
162K27S1,115,experiment,106,↑,up,↑,0.544301500020083,True,36,1
162K27S1,116,experiment,66,→,right,→,0.6203659999882802,True,36,1
162K27S1,117,experiment,88,←,left,←,0.7260515000089072,True,36,1
162K27S1,118,experiment,71,↓,up,↑,0.9611901000025682,False,36,1
162K27S1,119,experiment,55,←,left,←,0.720129800029099,True,36,1
162K27S1,120,experiment,65,←,left,←,0.5335679000127129,True,36,1
162K27S1,121,experiment,69,↑,up,↑,0.7377144999918528,True,36,1
162K27S1,122,experiment,99,↑,up,↑,0.5065338999847881,True,36,1
162K27S1,123,experiment,62,→,right,→,0.5770219000405632,True,36,1
162K27S1,124,experiment,49,→,right,→,0.6894736000103876,True,36,1
162K27S1,125,experiment,101,→,left,←,0.43409480003174394,False,36,1
162K27S1,126,experiment,93,↓,down,↓,0.6669195999857038,True,36,0
162K27S1,127,experiment,74,←,left,←,0.6313746999949217,True,36,1
162K27S1,128,experiment,105,←,left,←,0.7787119999993593,True,36,1
162K27S1,129,experiment,73,←,left,←,0.8830958000035025,True,36,1
162K27S1,130,experiment,100,↓,down,↓,0.5901314000366256,True,36,1
162K27S1,131,experiment,48,↑,up,↑,0.5023756999871694,True,36,1
162K27S1,132,experiment,85,→,no_key,no_letter,-1.0,False,36,1
162K27S1,133,experiment,80,→,right,→,0.7237856000429019,True,36,1
162K27S1,134,experiment,75,↑,up,↑,0.40915409999433905,True,36,1
162K27S1,135,experiment,104,→,no_key,no_letter,-1.0,False,36,0
162K27S1,136,experiment,58,←,right,→,0.4953294000006281,False,36,1
162K27S1,137,experiment,102,←,left,←,0.4975994999986142,True,36,1
162K27S1,138,experiment,92,→,right,→,0.6226822000462562,True,36,1
162K27S1,139,experiment,82,←,left,←,0.801870500028599,True,36,1
162K27S1,140,experiment,83,←,left,←,0.5258240000111982,True,36,1
162K27S1,141,experiment,107,↓,down,↓,0.8608793999883346,True,36,1
162K27S1,142,experiment,108,↑,up,↑,0.8382042999728583,True,36,1
162K27S1,143,experiment,53,←,left,←,0.6986748000490479,True,36,1
162K27S1,144,experiment,54,↓,down,↓,0.5644830000237562,True,36,1
162K27S1,145,experiment,86,←,left,←,0.6328577999956906,True,36,1
162K27S1,146,experiment,94,→,right,→,0.7997732000076212,True,36,1
162K27S1,147,experiment,63,↑,up,↑,0.6027034999569878,True,36,1
162K27S1,148,experiment,64,↑,up,↑,0.5008200000156648,True,36,1
162K27S1,149,experiment,59,↓,down,↓,0.7569602000294253,True,36,1
162K27S1,150,experiment,50,→,no_key,no_letter,-1.0,False,36,1
162K27S1,151,experiment,52,↑,up,↑,1.0373354000039399,True,36,1
162K27S1,152,experiment,81,↑,up,↑,0.6167389999609441,True,36,1
162K27S1,153,experiment,89,←,left,←,0.7540701999678276,True,36,1
162K27S1,154,experiment,95,↓,down,↓,0.5799703000229783,True,36,1
162K27S1,155,experiment,67,→,right,→,0.6540403999970295,True,36,1
162K27S1,156,experiment,96,←,left,←,0.3845480000018142,True,36,1
162K27S1,157,experiment,76,→,right,→,0.8585078999749385,True,36,0
162K27S1,158,experiment,98,↑,up,↑,0.5432121000485495,True,36,1
162K27S1,159,experiment,68,↓,down,↓,0.6265474000247195,True,36,1
162K27S1,160,experiment,84,↑,up,↑,0.47792089998256415,True,36,1
162K27S1,161,experiment,77,←,left,←,0.42577600001823157,True,36,1
162K27S1,162,experiment,103,↑,up,↑,0.6760759000317194,True,36,0
162K27S1,163,experiment,90,→,right,→,0.7307965000509284,True,36,1
162K27S1,164,experiment,70,↑,no_key,no_letter,-1.0,False,36,1
162K27S1,165,experiment,60,↑,up,↑,0.3925110999844037,True,36,1
162K27S1,166,experiment,72,←,down,↓,0.7307102999766357,False,36,0
162K27S1,167,training,99,→,right,→,0.7052304999670014,True,36,0
162K27S1,168,training,58,←,left,←,0.44243419996928424,True,36,1
162K27S1,169,experiment,49,↓,down,↓,0.654751900001429,True,36,0
162K27S1,170,experiment,59,←,left,←,0.6243673000135459,True,36,1
162K27S1,171,experiment,86,→,right,→,0.6104975999915041,True,36,1
162K27S1,172,experiment,103,↑,no_key,no_letter,-1.0,False,36,1
162K27S1,173,experiment,107,→,left,←,0.5408220000099391,False,36,1
162K27S1,174,experiment,73,↓,down,↓,0.638795500039123,True,36,1
162K27S1,175,experiment,106,←,left,←,0.625087899970822,True,36,1
162K27S1,176,experiment,52,↓,down,↓,0.5264593999600038,True,36,1
162K27S1,177,experiment,60,←,left,←,1.045260299986694,True,36,1
162K27S1,178,experiment,87,→,right,→,0.7822264999849722,True,36,1
162K27S1,179,experiment,89,→,right,→,0.5370092999655753,True,36,1
162K27S1,180,experiment,85,↑,up,↑,0.4423427000292577,True,36,1
162K27S1,181,experiment,57,↑,up,↑,0.4902545000077225,True,36,0
162K27S1,182,experiment,75,↑,up,↑,0.7089158000308089,True,36,1
162K27S1,183,experiment,54,↓,down,↓,0.8463858999894001,True,36,1
162K27S1,184,experiment,58,←,left,←,1.4888813000288792,True,36,1
162K27S1,185,experiment,90,↓,down,↓,0.6868057000101544,True,36,1
162K27S1,186,experiment,104,→,no_key,no_letter,-1.0,False,36,1
162K27S1,187,experiment,71,↑,up,↑,0.5934964999905787,True,36,1
162K27S1,188,experiment,100,↓,down,↓,0.48065440001664683,True,36,1
162K27S1,189,experiment,70,↓,no_key,no_letter,-1.0,False,36,1
162K27S1,190,experiment,81,←,right,→,0.6671397999743931,False,36,1
162K27S1,191,experiment,78,↓,down,↓,0.7021171000087634,True,36,1
162K27S1,192,experiment,74,→,right,→,0.577373499982059,True,36,1
162K27S1,193,experiment,91,↑,up,↑,0.5796632000128739,True,36,1
162K27S1,194,experiment,79,↑,up,↑,0.874187899986282,True,36,1
162K27S1,195,experiment,65,↑,up,↑,0.42594799998914823,True,36,1
162K27S1,196,experiment,66,←,left,←,0.4424886000342667,True,36,0
162K27S1,197,experiment,101,↓,no_key,no_letter,-1.0,False,36,0
162K27S1,198,experiment,51,↓,down,↓,0.7094931000028737,True,36,1
162K27S1,199,experiment,102,↑,up,↑,0.39155030000256374,True,36,1
162K27S1,200,experiment,108,→,right,→,0.5864110999973491,True,36,0
162K27S1,201,experiment,55,←,left,←,0.4809584000031464,True,36,1
162K27S1,202,experiment,48,↓,down,↓,0.7489487999700941,True,36,1
162K27S1,203,experiment,72,→,right,→,0.5185963999829255,True,36,1
162K27S1,204,experiment,82,→,right,→,0.5586958999629132,True,36,1
162K27S1,205,experiment,53,↓,down,↓,0.686147800006438,True,36,1
162K27S1,206,experiment,93,↓,down,↓,0.7475243000080809,True,36,1
162K27S1,207,experiment,62,↑,up,↑,0.48887820000527427,True,36,1
162K27S1,208,experiment,83,↑,down,↓,0.5689858999685384,False,36,1
162K27S1,209,experiment,96,↓,down,↓,0.5299999000271782,True,36,1
162K27S1,210,experiment,56,←,left,←,0.8737768999999389,True,36,1
162K27S1,211,experiment,95,↑,up,↑,0.4090853999950923,True,36,1
162K27S1,212,experiment,76,↑,up,↑,0.5647030000109226,True,36,0
162K27S1,213,experiment,67,←,right,→,0.44242810003925115,False,36,1
162K27S1,214,experiment,98,→,right,→,0.5722492000204511,True,36,0
162K27S1,215,experiment,77,↑,up,↑,0.6993061999673955,True,36,1
162K27S1,216,experiment,50,↑,no_key,no_letter,-1.0,False,36,1
162K27S1,217,experiment,63,↓,down,↓,0.6903902999474667,True,36,1
162K27S1,218,experiment,80,←,left,←,0.49165159999392927,True,36,1
162K27S1,219,experiment,64,←,no_key,no_letter,-1.0,False,36,1
162K27S1,220,experiment,84,↓,down,↓,0.695380599994678,True,36,1
162K27S1,221,experiment,105,←,left,←,0.7364041999680921,True,36,1
162K27S1,222,experiment,92,↓,down,↓,0.5480456000077538,True,36,1
162K27S1,223,experiment,69,←,left,←,0.6307344000088051,True,36,1
162K27S1,224,experiment,99,↑,up,↑,0.5881454999907874,True,36,1
162K27S1,225,experiment,68,↓,down,↓,0.7815453999792226,True,36,1
162K27S1,226,experiment,88,↑,up,↑,0.40153640002245083,True,36,1
162K27S1,227,experiment,94,→,right,→,0.824202999996487,True,36,0
162K27S1,228,experiment,97,↓,down,↓,0.582710099988617,True,36,1
162K27S1,229,experiment,61,→,right,→,0.5147377999965101,True,36,1
162K27S1,230,training,95,←,left,←,0.4508590000332333,True,36,0
162K27S1,231,training,53,←,right,→,0.49697330000344664,False,36,0
162K27S1,232,experiment,51,↑,up,↑,0.9155050000408664,True,36,1
162K27S1,233,experiment,95,↓,down,↓,0.582903400005307,True,36,1
162K27S1,234,experiment,48,←,left,←,0.5034184000105597,True,36,1
162K27S1,235,experiment,71,↓,no_key,no_letter,-1.0,False,36,1
162K27S1,236,experiment,98,←,left,←,0.3756170999840833,True,36,1
162K27S1,237,experiment,108,←,left,←,0.8319656000239775,True,36,0
162K27S1,238,experiment,55,→,left,←,0.6121466000331566,False,36,1
162K27S1,239,experiment,88,←,left,←,0.4256988000124693,True,36,1
162K27S1,240,experiment,50,→,right,→,0.4765719000133686,True,36,0
162K27S1,241,experiment,54,↓,down,↓,0.63034209999023,True,36,1
162K27S1,242,experiment,52,←,left,←,0.40272410004399717,True,36,1
162K27S1,243,experiment,78,↓,down,↓,0.4889957000268623,True,36,0
162K27S1,244,experiment,57,↓,down,↓,0.7139413999975659,True,36,1
162K27S1,245,experiment,96,↑,up,↑,0.7169791999622248,True,36,1
162K27S1,246,experiment,83,→,right,→,0.7082774000009522,True,36,1
162K27S1,247,experiment,82,←,left,←,0.3758030000026338,True,36,1
162K27S1,248,experiment,107,←,left,←,0.5690941999782808,True,36,0
162K27S1,249,experiment,102,←,left,←,0.7200946999946609,True,36,1
162K27S1,250,experiment,69,→,right,→,0.5321669999975711,True,36,1
162K27S1,251,experiment,101,←,left,←,0.6928390000248328,True,36,1
162K27S1,252,experiment,79,→,right,→,0.7104522000299767,True,36,1
162K27S1,253,experiment,103,↑,up,↑,0.6395787000074051,True,36,1
162K27S1,254,experiment,63,↑,no_key,no_letter,-1.0,False,36,1
162K27S1,255,experiment,84,←,left,←,0.4702053999644704,True,36,1
162K27S1,256,experiment,89,→,right,→,0.5326304999762215,True,36,0
162K27S1,257,experiment,76,↓,down,↓,0.6297439999761991,True,36,1
162K27S1,258,experiment,67,↓,no_key,no_letter,-1.0,False,36,1
162K27S1,259,experiment,100,↑,right,→,0.47010559996124357,False,36,1
162K27S1,260,experiment,106,→,right,→,0.6949080000049435,True,36,0
162K27S1,261,experiment,62,↓,down,↓,0.5024042000295594,True,36,1
162K27S1,262,experiment,105,↑,up,↑,0.5991405999520794,True,36,1
162K27S1,263,experiment,92,↓,down,↓,0.4511052999878302,True,36,1
162K27S1,264,experiment,85,↓,no_key,no_letter,-1.0,False,36,0
162K27S1,265,experiment,90,→,right,→,0.5960548000293784,True,36,1
162K27S1,266,experiment,73,↓,down,↓,0.795355300011579,True,36,1
162K27S1,267,experiment,72,←,left,←,0.4342620000243187,True,36,1
162K27S1,268,experiment,99,→,right,→,0.7606310999835841,True,36,0
162K27S1,269,experiment,66,↑,up,↑,0.6118494999827817,True,36,1
162K27S1,270,experiment,60,→,right,→,0.6631758000003174,True,36,1
162K27S1,271,experiment,86,→,right,→,0.47270549996756017,True,36,1
162K27S1,272,experiment,77,←,left,←,0.4504247000440955,True,36,1
162K27S1,273,experiment,80,↑,up,↑,0.6457896999781951,True,36,0
162K27S1,274,experiment,61,↑,up,↑,0.49557610001647845,True,36,1
162K27S1,275,experiment,59,→,right,→,0.42542039998807013,True,36,1
162K27S1,276,experiment,56,↓,down,↓,0.6193240999709815,True,36,0
162K27S1,277,experiment,97,→,right,→,0.5700942000257783,True,36,1
162K27S1,278,experiment,68,←,left,←,0.6605927999480627,True,36,1
162K27S1,279,experiment,81,←,left,←,0.7029274000087753,True,36,1
162K27S1,280,experiment,75,→,no_key,no_letter,-1.0,False,36,1
162K27S1,281,experiment,94,←,no_key,no_letter,-1.0,False,36,1
162K27S1,282,experiment,49,↑,up,↑,0.5157391999964602,True,36,1
162K27S1,283,experiment,87,→,right,→,0.4257083999691531,True,36,1
162K27S1,284,experiment,74,→,no_key,no_letter,-1.0,False,36,0
162K27S1,285,experiment,91,→,left,←,0.35071939998306334,False,36,1
162K27S1,286,experiment,64,←,left,←,0.49419789999956265,True,36,0
162K27S1,287,experiment,70,←,left,←,0.48340120003558695,True,36,1
162K27S1,288,experiment,65,→,right,→,0.4265027999645099,True,36,1
162K27S1,289,experiment,58,→,right,→,0.5406476999633014,True,36,0
162K27S1,290,experiment,93,↑,up,↑,0.43410559999756515,True,36,1
162K27S1,291,experiment,53,←,up,↑,0.41735080000944436,False,36,0
162K27S1,292,experiment,104,↓,right,→,1.0561277999659069,False,36,0
162K27S1,293,training,107,↑,up,↑,0.5726599000045098,True,36,0
162K27S1,294,training,86,→,right,→,0.5127121999976225,True,36,1
162K27S1,295,experiment,52,→,right,→,0.554808699991554,True,36,1
162K27S1,296,experiment,80,←,left,←,0.625413200003095,True,36,1
162K27S1,297,experiment,69,→,right,→,0.6252352999872528,True,36,1
162K27S1,298,experiment,92,→,no_key,no_letter,-1.0,False,36,1
162K27S1,299,experiment,99,↓,up,↑,0.7450925000011921,False,36,1
162K27S1,300,experiment,108,↑,up,↑,0.5671303999843076,True,36,1
162K27S1,301,experiment,48,→,right,→,0.7521378000383265,True,36,1
162K27S1,302,experiment,78,←,left,←,0.4422322000027634,True,36,1
162K27S1,303,experiment,71,→,right,→,0.47064850002061576,True,36,0
162K27S1,304,experiment,81,→,right,→,0.5678105999832042,True,36,0
162K27S1,305,experiment,74,↓,down,↓,0.6801180999609642,True,36,1
162K27S1,306,experiment,84,→,left,←,0.5285790000343695,False,36,1
162K27S1,307,experiment,107,↓,down,↓,0.6315962999942712,True,36,1
162K27S1,308,experiment,75,←,left,←,0.4696502999868244,True,36,1
162K27S1,309,experiment,67,↓,down,↓,0.49944420001702383,True,36,0
162K27S1,310,experiment,105,↓,down,↓,0.5801238999702036,True,36,1
162K27S1,311,experiment,56,↑,up,↑,0.8098018000018783,True,36,1
162K27S1,312,experiment,72,↓,no_key,no_letter,-1.0,False,36,1
162K27S1,313,experiment,64,↓,down,↓,0.6050830000312999,True,36,1
162K27S1,314,experiment,97,↑,no_key,no_letter,-1.0,False,36,1
162K27S1,315,experiment,88,↑,up,↑,0.5595972000155598,True,36,1
162K27S1,316,experiment,76,→,right,→,0.4719760000007227,True,36,1
162K27S1,317,experiment,66,←,left,←,0.40894279995700344,True,36,1
162K27S1,318,experiment,63,←,left,←,0.5042073999647982,True,36,0
162K27S1,319,experiment,68,↑,up,↑,0.8449330999865197,True,36,1
162K27S1,320,experiment,77,↑,up,↑,0.48965649999445304,True,36,1
162K27S1,321,experiment,87,↑,up,↑,0.6252654999843799,True,36,1
162K27S1,322,experiment,60,←,left,←,0.4835029999958351,True,36,1
162K27S1,323,experiment,89,↑,up,↑,0.4506411000038497,True,36,1
162K27S1,324,experiment,102,↑,up,↑,0.4700229000300169,True,36,0
162K27S1,325,experiment,101,→,left,←,0.4733259999775328,False,36,1
162K27S1,326,experiment,100,↓,no_key,no_letter,-1.0,False,36,1
162K27S1,327,experiment,90,→,right,→,0.502532800019253,True,36,1
162K27S1,328,experiment,70,←,left,←,0.6989072000142187,True,36,1
162K27S1,329,experiment,83,→,right,→,0.5792666999623179,True,36,1
162K27S1,330,experiment,50,←,no_key,no_letter,-1.0,False,36,1
162K27S1,331,experiment,106,↓,down,↓,0.6726411000126973,True,36,1
162K27S1,332,experiment,94,←,left,←,0.3594353999942541,True,36,1
162K27S1,333,experiment,82,↑,up,↑,0.5638002000050619,True,36,0
162K27S1,334,experiment,53,→,right,→,0.5871169000165537,True,36,1
162K27S1,335,experiment,61,↑,up,↑,0.7031712000025436,True,36,1
162K27S1,336,experiment,79,↑,up,↑,0.6725623999955133,True,36,1
162K27S1,337,experiment,57,↓,down,↓,0.5703101000399329,True,36,1
162K27S1,338,experiment,49,→,right,→,0.539165900030639,True,36,1
162K27S1,339,experiment,59,↓,down,↓,0.47351500001968816,True,36,1
162K27S1,340,experiment,104,→,right,→,0.4995962000102736,True,36,0
162K27S1,341,experiment,95,←,left,←,0.42549789999611676,True,36,1
162K27S1,342,experiment,96,↑,no_key,no_letter,-1.0,False,36,0
162K27S1,343,experiment,93,←,left,←,0.38408619997790083,True,36,1
162K27S1,344,experiment,51,→,right,→,0.47935229999711737,True,36,0
162K27S1,345,experiment,73,↑,up,↑,0.4090449000359513,True,36,1
162K27S1,346,experiment,85,←,left,←,0.48572519997833297,True,36,0
162K27S1,347,experiment,58,←,right,→,0.47956469998462126,False,36,1
162K27S1,348,experiment,98,↓,no_key,no_letter,-1.0,False,36,1
162K27S1,349,experiment,91,←,right,→,0.55726189998677,False,36,1
162K27S1,350,experiment,54,←,no_key,no_letter,-1.0,False,36,1
162K27S1,351,experiment,62,↓,no_key,no_letter,-1.0,False,36,1
162K27S1,352,experiment,55,↑,up,↑,0.38406579999718815,True,36,1
162K27S1,353,experiment,65,↓,down,↓,0.47460549999959767,True,36,0
162K27S1,354,experiment,103,↓,right,→,0.5722077999962494,False,36,1
162K27S1,355,experiment,86,↓,down,↓,0.616284399991855,True,36,1
162K27S1,356,training,66,↑,up,↑,0.5770119999651797,True,36,0
162K27S1,357,training,97,↑,up,↑,0.3340302999713458,True,36,1
162K27S1,358,experiment,81,↓,up,↑,0.4724162999773398,False,36,0
162K27S1,359,experiment,61,↑,up,↑,0.4812380999792367,True,36,0
162K27S1,360,experiment,106,↑,up,↑,0.37569379998603836,True,36,1
162K27S1,361,experiment,69,←,right,→,0.3925539000192657,False,36,0
162K27S1,362,experiment,100,↑,up,↑,0.4899073999840766,True,36,0
162K27S1,363,experiment,82,→,no_key,no_letter,-1.0,False,36,1
162K27S1,364,experiment,48,↑,up,↑,0.5874506999971345,True,36,1
162K27S1,365,experiment,89,→,right,→,0.6861498999642208,True,36,1
162K27S1,366,experiment,68,↓,no_key,no_letter,-1.0,False,36,1
162K27S1,367,experiment,104,↓,down,↓,0.5459540000301786,True,36,1
162K27S1,368,experiment,75,←,left,←,0.384038399963174,True,36,1
162K27S1,369,experiment,98,←,left,←,0.5700198999838904,True,36,0
162K27S1,370,experiment,91,←,left,←,0.5168051999644376,True,36,1
162K27S1,371,experiment,56,↑,up,↑,0.7574774000095204,True,36,1
162K27S1,372,experiment,95,↓,no_key,no_letter,-1.0,False,36,1
162K27S1,373,experiment,52,↓,down,↓,0.5585121000185609,True,36,1
162K27S1,374,experiment,88,↓,no_key,no_letter,-1.0,False,36,1
162K27S1,375,experiment,53,↓,no_key,no_letter,-1.0,False,36,1
162K27S1,376,experiment,58,→,right,→,0.5113056999980472,True,36,1
162K27S1,377,experiment,105,↑,up,↑,0.527634099998977,True,36,1
162K27S1,378,experiment,101,←,right,→,0.42505580000579357,False,36,1
162K27S1,379,experiment,103,↑,no_key,no_letter,-1.0,False,36,0
162K27S1,380,experiment,70,→,right,→,0.6303740000003017,True,36,1
162K27S1,381,experiment,77,↑,right,→,0.47553870000410825,False,36,1
162K27S1,382,experiment,80,→,right,→,0.589078499993775,True,36,1
162K27S1,383,experiment,59,↑,up,↑,0.3924267000402324,True,36,1
162K27S1,384,experiment,108,→,right,→,0.5568478999775834,True,36,0
162K27S1,385,experiment,97,↓,down,↓,0.6939422999857925,True,36,1
162K27S1,386,experiment,107,↑,up,↑,0.6142427999875508,True,36,1
162K27S1,387,experiment,50,↓,down,↓,0.4509809000301175,True,36,1
162K27S1,388,experiment,73,↓,no_key,no_letter,-1.0,False,36,0
162K27S1,389,experiment,60,→,right,→,0.5746912999893539,True,36,1
162K27S1,390,experiment,49,↓,down,↓,0.42590209998888895,True,36,1
162K27S1,391,experiment,96,←,left,←,0.6934354000259191,True,36,0
162K27S1,392,experiment,92,↑,up,↑,0.42638189997524023,True,36,1
162K27S1,393,experiment,74,↓,down,↓,0.68069079995621,True,36,0
162K27S1,394,experiment,90,→,left,←,0.4507214000332169,False,36,1
162K27S1,395,experiment,86,↑,up,↑,0.38576149998698384,True,36,0
162K27S1,396,experiment,79,→,right,→,0.4090048000216484,True,36,0
162K27S1,397,experiment,64,↓,down,↓,0.5590960999834351,True,36,0
162K27S1,398,experiment,55,←,left,←,0.5817959999549203,True,36,1
162K27S1,399,experiment,84,←,no_key,no_letter,-1.0,False,36,1
162K27S1,400,experiment,72,→,left,←,0.3840304999612272,False,36,1
162K27S1,401,experiment,51,↑,up,↑,0.49850069999229163,True,36,0
162K27S1,402,experiment,54,←,left,←,0.5241303999791853,True,36,1
162K27S1,403,experiment,63,→,left,←,0.4508864000090398,False,36,1
162K27S1,404,experiment,78,←,left,←,0.5172683999990113,True,36,0
162K27S1,405,experiment,87,←,left,←,0.6833343000034802,True,36,1
162K27S1,406,experiment,62,←,left,←,0.3925603000097908,True,36,1
162K27S1,407,experiment,71,↑,up,↑,0.4424505999777466,True,36,0
162K27S1,408,experiment,66,→,right,→,0.5549302999861538,True,36,0
162K27S1,409,experiment,83,↓,no_key,no_letter,-1.0,False,36,1
162K27S1,410,experiment,94,↑,down,↓,0.6662426000111736,False,36,1
162K27S1,411,experiment,99,↓,down,↓,0.6380907000275329,True,36,1
162K27S1,412,experiment,102,↓,no_key,no_letter,-1.0,False,36,1
162K27S1,413,experiment,65,←,no_key,no_letter,-1.0,False,36,1
162K27S1,414,experiment,57,↑,up,↑,0.6196117000072263,True,36,1
162K27S1,415,experiment,67,→,right,→,0.40902289998484775,True,36,1
162K27S1,416,experiment,76,→,right,→,0.6823031000094488,True,36,0
162K27S1,417,experiment,93,→,right,→,0.5914565999992192,True,36,1
162K27S1,418,experiment,85,←,left,←,0.6594049999839626,True,36,1
162K27S1,419,training,89,↑,up,↑,0.603659600019455,True,36,0
162K27S1,420,training,73,→,no_key,no_letter,-1.0,False,36,1
162K27S1,421,experiment,93,←,left,←,0.36717879999196157,True,36,1
162K27S1,422,experiment,82,←,left,←,0.6742845999542624,True,36,0
162K27S1,423,experiment,73,↓,down,↓,0.4425907999975607,True,36,1
162K27S1,424,experiment,74,↓,down,↓,0.5877577999490313,True,36,0
162K27S1,425,experiment,88,→,right,→,0.5425258000032045,True,36,1
162K27S1,426,experiment,78,↓,down,↓,0.5985453000175767,True,36,1
162K27S1,427,experiment,61,↓,down,↓,0.4823685000301339,True,36,1
162K27S1,428,experiment,100,←,left,←,0.4507665000273846,True,36,1
162K27S1,429,experiment,76,↓,down,↓,0.4970647000009194,True,36,0
162K27S1,430,experiment,70,↑,down,↓,0.4341390000190586,False,36,1
162K27S1,431,experiment,96,↑,up,↑,0.6916791000403464,True,36,0
162K27S1,432,experiment,81,←,left,←,0.4009187999763526,True,36,1
162K27S1,433,experiment,102,↓,down,↓,0.5859353000414558,True,36,0
162K27S1,434,experiment,92,←,left,←,0.5638037000317127,True,36,1
162K27S1,435,experiment,57,→,right,→,0.4738612999790348,True,36,1
162K27S1,436,experiment,71,←,left,←,0.3681399999768473,True,36,0
162K27S1,437,experiment,107,→,right,→,0.6996782000060193,True,36,0
162K27S1,438,experiment,68,←,right,→,0.504772000014782,False,36,1
162K27S1,439,experiment,80,↓,no_key,no_letter,-1.0,False,36,1
162K27S1,440,experiment,77,→,no_key,no_letter,-1.0,False,36,1
162K27S1,441,experiment,63,→,no_key,no_letter,-1.0,False,36,1
162K27S1,442,experiment,97,→,right,→,0.6691071999957785,True,36,1
162K27S1,443,experiment,49,↑,no_key,no_letter,-1.0,False,36,1
162K27S1,444,experiment,62,↓,right,→,0.6859968999633566,False,36,1
162K27S1,445,experiment,53,↑,up,↑,0.7373294000281021,True,36,1
162K27S1,446,experiment,105,←,left,←,0.42570129997329786,True,36,1
162K27S1,447,experiment,67,←,left,←,0.3673801999539137,True,36,0
162K27S1,448,experiment,48,←,right,→,0.4889458999969065,False,36,0
162K27S1,449,experiment,66,→,right,→,0.5270699000102468,True,36,1
162K27S1,450,experiment,104,↑,up,↑,0.6551000999752432,True,36,1
162K27S1,451,experiment,90,↓,down,↓,0.5427322000032291,True,36,1
162K27S1,452,experiment,72,↑,up,↑,0.5284961999859661,True,36,1
162K27S1,453,experiment,60,↑,no_key,no_letter,-1.0,False,36,1
162K27S1,454,experiment,59,↑,up,↑,0.5725334999733604,True,36,1
162K27S1,455,experiment,99,↓,down,↓,0.5564523999928497,True,36,1
162K27S1,456,experiment,50,↑,no_key,no_letter,-1.0,False,36,1
162K27S1,457,experiment,79,→,right,→,0.44242050003958866,True,36,1
162K27S1,458,experiment,85,→,right,→,0.5010370999807492,True,36,0
162K27S1,459,experiment,95,←,left,←,0.4181049999897368,True,36,1
162K27S1,460,experiment,101,→,right,→,0.4258055000100285,True,36,0
162K27S1,461,experiment,91,↓,down,↓,1.0540123999817297,True,36,0
162K27S1,462,experiment,98,↑,no_key,no_letter,-1.0,False,36,1
162K27S1,463,experiment,51,↑,up,↑,0.47547310002846643,True,36,1
162K27S1,464,experiment,89,→,right,→,0.4432740999618545,True,36,1
162K27S1,465,experiment,94,←,left,←,0.4506417000084184,True,36,0
162K27S1,466,experiment,103,↓,down,↓,0.609130600001663,True,36,1
162K27S1,467,experiment,55,→,no_key,no_letter,-1.0,False,36,1
162K27S1,468,experiment,83,↓,down,↓,0.4915820999885909,True,36,1
162K27S1,469,experiment,54,↓,down,↓,0.6134696999797598,True,36,1
162K27S1,470,experiment,108,↓,down,↓,0.6327853999682702,True,36,1
162K27S1,471,experiment,52,↑,up,↑,0.7735592999961227,True,36,1
162K27S1,472,experiment,86,↑,no_key,no_letter,-1.0,False,36,1
162K27S1,473,experiment,69,↓,up,↑,0.5954975000349805,False,36,1
162K27S1,474,experiment,65,↓,down,↓,0.47787560004508123,True,36,1
162K27S1,475,experiment,58,←,no_key,no_letter,-1.0,False,36,1
162K27S1,476,experiment,75,←,right,→,0.543400099966675,False,36,1
162K27S1,477,experiment,87,→,right,→,0.5562150999903679,True,36,1
162K27S1,478,experiment,56,→,right,→,0.5474098999984562,True,36,1
162K27S1,479,experiment,64,↑,left,←,0.45091880002291873,False,36,1
162K27S1,480,experiment,106,↓,no_key,no_letter,-1.0,False,36,0
162K27S1,481,experiment,84,→,right,→,0.5826043999986723,True,36,1
162K27S1,482,training,85,↓,down,↓,0.76377630000934,True,36,0
162K27S1,483,training,67,→,right,→,0.4790845999959856,True,36,1
162K27S1,484,experiment,100,↑,up,↑,0.4257675999542698,True,36,1
162K27S1,485,experiment,102,↓,down,↓,0.5904676000354812,True,36,0
162K27S1,486,experiment,90,←,left,←,0.4009438999928534,True,36,1
162K27S1,487,experiment,67,↑,up,↑,0.400519999966491,True,36,0
162K27S1,488,experiment,81,↓,down,↓,0.5337030999944545,True,36,0
162K27S1,489,experiment,60,↓,down,↓,0.49169870000332594,True,36,1
162K27S1,490,experiment,89,→,left,←,0.4172658000024967,False,36,1
162K27S1,491,experiment,92,↓,no_key,no_letter,-1.0,False,36,0
162K27S1,492,experiment,98,↓,down,↓,0.4434849999961443,True,36,1
162K27S1,493,experiment,93,↑,up,↑,0.7048532000044361,True,36,0
162K27S1,494,experiment,76,→,right,→,0.5148747999919578,True,36,1
162K27S1,495,experiment,57,→,right,→,0.5229638000018895,True,36,1
162K27S1,496,experiment,74,↓,down,↓,0.5090431999997236,True,36,1
162K27S1,497,experiment,95,↑,up,↑,0.4814052999718115,True,36,1
162K27S1,498,experiment,72,↑,up,↑,0.49327530001755804,True,36,1
162K27S1,499,experiment,88,↑,up,↑,0.4257083999691531,True,36,1
162K27S1,500,experiment,54,→,no_key,no_letter,-1.0,False,36,0
162K27S1,501,experiment,79,↓,down,↓,0.8628440999891609,True,36,1
162K27S1,502,experiment,53,←,no_key,no_letter,-1.0,False,36,1
162K27S1,503,experiment,99,↓,down,↓,0.5140243000350893,True,36,1
162K27S1,504,experiment,48,→,right,→,0.47771199996350333,True,36,1
162K27S1,505,experiment,59,↑,up,↑,0.4340279999887571,True,36,1
162K27S1,506,experiment,85,←,left,←,0.42543669999577105,True,36,0
162K27S1,507,experiment,50,→,right,→,0.47783210000488907,True,36,0
162K27S1,508,experiment,65,→,no_key,no_letter,-1.0,False,36,1
162K27S1,509,experiment,77,←,right,→,0.46854289999464527,False,36,1
162K27S1,510,experiment,108,←,right,→,0.5005429000011645,False,36,0
162K27S1,511,experiment,104,←,left,←,0.5015056999982335,True,36,1
162K27S1,512,experiment,56,←,left,←,0.726539800001774,True,36,1
162K27S1,513,experiment,64,→,right,→,0.42601150000700727,True,36,1
162K27S1,514,experiment,91,↓,no_key,no_letter,-1.0,False,36,0
162K27S1,515,experiment,96,↑,up,↑,0.7009811999741942,True,36,1
162K27S1,516,experiment,103,←,left,←,0.4710436000023037,True,36,1
162K27S1,517,experiment,97,→,right,→,0.48304990003816783,True,36,1
162K27S1,518,experiment,86,←,right,→,0.570300200022757,False,36,1
162K27S1,519,experiment,82,→,right,→,0.4882576000527479,True,36,1
162K27S1,520,experiment,107,↑,up,↑,0.8166774999699555,True,36,1
162K27S1,521,experiment,105,↓,down,↓,0.43415629997616634,True,36,1
162K27S1,522,experiment,83,→,right,→,0.5029043999966234,True,36,0
162K27S1,523,experiment,71,→,right,→,0.42503390001365915,True,36,1
162K27S1,524,experiment,52,←,right,→,0.720054599980358,False,36,0
162K27S1,525,experiment,58,←,left,←,0.7519403999904171,True,36,1
162K27S1,526,experiment,49,←,left,←,0.5773134999908507,True,36,1
162K27S1,527,experiment,84,↓,no_key,no_letter,-1.0,False,36,1
162K27S1,528,experiment,75,←,left,←,0.44281919999048114,True,36,1
162K27S1,529,experiment,62,→,right,→,0.51896499999566,True,36,0
162K27S1,530,experiment,51,→,left,←,0.7052211999543943,False,36,1
162K27S1,531,experiment,63,←,left,←,0.3764613000093959,True,36,1
162K27S1,532,experiment,80,→,no_key,no_letter,-1.0,False,36,0
162K27S1,533,experiment,78,↑,up,↑,1.0837926999665797,True,36,1
162K27S1,534,experiment,106,↑,up,↑,0.7409616999793798,True,36,1
162K27S1,535,experiment,61,↓,down,↓,0.4827363999793306,True,36,1
162K27S1,536,experiment,66,→,right,→,0.6248436999740079,True,36,1
162K27S1,537,experiment,55,→,right,→,0.4777375999838114,True,36,1
162K27S1,538,experiment,70,↓,up,↑,0.5462835999787785,False,36,1
162K27S1,539,experiment,69,↑,up,↑,0.6610283000045456,True,36,1
162K27S1,540,experiment,87,↓,down,↓,0.3670614999718964,True,36,1
162K27S1,541,experiment,101,↑,up,↑,0.7484489000053145,True,36,0
162K27S1,542,experiment,68,→,no_key,no_letter,-1.0,False,36,1
162K27S1,543,experiment,73,→,right,→,0.44209359999513254,True,36,1
162K27S1,544,experiment,94,←,no_key,no_letter,-1.0,False,36,0
162K27S1,545,training,102,←,no_key,no_letter,-1.0,False,36,0
162K27S1,546,training,83,←,left,←,0.44224070000927895,True,36,1
162K27S1,547,experiment,71,→,right,→,0.6055748999933712,True,36,0
162K27S1,548,experiment,87,↑,right,→,0.5119603999773972,False,36,1
162K27S1,549,experiment,58,→,right,→,0.48070109996479005,True,36,1
162K27S1,550,experiment,89,↓,left,←,0.45042409998131916,False,36,1
162K27S1,551,experiment,95,↓,down,↓,0.5164933999767527,True,36,0
162K27S1,552,experiment,75,↑,up,↑,0.41737199999624863,True,36,1
162K27S1,553,experiment,65,←,left,←,0.44216619996586815,True,36,0
162K27S1,554,experiment,49,→,right,→,0.7331059999996796,True,36,0
162K27S1,555,experiment,94,→,right,→,0.5042646000511013,True,36,1
162K27S1,556,experiment,56,↑,left,←,0.40974029997596517,False,36,1
162K27S1,557,experiment,59,←,left,←,0.5481025999761187,True,36,0
162K27S1,558,experiment,68,←,left,←,0.6791230000089854,True,36,1
162K27S1,559,experiment,67,↑,up,↑,0.6055329000228085,True,36,1
162K27S1,560,experiment,62,←,left,←,0.3840812999987975,True,36,1
162K27S1,561,experiment,106,↑,up,↑,0.4852196000283584,True,36,0
162K27S1,562,experiment,74,↑,up,↑,0.4176085999934003,True,36,1
162K27S1,563,experiment,57,→,right,→,0.4927382000023499,True,36,0
162K27S1,564,experiment,78,←,right,→,1.1107002000208013,False,36,1
162K27S1,565,experiment,64,←,left,←,0.6527786999940872,True,36,1
162K27S1,566,experiment,101,↑,up,↑,0.5286350999958813,True,36,1
162K27S1,567,experiment,53,→,right,→,0.6417879000073299,True,36,1
162K27S1,568,experiment,102,←,no_key,no_letter,-1.0,False,36,1
162K27S1,569,experiment,60,←,left,←,0.4171492999885231,True,36,1
162K27S1,570,experiment,108,↑,up,↑,0.3916886000079103,True,36,0
162K27S1,571,experiment,97,→,right,→,0.5088132999953814,True,36,0
162K27S1,572,experiment,54,→,right,→,0.5741947999922559,True,36,1
162K27S1,573,experiment,80,↑,up,↑,0.42506720003439113,True,36,1
162K27S1,574,experiment,82,→,right,→,0.5835192000376992,True,36,0
162K27S1,575,experiment,69,↑,up,↑,0.41755300003569573,True,36,1
162K27S1,576,experiment,93,↓,down,↓,0.4340271999826655,True,36,0
162K27S1,577,experiment,55,↓,left,←,0.37574380001751706,False,36,0
162K27S1,578,experiment,63,↓,no_key,no_letter,-1.0,False,36,0
162K27S1,579,experiment,92,→,right,→,0.4740806000190787,True,36,1
162K27S1,580,experiment,79,↑,up,↑,0.3339249999844469,True,36,0
162K27S1,581,experiment,73,↓,down,↓,0.670107799989637,True,36,0
162K27S1,582,experiment,72,←,left,←,0.6910732999676839,True,36,1
162K27S1,583,experiment,48,↓,down,↓,0.5353927000542171,True,36,1
162K27S1,584,experiment,81,↓,down,↓,0.6545831999974325,True,36,1
162K27S1,585,experiment,52,←,left,←,0.7066501000081189,True,36,1
162K27S1,586,experiment,100,←,no_key,no_letter,-1.0,False,36,1
162K27S1,587,experiment,88,←,left,←,0.624263699981384,True,36,1
162K27S1,588,experiment,104,↓,down,↓,0.5882681999937631,True,36,1
162K27S1,589,experiment,98,←,left,←,0.739579799992498,True,36,1
162K27S1,590,experiment,66,↑,up,↑,0.4507230999879539,True,36,1
162K27S1,591,experiment,91,↑,up,↑,0.4173202999518253,True,36,0
162K27S1,592,experiment,103,→,right,→,0.4671968000475317,True,36,0
162K27S1,593,experiment,84,←,left,←,0.643764500040561,True,36,0
162K27S1,594,experiment,76,↑,up,↑,0.37569899996742606,True,36,1
162K27S1,595,experiment,61,↓,down,↓,0.46910600003320724,True,36,0
162K27S1,596,experiment,85,↑,up,↑,0.6690422000247054,True,36,0
162K27S1,597,experiment,90,↓,down,↓,0.6521015000180341,True,36,1
162K27S1,598,experiment,86,→,right,→,0.6931430000113323,True,36,1
162K27S1,599,experiment,77,→,right,→,0.5915626000496559,True,36,1
162K27S1,600,experiment,99,→,right,→,0.47908879996975884,True,36,1
162K27S1,601,experiment,107,↑,up,↑,0.38403469999320805,True,36,1
162K27S1,602,experiment,83,↓,up,↑,0.48429410002427176,False,36,0
162K27S1,603,experiment,70,→,right,→,0.47353219997603446,True,36,1
162K27S1,604,experiment,105,←,left,←,0.6504901999724098,True,36,1
162K27S1,605,experiment,96,↓,down,↓,0.6321961000212468,True,36,1
162K27S1,606,experiment,50,→,right,→,0.6298817000351846,True,36,1
162K27S1,607,experiment,51,↓,down,↓,0.44241950003197417,True,36,1
162K27S1,608,training,67,↓,down,↓,0.6020089000230655,True,36,0
162K27S1,609,training,53,↓,down,↓,0.42572200001450256,True,36,1
162K27S1,610,experiment,66,↑,up,↑,0.5762656999868341,True,36,0
162K27S1,611,experiment,87,↓,down,↓,0.6919934999896213,True,36,1
162K27S1,612,experiment,71,↑,up,↑,0.3507007000152953,True,36,1
162K27S1,613,experiment,96,↓,down,↓,0.7138730000006035,True,36,0
162K27S1,614,experiment,82,←,left,←,0.40069239999866113,True,36,1
162K27S1,615,experiment,76,↓,down,↓,0.48020270001143217,True,36,0
162K27S1,616,experiment,51,←,left,←,0.6591079999925569,True,36,1
162K27S1,617,experiment,61,←,left,←,0.7161586000001989,True,36,1
162K27S1,618,experiment,70,↑,up,↑,0.5438365999725647,True,36,1
162K27S1,619,experiment,81,→,right,→,0.6070466000237502,True,36,1
162K27S1,620,experiment,64,↑,up,↑,0.6413114999886602,True,36,1
162K27S1,621,experiment,58,↓,down,↓,0.40903849998721853,True,36,1
162K27S1,622,experiment,86,↑,up,↑,0.42571649997262284,True,36,0
162K27S1,623,experiment,72,←,left,←,0.39236080000409856,True,36,0
162K27S1,624,experiment,91,→,right,→,0.5500430000247434,True,36,0
162K27S1,625,experiment,73,↓,no_key,no_letter,-1.0,False,36,1
162K27S1,626,experiment,102,↑,up,↑,0.7584121999680065,True,36,1
162K27S1,627,experiment,94,↑,up,↑,0.3854228000272997,True,36,1
162K27S1,628,experiment,57,↓,down,↓,0.5250208000070415,True,36,0
162K27S1,629,experiment,78,←,left,←,0.40074780001305044,True,36,1
162K27S1,630,experiment,60,→,right,→,0.4424932000110857,True,36,0
162K27S1,631,experiment,88,↑,up,↑,0.6736243000486866,True,36,0
162K27S1,632,experiment,54,↑,up,↑,0.6206462000263855,True,36,1
162K27S1,633,experiment,98,↑,up,↑,0.5147530999965966,True,36,1
162K27S1,634,experiment,80,↓,down,↓,0.491192499990575,True,36,1
162K27S1,635,experiment,99,→,down,↓,0.5421921000233851,False,36,1
162K27S1,636,experiment,56,→,no_key,no_letter,-1.0,False,36,1
162K27S1,637,experiment,67,↓,down,↓,0.4421777999959886,True,36,1
162K27S1,638,experiment,100,↓,no_key,no_letter,-1.0,False,36,0
162K27S1,639,experiment,89,←,left,←,0.44244830001844093,True,36,1
162K27S1,640,experiment,101,←,left,←,0.6358062000363134,True,36,0
162K27S1,641,experiment,52,←,right,→,0.44248199998401105,False,36,1
162K27S1,642,experiment,95,→,right,→,0.5109134999802336,True,36,0
162K27S1,643,experiment,105,←,left,←,0.3840057000052184,True,36,1
162K27S1,644,experiment,69,→,right,→,0.5764107999857515,True,36,0
162K27S1,645,experiment,106,↓,no_key,no_letter,-1.0,False,36,1
162K27S1,646,experiment,63,↑,up,↑,0.5619047000072896,True,36,1
162K27S1,647,experiment,104,←,left,←,0.4176953000132926,True,36,1
162K27S1,648,experiment,79,↓,right,→,0.4501115999883041,False,36,0
162K27S1,649,experiment,77,↑,up,↑,0.4808742000022903,True,36,0
162K27S1,650,experiment,68,→,right,→,0.5344590999884531,True,36,1
162K27S1,651,experiment,93,←,left,←,0.6416548000415787,True,36,1
162K27S1,652,experiment,83,→,right,→,0.5480403999681585,True,36,1
162K27S1,653,experiment,107,←,left,←,0.5142183999996632,True,36,1
162K27S1,654,experiment,103,↑,down,↓,0.6428141999640502,False,36,1
162K27S1,655,experiment,85,←,left,←,0.6285081000532955,True,36,1
162K27S1,656,experiment,48,↓,down,↓,0.7391825999948196,True,36,1
162K27S1,657,experiment,108,→,right,→,0.49742909998167306,True,36,1
162K27S1,658,experiment,90,↓,down,↓,0.6630172000150196,True,36,1
162K27S1,659,experiment,62,↓,down,↓,0.4506764999823645,True,36,1
162K27S1,660,experiment,75,↑,down,↓,1.2521412000060081,False,36,0
162K27S1,661,experiment,50,←,left,←,0.3924245000234805,True,36,1
162K27S1,662,experiment,59,↓,down,↓,0.6772783999913372,True,36,0
162K27S1,663,experiment,65,↓,up,↑,0.47683020000113174,False,36,1
162K27S1,664,experiment,49,←,no_key,no_letter,-1.0,False,36,1
162K27S1,665,experiment,97,→,left,←,0.489076700003352,False,36,1
162K27S1,666,experiment,55,↓,down,↓,0.7466386000160128,True,36,1
162K27S1,667,experiment,53,↓,left,←,0.3506694000097923,False,36,1
162K27S1,668,experiment,84,↓,down,↓,0.45040770003106445,True,36,0
162K27S1,669,experiment,74,←,left,←,0.4344192999997176,True,36,0
162K27S1,670,experiment,92,↑,up,↑,0.4766374999890104,True,36,0
162K27S1,671,training,102,←,left,←,0.6003460999927483,True,36,0
162K27S1,672,training,78,←,left,←,0.3920106999576092,True,36,1
162K27S1,673,experiment,90,↓,down,↓,0.5759505999740213,True,36,0
162K27S1,674,experiment,53,↑,up,↑,0.6708996000234038,True,36,1
162K27S1,675,experiment,51,↓,no_key,no_letter,-1.0,False,36,1
162K27S1,676,experiment,61,↑,up,↑,0.3840772000257857,True,36,1
162K27S1,677,experiment,75,↑,up,↑,0.4342426999937743,True,36,0
162K27S1,678,experiment,71,←,left,←,0.3674149000435136,True,36,0
162K27S1,679,experiment,79,→,no_key,no_letter,-1.0,False,36,0
162K27S1,680,experiment,82,↑,up,↑,0.4174881000071764,True,36,1
162K27S1,681,experiment,49,↓,no_key,no_letter,-1.0,False,36,0
162K27S1,682,experiment,69,↑,up,↑,0.40037450002273545,True,36,1
162K27S1,683,experiment,63,↓,up,↑,0.6354996999725699,False,36,0
162K27S1,684,experiment,94,↓,down,↓,0.5704017999814823,True,36,1
162K27S1,685,experiment,70,←,left,←,0.43411050003487617,True,36,1
162K27S1,686,experiment,98,↑,no_key,no_letter,-1.0,False,36,0
162K27S1,687,experiment,68,→,no_key,no_letter,-1.0,False,36,1
162K27S1,688,experiment,93,↓,down,↓,0.43407710001338273,True,36,1
162K27S1,689,experiment,64,←,left,←,0.6866768999607302,True,36,0
162K27S1,690,experiment,97,→,right,→,0.5786254000267945,True,36,1
162K27S1,691,experiment,78,←,no_key,no_letter,-1.0,False,36,1
162K27S1,692,experiment,83,←,left,←,0.3675978999817744,True,36,1
162K27S1,693,experiment,102,→,right,→,0.5089557999745011,True,36,0
162K27S1,694,experiment,62,→,right,→,0.6197971999645233,True,36,1
162K27S1,695,experiment,107,↑,up,↑,0.5431270999833941,True,36,1
162K27S1,696,experiment,99,→,right,→,0.49609050003346056,True,36,1
162K27S1,697,experiment,100,↑,up,↑,0.4250250000040978,True,36,1
162K27S1,698,experiment,104,↑,up,↑,0.470807799953036,True,36,0
162K27S1,699,experiment,57,→,no_key,no_letter,-1.0,False,36,1
162K27S1,700,experiment,88,↑,up,↑,0.5156433999654837,True,36,1
162K27S1,701,experiment,89,↓,down,↓,0.6891616000211798,True,36,1
162K27S1,702,experiment,101,↓,down,↓,0.7633280999725685,True,36,1
162K27S1,703,experiment,96,←,left,←,0.58855179999955,True,36,1
162K27S1,704,experiment,60,↑,up,↑,0.5926018999889493,True,36,1
162K27S1,705,experiment,58,↑,up,↑,0.4776035000104457,True,36,1
162K27S1,706,experiment,84,←,left,←,0.3754326000344008,True,36,1
162K27S1,707,experiment,80,←,left,←,0.4259602999663912,True,36,0
162K27S1,708,experiment,86,↓,down,↓,0.42569890001323074,True,36,0
162K27S1,709,experiment,92,→,right,→,0.4508590000332333,True,36,0
162K27S1,710,experiment,52,←,right,→,0.5048535999958403,False,36,0
162K27S1,711,experiment,87,↑,up,↑,0.44279400003142655,True,36,1
162K27S1,712,experiment,91,→,no_key,no_letter,-1.0,False,36,0
162K27S1,713,experiment,73,↑,up,↑,0.4170966999954544,True,36,1
162K27S1,714,experiment,72,↑,right,→,0.5260065000038594,False,36,0
162K27S1,715,experiment,50,↓,down,↓,0.5281258999602869,True,36,1
162K27S1,716,experiment,85,←,right,→,0.4792977999895811,False,36,1
162K27S1,717,experiment,54,←,left,←,0.37596460001077503,True,36,1
162K27S1,718,experiment,67,→,right,→,0.4506000999826938,True,36,0
162K27S1,719,experiment,76,↓,down,↓,0.38446580001618713,True,36,0
162K27S1,720,experiment,108,↑,up,↑,0.38379420002456754,True,36,0
162K27S1,721,experiment,95,←,left,←,0.43404450005618855,True,36,0
162K27S1,722,experiment,55,→,right,→,0.82334639999317,True,36,0
162K27S1,723,experiment,48,↓,down,↓,0.49423799995565787,True,36,1
162K27S1,724,experiment,74,↑,up,↑,0.6010939999832772,True,36,1
162K27S1,725,experiment,103,→,left,←,0.5184386000037193,False,36,1
162K27S1,726,experiment,77,↑,up,↑,0.5838789999834262,True,36,1
162K27S1,727,experiment,106,←,left,←,0.43402980000246316,True,36,1
162K27S1,728,experiment,105,→,right,→,0.37575619999552146,True,36,0
162K27S1,729,experiment,81,↑,up,↑,0.6535043999901973,True,36,0
162K27S1,730,experiment,65,↓,no_key,no_letter,-1.0,False,36,1
162K27S1,731,experiment,59,←,no_key,no_letter,-1.0,False,36,1
162K27S1,732,experiment,66,↑,up,↑,0.5817934999940917,True,36,1
162K27S1,733,experiment,56,↑,up,↑,0.5559956000070088,True,36,1
162K27S1,734,training,50,↑,up,↑,0.6164294999907725,True,36,0
162K27S1,735,training,98,→,right,→,0.542966700042598,True,36,1
162K27S1,736,experiment,68,↑,up,↑,0.40246620000107214,True,36,1
162K27S1,737,experiment,77,←,no_key,no_letter,-1.0,False,36,0
162K27S1,738,experiment,96,↑,up,↑,0.6005655000335537,True,36,1
162K27S1,739,experiment,87,←,left,←,0.39240690000588074,True,36,1
162K27S1,740,experiment,56,←,no_key,no_letter,-1.0,False,36,0
162K27S1,741,experiment,86,→,right,→,0.5085304999956861,True,36,1
162K27S1,742,experiment,54,↑,up,↑,0.4340395999606699,True,36,1
162K27S1,743,experiment,84,→,right,→,0.5761084999539889,True,36,0
162K27S1,744,experiment,60,↑,up,↑,0.36770000000251457,True,36,1
162K27S1,745,experiment,52,←,left,←,0.7242302999948151,True,36,0
162K27S1,746,experiment,82,↓,down,↓,0.4682132000452839,True,36,1
162K27S1,747,experiment,94,→,right,→,0.3756190999993123,True,36,0
162K27S1,748,experiment,101,↑,up,↑,0.5118940999964252,True,36,0
162K27S1,749,experiment,59,←,left,←,0.4248850999865681,True,36,1
162K27S1,750,experiment,93,←,left,←,0.45070129999658093,True,36,0
162K27S1,751,experiment,58,←,left,←,0.4015987000311725,True,36,0
162K27S1,752,experiment,90,↓,down,↓,0.6820622999803163,True,36,0
162K27S1,753,experiment,97,←,left,←,0.3341746999649331,True,36,1
162K27S1,754,experiment,55,←,left,←,0.40927689999807626,True,36,0
162K27S1,755,experiment,103,↓,right,→,0.8986201999941841,False,36,0
162K27S1,756,experiment,95,←,left,←,0.3673611999838613,True,36,1
162K27S1,757,experiment,92,↓,right,→,0.5367111000232399,False,36,0
162K27S1,758,experiment,91,↓,no_key,no_letter,-1.0,False,36,1
162K27S1,759,experiment,80,↑,up,↑,0.42575769999530166,True,36,1
162K27S1,760,experiment,81,←,right,→,0.5104167999816127,False,36,0
162K27S1,761,experiment,69,→,right,→,0.5227083000354469,True,36,1
162K27S1,762,experiment,57,↓,down,↓,0.5144874000106938,True,36,1
162K27S1,763,experiment,104,←,left,←,0.5631882000016049,True,36,1
162K27S1,764,experiment,88,↓,down,↓,0.6945403999998234,True,36,1
162K27S1,765,experiment,85,→,right,→,0.7264854999957606,True,36,1
162K27S1,766,experiment,102,↑,up,↑,0.6232331999926828,True,36,1
162K27S1,767,experiment,67,→,right,→,0.6393419000087306,True,36,1
162K27S1,768,experiment,66,→,right,→,0.4508231999934651,True,36,1
162K27S1,769,experiment,74,←,left,←,0.6681913000065833,True,36,0
162K27S1,770,experiment,53,↑,up,↑,0.4337684999918565,True,36,1
162K27S1,771,experiment,106,←,left,←,1.034354000003077,True,36,0
162K27S1,772,experiment,50,→,right,→,0.5120450999820605,True,36,1
162K27S1,773,experiment,73,↑,up,↑,0.4090612000436522,True,36,1
162K27S1,774,experiment,63,↓,down,↓,0.8691752000013366,True,36,0
162K27S1,775,experiment,64,←,left,←,0.39240500004962087,True,36,1
162K27S1,776,experiment,51,↑,up,↑,0.7877562999492511,True,36,0
162K27S1,777,experiment,71,←,left,←,0.4091362999752164,True,36,1
162K27S1,778,experiment,83,↓,up,↑,1.031452699971851,False,36,0
162K27S1,779,experiment,79,↑,no_key,no_letter,-1.0,False,36,1
162K27S1,780,experiment,75,←,right,→,0.5153533000266179,False,36,1
162K27S1,781,experiment,105,←,left,←,0.32606849999865517,True,36,1
162K27S1,782,experiment,72,↑,up,↑,0.469803599989973,True,36,0
162K27S1,783,experiment,99,←,left,←,0.49756669998168945,True,36,0
162K27S1,784,experiment,76,→,no_key,no_letter,-1.0,False,36,1
162K27S1,785,experiment,78,↑,up,↑,0.6588271000073291,True,36,1
162K27S1,786,experiment,65,←,left,←,0.45008630002848804,True,36,1
162K27S1,787,experiment,62,↓,down,↓,0.4004617999889888,True,36,0
162K27S1,788,experiment,89,↑,up,↑,0.40069779998157173,True,36,0
162K27S1,789,experiment,107,←,left,←,0.7047543000080623,True,36,0
162K27S1,790,experiment,49,↓,down,↓,0.45075349998660386,True,36,1
162K27S1,791,experiment,61,←,left,←,0.6049738999572583,True,36,0
162K27S1,792,experiment,100,←,left,←,0.7949449000298046,True,36,1
162K27S1,793,experiment,108,→,left,←,0.41710299998521805,False,36,1
162K27S1,794,experiment,48,↓,no_key,no_letter,-1.0,False,36,0
162K27S1,795,experiment,98,↑,up,↑,0.4173816000111401,True,36,1
162K27S1,796,experiment,70,↑,up,↑,0.7255457999999635,True,36,0
162K27S1,797,training,95,→,left,←,0.5264896000153385,False,36,0
162K27S1,798,training,81,↓,down,↓,0.6863973999861628,True,36,1
162K27S1,799,experiment,78,↑,up,↑,0.6245104999979958,True,36,1
162K27S1,800,experiment,86,→,no_key,no_letter,-1.0,False,36,1
162K27S1,801,experiment,80,↓,down,↓,0.7847537999623455,True,36,1
162K27S1,802,experiment,75,↑,up,↑,0.35902959998929873,True,36,1
162K27S1,803,experiment,66,↑,up,↑,0.4090359999681823,True,36,0
162K27S1,804,experiment,59,↓,down,↓,0.47121799999149516,True,36,0
162K27S1,805,experiment,60,←,right,→,0.5433605000143871,False,36,1
162K27S1,806,experiment,62,←,left,←,0.3097501999582164,True,36,1
162K27S1,807,experiment,97,↑,up,↑,0.7831804000306875,True,36,0
162K27S1,808,experiment,90,←,left,←,0.4251039999653585,True,36,1
162K27S1,809,experiment,48,↑,up,↑,0.6159899999620393,True,36,0
162K27S1,810,experiment,68,↓,down,↓,0.7524447999894619,True,36,1
162K27S1,811,experiment,54,←,left,←,0.6242756000137888,True,36,1
162K27S1,812,experiment,89,↑,up,↑,0.6332437999662943,True,36,1
162K27S1,813,experiment,71,←,left,←,0.5920460000052117,True,36,1
162K27S1,814,experiment,57,→,right,→,0.6131882999907248,True,36,1
162K27S1,815,experiment,58,←,left,←,0.6647948999889195,True,36,1
162K27S1,816,experiment,108,↑,up,↑,0.5620375999715179,True,36,1
162K27S1,817,experiment,79,↓,down,↓,0.43381570000201464,True,36,1
162K27S1,818,experiment,63,←,left,←,0.6179883999866433,True,36,0
162K27S1,819,experiment,55,↑,up,↑,0.3590741000371054,True,36,1
162K27S1,820,experiment,81,→,right,→,0.5968534999992698,True,36,0
162K27S1,821,experiment,84,↓,down,↓,0.41749239998171106,True,36,1
162K27S1,822,experiment,95,←,left,←,0.6315709000336938,True,36,0
162K27S1,823,experiment,103,↑,up,↑,0.555554399965331,True,36,1
162K27S1,824,experiment,92,↑,up,↑,0.37568440003087744,True,36,1
162K27S1,825,experiment,96,↑,up,↑,0.6947788000106812,True,36,0
162K27S1,826,experiment,51,←,left,←,0.426596800039988,True,36,1
162K27S1,827,experiment,69,↑,up,↑,0.552927799988538,True,36,0
162K27S1,828,experiment,98,→,right,→,0.5139307000208646,True,36,1
162K27S1,829,experiment,65,→,no_key,no_letter,-1.0,False,36,1
162K27S1,830,experiment,93,↑,up,↑,0.4424593999865465,True,36,1
162K27S1,831,experiment,107,↑,up,↑,0.5473437999607995,True,36,0
162K27S1,832,experiment,105,→,left,←,0.42645279999123886,False,36,1
162K27S1,833,experiment,70,←,left,←,0.3842810000060126,True,36,0
162K27S1,834,experiment,83,←,left,←,0.3671611999743618,True,36,0
162K27S1,835,experiment,94,↑,up,↑,0.6384926000027917,True,36,0
162K27S1,836,experiment,52,↑,up,↑,0.5557012999779545,True,36,1
162K27S1,837,experiment,77,↓,down,↓,0.6994140000315383,True,36,1
162K27S1,838,experiment,91,←,right,→,0.48073999996995553,False,36,1
162K27S1,839,experiment,101,←,left,←,0.6113373999833129,True,36,1
162K27S1,840,experiment,73,→,right,→,0.6345414000097662,True,36,1
162K27S1,841,experiment,106,↑,up,↑,0.6215289000538178,True,36,1
162K27S1,842,experiment,67,→,right,→,0.5819289000355639,True,36,1
162K27S1,843,experiment,74,←,left,←,0.3268578000133857,True,36,1
162K27S1,844,experiment,85,↑,up,↑,0.4679819999728352,True,36,0
162K27S1,845,experiment,88,→,right,→,0.6268291000160389,True,36,0
162K27S1,846,experiment,64,↑,up,↑,0.5802963000023738,True,36,1
162K27S1,847,experiment,102,↓,down,↓,0.6025600000284612,True,36,1
162K27S1,848,experiment,76,↑,up,↑,0.6011794999940321,True,36,1
162K27S1,849,experiment,82,↑,up,↑,0.5735017000115477,True,36,1
162K27S1,850,experiment,99,→,right,→,0.5330841000541113,True,36,1
162K27S1,851,experiment,104,↓,down,↓,0.6288611000054516,True,36,1
162K27S1,852,experiment,87,↓,down,↓,0.47108400001889095,True,36,1
162K27S1,853,experiment,72,←,left,←,0.8191194999963045,True,36,0
162K27S1,854,experiment,56,↓,no_key,no_letter,-1.0,False,36,1
162K27S1,855,experiment,49,→,right,→,0.5842729000141844,True,36,1
162K27S1,856,experiment,100,↓,down,↓,0.5272502999869175,True,36,1
162K27S1,857,experiment,53,→,right,→,0.6483289999887347,True,36,1
162K27S1,858,experiment,50,↑,up,↑,0.5814149999641813,True,36,1
162K27S1,859,experiment,61,↑,up,↑,0.4740606000414118,True,36,1
162K27S1,860,training,94,←,left,←,0.42569469998124987,True,35,0
162K27S1,861,training,97,↓,right,→,0.5040363000007346,False,35,0
162K27S1,862,experiment,81,→,right,→,0.5364880999550223,True,35,1
162K27S1,863,experiment,83,→,right,→,0.5271982999984175,True,35,1
162K27S1,864,experiment,60,←,left,←,0.3831163000431843,True,35,1
162K27S1,865,experiment,95,↑,up,↑,0.5584901999682188,True,35,0
162K27S1,866,experiment,78,←,left,←,0.4006430999725126,True,35,1
162K27S1,867,experiment,101,←,no_key,no_letter,-1.0,False,35,0
162K27S1,868,experiment,49,↑,up,↑,0.5484381000278518,True,35,1
162K27S1,869,experiment,54,↓,down,↓,0.6123851999873295,True,35,1
162K27S1,870,experiment,64,↓,down,↓,0.5102139999507926,True,35,1
162K27S1,871,experiment,94,↓,down,↓,0.458566699991934,True,35,1
162K27S1,872,experiment,48,↑,down,↓,0.4423518000403419,False,35,0
162K27S1,873,experiment,97,→,right,→,0.7409058999619447,True,35,0
162K27S1,874,experiment,99,←,no_key,no_letter,-1.0,False,35,1
162K27S1,875,experiment,96,↓,down,↓,0.5030318999779411,True,35,1
162K27S1,876,experiment,104,←,left,←,0.39222480001626536,True,35,1
162K27S1,877,experiment,71,↓,down,↓,0.43372359999921173,True,35,0
162K27S1,878,experiment,77,↓,down,↓,0.3671069999691099,True,35,0
162K27S1,879,experiment,85,←,left,←,0.38409330003196374,True,35,0
162K27S1,880,experiment,89,←,no_key,no_letter,-1.0,False,35,0
162K27S1,881,experiment,80,↑,up,↑,0.4895598000148311,True,35,1
162K27S1,882,experiment,52,←,left,←,0.39232159999664873,True,35,1
162K27S1,883,experiment,50,↓,down,↓,0.48374039999907836,True,35,0
162K27S1,884,experiment,105,↑,up,↑,1.0448003999772482,True,35,1
162K27S1,885,experiment,91,↓,down,↓,0.6367017999873497,True,35,1
162K27S1,886,experiment,59,←,left,←,0.4793941000243649,True,35,1
162K27S1,887,experiment,68,←,no_key,no_letter,-1.0,False,35,1
162K27S1,888,experiment,73,↓,down,↓,0.4624214000068605,True,35,1
162K27S1,889,experiment,63,←,left,←,0.35012950003147125,True,35,0
162K27S1,890,experiment,88,→,right,→,0.4667182000121102,True,35,0
162K27S1,891,experiment,100,←,left,←,0.3343851999961771,True,35,1
162K27S1,892,experiment,51,→,right,→,0.4173062000190839,True,35,0
162K27S1,893,experiment,87,↓,down,↓,0.4258282000082545,True,35,0
162K27S1,894,experiment,98,↓,down,↓,0.6542000999907032,True,35,0
162K27S1,895,experiment,55,←,left,←,0.37571110000135377,True,35,1
162K27S1,896,experiment,82,↑,up,↑,0.6542498999624513,True,35,0
162K27S1,897,experiment,65,→,right,→,0.40077030000975356,True,35,1
162K27S1,898,experiment,56,←,left,←,0.5627177999704145,True,35,0
162K27S1,899,experiment,93,→,right,→,0.7491203000536188,True,35,1
162K27S1,900,experiment,69,←,left,←,0.6395063000381924,True,35,1
162K27S1,901,experiment,57,↑,up,↑,1.1464981000171974,True,35,1
162K27S1,902,experiment,75,→,right,→,0.491135900025256,True,35,1
162K27S1,903,experiment,66,→,left,←,0.8411683000158519,False,35,1
162K27S1,904,experiment,79,↑,up,↑,0.532934499962721,True,35,1
162K27S1,905,experiment,107,↑,up,↑,0.5637261000229046,True,35,1
162K27S1,906,experiment,62,↑,up,↑,0.680212399980519,True,35,1
162K27S1,907,experiment,103,↑,no_key,no_letter,-1.0,False,35,1
162K27S1,908,experiment,74,↓,no_key,no_letter,-1.0,False,35,1
162K27S1,909,experiment,84,←,left,←,0.40098649996798486,True,35,1
162K27S1,910,experiment,72,↑,up,↑,0.40951299999142066,True,35,0
162K27S1,911,experiment,53,←,right,→,0.4851658000261523,False,35,0
162K27S1,912,experiment,67,←,left,←,0.6190015999600291,True,35,1
162K27S1,913,experiment,90,↓,up,↑,0.5160539000062272,False,35,1
162K27S1,914,experiment,102,←,left,←,0.6055230000056326,True,35,1
162K27S1,915,experiment,70,↓,down,↓,0.46971460001077503,True,35,1
162K27S1,916,experiment,106,↓,down,↓,0.6865725999814458,True,35,1
162K27S1,917,experiment,76,↓,down,↓,0.5535677999723703,True,35,1
162K27S1,918,experiment,61,→,right,→,0.5352850999915972,True,35,1
162K27S1,919,experiment,92,↑,up,↑,0.4423873999621719,True,35,1
162K27S1,920,experiment,108,↑,up,↑,0.5644941999926232,True,35,0
162K27S1,921,experiment,86,→,right,→,0.5050016000168398,True,35,1
162K27S1,922,experiment,58,↓,down,↓,0.6889531000051647,True,35,1
162K27S1,923,training,60,→,right,→,0.4619803000241518,True,35,0
162K27S1,924,training,104,→,right,→,0.4723140000132844,True,35,0
162K27S1,925,experiment,66,↓,no_key,no_letter,-1.0,False,35,1
162K27S1,926,experiment,93,↓,left,←,0.3926657999982126,False,35,1
162K27S1,927,experiment,74,↑,no_key,no_letter,-1.0,False,35,0
162K27S1,928,experiment,81,→,right,→,0.41636759997345507,True,35,1
162K27S1,929,experiment,107,↑,up,↑,0.35901220003142953,True,35,0
162K27S1,930,experiment,71,↑,no_key,no_letter,-1.0,False,35,0
162K27S1,931,experiment,88,↑,no_key,no_letter,-1.0,False,35,1
162K27S1,932,experiment,76,←,left,←,0.442387199960649,True,35,1
162K27S1,933,experiment,84,↑,up,↑,0.416670200007502,True,35,0
162K27S1,934,experiment,100,→,right,→,0.5093433999572881,True,35,0
162K27S1,935,experiment,103,↓,down,↓,0.6226704000146128,True,35,1
162K27S1,936,experiment,70,↑,down,↓,0.5499151999829337,False,35,1
162K27S1,937,experiment,106,→,right,→,0.5882082000025548,True,35,1
162K27S1,938,experiment,56,←,left,←,0.38412560004508123,True,35,1
162K27S1,939,experiment,97,→,right,→,0.46589079999830574,True,35,0
162K27S1,940,experiment,102,↑,up,↑,0.6603810000233352,True,35,1
162K27S1,941,experiment,91,↓,down,↓,0.4424865000182763,True,35,1
162K27S1,942,experiment,79,→,right,→,0.6385495000286028,True,35,0
162K27S1,943,experiment,53,←,no_key,no_letter,-1.0,False,35,1
162K27S1,944,experiment,77,←,left,←,0.40103970002382994,True,35,1
162K27S1,945,experiment,99,←,left,←,0.4969122000038624,True,35,0
162K27S1,946,experiment,73,↓,down,↓,0.4434916000464,True,35,1
162K27S1,947,experiment,60,↑,up,↑,0.4708502999856137,True,35,0
162K27S1,948,experiment,62,←,left,←,0.3340304000303149,True,35,1
162K27S1,949,experiment,50,→,right,→,0.4255204999935813,True,35,0
162K27S1,950,experiment,95,↑,up,↑,0.5503593999892473,True,35,0
162K27S1,951,experiment,108,→,left,←,0.43401240004459396,False,35,1
162K27S1,952,experiment,67,←,left,←,0.3921655000303872,True,35,0
162K27S1,953,experiment,57,←,left,←,0.3851069000083953,True,35,0
162K27S1,954,experiment,68,↓,down,↓,0.6021360000013374,True,35,0
162K27S1,955,experiment,69,↑,up,↑,0.43410280003445223,True,35,1
162K27S1,956,experiment,58,↓,down,↓,0.3922811999800615,True,35,0
162K27S1,957,experiment,104,↓,down,↓,0.43441069999244064,True,35,0
162K27S1,958,experiment,90,↑,up,↑,0.40136370004620403,True,35,0
162K27S1,959,experiment,48,↓,down,↓,0.6821059000212699,True,35,0
162K27S1,960,experiment,98,→,right,→,0.589783700008411,True,35,1
162K27S1,961,experiment,55,←,right,→,0.49975260003702715,False,35,1
162K27S1,962,experiment,78,←,left,←,0.50923539994983,True,35,1
162K27S1,963,experiment,83,→,right,→,0.6290180999785662,True,35,1
162K27S1,964,experiment,75,↑,up,↑,0.4672780000255443,True,35,1
162K27S1,965,experiment,86,↓,down,↓,0.3840353999985382,True,35,1
162K27S1,966,experiment,59,←,left,←,0.6554820999735966,True,35,0
162K27S1,967,experiment,101,←,left,←,0.650966499990318,True,35,1
162K27S1,968,experiment,63,↑,up,↑,0.5876723999972455,True,35,1
162K27S1,969,experiment,72,↓,down,↓,0.5878076999797486,True,35,1
162K27S1,970,experiment,65,↑,up,↑,0.5662389000062831,True,35,1
162K27S1,971,experiment,89,↓,down,↓,0.6175474000046961,True,35,1
162K27S1,972,experiment,82,→,right,→,0.621232399949804,True,35,1
162K27S1,973,experiment,85,↑,up,↑,0.5756705999956466,True,35,1
162K27S1,974,experiment,80,↑,up,↑,0.4167017000145279,True,35,1
162K27S1,975,experiment,51,←,left,←,0.49157449998892844,True,35,0
162K27S1,976,experiment,49,↓,down,↓,0.4007759999949485,True,35,1
162K27S1,977,experiment,64,↓,no_key,no_letter,-1.0,False,35,0
162K27S1,978,experiment,87,→,right,→,0.46244859998114407,True,35,1
162K27S1,979,experiment,54,→,right,→,0.7366992000024766,True,35,0
162K27S1,980,experiment,105,←,left,←,0.44208660000003874,True,35,1
162K27S1,981,experiment,52,→,right,→,0.5004247999750078,True,35,0
162K27S1,982,experiment,61,↑,up,↑,0.5879136999719776,True,35,1
162K27S1,983,experiment,96,→,right,→,0.7559241999988444,True,35,1
162K27S1,984,experiment,94,↓,down,↓,0.4257139000110328,True,35,1
162K27S1,985,experiment,92,→,right,→,0.4778414000174962,True,35,0
162K27S1,986,training,107,↑,up,↑,0.6721692000282928,True,35,0
162K27S1,987,training,89,↑,up,↑,0.5351781000499614,True,35,1
162K27S1,988,experiment,52,↑,up,↑,0.44215060002170503,True,35,1
162K27S1,989,experiment,64,←,left,←,0.6327129999990575,True,35,0
162K27S1,990,experiment,79,↑,up,↑,0.4171500999946147,True,35,1
162K27S1,991,experiment,105,↑,up,↑,0.47292560001369566,True,35,0
162K27S1,992,experiment,106,↑,up,↑,0.5137491999776103,True,35,1
162K27S1,993,experiment,103,→,up,↑,0.4421149000409059,False,35,1
162K27S1,994,experiment,53,↓,left,←,0.3924010000191629,False,35,0
162K27S1,995,experiment,83,↓,down,↓,0.6187664000317454,True,35,0
162K27S1,996,experiment,59,↓,down,↓,0.44262779998825863,True,35,1
162K27S1,997,experiment,88,→,right,→,0.638604000036139,True,35,0
162K27S1,998,experiment,62,←,left,←,0.3934851000085473,True,35,1
162K27S1,999,experiment,67,→,right,→,0.4891359999892302,True,35,0
162K27S1,1000,experiment,84,→,right,→,0.5211205999949016,True,35,1
162K27S1,1001,experiment,78,↓,no_key,no_letter,-1.0,False,35,1
162K27S1,1002,experiment,77,↑,up,↑,0.4662190999952145,True,35,1
162K27S1,1003,experiment,76,→,right,→,0.37569519999669865,True,35,1
162K27S1,1004,experiment,81,←,left,←,0.35067940002772957,True,35,0
162K27S1,1005,experiment,66,↓,down,↓,0.43404060002649203,True,35,0
162K27S1,1006,experiment,51,→,right,→,0.3926045999978669,True,35,0
162K27S1,1007,experiment,87,←,left,←,0.470199000032153,True,35,0
162K27S1,1008,experiment,72,↓,down,↓,0.666567100037355,True,35,1
162K27S1,1009,experiment,82,←,left,←,0.48452739999629557,True,35,1
162K27S1,1010,experiment,85,→,right,→,0.48419260000810027,True,35,1
162K27S1,1011,experiment,101,↓,down,↓,0.7507657000096515,True,35,1
162K27S1,1012,experiment,92,↑,up,↑,0.6418135000276379,True,35,1
162K27S1,1013,experiment,50,→,right,→,0.4640680000302382,True,35,1
162K27S1,1014,experiment,74,→,left,←,0.5075930000166409,False,35,0
162K27S1,1015,experiment,61,↓,down,↓,0.417406199965626,True,35,1
162K27S1,1016,experiment,55,←,right,→,0.4791968999779783,False,35,0
162K27S1,1017,experiment,108,↓,down,↓,0.5836774000199512,True,35,1
162K27S1,1018,experiment,60,↑,up,↑,0.4257198999985121,True,35,1
162K27S1,1019,experiment,104,↓,down,↓,0.5116390999755822,True,35,0
162K27S1,1020,experiment,49,→,right,→,0.475140199996531,True,35,1
162K27S1,1021,experiment,68,→,right,→,0.48117520002415404,True,35,1
162K27S1,1022,experiment,48,↑,up,↑,0.41735579998930916,True,35,1
162K27S1,1023,experiment,56,↑,up,↑,0.6577851999900304,True,35,0
162K27S1,1024,experiment,70,↓,down,↓,0.5515764000010677,True,35,1
162K27S1,1025,experiment,90,→,right,→,0.5472370000206865,True,35,1
162K27S1,1026,experiment,97,↑,up,↑,0.4006931000039913,True,35,1
162K27S1,1027,experiment,54,↑,up,↑,0.44158230000175536,True,35,0
162K27S1,1028,experiment,75,↓,down,↓,0.5588090000092052,True,35,0
162K27S1,1029,experiment,98,→,right,→,0.551761299953796,True,35,1
162K27S1,1030,experiment,80,↑,up,↑,0.5666288000065833,True,35,1
162K27S1,1031,experiment,65,←,left,←,0.6339811999932863,True,35,1
162K27S1,1032,experiment,99,↑,up,↑,0.47953620000043884,True,35,1
162K27S1,1033,experiment,58,↑,up,↑,0.4885589000186883,True,35,1
162K27S1,1034,experiment,95,←,left,←,0.4166885000304319,True,35,1
162K27S1,1035,experiment,93,↓,down,↓,0.6445113000227138,True,35,0
162K27S1,1036,experiment,86,↓,down,↓,0.5740884999977425,True,35,1
162K27S1,1037,experiment,89,↓,down,↓,0.577311999979429,True,35,1
162K27S1,1038,experiment,71,←,left,←,0.40902240003924817,True,35,1
162K27S1,1039,experiment,96,↓,down,↓,0.633082700020168,True,35,0
162K27S1,1040,experiment,91,←,left,←,0.6492342000128701,True,35,1
162K27S1,1041,experiment,100,→,right,→,0.4621518000494689,True,35,1
162K27S1,1042,experiment,63,←,left,←,0.4083621999598108,True,35,0
162K27S1,1043,experiment,94,↑,up,↑,0.5413448000326753,True,35,0
162K27S1,1044,experiment,102,↓,no_key,no_letter,-1.0,False,35,1
162K27S1,1045,experiment,69,←,left,←,0.37660780001897365,True,35,1
162K27S1,1046,experiment,107,↓,down,↓,0.5400597999687307,True,35,0
162K27S1,1047,experiment,73,↓,down,↓,0.47028169996337965,True,35,1
162K27S1,1048,experiment,57,←,left,←,0.4342901000054553,True,35,1
162K27S1,1049,training,67,↓,down,↓,0.6480846999911591,True,34,0
162K27S1,1050,training,85,↑,up,↑,0.5853958000079729,True,34,1
162K27S1,1051,experiment,72,←,left,←,0.37577450001845136,True,34,1
162K27S1,1052,experiment,68,→,right,→,0.46018190000904724,True,34,0
162K27S1,1053,experiment,82,↓,down,↓,0.4541626999853179,True,34,1
162K27S1,1054,experiment,94,←,right,→,0.4756712999660522,False,34,1
162K27S1,1055,experiment,103,←,left,←,0.4936853999970481,True,34,1
162K27S1,1056,experiment,92,→,left,←,0.5071457999874838,False,34,1
162K27S1,1057,experiment,87,↓,down,↓,0.4181611000094563,True,34,1
162K27S1,1058,experiment,75,→,right,→,0.4711072000209242,True,34,0
162K27S1,1059,experiment,102,↓,down,↓,0.617614799994044,True,34,1
162K27S1,1060,experiment,107,←,left,←,0.42591360001824796,True,34,1
162K27S1,1061,experiment,62,→,right,→,0.4087444000178948,True,34,0
162K27S1,1062,experiment,57,↑,up,↑,0.3425633999868296,True,34,0
162K27S1,1063,experiment,86,↓,down,↓,0.37569820001954213,True,34,0
162K27S1,1064,experiment,95,→,right,→,0.4333393999841064,True,34,0
162K27S1,1065,experiment,59,↓,down,↓,0.4258220000192523,True,34,0
162K27S1,1066,experiment,63,←,right,→,0.4083843000116758,False,34,0
162K27S1,1067,experiment,69,↓,down,↓,0.45337770000332966,True,34,0
162K27S1,1068,experiment,105,↑,up,↑,0.47919759998330846,True,34,0
162K27S1,1069,experiment,76,↓,down,↓,0.4257008000276983,True,34,1
162K27S1,1070,experiment,83,→,right,→,0.5648874000180513,True,34,0
162K27S1,1071,experiment,70,↓,down,↓,0.5585806000162847,True,34,1
162K27S1,1072,experiment,53,↑,up,↑,0.6944277000147849,True,34,1
162K27S1,1073,experiment,52,↓,down,↓,0.3924313000170514,True,34,1
162K27S1,1074,experiment,73,→,no_key,no_letter,-1.0,False,34,0
162K27S1,1075,experiment,89,↑,up,↑,0.5884916999493726,True,34,1
162K27S1,1076,experiment,49,↑,up,↑,0.5641795999836177,True,34,1
162K27S1,1077,experiment,60,↓,down,↓,0.5932511999853887,True,34,1
162K27S1,1078,experiment,88,↓,left,←,0.41769159998511896,False,34,1
162K27S1,1079,experiment,108,↓,down,↓,0.5750028000329621,True,34,0
162K27S1,1080,experiment,71,↓,down,↓,0.4640413000015542,True,34,1
162K27S1,1081,experiment,64,→,right,→,0.7195706000202335,True,34,1
162K27S1,1082,experiment,101,↓,down,↓,0.4256826000055298,True,34,1
162K27S1,1083,experiment,99,↑,up,↑,0.35158690001117066,True,34,0
162K27S1,1084,experiment,90,→,right,→,0.4344530000234954,True,34,0
162K27S1,1085,experiment,93,←,left,←,0.41008629999123514,True,34,0
162K27S1,1086,experiment,79,↓,down,↓,0.6128008000086993,True,34,0
162K27S1,1087,experiment,106,↑,up,↑,0.5125477999681607,True,34,1
162K27S1,1088,experiment,58,↑,up,↑,0.5205973000265658,True,34,1
162K27S1,1089,experiment,80,→,right,→,0.48106050002388656,True,34,1
162K27S1,1090,experiment,84,↑,up,↑,0.5297077000141144,True,34,1
162K27S1,1091,experiment,104,→,left,←,0.4259496000013314,False,34,1
162K27S1,1092,experiment,91,→,right,→,0.32569490000605583,True,34,0
162K27S1,1093,experiment,65,←,left,←,0.41744559997459874,True,34,0
162K27S1,1094,experiment,98,←,left,←,0.434033100027591,True,34,0
162K27S1,1095,experiment,77,→,right,→,0.5924231999670155,True,34,0
162K27S1,1096,experiment,48,↓,down,↓,0.4255665999953635,True,34,1
162K27S1,1097,experiment,81,←,left,←,0.42511359998025,True,34,0
162K27S1,1098,experiment,61,→,right,→,0.4089841000386514,True,34,0
162K27S1,1099,experiment,56,→,right,→,0.6185628999955952,True,34,0
162K27S1,1100,experiment,55,←,right,→,0.5274653999949805,False,34,1
162K27S1,1101,experiment,66,→,no_key,no_letter,-1.0,False,34,1
162K27S1,1102,experiment,85,↓,down,↓,0.4583527000504546,True,34,1
162K27S1,1103,experiment,78,→,right,→,0.43344860000070184,True,34,1
162K27S1,1104,experiment,74,←,left,←,0.426891400013119,True,34,0
162K27S1,1105,experiment,97,←,left,←,0.6557519999914803,True,34,0
162K27S1,1106,experiment,51,↑,up,↑,0.4085109999869019,True,34,1
162K27S1,1107,experiment,50,↓,down,↓,1.0826377000194043,True,34,0
162K27S1,1108,experiment,54,←,left,←,0.6529967999667861,True,34,1
162K27S1,1109,experiment,67,←,left,←,0.40012140001636,True,34,1
162K27S1,1110,experiment,96,↑,up,↑,0.5640656999894418,True,34,0
162K27S1,1111,experiment,100,↑,up,↑,0.5155810000142083,True,34,1
162K27S1,1112,training,53,→,right,→,0.551054599985946,True,34,0
162K27S1,1113,training,87,←,left,←,0.5637748999870382,True,34,1
162K27S1,1114,experiment,97,↓,down,↓,0.6285164000000805,True,34,1
162K27S1,1115,experiment,51,↓,down,↓,0.6583355999900959,True,34,1
162K27S1,1116,experiment,64,←,left,←,0.3426249999902211,True,34,1
162K27S1,1117,experiment,80,↑,up,↑,0.3840248000342399,True,34,0
162K27S1,1118,experiment,96,↓,down,↓,0.40076250000856817,True,34,0
162K27S1,1119,experiment,56,←,left,←,0.36662689998047426,True,34,0
162K27S1,1120,experiment,90,↑,up,↑,0.561071100004483,True,34,0
162K27S1,1121,experiment,98,←,left,←,0.3761143999872729,True,34,1
162K27S1,1122,experiment,57,↓,up,↑,0.42564329999731854,False,34,0
162K27S1,1123,experiment,106,→,right,→,0.6741905999951996,True,34,0
162K27S1,1124,experiment,99,↑,up,↑,0.5819674000376835,True,34,1
162K27S1,1125,experiment,86,→,no_key,no_letter,-1.0,False,34,1
162K27S1,1126,experiment,89,→,left,←,0.5655409999890253,False,34,1
162K27S1,1127,experiment,105,→,right,→,0.6355537999770604,True,34,1
162K27S1,1128,experiment,61,→,right,→,0.48574639996513724,True,34,1
162K27S1,1129,experiment,102,↑,no_key,no_letter,-1.0,False,34,1
162K27S1,1130,experiment,63,←,left,←,0.4089508000179194,True,34,1
162K27S1,1131,experiment,69,←,left,←,0.342117500025779,True,34,0
162K27S1,1132,experiment,50,←,left,←,0.3756709999870509,True,34,0
162K27S1,1133,experiment,72,→,right,→,0.3754711999790743,True,34,0
162K27S1,1134,experiment,94,↑,up,↑,0.39171200001146644,True,34,0
162K27S1,1135,experiment,92,←,right,→,0.4883122000028379,False,34,0
162K27S1,1136,experiment,58,↑,up,↑,0.39237439999124035,True,34,1
162K27S1,1137,experiment,53,←,left,←,0.3674252000055276,True,34,0
162K27S1,1138,experiment,103,→,left,←,0.4935226999805309,False,34,0
162K27S1,1139,experiment,108,→,right,→,0.4340484000276774,True,34,1
162K27S1,1140,experiment,91,←,left,←,0.4090277000213973,True,34,0
162K27S1,1141,experiment,83,→,right,→,0.392425500031095,True,34,0
162K27S1,1142,experiment,85,↓,no_key,no_letter,-1.0,False,34,0
162K27S1,1143,experiment,82,↑,no_key,no_letter,-1.0,False,34,1
162K27S1,1144,experiment,104,↓,down,↓,0.7611879000323825,True,34,1
162K27S1,1145,experiment,81,↓,down,↓,0.5995773000176996,True,34,1
162K27S1,1146,experiment,93,→,right,→,0.4090271000168286,True,34,1
162K27S1,1147,experiment,107,↓,down,↓,0.6036600000225008,True,34,0
162K27S1,1148,experiment,70,←,left,←,0.35905820003245026,True,34,1
162K27S1,1149,experiment,78,↓,down,↓,0.5633131999638863,True,34,0
162K27S1,1150,experiment,95,↓,down,↓,0.5488767000497319,True,34,1
162K27S1,1151,experiment,55,↑,no_key,no_letter,-1.0,False,34,1
162K27S1,1152,experiment,73,←,left,←,0.4540493999957107,True,34,1
162K27S1,1153,experiment,84,←,left,←,0.598883000027854,True,34,0
162K27S1,1154,experiment,76,→,right,→,0.47754059999715537,True,34,1
162K27S1,1155,experiment,52,↓,down,↓,0.560725099989213,True,34,1
162K27S1,1156,experiment,59,↑,up,↑,0.5504569000331685,True,34,1
162K27S1,1157,experiment,65,←,left,←,0.5545460000284947,True,34,1
162K27S1,1158,experiment,71,↑,up,↑,0.5002234000130557,True,34,1
162K27S1,1159,experiment,66,←,left,←,0.5863487000460736,True,34,1
162K27S1,1160,experiment,49,↑,up,↑,0.41763650003122166,True,34,1
162K27S1,1161,experiment,74,←,left,←,0.4962252000113949,True,34,0
162K27S1,1162,experiment,79,→,right,→,0.6336563000222668,True,34,1
162K27S1,1163,experiment,67,→,right,→,0.5216308999806643,True,34,1
162K27S1,1164,experiment,62,↑,up,↑,0.37671989999944344,True,34,1
162K27S1,1165,experiment,60,↑,up,↑,0.39213910000398755,True,34,0
162K27S1,1166,experiment,87,←,left,←,0.5026963999844156,True,34,0
162K27S1,1167,experiment,77,←,left,←,0.40095719997771084,True,34,1
162K27S1,1168,experiment,88,↓,down,↓,0.42574759997660294,True,34,0
162K27S1,1169,experiment,101,→,no_key,no_letter,-1.0,False,34,0
162K27S1,1170,experiment,75,↑,up,↑,0.6321248000022024,True,34,1
162K27S1,1171,experiment,54,↑,up,↑,0.5884931000182405,True,34,1
162K27S1,1172,experiment,48,↑,up,↑,0.46871340001234785,True,34,1
162K27S1,1173,experiment,68,←,left,←,0.3590762999956496,True,34,1
162K27S1,1174,experiment,100,↑,up,↑,0.4510768000036478,True,34,0
162K27S1,1175,training,75,↑,up,↑,0.7825624999823049,True,34,0
162K27S1,1176,training,105,↑,up,↑,0.5077906000078656,True,34,1
162K27S1,1177,experiment,68,↑,up,↑,0.4808735999977216,True,34,1
162K27S1,1178,experiment,103,→,right,→,0.4747577999951318,True,34,1
162K27S1,1179,experiment,88,↓,no_key,no_letter,-1.0,False,34,1
162K27S1,1180,experiment,71,↓,down,↓,0.6045669000013731,True,34,1
162K27S1,1181,experiment,70,→,right,→,0.5324034999939613,True,34,1
162K27S1,1182,experiment,66,←,left,←,0.6967226000269875,True,34,1
162K27S1,1183,experiment,107,←,left,←,0.5929135999758728,True,34,1
162K27S1,1184,experiment,76,→,right,→,0.4639436000143178,True,34,1
162K27S1,1185,experiment,57,↓,no_key,no_letter,-1.0,False,34,1
162K27S1,1186,experiment,100,←,left,←,0.34266099997330457,True,34,1
162K27S1,1187,experiment,74,→,left,←,0.531053000013344,False,34,0
162K27S1,1188,experiment,72,→,right,→,0.453773099987302,True,34,1
162K27S1,1189,experiment,102,↓,no_key,no_letter,-1.0,False,34,0
162K27S1,1190,experiment,92,↑,no_key,no_letter,-1.0,False,34,1
162K27S1,1191,experiment,61,↓,down,↓,0.592710500000976,True,34,1
162K27S1,1192,experiment,80,↑,up,↑,0.4173602999653667,True,34,1
162K27S1,1193,experiment,65,↑,no_key,no_letter,-1.0,False,34,0
162K27S1,1194,experiment,85,←,left,←,0.540322599990759,True,34,1
162K27S1,1195,experiment,78,↓,down,↓,0.5244698000024073,True,34,1
162K27S1,1196,experiment,64,↓,no_key,no_letter,-1.0,False,34,1
162K27S1,1197,experiment,63,→,right,→,0.5664169000228867,True,34,1
162K27S1,1198,experiment,98,↑,up,↑,0.36764240002958104,True,34,1
162K27S1,1199,experiment,95,→,right,→,0.43371759995352477,True,34,0
162K27S1,1200,experiment,97,←,left,←,0.3757286000181921,True,34,0
162K27S1,1201,experiment,69,↓,down,↓,0.4635145000065677,True,34,0
162K27S1,1202,experiment,79,↓,down,↓,0.6816981000010855,True,34,1
162K27S1,1203,experiment,53,↑,down,↓,0.6204624999663793,False,34,1
162K27S1,1204,experiment,96,↑,up,↑,0.5794989000423811,True,34,1
162K27S1,1205,experiment,91,←,left,←,0.3671897000167519,True,34,1
162K27S1,1206,experiment,84,←,left,←,0.514419800019823,True,34,0
162K27S1,1207,experiment,54,↑,up,↑,0.579455400002189,True,34,1
162K27S1,1208,experiment,48,↑,up,↑,0.47610199998598546,True,34,1
162K27S1,1209,experiment,93,→,right,→,0.6419179000076838,True,34,1
162K27S1,1210,experiment,73,↓,down,↓,0.6316041999962181,True,34,1
162K27S1,1211,experiment,50,↑,down,↓,0.7573833999922499,False,34,1
162K27S1,1212,experiment,83,→,right,→,0.4991398000274785,True,34,1
162K27S1,1213,experiment,52,←,left,←,0.8855085000395775,True,34,1
162K27S1,1214,experiment,51,←,left,←,0.7047923000063747,True,34,1
162K27S1,1215,experiment,75,↓,down,↓,0.4598509999923408,True,34,1
162K27S1,1216,experiment,49,↓,down,↓,0.8486438000109047,True,34,1
162K27S1,1217,experiment,87,↓,down,↓,0.617096500005573,True,34,1
162K27S1,1218,experiment,106,←,left,←,0.6207785999868065,True,34,1
162K27S1,1219,experiment,86,↑,up,↑,0.6949052999843843,True,34,1
162K27S1,1220,experiment,90,→,right,→,0.43420829996466637,True,34,1
162K27S1,1221,experiment,89,←,left,←,0.6773072000360116,True,34,0
162K27S1,1222,experiment,82,←,no_key,no_letter,-1.0,False,34,1
162K27S1,1223,experiment,108,←,left,←,0.4762744000181556,True,34,1
162K27S1,1224,experiment,105,↑,up,↑,0.5099006000091322,True,34,1
162K27S1,1225,experiment,58,→,left,←,0.501993800047785,False,34,1
162K27S1,1226,experiment,62,→,right,→,0.4257678000140004,True,34,1
162K27S1,1227,experiment,56,→,right,→,0.4728402000037022,True,34,0
162K27S1,1228,experiment,101,↑,up,↑,0.5477943999576382,True,34,1
162K27S1,1229,experiment,59,←,left,←,0.6663519000285305,True,34,1
162K27S1,1230,experiment,60,←,right,→,0.45947739999974146,False,34,1
162K27S1,1231,experiment,55,→,right,→,0.5178071999689564,True,34,1
162K27S1,1232,experiment,99,↑,up,↑,0.5758828999823891,True,34,1
162K27S1,1233,experiment,67,←,left,←,0.4743663999834098,True,34,1
162K27S1,1234,experiment,94,←,left,←,0.5755741000175476,True,34,1
162K27S1,1235,experiment,77,↑,up,↑,0.5106947000022046,True,34,1
162K27S1,1236,experiment,81,↓,down,↓,0.46366509998915717,True,34,1
162K27S1,1237,experiment,104,→,right,→,0.41826840001158416,True,34,1
162K27S1,1238,training,61,↑,up,↑,0.6810341000091285,True,34,0
162K27S1,1239,training,62,↑,up,↑,0.5207579000270925,True,34,1
162K27S1,1240,experiment,89,↑,up,↑,0.4941240000189282,True,34,1
162K27S1,1241,experiment,104,↑,no_key,no_letter,-1.0,False,34,1
162K27S1,1242,experiment,108,↑,up,↑,0.8371859000180848,True,34,1
162K27S1,1243,experiment,90,↑,up,↑,0.5733682999853045,True,34,1
162K27S1,1244,experiment,67,←,left,←,0.5917359999730252,True,34,1
162K27S1,1245,experiment,102,←,left,←,0.5097190999658778,True,34,1
162K27S1,1246,experiment,87,←,left,←,0.367339999997057,True,34,1
162K27S1,1247,experiment,82,→,no_key,no_letter,-1.0,False,34,0
162K27S1,1248,experiment,50,↓,down,↓,0.6026024000020698,True,34,1
162K27S1,1249,experiment,88,↑,up,↑,0.45336079999106005,True,34,1
162K27S1,1250,experiment,51,→,no_key,no_letter,-1.0,False,34,1
162K27S1,1251,experiment,70,↑,up,↑,0.5636041999678127,True,34,1
162K27S1,1252,experiment,105,←,left,←,0.39247130003059283,True,34,1
162K27S1,1253,experiment,85,←,left,←,0.5009391999919899,True,34,0
162K27S1,1254,experiment,62,↑,up,↑,0.4684959000442177,True,34,1
162K27S1,1255,experiment,56,↑,up,↑,0.5026636000256985,True,34,1
162K27S1,1256,experiment,55,↓,down,↓,0.7119887000299059,True,34,1
162K27S1,1257,experiment,100,↓,down,↓,0.6101991999894381,True,34,1
162K27S1,1258,experiment,103,→,down,↓,0.6230129000032321,False,34,1
162K27S1,1259,experiment,107,↑,up,↑,0.59400669997558,True,34,1
162K27S1,1260,experiment,91,↑,no_key,no_letter,-1.0,False,34,1
162K27S1,1261,experiment,57,↑,no_key,no_letter,-1.0,False,34,1
162K27S1,1262,experiment,84,↑,up,↑,0.4644073999952525,True,34,1
162K27S1,1263,experiment,73,←,left,←,0.46927529998356476,True,34,1
162K27S1,1264,experiment,49,↓,down,↓,0.4341211999999359,True,34,1
162K27S1,1265,experiment,60,↓,down,↓,0.5954083999968134,True,34,0
162K27S1,1266,experiment,99,←,left,←,0.5625108000240289,True,34,1
162K27S1,1267,experiment,58,→,right,→,0.5122639999608509,True,34,1
162K27S1,1268,experiment,65,↓,down,↓,0.5102223000139929,True,34,1
162K27S1,1269,experiment,80,←,left,←,0.3001301000476815,True,34,1
162K27S1,1270,experiment,53,←,right,→,0.5125235000159591,False,34,0
162K27S1,1271,experiment,78,→,right,→,0.5455823999946006,True,34,1
162K27S1,1272,experiment,68,↓,left,←,0.3586990999756381,False,34,1
162K27S1,1273,experiment,64,←,no_key,no_letter,-1.0,False,34,0
162K27S1,1274,experiment,93,↓,down,↓,0.5393293999950401,True,34,1
162K27S1,1275,experiment,52,→,left,←,0.4920845999731682,False,34,1
162K27S1,1276,experiment,92,↑,up,↑,0.4737400999874808,True,34,1
162K27S1,1277,experiment,76,↑,up,↑,0.46919219999108464,True,34,1
162K27S1,1278,experiment,59,←,left,←,0.41743070003576577,True,34,1
162K27S1,1279,experiment,72,↓,down,↓,0.5806880000163801,True,34,0
162K27S1,1280,experiment,96,↓,down,↓,0.5332664999878034,True,34,1
162K27S1,1281,experiment,77,↓,down,↓,0.3596335999900475,True,34,1
162K27S1,1282,experiment,75,↑,up,↑,0.6301393000176176,True,34,0
162K27S1,1283,experiment,74,←,left,←,0.4996504999580793,True,34,1
162K27S1,1284,experiment,83,→,right,→,0.6836874000146054,True,34,1
162K27S1,1285,experiment,61,↓,down,↓,0.4840468000038527,True,34,1
162K27S1,1286,experiment,94,→,down,↓,0.5928533999831416,False,34,1
162K27S1,1287,experiment,98,↑,up,↑,0.6722154999733903,True,34,1
162K27S1,1288,experiment,101,←,left,←,0.4753150999895297,True,34,1
162K27S1,1289,experiment,106,→,right,→,0.46068299998296425,True,34,1
162K27S1,1290,experiment,86,↑,up,↑,0.5415038000210188,True,34,1
162K27S1,1291,experiment,54,↑,up,↑,0.557447700004559,True,34,1
162K27S1,1292,experiment,69,→,right,→,0.5120745000313036,True,34,1
162K27S1,1293,experiment,95,↓,down,↓,0.43393930001184344,True,34,1
162K27S1,1294,experiment,81,→,right,→,0.4552280000061728,True,34,0
162K27S1,1295,experiment,79,↑,up,↑,0.5216838999767788,True,34,1
162K27S1,1296,experiment,63,→,right,→,0.4091442999779247,True,34,1
162K27S1,1297,experiment,97,↑,up,↑,0.6142259999760427,True,34,0
162K27S1,1298,experiment,48,←,left,←,0.4006717000156641,True,34,1
162K27S1,1299,experiment,66,←,right,→,0.4632580999750644,False,34,0
162K27S1,1300,experiment,71,→,right,→,0.4921563999960199,True,34,1
162K27S1,1301,training,83,↑,up,↑,0.567314499989152,True,34,0
162K27S1,1302,training,75,↓,down,↓,0.48712210002122447,True,34,1
162K27S1,1303,experiment,50,↑,up,↑,0.3506951000308618,True,34,1
162K27S1,1304,experiment,55,→,right,→,0.4173850999795832,True,34,0
162K27S1,1305,experiment,52,↓,no_key,no_letter,-1.0,False,34,0
162K27S1,1306,experiment,77,↓,down,↓,0.5190300000249408,True,34,1
162K27S1,1307,experiment,88,↓,down,↓,0.41728679998777807,True,34,1
162K27S1,1308,experiment,92,→,right,→,0.5408277999958955,True,34,0
162K27S1,1309,experiment,54,→,right,→,0.49285300000337884,True,34,1
162K27S1,1310,experiment,98,↑,up,↑,0.4174920000368729,True,34,1
162K27S1,1311,experiment,74,←,left,←,0.6703492000233382,True,34,0
162K27S1,1312,experiment,89,↑,up,↑,0.5737031000317074,True,34,1
162K27S1,1313,experiment,70,←,left,←,0.6551052000140771,True,34,1
162K27S1,1314,experiment,86,→,right,→,0.5118020999943838,True,34,1
162K27S1,1315,experiment,80,→,right,→,0.5045285999658518,True,34,1
162K27S1,1316,experiment,62,→,right,→,0.40081250004004687,True,34,1
162K27S1,1317,experiment,58,→,no_key,no_letter,-1.0,False,34,0
162K27S1,1318,experiment,59,↓,down,↓,0.6337121000397019,True,34,1
162K27S1,1319,experiment,102,→,right,→,0.4623121000477113,True,34,1
162K27S1,1320,experiment,71,↓,down,↓,0.4258560999878682,True,34,1
162K27S1,1321,experiment,107,→,right,→,0.7021045000292361,True,34,0
162K27S1,1322,experiment,79,↓,no_key,no_letter,-1.0,False,34,1
162K27S1,1323,experiment,67,↑,left,←,0.8189451000071131,False,34,1
162K27S1,1324,experiment,97,↑,up,↑,0.5534597000223584,True,34,1
162K27S1,1325,experiment,84,↑,up,↑,0.6550501000019722,True,34,1
162K27S1,1326,experiment,64,→,right,→,0.43405179999535903,True,34,1
162K27S1,1327,experiment,73,↓,down,↓,0.38403340004151687,True,34,0
162K27S1,1328,experiment,91,↓,down,↓,0.6066418999689631,True,34,0
162K27S1,1329,experiment,53,↓,down,↓,0.5164587000035681,True,34,1
162K27S1,1330,experiment,94,↓,down,↓,0.5601669000461698,True,34,1
162K27S1,1331,experiment,66,→,left,←,0.5322682000114582,False,34,1
162K27S1,1332,experiment,78,↑,up,↑,0.40079780004452914,True,34,1
162K27S1,1333,experiment,57,→,right,→,0.40148499998031184,True,34,0
162K27S1,1334,experiment,69,↓,down,↓,0.5604773000231944,True,34,0
162K27S1,1335,experiment,106,↓,left,←,0.6145448999595828,False,34,1
162K27S1,1336,experiment,96,↑,down,↓,0.49352079996606335,False,34,1
162K27S1,1337,experiment,60,→,no_key,no_letter,-1.0,False,34,1
162K27S1,1338,experiment,81,←,left,←,0.5882323000114411,True,34,1
162K27S1,1339,experiment,76,↑,up,↑,0.4093074999982491,True,34,1
162K27S1,1340,experiment,56,←,left,←,0.5032734000124037,True,34,0
162K27S1,1341,experiment,68,↓,down,↓,0.500365799991414,True,34,1
162K27S1,1342,experiment,99,↑,up,↑,0.5031514999573119,True,34,1
162K27S1,1343,experiment,48,↓,down,↓,0.5629361000028439,True,34,1
162K27S1,1344,experiment,65,←,left,←,0.37581449997378513,True,34,1
162K27S1,1345,experiment,63,↓,down,↓,0.7776965000084601,True,34,0
162K27S1,1346,experiment,90,↑,up,↑,0.4844730000477284,True,34,1
162K27S1,1347,experiment,101,→,left,←,0.3258221999858506,False,34,1
162K27S1,1348,experiment,85,←,right,→,0.4694584999815561,False,34,0
162K27S1,1349,experiment,49,←,left,←,0.37578930001473054,True,34,1
162K27S1,1350,experiment,103,→,right,→,0.45670109998900443,True,34,0
162K27S1,1351,experiment,87,←,left,←,0.5925875999964774,True,34,1
162K27S1,1352,experiment,105,↑,up,↑,0.49345759995048866,True,34,1
162K27S1,1353,experiment,75,↑,up,↑,0.608880199957639,True,34,1
162K27S1,1354,experiment,100,↑,up,↑,0.4631222999887541,True,34,1
162K27S1,1355,experiment,83,↑,up,↑,0.5603057999978773,True,34,1
162K27S1,1356,experiment,108,→,right,→,0.4696764000109397,True,34,1
162K27S1,1357,experiment,82,←,left,←,0.4087355000083335,True,34,1
162K27S1,1358,experiment,51,↑,up,↑,0.41743590001715347,True,34,0
162K27S1,1359,experiment,93,↑,up,↑,0.4927109999698587,True,34,0
162K27S1,1360,experiment,95,→,right,→,0.4970836999709718,True,34,1
162K27S1,1361,experiment,61,↓,down,↓,0.7765951000037603,True,34,1
162K27S1,1362,experiment,72,↑,up,↑,0.4973877999582328,True,34,1
162K27S1,1363,experiment,104,↓,no_key,no_letter,-1.0,False,34,1
