PART_ID,Trial_no,Trial_type,CSI,Stim_letter,Key_pressed,letter_choose,Rt,Corr,Stimulus Time,nDropped
163K34S1,1,training,120,↓,down,↓,0.902444499952253,True,60,0
163K34S1,2,training,120,→,right,→,0.7770367999910377,True,60,0
163K34S1,3,training,120,↑,up,↑,0.5257057000417262,True,60,0
163K34S1,4,training,120,←,right,→,0.5255764999892563,False,60,0
163K34S1,5,training,120,←,left,←,0.7564267999841832,True,60,0
163K34S1,6,training,120,→,right,→,0.7251281999633648,True,60,0
163K34S1,7,training,120,↓,down,↓,0.75127639999846,True,60,0
163K34S1,8,training,120,→,right,→,0.5524549999972805,True,60,0
163K34S1,9,training,120,→,left,←,0.6182110999943689,False,60,0
163K34S1,10,training,120,↓,no_key,no_letter,-1.0,False,60,0
163K34S1,11,training,120,→,right,→,0.7754512999672443,True,60,0
163K34S1,12,training,120,↑,up,↑,0.45939929998712614,True,60,0
163K34S1,13,training,120,→,right,→,0.5416843999992125,True,60,0
163K34S1,14,training,120,→,right,→,0.4601961999433115,True,60,0
163K34S1,15,training,120,←,left,←,0.4435624000034295,True,60,0
163K34S1,16,training,120,↑,up,↑,0.7064244999783114,True,60,0
163K34S1,17,training,120,↑,up,↑,0.5589342000312172,True,60,0
163K34S1,18,training,120,↓,down,↓,0.5267755000386387,True,60,0
163K34S1,19,training,120,↑,up,↑,0.45190679997904226,True,60,0
163K34S1,20,training,120,↑,up,↑,0.7387491000117734,True,60,0
163K34S1,21,no_adaptation,120,↓,up,↑,0.8700598999857903,False,36,0
163K34S1,22,no_adaptation,120,←,left,←,0.49800339998910204,True,36,0
163K34S1,23,no_adaptation,120,↑,up,↑,0.5492173000238836,True,36,0
163K34S1,24,no_adaptation,120,→,right,→,0.6783838999690488,True,36,0
163K34S1,25,no_adaptation,120,↓,up,↑,0.5382256000302732,False,36,0
163K34S1,26,no_adaptation,120,←,left,←,0.5477379999938421,True,36,0
163K34S1,27,no_adaptation,120,→,right,→,0.4257283000042662,True,36,0
163K34S1,28,no_adaptation,120,→,right,→,0.43411610001930967,True,36,0
163K34S1,29,no_adaptation,120,←,left,←,0.4730264999670908,True,36,0
163K34S1,30,no_adaptation,120,←,right,→,0.36730749998241663,False,36,0
163K34S1,31,no_adaptation,120,↑,up,↑,0.5088419000385329,True,36,0
163K34S1,32,no_adaptation,120,→,right,→,0.41735100001096725,True,36,0
163K34S1,33,no_adaptation,120,↑,up,↑,0.47844609996536747,True,36,0
163K34S1,34,no_adaptation,120,↓,down,↓,0.569843299977947,True,36,0
163K34S1,35,no_adaptation,120,→,right,→,0.4507803000160493,True,36,0
163K34S1,36,no_adaptation,120,←,left,←,0.5268967999727465,True,36,0
163K34S1,37,no_adaptation,120,→,right,→,0.40031050000106916,True,36,0
163K34S1,38,no_adaptation,120,→,left,←,0.4512933999649249,False,36,0
163K34S1,39,no_adaptation,120,←,right,→,0.5408532000146806,False,36,0
163K34S1,40,no_adaptation,120,→,left,←,0.5516299000009894,False,36,0
163K34S1,41,training,73,→,left,←,0.7625379000091925,False,36,0
163K34S1,42,training,64,→,left,←,0.6545511999865994,False,36,1
163K34S1,43,experiment,78,←,right,→,0.5299820000072941,False,36,1
163K34S1,44,experiment,107,↓,down,↓,0.8007045999984257,True,36,1
163K34S1,45,experiment,99,↓,no_key,no_letter,-1.0,False,36,1
163K34S1,46,experiment,76,↓,up,↑,0.790938800026197,False,36,1
163K34S1,47,experiment,79,↑,no_key,no_letter,-1.0,False,36,1
163K34S1,48,experiment,88,↓,left,←,0.5199733999907039,False,36,1
163K34S1,49,experiment,90,→,no_key,no_letter,-1.0,False,36,1
163K34S1,50,experiment,75,→,right,→,0.5488981999806128,True,36,1
163K34S1,51,experiment,56,↑,no_key,no_letter,-1.0,False,36,1
163K34S1,52,experiment,59,↓,down,↓,0.5132802999578416,True,36,1
163K34S1,53,experiment,97,↓,up,↑,0.6522755000041798,False,36,1
163K34S1,54,experiment,54,←,no_key,no_letter,-1.0,False,36,1
163K34S1,55,experiment,94,↓,down,↓,0.6895620999857783,True,36,1
163K34S1,56,experiment,51,↓,no_key,no_letter,-1.0,False,36,1
163K34S1,57,experiment,87,→,right,→,0.7924763000337407,True,36,1
163K34S1,58,experiment,63,↓,no_key,no_letter,-1.0,False,36,1
163K34S1,59,experiment,104,←,right,→,0.7136619000229985,False,36,1
163K34S1,60,experiment,89,↓,down,↓,0.5992932999506593,True,36,1
163K34S1,61,experiment,105,↓,down,↓,0.6516874999506399,True,36,1
163K34S1,62,experiment,62,→,right,→,0.5008356999605894,True,36,1
163K34S1,63,experiment,77,↓,down,↓,0.6550835999660194,True,36,1
163K34S1,64,experiment,81,←,left,←,0.4737353000091389,True,36,1
163K34S1,65,experiment,83,↑,up,↑,0.6580130999791436,True,36,1
163K34S1,66,experiment,93,←,left,←,0.4885716999997385,True,36,1
163K34S1,67,experiment,68,←,no_key,no_letter,-1.0,False,36,1
163K34S1,68,experiment,92,↑,down,↓,0.775950199982617,False,36,1
163K34S1,69,experiment,85,←,left,←,0.508232299995143,True,36,1
163K34S1,70,experiment,70,↓,left,←,0.4503901000134647,False,36,1
163K34S1,71,experiment,95,↑,up,↑,0.830190800013952,True,36,0
163K34S1,72,experiment,108,→,right,→,0.49647359998198226,True,36,1
163K34S1,73,experiment,91,→,no_key,no_letter,-1.0,False,36,1
163K34S1,74,experiment,58,↓,down,↓,0.5557521999580786,True,36,1
163K34S1,75,experiment,65,↓,down,↓,0.551463000010699,True,36,1
163K34S1,76,experiment,101,↑,no_key,no_letter,-1.0,False,36,1
163K34S1,77,experiment,106,↑,no_key,no_letter,-1.0,False,36,1
163K34S1,78,experiment,100,↑,no_key,no_letter,-1.0,False,36,1
163K34S1,79,experiment,103,↓,down,↓,0.5471108999918215,True,36,1
163K34S1,80,experiment,74,↑,no_key,no_letter,-1.0,False,36,1
163K34S1,81,experiment,53,→,up,↑,0.5872839000076056,False,36,1
163K34S1,82,experiment,48,↑,down,↓,0.8034420000039972,False,36,1
163K34S1,83,experiment,71,↑,up,↑,0.4425724999746308,True,36,1
163K34S1,84,experiment,64,↓,no_key,no_letter,-1.0,False,36,0
163K34S1,85,experiment,69,→,no_key,no_letter,-1.0,False,36,1
163K34S1,86,experiment,72,→,left,←,0.7908147000125609,False,36,1
163K34S1,87,experiment,102,↓,up,↑,0.5245220999931917,False,36,1
163K34S1,88,experiment,80,←,left,←,0.5165342999971472,True,36,1
163K34S1,89,experiment,50,←,right,→,0.5509340999997221,False,36,1
163K34S1,90,experiment,52,↑,up,↑,0.4424801000277512,True,36,1
163K34S1,91,experiment,49,↓,down,↓,0.652972600015346,True,36,0
163K34S1,92,experiment,66,↑,no_key,no_letter,-1.0,False,36,1
163K34S1,93,experiment,61,↑,up,↑,0.4422735000262037,True,36,1
163K34S1,94,experiment,84,→,right,→,0.6830317999701947,True,36,0
163K34S1,95,experiment,82,→,right,→,0.5160741999861784,True,36,1
163K34S1,96,experiment,67,↑,no_key,no_letter,-1.0,False,36,1
163K34S1,97,experiment,96,↑,no_key,no_letter,-1.0,False,36,1
163K34S1,98,experiment,73,↑,up,↑,0.350965499994345,True,36,1
163K34S1,99,experiment,60,→,right,→,0.7755742999725044,True,36,0
163K34S1,100,experiment,86,↑,up,↑,0.6036148000275716,True,36,1
163K34S1,101,experiment,55,→,right,→,0.44257099996320903,True,36,1
163K34S1,102,experiment,57,↓,up,↑,0.6364712999784388,False,36,0
163K34S1,103,experiment,98,←,left,←,0.3917465999838896,True,36,1
163K34S1,104,training,56,↓,no_key,no_letter,-1.0,False,37,0
163K34S1,105,training,102,↑,up,↑,0.4341497999848798,True,37,1
163K34S1,106,experiment,88,→,right,→,0.6304701999761164,True,37,0
163K34S1,107,experiment,64,↑,up,↑,0.3932474000030197,True,37,1
163K34S1,108,experiment,104,←,right,→,0.44247189996531233,False,37,0
163K34S1,109,experiment,53,←,no_key,no_letter,-1.0,False,37,0
163K34S1,110,experiment,68,↓,down,↓,0.48315389995696023,True,37,1
163K34S1,111,experiment,81,←,left,←,0.5637672999873757,True,37,1
163K34S1,112,experiment,91,→,right,→,0.459098500024993,True,37,1
163K34S1,113,experiment,105,←,left,←,0.39371550001669675,True,37,0
163K34S1,114,experiment,106,↑,up,↑,0.5404797000228427,True,37,0
163K34S1,115,experiment,95,→,right,→,0.41674949997104704,True,37,1
163K34S1,116,experiment,79,↓,down,↓,0.5153198000043631,True,37,0
163K34S1,117,experiment,107,←,left,←,0.38402870000572875,True,37,1
163K34S1,118,experiment,71,←,left,←,0.5550760999904014,True,37,0
163K34S1,119,experiment,60,←,left,←,0.42578069999581203,True,37,1
163K34S1,120,experiment,52,←,left,←,0.48649629997089505,True,37,0
163K34S1,121,experiment,72,↑,up,↑,0.43490240001119673,True,37,1
163K34S1,122,experiment,108,→,right,→,0.4921065000235103,True,37,0
163K34S1,123,experiment,65,←,no_key,no_letter,-1.0,False,37,1
163K34S1,124,experiment,57,↓,down,↓,0.48822220001602545,True,37,1
163K34S1,125,experiment,94,↑,no_key,no_letter,-1.0,False,37,1
163K34S1,126,experiment,51,↑,no_key,no_letter,-1.0,False,37,1
163K34S1,127,experiment,97,→,right,→,0.49229309998918325,True,37,1
163K34S1,128,experiment,61,↑,up,↑,0.5000439999857917,True,37,1
163K34S1,129,experiment,70,↑,up,↑,0.7203171000001021,True,37,1
163K34S1,130,experiment,87,↑,up,↑,0.6223371000378393,True,37,1
163K34S1,131,experiment,86,↑,no_key,no_letter,-1.0,False,37,1
163K34S1,132,experiment,58,→,right,→,0.4173049000091851,True,37,1
163K34S1,133,experiment,103,↓,down,↓,0.490834399999585,True,37,0
163K34S1,134,experiment,73,↑,up,↑,0.4174093999899924,True,37,1
163K34S1,135,experiment,63,↓,down,↓,0.43425930000375956,True,37,0
163K34S1,136,experiment,75,↑,up,↑,0.6846156999818049,True,37,0
163K34S1,137,experiment,59,↑,up,↑,0.6372632999555208,True,37,1
163K34S1,138,experiment,49,←,left,←,0.531348499993328,True,37,1
163K34S1,139,experiment,99,↑,up,↑,0.3841165999765508,True,37,1
163K34S1,140,experiment,85,←,left,←,0.6645377999520861,True,37,0
163K34S1,141,experiment,77,→,right,→,0.47644890000810847,True,37,1
163K34S1,142,experiment,102,→,right,→,0.5026403000229038,True,37,0
163K34S1,143,experiment,78,→,up,↑,0.6000177999958396,False,37,1
163K34S1,144,experiment,54,←,no_key,no_letter,-1.0,False,37,1
163K34S1,145,experiment,84,↑,up,↑,0.6025785999954678,True,37,1
163K34S1,146,experiment,62,↓,up,↑,0.7173299000132829,False,37,1
163K34S1,147,experiment,100,←,left,←,0.4092062000418082,True,37,1
163K34S1,148,experiment,80,←,left,←,0.4163497000117786,True,37,0
163K34S1,149,experiment,55,←,left,←,0.3853157999692485,True,37,0
163K34S1,150,experiment,89,←,left,←,0.37507280003046617,True,37,0
163K34S1,151,experiment,83,→,right,→,0.49477160000242293,True,37,0
163K34S1,152,experiment,98,→,right,→,0.4827608999912627,True,37,1
163K34S1,153,experiment,66,←,left,←,0.4422698999987915,True,37,1
163K34S1,154,experiment,67,←,left,←,0.4254515999928117,True,37,0
163K34S1,155,experiment,69,→,right,→,0.5035590999759734,True,37,0
163K34S1,156,experiment,92,↑,no_key,no_letter,-1.0,False,37,1
163K34S1,157,experiment,93,↓,no_key,no_letter,-1.0,False,37,1
163K34S1,158,experiment,74,↓,down,↓,0.7576090000220574,True,37,1
163K34S1,159,experiment,96,→,right,→,0.4424177000182681,True,37,1
163K34S1,160,experiment,50,→,right,→,0.4174592000199482,True,37,0
163K34S1,161,experiment,56,↑,up,↑,0.40903859998798,True,37,0
163K34S1,162,experiment,76,←,left,←,0.42612300004111603,True,37,0
163K34S1,163,experiment,48,↑,no_key,no_letter,-1.0,False,37,0
163K34S1,164,experiment,90,→,no_key,no_letter,-1.0,False,37,1
163K34S1,165,experiment,101,↑,no_key,no_letter,-1.0,False,37,1
163K34S1,166,experiment,82,↑,no_key,no_letter,-1.0,False,37,1
163K34S1,167,training,93,↑,no_key,no_letter,-1.0,False,37,0
163K34S1,168,training,99,↑,no_key,no_letter,-1.0,False,37,1
163K34S1,169,experiment,55,←,left,←,0.5315968999639153,True,37,1
163K34S1,170,experiment,103,↓,no_key,no_letter,-1.0,False,37,1
163K34S1,171,experiment,65,↓,right,→,0.5668904000194743,False,37,1
163K34S1,172,experiment,99,←,left,←,0.6225965999765322,True,37,1
163K34S1,173,experiment,69,→,no_key,no_letter,-1.0,False,37,1
163K34S1,174,experiment,77,↓,no_key,no_letter,-1.0,False,37,1
163K34S1,175,experiment,88,↑,up,↑,0.42597660003229976,True,37,1
163K34S1,176,experiment,58,←,left,←,0.4839110999600962,True,37,0
163K34S1,177,experiment,93,→,no_key,no_letter,-1.0,False,37,1
163K34S1,178,experiment,95,↑,up,↑,0.45917159999953583,True,37,1
163K34S1,179,experiment,59,→,right,→,0.44237429997883737,True,37,0
163K34S1,180,experiment,80,↑,up,↑,0.5340305999852717,True,37,0
163K34S1,181,experiment,84,↑,left,←,0.5321176999714226,False,37,1
163K34S1,182,experiment,73,↑,up,↑,0.42595649999566376,True,37,1
163K34S1,183,experiment,52,↓,down,↓,0.6114436000352725,True,37,0
163K34S1,184,experiment,102,↓,up,↑,0.5447382000274956,False,37,1
163K34S1,185,experiment,105,↑,up,↑,0.5917925999965519,True,37,1
163K34S1,186,experiment,101,←,no_key,no_letter,-1.0,False,37,1
163K34S1,187,experiment,108,↓,up,↑,0.6026391999912448,False,37,1
163K34S1,188,experiment,81,←,left,←,0.6315707999747247,True,37,1
163K34S1,189,experiment,76,↑,up,↑,0.4507045999635011,True,37,1
163K34S1,190,experiment,51,↓,down,↓,0.5287658000015654,True,37,0
163K34S1,191,experiment,85,→,left,←,0.5671975000295788,False,37,1
163K34S1,192,experiment,56,→,left,←,0.6056431999895722,False,37,1
163K34S1,193,experiment,94,↓,down,↓,0.5018288000137545,True,37,1
163K34S1,194,experiment,83,→,right,→,0.597734400012996,True,37,1
163K34S1,195,experiment,92,↓,down,↓,0.5108632000046782,True,37,1
163K34S1,196,experiment,90,↑,up,↑,0.4767854000092484,True,37,1
163K34S1,197,experiment,54,→,right,→,0.5425999999861233,True,37,0
163K34S1,198,experiment,57,→,no_key,no_letter,-1.0,False,37,1
163K34S1,199,experiment,75,↑,up,↑,0.49367469997378066,True,37,1
163K34S1,200,experiment,53,↓,down,↓,0.551704499986954,True,37,1
163K34S1,201,experiment,89,↓,down,↓,0.6518115000217222,True,37,1
163K34S1,202,experiment,67,↓,down,↓,0.7403006000095047,True,37,1
163K34S1,203,experiment,70,←,left,←,0.701822200033348,True,37,1
163K34S1,204,experiment,62,→,right,→,0.5970100999693386,True,37,1
163K34S1,205,experiment,50,→,no_key,no_letter,-1.0,False,37,1
163K34S1,206,experiment,66,→,no_key,no_letter,-1.0,False,37,1
163K34S1,207,experiment,87,→,right,→,0.5141034999978729,True,37,1
163K34S1,208,experiment,74,←,left,←,0.6206950999912806,True,37,1
163K34S1,209,experiment,100,→,right,→,0.6023904000176117,True,37,1
163K34S1,210,experiment,61,↓,no_key,no_letter,-1.0,False,37,1
163K34S1,211,experiment,82,←,left,←,0.44241580000380054,True,37,1
163K34S1,212,experiment,68,↓,no_key,no_letter,-1.0,False,37,0
163K34S1,213,experiment,86,←,left,←,0.4591560999979265,True,37,1
163K34S1,214,experiment,106,←,right,→,0.5594873999943957,False,37,0
163K34S1,215,experiment,79,←,no_key,no_letter,-1.0,False,37,1
163K34S1,216,experiment,91,→,no_key,no_letter,-1.0,False,37,1
163K34S1,217,experiment,107,→,right,→,0.517504200048279,True,37,1
163K34S1,218,experiment,60,→,right,→,0.5566017999663018,True,37,1
163K34S1,219,experiment,48,→,no_key,no_letter,-1.0,False,37,1
163K34S1,220,experiment,63,↑,no_key,no_letter,-1.0,False,37,1
163K34S1,221,experiment,72,↓,down,↓,0.6660349000012502,True,37,1
163K34S1,222,experiment,49,←,right,→,0.582834400003776,False,37,1
163K34S1,223,experiment,98,↑,up,↑,0.4509923000005074,True,37,1
163K34S1,224,experiment,71,←,left,←,0.5962653000024147,True,37,0
163K34S1,225,experiment,78,↓,no_key,no_letter,-1.0,False,37,1
163K34S1,226,experiment,96,↑,no_key,no_letter,-1.0,False,37,1
163K34S1,227,experiment,97,↑,up,↑,0.514633699960541,True,37,1
163K34S1,228,experiment,64,←,left,←,0.6644211999955587,True,37,1
163K34S1,229,experiment,104,↓,down,↓,0.8027768000029027,True,37,1
163K34S1,230,training,53,←,left,←,0.4894176999805495,True,37,0
163K34S1,231,training,51,↓,down,↓,0.5639423999818973,True,37,1
163K34S1,232,experiment,108,←,left,←,0.5449303999776021,True,37,1
163K34S1,233,experiment,86,↑,up,↑,0.6224772999994457,True,37,1
163K34S1,234,experiment,61,↓,down,↓,0.49691649997839704,True,37,1
163K34S1,235,experiment,84,←,left,←,0.43510299996705726,True,37,1
163K34S1,236,experiment,76,↓,no_key,no_letter,-1.0,False,37,0
163K34S1,237,experiment,67,→,right,→,0.4170771999633871,True,37,1
163K34S1,238,experiment,89,↑,no_key,no_letter,-1.0,False,37,0
163K34S1,239,experiment,79,↓,down,↓,0.6547966999933124,True,37,1
163K34S1,240,experiment,74,→,right,→,0.4995354000129737,True,37,1
163K34S1,241,experiment,62,←,left,←,0.43451370002003387,True,37,1
163K34S1,242,experiment,105,→,right,→,0.45068210002500564,True,37,0
163K34S1,243,experiment,59,↓,down,↓,0.7914325000019744,True,37,0
163K34S1,244,experiment,85,↓,no_key,no_letter,-1.0,False,37,1
163K34S1,245,experiment,101,→,left,←,0.5298916000174358,False,37,1
163K34S1,246,experiment,75,↓,down,↓,0.4341640999773517,True,37,1
163K34S1,247,experiment,48,←,no_key,no_letter,-1.0,False,37,0
163K34S1,248,experiment,92,→,right,→,0.4424410000210628,True,37,1
163K34S1,249,experiment,91,↓,down,↓,0.5785168000147678,True,37,0
163K34S1,250,experiment,56,←,left,←,0.7526865000254475,True,37,1
163K34S1,251,experiment,96,←,no_key,no_letter,-1.0,False,37,1
163K34S1,252,experiment,65,↑,down,↓,0.6612000000313856,False,37,1
163K34S1,253,experiment,88,↓,down,↓,0.5013236000086181,True,37,1
163K34S1,254,experiment,82,→,right,→,0.7336483999970369,True,37,1
163K34S1,255,experiment,63,↑,down,↓,0.6758273000014015,False,37,1
163K34S1,256,experiment,68,↑,up,↑,0.6253865000326186,True,37,1
163K34S1,257,experiment,81,↓,down,↓,0.44214800000190735,True,37,1
163K34S1,258,experiment,107,←,left,←,0.5912515000090934,True,37,0
163K34S1,259,experiment,102,→,no_key,no_letter,-1.0,False,37,1
163K34S1,260,experiment,87,↑,down,↓,0.5205625999951735,False,37,1
163K34S1,261,experiment,71,→,right,→,0.7082079999963753,True,37,1
163K34S1,262,experiment,54,↑,no_key,no_letter,-1.0,False,37,1
163K34S1,263,experiment,73,→,left,←,0.5095356000238098,False,37,1
163K34S1,264,experiment,52,↓,down,↓,0.5274414999876171,True,37,1
163K34S1,265,experiment,70,←,left,←,0.5951986000291072,True,37,1
163K34S1,266,experiment,106,↑,down,↓,0.5440161000005901,False,37,1
163K34S1,267,experiment,104,→,up,↑,0.5669892000150867,False,37,1
163K34S1,268,experiment,64,→,left,←,0.6508116999757476,False,37,1
163K34S1,269,experiment,90,↑,up,↑,0.4342801999882795,True,37,1
163K34S1,270,experiment,80,←,right,→,0.5098973999847658,False,37,0
163K34S1,271,experiment,69,↑,left,←,0.6504010999924503,False,37,1
163K34S1,272,experiment,103,→,right,→,0.4259678000234999,True,37,1
163K34S1,273,experiment,97,→,left,←,0.4412338999682106,False,37,0
163K34S1,274,experiment,78,←,no_key,no_letter,-1.0,False,37,0
163K34S1,275,experiment,51,↑,no_key,no_letter,-1.0,False,37,1
163K34S1,276,experiment,58,↑,no_key,no_letter,-1.0,False,37,1
163K34S1,277,experiment,95,↑,up,↑,0.45082300005014986,True,37,1
163K34S1,278,experiment,99,←,no_key,no_letter,-1.0,False,37,0
163K34S1,279,experiment,50,↑,up,↑,0.6175678999861702,True,37,1
163K34S1,280,experiment,60,←,no_key,no_letter,-1.0,False,37,1
163K34S1,281,experiment,66,→,left,←,0.47947910003131256,False,37,1
163K34S1,282,experiment,83,→,no_key,no_letter,-1.0,False,37,0
163K34S1,283,experiment,94,↑,up,↑,0.40174639999167994,True,37,1
163K34S1,284,experiment,57,↓,no_key,no_letter,-1.0,False,37,0
163K34S1,285,experiment,93,↑,up,↑,0.4340514999930747,True,37,1
163K34S1,286,experiment,100,←,left,←,0.5470876999897882,True,37,0
163K34S1,287,experiment,55,←,left,←,0.4521999999997206,True,37,1
163K34S1,288,experiment,72,←,up,↑,0.6237628000089899,False,37,0
163K34S1,289,experiment,49,↑,up,↑,0.45073970005614683,True,37,1
163K34S1,290,experiment,98,→,left,←,0.7468560999841429,False,37,0
163K34S1,291,experiment,53,↑,up,↑,0.7469913000240922,True,37,1
163K34S1,292,experiment,77,↓,down,↓,0.8511589000117965,True,37,1
163K34S1,293,training,75,←,left,←,0.4901361000374891,True,38,0
163K34S1,294,training,57,↑,up,↑,0.562873299990315,True,38,1
163K34S1,295,experiment,97,←,left,←,0.40076710004359484,True,38,1
163K34S1,296,experiment,85,↑,up,↑,0.5346865000319667,True,38,0
163K34S1,297,experiment,105,←,left,←,0.4090277000213973,True,38,1
163K34S1,298,experiment,66,↓,up,↑,0.5910848999628797,False,38,0
163K34S1,299,experiment,57,←,left,←,0.4006882999674417,True,38,1
163K34S1,300,experiment,94,→,left,←,0.41735619999235496,False,38,0
163K34S1,301,experiment,63,→,no_key,no_letter,-1.0,False,38,0
163K34S1,302,experiment,92,↑,up,↑,0.46770729997660965,True,38,1
163K34S1,303,experiment,50,→,down,↓,0.7716186000034213,False,38,0
163K34S1,304,experiment,98,←,right,→,0.531523699988611,False,38,1
163K34S1,305,experiment,69,↓,no_key,no_letter,-1.0,False,38,1
163K34S1,306,experiment,72,←,right,→,0.855246499995701,False,38,1
163K34S1,307,experiment,60,←,left,←,0.39329719997476786,True,38,1
163K34S1,308,experiment,100,↓,down,↓,0.5184985999949276,True,38,0
163K34S1,309,experiment,84,→,right,→,0.501873400004115,True,38,1
163K34S1,310,experiment,95,↑,up,↑,0.4012308000237681,True,38,1
163K34S1,311,experiment,62,←,left,←,0.3922473000129685,True,38,0
163K34S1,312,experiment,79,↑,up,↑,0.3425940999877639,True,38,0
163K34S1,313,experiment,58,→,no_key,no_letter,-1.0,False,38,0
163K34S1,314,experiment,88,←,right,→,0.5872757000033744,False,38,1
163K34S1,315,experiment,99,↓,no_key,no_letter,-1.0,False,38,1
163K34S1,316,experiment,102,←,right,→,0.536709800013341,False,38,1
163K34S1,317,experiment,106,↓,down,↓,0.4674310000264086,True,38,1
163K34S1,318,experiment,59,↓,down,↓,0.681092000042554,True,38,0
163K34S1,319,experiment,61,↑,up,↑,0.4424998000031337,True,38,1
163K34S1,320,experiment,65,↓,down,↓,0.4018431000295095,True,38,0
163K34S1,321,experiment,86,↑,up,↑,0.5638246000162326,True,38,0
163K34S1,322,experiment,49,→,right,→,0.48470209998777136,True,38,1
163K34S1,323,experiment,87,↑,up,↑,0.39209189999382943,True,38,0
163K34S1,324,experiment,83,→,right,→,0.48794469999847934,True,38,0
163K34S1,325,experiment,76,←,left,←,0.674136699992232,True,38,0
163K34S1,326,experiment,96,←,left,←,0.4675007999758236,True,38,1
163K34S1,327,experiment,104,↓,down,↓,0.5688603000016883,True,38,0
163K34S1,328,experiment,78,↓,down,↓,0.48851990001276135,True,38,1
163K34S1,329,experiment,68,↓,down,↓,0.5894088000059128,True,38,0
163K34S1,330,experiment,93,←,no_key,no_letter,-1.0,False,38,1
163K34S1,331,experiment,103,←,left,←,0.7081785999471322,True,38,1
163K34S1,332,experiment,52,↑,up,↑,0.4669028000207618,True,38,1
163K34S1,333,experiment,73,↑,no_key,no_letter,-1.0,False,38,0
163K34S1,334,experiment,53,↑,up,↑,0.43426529999123886,True,38,1
163K34S1,335,experiment,82,↑,up,↑,0.5082056000246666,True,38,0
163K34S1,336,experiment,108,↓,down,↓,0.49954860005527735,True,38,1
163K34S1,337,experiment,90,→,right,→,0.5454167000134476,True,38,1
163K34S1,338,experiment,51,←,up,↑,0.5702022999757901,False,38,1
163K34S1,339,experiment,64,↓,no_key,no_letter,-1.0,False,38,1
163K34S1,340,experiment,81,←,up,↑,0.6511156000196934,False,38,1
163K34S1,341,experiment,77,←,no_key,no_letter,-1.0,False,38,1
163K34S1,342,experiment,67,←,left,←,0.5691256999853067,True,38,1
163K34S1,343,experiment,101,←,left,←,0.5204296000301838,True,38,1
163K34S1,344,experiment,70,→,right,→,0.5478170000133105,True,38,1
163K34S1,345,experiment,107,↓,down,↓,0.6337529000011273,True,38,1
163K34S1,346,experiment,71,↑,up,↑,0.4421985999797471,True,38,1
163K34S1,347,experiment,54,←,left,←,0.4675725999986753,True,38,0
163K34S1,348,experiment,56,←,left,←,0.5188158999662846,True,38,0
163K34S1,349,experiment,75,←,down,↓,0.5047109000151977,False,38,1
163K34S1,350,experiment,89,↑,up,↑,0.6782592999516055,True,38,1
163K34S1,351,experiment,74,↓,down,↓,0.5463055000291206,True,38,1
163K34S1,352,experiment,55,↓,down,↓,0.5063151000067592,True,38,1
163K34S1,353,experiment,91,→,right,→,0.5269949000212364,True,38,1
163K34S1,354,experiment,80,←,left,←,0.6391555999871343,True,38,1
163K34S1,355,experiment,48,↑,up,↑,0.4591177999973297,True,38,1
163K34S1,356,training,87,←,left,←,0.46747739997226745,True,38,0
163K34S1,357,training,57,↑,up,↑,0.4590518000186421,True,38,0
163K34S1,358,experiment,60,↓,down,↓,0.43403619999298826,True,38,0
163K34S1,359,experiment,56,←,up,↑,0.5525548000005074,False,38,0
163K34S1,360,experiment,71,←,no_key,no_letter,-1.0,False,38,1
163K34S1,361,experiment,89,↑,no_key,no_letter,-1.0,False,38,1
163K34S1,362,experiment,102,↑,no_key,no_letter,-1.0,False,38,1
163K34S1,363,experiment,69,↑,up,↑,0.4174639999982901,True,38,1
163K34S1,364,experiment,58,↓,no_key,no_letter,-1.0,False,38,0
163K34S1,365,experiment,83,↑,up,↑,0.41736040002433583,True,38,1
163K34S1,366,experiment,105,↑,up,↑,0.5122325999545865,True,38,0
163K34S1,367,experiment,95,→,no_key,no_letter,-1.0,False,38,1
163K34S1,368,experiment,62,↑,no_key,no_letter,-1.0,False,38,1
163K34S1,369,experiment,88,→,left,←,0.5542306000133976,False,38,1
163K34S1,370,experiment,90,↑,right,→,0.5332668999908492,False,38,1
163K34S1,371,experiment,51,↑,left,←,0.582844499964267,False,38,1
163K34S1,372,experiment,79,←,left,←,0.48548630002187565,True,38,1
163K34S1,373,experiment,81,↓,down,↓,0.4677149999770336,True,38,0
163K34S1,374,experiment,63,→,right,→,0.6375960999866948,True,38,0
163K34S1,375,experiment,55,→,left,←,0.5138355999952182,False,38,1
163K34S1,376,experiment,66,←,no_key,no_letter,-1.0,False,38,1
163K34S1,377,experiment,104,←,left,←,0.676289499970153,True,38,1
163K34S1,378,experiment,68,↑,up,↑,0.46764720004284754,True,38,1
163K34S1,379,experiment,98,←,left,←,0.5984617999638431,True,38,0
163K34S1,380,experiment,54,←,left,←,0.620197799988091,True,38,1
163K34S1,381,experiment,96,→,left,←,0.5473607999738306,False,38,1
163K34S1,382,experiment,76,→,right,→,0.499838899995666,True,38,1
163K34S1,383,experiment,84,↑,up,↑,0.5954238999984227,True,38,1
163K34S1,384,experiment,50,→,up,↑,0.6908712000004016,False,38,1
163K34S1,385,experiment,91,↓,down,↓,0.6163506000302732,True,38,1
163K34S1,386,experiment,99,↑,no_key,no_letter,-1.0,False,38,1
163K34S1,387,experiment,93,↓,down,↓,0.42542019998654723,True,38,1
163K34S1,388,experiment,49,→,right,→,0.4864567000186071,True,38,0
163K34S1,389,experiment,80,→,right,→,0.5112944999709725,True,38,0
163K34S1,390,experiment,108,→,right,→,0.49507699999958277,True,38,1
163K34S1,391,experiment,87,↓,down,↓,0.5173140999977477,True,38,1
163K34S1,392,experiment,72,→,right,→,0.5686953000258654,True,38,1
163K34S1,393,experiment,70,→,right,→,0.5140124000026844,True,38,1
163K34S1,394,experiment,48,↑,up,↑,0.5972127999993972,True,38,1
163K34S1,395,experiment,74,←,left,←,0.4090328000020236,True,38,1
163K34S1,396,experiment,92,↓,down,↓,0.4423728999681771,True,38,0
163K34S1,397,experiment,82,↓,no_key,no_letter,-1.0,False,38,0
163K34S1,398,experiment,107,↑,up,↑,0.41743259999202564,True,38,1
163K34S1,399,experiment,101,↓,down,↓,0.6566154999891296,True,38,0
163K34S1,400,experiment,53,→,up,↑,0.5563656999729574,False,38,1
163K34S1,401,experiment,65,→,right,→,0.4508407000103034,True,38,1
163K34S1,402,experiment,86,↓,down,↓,0.4259262999985367,True,38,0
163K34S1,403,experiment,106,←,no_key,no_letter,-1.0,False,38,0
163K34S1,404,experiment,75,←,right,→,0.5073104999610223,False,38,1
163K34S1,405,experiment,97,↑,up,↑,0.6382075999863446,True,38,1
163K34S1,406,experiment,73,↓,down,↓,0.5398486999911256,True,38,1
163K34S1,407,experiment,85,↓,down,↓,0.5215456000296399,True,38,1
163K34S1,408,experiment,94,→,right,→,0.4678834000369534,True,38,1
163K34S1,409,experiment,59,→,right,→,0.6540323999943212,True,38,0
163K34S1,410,experiment,61,↑,up,↑,0.5116083000320941,True,38,1
163K34S1,411,experiment,67,↑,up,↑,0.5732579999603331,True,38,1
163K34S1,412,experiment,57,↓,no_key,no_letter,-1.0,False,38,1
163K34S1,413,experiment,64,↓,down,↓,0.43390900001395494,True,38,1
163K34S1,414,experiment,103,↑,up,↑,0.4333003000356257,True,38,0
163K34S1,415,experiment,77,→,right,→,0.493826900026761,True,38,0
163K34S1,416,experiment,52,←,left,←,0.5678106999839656,True,38,1
163K34S1,417,experiment,100,→,right,→,0.5596472999895923,True,38,1
163K34S1,418,experiment,78,↑,up,↑,0.3923489999724552,True,38,1
163K34S1,419,training,50,→,right,→,0.45870620000641793,True,38,0
163K34S1,420,training,106,↓,down,↓,0.4598282999941148,True,38,0
163K34S1,421,experiment,80,↑,up,↑,0.5809633000171743,True,38,0
163K34S1,422,experiment,77,↓,down,↓,0.5875988000188954,True,38,1
163K34S1,423,experiment,49,↑,up,↑,0.6033387000206858,True,38,1
163K34S1,424,experiment,88,←,left,←,0.40907809999771416,True,38,1
163K34S1,425,experiment,98,↓,down,↓,0.5321336999768391,True,38,0
163K34S1,426,experiment,74,←,up,↑,0.36734439997235313,False,38,1
163K34S1,427,experiment,59,↓,down,↓,0.4507972000283189,True,38,0
163K34S1,428,experiment,84,→,right,→,0.40871980000520125,True,38,0
163K34S1,429,experiment,85,↓,down,↓,0.4425294999964535,True,38,0
163K34S1,430,experiment,106,↑,up,↑,0.6736793000018224,True,38,0
163K34S1,431,experiment,93,→,right,→,0.567270900006406,True,38,1
163K34S1,432,experiment,94,↑,down,↓,0.5209637000225484,False,38,1
163K34S1,433,experiment,101,→,right,→,0.42672859999584034,True,38,1
163K34S1,434,experiment,105,↓,down,↓,0.44236950000049546,True,38,0
163K34S1,435,experiment,58,↓,down,↓,0.5117261999985203,True,38,0
163K34S1,436,experiment,100,↑,up,↑,0.5134783000103198,True,38,1
163K34S1,437,experiment,56,↑,up,↑,0.5059564999537542,True,38,1
163K34S1,438,experiment,72,↓,up,↑,0.5334870000369847,False,38,1
163K34S1,439,experiment,76,↓,left,←,0.5101551000261679,False,38,1
163K34S1,440,experiment,68,→,left,←,0.6509545999579132,False,38,1
163K34S1,441,experiment,54,↓,down,↓,0.3673852999927476,True,38,1
163K34S1,442,experiment,53,→,right,→,0.45903979998547584,True,38,0
163K34S1,443,experiment,79,↑,up,↑,0.425773500057403,True,38,0
163K34S1,444,experiment,55,↑,up,↑,0.5245824999874458,True,38,0
163K34S1,445,experiment,65,←,left,←,0.4672160999616608,True,38,1
163K34S1,446,experiment,62,↑,up,↑,0.42678320000413805,True,38,0
163K34S1,447,experiment,71,↓,down,↓,0.3755038999952376,True,38,0
163K34S1,448,experiment,63,→,right,→,0.6275806999765337,True,38,0
163K34S1,449,experiment,73,←,up,↑,0.6342381999711506,False,38,1
163K34S1,450,experiment,86,→,right,→,0.4341270999866538,True,38,1
163K34S1,451,experiment,108,↑,up,↑,0.4175080999848433,True,38,0
163K34S1,452,experiment,48,↓,down,↓,0.46741110004950315,True,38,0
163K34S1,453,experiment,92,←,left,←,0.6826284000417218,True,38,0
163K34S1,454,experiment,50,←,left,←,0.5105883000069298,True,38,1
163K34S1,455,experiment,60,←,left,←,0.48627270001452416,True,38,1
163K34S1,456,experiment,89,↓,up,↑,0.532133899978362,False,38,0
163K34S1,457,experiment,102,↑,up,↑,0.5009917999850586,True,38,1
163K34S1,458,experiment,70,←,left,←,0.5689942999742925,True,38,1
163K34S1,459,experiment,95,→,right,→,0.4434172999463044,True,38,1
163K34S1,460,experiment,107,↓,down,↓,0.6120402999804355,True,38,0
163K34S1,461,experiment,66,→,right,→,0.44999420002568513,True,38,1
163K34S1,462,experiment,52,↑,up,↑,0.5140863999840803,True,38,0
163K34S1,463,experiment,82,↑,left,←,0.5532967000035569,False,38,1
163K34S1,464,experiment,67,↑,up,↑,0.3675589999766089,True,38,1
163K34S1,465,experiment,90,→,right,→,0.45112819998757914,True,38,0
163K34S1,466,experiment,87,↑,up,↑,0.5438709000009112,True,38,0
163K34S1,467,experiment,78,↓,down,↓,0.3757044000085443,True,38,1
163K34S1,468,experiment,104,↓,right,→,0.4168486000271514,False,38,0
163K34S1,469,experiment,81,↑,no_key,no_letter,-1.0,False,38,0
163K34S1,470,experiment,96,←,left,←,0.5536279000225477,True,38,1
163K34S1,471,experiment,91,↑,up,↑,0.4507140999776311,True,38,1
163K34S1,472,experiment,51,→,no_key,no_letter,-1.0,False,38,0
163K34S1,473,experiment,99,→,no_key,no_letter,-1.0,False,38,1
163K34S1,474,experiment,61,↑,up,↑,0.692516099952627,True,38,1
163K34S1,475,experiment,69,→,right,→,0.44241660000989214,True,38,1
163K34S1,476,experiment,103,↑,up,↑,0.3923347999807447,True,38,0
163K34S1,477,experiment,83,→,right,→,0.40175259998068213,True,38,0
163K34S1,478,experiment,57,↑,up,↑,0.5330727999680676,True,38,0
163K34S1,479,experiment,64,↓,down,↓,0.4340243999613449,True,38,1
163K34S1,480,experiment,97,↑,up,↑,0.3853599999565631,True,38,1
163K34S1,481,experiment,75,→,right,→,0.400698299985379,True,38,0
163K34S1,482,training,68,↓,up,↑,0.458982800017111,False,38,0
163K34S1,483,training,81,↓,down,↓,0.48656170000322163,True,38,0
163K34S1,484,experiment,50,←,left,←,0.5055609000264667,True,38,0
163K34S1,485,experiment,67,↓,down,↓,0.5586024000076577,True,38,1
163K34S1,486,experiment,53,←,right,→,0.6143424999900162,False,38,1
163K34S1,487,experiment,75,→,right,→,0.4423600000445731,True,38,1
163K34S1,488,experiment,71,→,right,→,0.4674710999825038,True,38,0
163K34S1,489,experiment,69,↓,down,↓,0.42581530002644286,True,38,0
163K34S1,490,experiment,103,↓,down,↓,0.676280899962876,True,38,0
163K34S1,491,experiment,101,↑,up,↑,0.4254961999831721,True,38,1
163K34S1,492,experiment,64,←,left,←,0.5685537999961525,True,38,0
163K34S1,493,experiment,66,↑,up,↑,0.5633733000140637,True,38,1
163K34S1,494,experiment,70,↓,down,↓,0.6611898000119254,True,38,1
163K34S1,495,experiment,62,←,no_key,no_letter,-1.0,False,38,1
163K34S1,496,experiment,59,↑,up,↑,0.5948952999897301,True,38,1
163K34S1,497,experiment,65,→,right,→,0.6608394999639131,True,38,1
163K34S1,498,experiment,56,↓,no_key,no_letter,-1.0,False,38,1
163K34S1,499,experiment,86,↑,up,↑,0.4994871000526473,True,38,1
163K34S1,500,experiment,54,↑,up,↑,0.676967200008221,True,38,1
163K34S1,501,experiment,77,←,left,←,0.5358991999528371,True,38,1
163K34S1,502,experiment,87,←,left,←,0.5015363999991678,True,38,1
163K34S1,503,experiment,58,←,left,←,0.4939868000219576,True,38,1
163K34S1,504,experiment,95,↑,up,↑,0.5541628999635577,True,38,1
163K34S1,505,experiment,84,↑,left,←,0.5120429000235163,False,38,1
163K34S1,506,experiment,48,←,no_key,no_letter,-1.0,False,38,1
163K34S1,507,experiment,57,↓,down,↓,0.4420772999874316,True,38,1
163K34S1,508,experiment,52,↑,up,↑,0.6527147999731824,True,38,0
163K34S1,509,experiment,104,→,right,→,0.7436404000036418,True,38,1
163K34S1,510,experiment,96,↑,up,↑,0.5696979000349529,True,38,1
163K34S1,511,experiment,55,↑,up,↑,0.46738960000220686,True,38,1
163K34S1,512,experiment,94,→,right,→,0.7258125999942422,True,38,0
163K34S1,513,experiment,60,↓,down,↓,0.48506480001378804,True,38,1
163K34S1,514,experiment,107,→,right,→,0.43414780002785847,True,38,0
163K34S1,515,experiment,49,↓,right,→,0.6907457000343129,False,38,0
163K34S1,516,experiment,81,↑,up,↑,0.40922760003013536,True,38,1
163K34S1,517,experiment,68,↓,up,↑,0.5083318999968469,False,38,0
163K34S1,518,experiment,85,↑,no_key,no_letter,-1.0,False,38,1
163K34S1,519,experiment,91,↓,no_key,no_letter,-1.0,False,38,1
163K34S1,520,experiment,72,↑,up,↑,0.40897569997468963,True,38,1
163K34S1,521,experiment,92,→,right,→,0.5017484999843873,True,38,0
163K34S1,522,experiment,106,↑,up,↑,0.42570070002693683,True,38,1
163K34S1,523,experiment,108,↑,up,↑,0.5204889999586158,True,38,0
163K34S1,524,experiment,100,←,left,←,0.5459232000284828,True,38,1
163K34S1,525,experiment,82,←,up,↑,0.8245214999769814,False,38,1
163K34S1,526,experiment,76,↑,up,↑,0.685871199995745,True,38,1
163K34S1,527,experiment,98,←,right,→,0.6415926000336185,False,38,1
163K34S1,528,experiment,51,←,left,←,0.45903480000561103,True,38,1
163K34S1,529,experiment,83,←,left,←,0.5441441999864765,True,38,0
163K34S1,530,experiment,79,↓,no_key,no_letter,-1.0,False,38,1
163K34S1,531,experiment,99,↓,no_key,no_letter,-1.0,False,38,1
163K34S1,532,experiment,61,↓,down,↓,0.5788476999732666,True,38,1
163K34S1,533,experiment,88,↑,up,↑,0.6782058000098914,True,38,1
163K34S1,534,experiment,93,↓,down,↓,0.4859227000270039,True,38,1
163K34S1,535,experiment,73,→,right,→,0.5358913000090979,True,38,0
163K34S1,536,experiment,80,↑,up,↑,0.6555062000406906,True,38,1
163K34S1,537,experiment,97,→,right,→,0.3756872999947518,True,38,1
163K34S1,538,experiment,102,←,right,→,0.49909860000479966,False,38,0
163K34S1,539,experiment,105,↓,down,↓,0.5715396999730729,True,38,1
163K34S1,540,experiment,74,↑,down,↓,0.6436898999963887,False,38,1
163K34S1,541,experiment,89,←,left,←,0.523971899994649,True,38,1
163K34S1,542,experiment,90,→,left,←,0.5686958999722265,False,38,1
163K34S1,543,experiment,78,←,right,→,0.4960192999569699,False,38,1
163K34S1,544,experiment,63,↑,up,↑,0.48684779996983707,True,38,1
163K34S1,545,training,108,↓,left,←,0.467318199982401,False,38,0
163K34S1,546,training,48,↑,up,↑,0.6355453999713063,True,38,0
163K34S1,547,experiment,105,↓,down,↓,0.42573390004690737,True,38,1
163K34S1,548,experiment,74,↑,up,↑,0.5726691000163555,True,38,0
163K34S1,549,experiment,88,→,right,→,0.5440115000237711,True,38,1
163K34S1,550,experiment,102,↑,up,↑,0.4255045999889262,True,38,1
163K34S1,551,experiment,90,↓,down,↓,0.4177260000142269,True,38,0
163K34S1,552,experiment,91,↓,down,↓,0.5208533999975771,True,38,0
163K34S1,553,experiment,101,→,right,→,0.49055070005124435,True,38,1
163K34S1,554,experiment,95,↓,down,↓,0.5104332999908365,True,38,1
163K34S1,555,experiment,50,↑,up,↑,0.6409920000005513,True,38,1
163K34S1,556,experiment,100,→,right,→,0.8137560999603011,True,38,1
163K34S1,557,experiment,49,→,down,↓,0.4173694000346586,False,38,1
163K34S1,558,experiment,97,→,right,→,0.5550492000184022,True,38,0
163K34S1,559,experiment,61,↑,up,↑,0.6799274999648333,True,38,1
163K34S1,560,experiment,85,↓,up,↑,0.5927038000081666,False,38,1
163K34S1,561,experiment,87,→,right,→,0.4091111999587156,True,38,1
163K34S1,562,experiment,75,↓,down,↓,0.609195000026375,True,38,0
163K34S1,563,experiment,70,↓,up,↑,0.5213332999846898,False,38,1
163K34S1,564,experiment,73,↓,down,↓,0.7642634999938309,True,38,1
163K34S1,565,experiment,53,↓,down,↓,0.6753860000171699,True,38,1
163K34S1,566,experiment,52,↓,right,→,0.4873098999960348,False,38,1
163K34S1,567,experiment,103,←,left,←,0.4341052999952808,True,38,0
163K34S1,568,experiment,48,←,left,←,0.5425339000066742,True,38,0
163K34S1,569,experiment,63,↑,right,→,0.4999686000519432,False,38,1
163K34S1,570,experiment,81,↓,no_key,no_letter,-1.0,False,38,1
163K34S1,571,experiment,57,↓,down,↓,0.7536892000352964,True,38,1
163K34S1,572,experiment,76,↑,up,↑,0.6341027999878861,True,38,1
163K34S1,573,experiment,93,←,right,→,0.5613716000225395,False,38,1
163K34S1,574,experiment,99,←,left,←,0.426786899974104,True,38,1
163K34S1,575,experiment,62,↑,up,↑,0.43406939995475113,True,38,0
163K34S1,576,experiment,67,→,no_key,no_letter,-1.0,False,38,0
163K34S1,577,experiment,96,↓,down,↓,0.4669368999893777,True,38,1
163K34S1,578,experiment,71,↓,down,↓,0.4886775000486523,True,38,0
163K34S1,579,experiment,80,←,right,→,0.5775990000111051,False,38,1
163K34S1,580,experiment,77,↑,down,↓,0.37576460000127554,False,38,1
163K34S1,581,experiment,86,↓,down,↓,0.5804221999715082,True,38,0
163K34S1,582,experiment,69,→,right,→,0.4590825999621302,True,38,1
163K34S1,583,experiment,104,→,right,→,0.3674343999591656,True,38,0
163K34S1,584,experiment,68,↓,down,↓,0.5148132999893278,True,38,0
163K34S1,585,experiment,94,→,right,→,0.4509595000417903,True,38,1
163K34S1,586,experiment,55,→,left,←,0.5852059000171721,False,38,0
163K34S1,587,experiment,106,←,left,←,0.5745810000225902,True,38,1
163K34S1,588,experiment,79,↓,down,↓,0.45910619996720925,True,38,1
163K34S1,589,experiment,82,→,left,←,0.6384776000049897,False,38,0
163K34S1,590,experiment,65,←,left,←,0.5027662999927998,True,38,1
163K34S1,591,experiment,60,←,left,←,0.43433349998667836,True,38,1
163K34S1,592,experiment,58,↑,no_key,no_letter,-1.0,False,38,0
163K34S1,593,experiment,51,↓,down,↓,0.4671867999713868,True,38,1
163K34S1,594,experiment,108,→,right,→,0.5053726999904029,True,38,0
163K34S1,595,experiment,59,←,left,←,0.4505162999848835,True,38,1
163K34S1,596,experiment,64,↓,down,↓,0.7612773000146262,True,38,0
163K34S1,597,experiment,78,↑,up,↑,0.45922439999412745,True,38,1
163K34S1,598,experiment,72,↓,up,↑,0.533467200002633,False,38,0
163K34S1,599,experiment,107,↑,up,↑,0.4425355999846943,True,38,1
163K34S1,600,experiment,92,↓,down,↓,0.6192094999714755,True,38,0
163K34S1,601,experiment,56,↓,down,↓,0.42543050000676885,True,38,1
163K34S1,602,experiment,98,→,right,→,0.573423299996648,True,38,0
163K34S1,603,experiment,89,→,right,→,0.39305810001678765,True,38,1
163K34S1,604,experiment,54,→,left,←,0.4590506000095047,False,38,0
163K34S1,605,experiment,66,→,right,→,0.459033899998758,True,38,0
163K34S1,606,experiment,83,↓,down,↓,0.4173499000025913,True,38,0
163K34S1,607,experiment,84,→,right,→,0.3995772000052966,True,38,0
163K34S1,608,training,77,→,right,→,0.40913759998511523,True,38,0
163K34S1,609,training,100,↑,up,↑,0.37561300001107156,True,38,0
163K34S1,610,experiment,69,↑,up,↑,0.3424292000127025,True,38,0
163K34S1,611,experiment,63,↑,up,↑,0.35922490002121776,True,38,0
163K34S1,612,experiment,68,←,right,→,0.5580221000127494,False,38,0
163K34S1,613,experiment,100,→,right,→,0.38392200000816956,True,38,1
163K34S1,614,experiment,75,↑,right,→,0.5650797999696806,False,38,0
163K34S1,615,experiment,76,←,left,←,0.5091915999655612,True,38,1
163K34S1,616,experiment,89,←,up,↑,0.39244210004108027,False,38,1
163K34S1,617,experiment,106,←,right,→,0.4874259000062011,False,38,0
163K34S1,618,experiment,90,→,right,→,0.5091034999932162,True,38,0
163K34S1,619,experiment,77,↑,up,↑,0.6227055000490509,True,38,1
163K34S1,620,experiment,81,↑,up,↑,0.5303902999730781,True,38,1
163K34S1,621,experiment,61,←,left,←,0.42587899998761714,True,38,1
163K34S1,622,experiment,82,→,right,→,0.667658299964387,True,38,0
163K34S1,623,experiment,86,↓,right,→,0.5399387000361457,False,38,1
163K34S1,624,experiment,104,→,no_key,no_letter,-1.0,False,38,1
163K34S1,625,experiment,99,←,up,↑,0.6348041000310332,False,38,1
163K34S1,626,experiment,55,↑,up,↑,0.42598679999355227,True,38,1
163K34S1,627,experiment,79,←,no_key,no_letter,-1.0,False,38,0
163K34S1,628,experiment,93,↑,up,↑,0.49243780004326254,True,38,1
163K34S1,629,experiment,97,→,right,→,0.5912555999821052,True,38,1
163K34S1,630,experiment,66,←,no_key,no_letter,-1.0,False,38,1
163K34S1,631,experiment,71,↑,left,←,0.521916700003203,False,38,1
163K34S1,632,experiment,65,→,left,←,0.4955168000306003,False,38,1
163K34S1,633,experiment,95,↑,no_key,no_letter,-1.0,False,38,1
163K34S1,634,experiment,64,←,left,←,0.4507288000313565,True,38,1
163K34S1,635,experiment,78,→,right,→,0.4978218000032939,True,38,0
163K34S1,636,experiment,74,↑,up,↑,0.4090899999719113,True,38,1
163K34S1,637,experiment,49,↓,down,↓,0.49162689998047426,True,38,0
163K34S1,638,experiment,48,↓,down,↓,0.5593464000266977,True,38,1
163K34S1,639,experiment,105,↓,down,↓,0.6616987000452355,True,38,1
163K34S1,640,experiment,54,↓,down,↓,0.5530703999684192,True,38,1
163K34S1,641,experiment,108,→,left,←,0.566737299959641,False,38,1
163K34S1,642,experiment,107,↑,down,↓,0.50826509995386,False,38,1
163K34S1,643,experiment,72,↓,up,↑,0.6955586000112817,False,38,1
163K34S1,644,experiment,70,↓,up,↑,0.5801939000375569,False,38,1
163K34S1,645,experiment,56,↓,down,↓,0.5303370000328869,True,38,1
163K34S1,646,experiment,67,↓,down,↓,0.55036769999424,True,38,1
163K34S1,647,experiment,53,→,down,↓,0.4505318000447005,False,38,1
163K34S1,648,experiment,51,↓,down,↓,0.5788015999714844,True,38,0
163K34S1,649,experiment,80,→,right,→,0.44214040000224486,True,38,1
163K34S1,650,experiment,85,↑,up,↑,0.3756946999928914,True,38,0
163K34S1,651,experiment,83,←,left,←,0.5991277000284754,True,38,0
163K34S1,652,experiment,91,→,right,→,0.4275928999995813,True,38,1
163K34S1,653,experiment,84,→,right,→,0.51499120000517,True,38,0
163K34S1,654,experiment,98,←,left,←,0.6932947000022978,True,38,1
163K34S1,655,experiment,52,↑,up,↑,0.5920591999893077,True,38,1
163K34S1,656,experiment,60,↓,down,↓,0.6521307000075467,True,38,1
163K34S1,657,experiment,102,←,left,←,0.42544069996802136,True,38,1
163K34S1,658,experiment,101,←,left,←,0.45911809999961406,True,38,0
163K34S1,659,experiment,62,←,left,←,0.6530475000035949,True,38,0
163K34S1,660,experiment,58,↑,up,↑,0.48809080000501126,True,38,1
163K34S1,661,experiment,92,→,right,→,0.6611441999557428,True,38,1
163K34S1,662,experiment,57,↓,down,↓,0.6552080000401475,True,38,1
163K34S1,663,experiment,103,↓,down,↓,0.4902130999835208,True,38,1
163K34S1,664,experiment,94,←,left,←,0.4507893000263721,True,38,0
163K34S1,665,experiment,87,↓,down,↓,0.409169299993664,True,38,0
163K34S1,666,experiment,88,↑,up,↑,0.5054209000081755,True,38,0
163K34S1,667,experiment,59,←,left,←,0.7128113999497145,True,38,1
163K34S1,668,experiment,96,→,right,→,0.6678328000125475,True,38,1
163K34S1,669,experiment,73,↑,up,↑,0.40984560002107173,True,38,1
163K34S1,670,experiment,50,←,left,←,0.5186771000153385,True,38,0
163K34S1,671,training,64,↓,down,↓,0.6126070000464097,True,38,0
163K34S1,672,training,102,←,left,←,0.5612518999841996,True,38,1
163K34S1,673,experiment,104,↑,up,↑,0.7199406000436284,True,38,1
163K34S1,674,experiment,55,↓,down,↓,0.45101409999188036,True,38,1
163K34S1,675,experiment,103,↓,no_key,no_letter,-1.0,False,38,0
163K34S1,676,experiment,95,←,left,←,0.48474980000173673,True,38,1
163K34S1,677,experiment,83,↑,up,↑,0.4088937999913469,True,38,0
163K34S1,678,experiment,57,↓,down,↓,0.4341816999949515,True,38,0
163K34S1,679,experiment,66,←,left,←,0.33332039997912943,True,38,0
163K34S1,680,experiment,63,↓,down,↓,0.5901642999961041,True,38,0
163K34S1,681,experiment,94,↓,down,↓,0.630839699995704,True,38,1
163K34S1,682,experiment,74,←,left,←,0.49290599999949336,True,38,1
163K34S1,683,experiment,79,→,right,→,0.4943473999737762,True,38,1
163K34S1,684,experiment,56,←,left,←,0.48737639997852966,True,38,1
163K34S1,685,experiment,58,←,up,↑,0.424699499970302,False,38,0
163K34S1,686,experiment,106,→,left,←,0.4911578000173904,False,38,0
163K34S1,687,experiment,90,↓,down,↓,0.4253915000008419,True,38,1
163K34S1,688,experiment,81,↑,down,↓,0.6998744999873452,False,38,0
163K34S1,689,experiment,61,←,left,←,0.43404230003943667,True,38,1
163K34S1,690,experiment,75,↑,up,↑,0.5363142000278458,True,38,0
163K34S1,691,experiment,84,↓,left,←,0.5029532000189647,False,38,1
163K34S1,692,experiment,71,↑,up,↑,0.41748679999727756,True,38,1
163K34S1,693,experiment,99,→,right,→,0.43387569999322295,True,38,0
163K34S1,694,experiment,92,↑,left,←,0.4673863999778405,False,38,0
163K34S1,695,experiment,100,→,up,↑,0.6429777999874204,False,38,0
163K34S1,696,experiment,82,←,left,←,0.4591223999741487,True,38,1
163K34S1,697,experiment,70,→,right,→,0.44235930003924295,True,38,0
163K34S1,698,experiment,54,→,right,→,0.4423469000030309,True,38,0
163K34S1,699,experiment,52,←,left,←,0.5316878000157885,True,38,0
163K34S1,700,experiment,93,↓,down,↓,0.6790796999703161,True,38,1
163K34S1,701,experiment,73,↓,down,↓,0.6433262000209652,True,38,1
163K34S1,702,experiment,64,→,right,→,0.7163824000163004,True,38,1
163K34S1,703,experiment,48,↑,up,↑,0.4507762999855913,True,38,1
163K34S1,704,experiment,98,←,left,←,0.4925400000065565,True,38,0
163K34S1,705,experiment,68,↓,no_key,no_letter,-1.0,False,38,1
163K34S1,706,experiment,89,←,left,←,0.45080930000403896,True,38,1
163K34S1,707,experiment,101,→,left,←,0.5514154999982566,False,38,0
163K34S1,708,experiment,62,↓,down,↓,0.5003751000040211,True,38,1
163K34S1,709,experiment,59,↓,down,↓,0.660724300018046,True,38,1
163K34S1,710,experiment,72,↑,down,↓,0.5938558999914676,False,38,1
163K34S1,711,experiment,96,→,left,←,0.6338929999619722,False,38,1
163K34S1,712,experiment,107,↓,down,↓,0.5087489999714307,True,38,1
163K34S1,713,experiment,91,→,up,↑,0.5936179000418633,False,38,1
163K34S1,714,experiment,80,↑,up,↑,0.4339962999802083,True,38,1
163K34S1,715,experiment,97,→,no_key,no_letter,-1.0,False,38,0
163K34S1,716,experiment,105,↓,no_key,no_letter,-1.0,False,38,1
163K34S1,717,experiment,49,←,right,→,0.49042759998701513,False,38,1
163K34S1,718,experiment,69,↓,down,↓,0.4873350000125356,True,38,1
163K34S1,719,experiment,108,→,right,→,0.4330813999986276,True,38,1
163K34S1,720,experiment,51,←,left,←,0.38416269997833297,True,38,0
163K34S1,721,experiment,77,↓,down,↓,0.7144846000010148,True,38,0
163K34S1,722,experiment,86,→,left,←,0.528857400000561,False,38,1
163K34S1,723,experiment,87,→,right,→,0.4004850999917835,True,38,1
163K34S1,724,experiment,60,↑,up,↑,0.6420383999939077,True,38,0
163K34S1,725,experiment,65,↑,up,↑,0.45154880004702136,True,38,1
163K34S1,726,experiment,102,↓,down,↓,0.4421594999730587,True,38,0
163K34S1,727,experiment,76,→,left,←,0.498228200012818,False,38,0
163K34S1,728,experiment,53,↓,up,↑,0.5719516999670304,False,38,1
163K34S1,729,experiment,78,↑,no_key,no_letter,-1.0,False,38,1
163K34S1,730,experiment,85,↓,down,↓,0.6473265999811701,True,38,1
163K34S1,731,experiment,88,↓,left,←,0.5432727000443265,False,38,1
163K34S1,732,experiment,50,←,no_key,no_letter,-1.0,False,38,1
163K34S1,733,experiment,67,→,right,→,0.4674955999944359,True,38,1
163K34S1,734,training,73,↓,no_key,no_letter,-1.0,False,38,0
163K34S1,735,training,54,↓,down,↓,0.5017392999725416,True,38,1
163K34S1,736,experiment,83,↓,down,↓,0.621468500001356,True,38,1
163K34S1,737,experiment,103,↓,down,↓,0.626159000035841,True,38,1
163K34S1,738,experiment,80,→,right,→,0.4946586000151001,True,38,1
163K34S1,739,experiment,107,↑,up,↑,0.3925888999947347,True,38,1
163K34S1,740,experiment,100,←,left,←,0.4584113999735564,True,38,0
163K34S1,741,experiment,54,←,left,←,0.6716982999932952,True,38,0
163K34S1,742,experiment,101,←,left,←,0.5148200999828987,True,38,1
163K34S1,743,experiment,90,↓,down,↓,0.639846200007014,True,38,1
163K34S1,744,experiment,61,←,no_key,no_letter,-1.0,False,38,1
163K34S1,745,experiment,49,↓,down,↓,0.6340487000416033,True,38,1
163K34S1,746,experiment,55,→,no_key,no_letter,-1.0,False,38,1
163K34S1,747,experiment,95,↓,no_key,no_letter,-1.0,False,38,1
163K34S1,748,experiment,56,↓,down,↓,0.6595999999553896,True,38,1
163K34S1,749,experiment,98,→,left,←,0.46690589998615906,False,38,1
163K34S1,750,experiment,70,↓,down,↓,0.417401599988807,True,38,0
163K34S1,751,experiment,62,↓,down,↓,0.5837185999844223,True,38,0
163K34S1,752,experiment,108,↑,no_key,no_letter,-1.0,False,38,1
163K34S1,753,experiment,60,↓,up,↑,0.5362812000093982,False,38,1
163K34S1,754,experiment,63,↑,up,↑,0.4862763999844901,True,38,1
163K34S1,755,experiment,92,←,left,←,0.4507990999845788,True,38,0
163K34S1,756,experiment,78,↓,no_key,no_letter,-1.0,False,38,0
163K34S1,757,experiment,99,↑,up,↑,0.42508919996907935,True,38,1
163K34S1,758,experiment,71,↑,up,↑,0.4929956999840215,True,38,0
163K34S1,759,experiment,84,↓,down,↓,0.40903469995828345,True,38,1
163K34S1,760,experiment,94,↑,up,↑,0.34262050001416355,True,38,0
163K34S1,761,experiment,65,↑,down,↓,0.4963458999991417,False,38,0
163K34S1,762,experiment,75,↑,up,↑,0.425753099960275,True,38,1
163K34S1,763,experiment,50,←,left,←,0.5205404000007547,True,38,0
163K34S1,764,experiment,86,←,left,←,0.4876113000209443,True,38,1
163K34S1,765,experiment,88,↑,no_key,no_letter,-1.0,False,38,0
163K34S1,766,experiment,58,←,left,←,0.5385228000232019,True,38,1
163K34S1,767,experiment,87,↑,up,↑,0.35915059997932985,True,38,1
163K34S1,768,experiment,73,↑,up,↑,0.3673450000351295,True,38,0
163K34S1,769,experiment,72,↑,up,↑,0.5210846999543719,True,38,0
163K34S1,770,experiment,104,←,up,↑,0.44214840000495315,False,38,1
163K34S1,771,experiment,96,→,no_key,no_letter,-1.0,False,38,0
163K34S1,772,experiment,82,←,left,←,0.5396882999921218,True,38,1
163K34S1,773,experiment,106,→,no_key,no_letter,-1.0,False,38,1
163K34S1,774,experiment,66,↓,down,↓,0.5407277999911457,True,38,1
163K34S1,775,experiment,85,↓,down,↓,0.40072240005247295,True,38,1
163K34S1,776,experiment,74,↑,down,↓,1.033075099985581,False,38,0
163K34S1,777,experiment,69,↓,no_key,no_letter,-1.0,False,38,1
163K34S1,778,experiment,97,↓,down,↓,0.6003387999953702,True,38,1
163K34S1,779,experiment,105,↓,down,↓,0.7409797000000253,True,38,1
163K34S1,780,experiment,48,←,left,←,0.655429299979005,True,38,1
163K34S1,781,experiment,64,↑,up,↑,0.6711300000315532,True,38,1
163K34S1,782,experiment,51,→,right,→,0.45184670004528016,True,38,1
163K34S1,783,experiment,76,↑,no_key,no_letter,-1.0,False,38,0
163K34S1,784,experiment,67,↓,down,↓,0.5048378999927081,True,38,1
163K34S1,785,experiment,68,↑,down,↓,0.4857264999882318,False,38,1
163K34S1,786,experiment,53,↑,up,↑,0.6717385000083596,True,38,0
163K34S1,787,experiment,79,↑,up,↑,0.41743979998864233,True,38,1
163K34S1,788,experiment,81,→,right,→,0.4257010000292212,True,38,0
163K34S1,789,experiment,93,←,left,←,0.4590996999759227,True,38,0
163K34S1,790,experiment,77,←,left,←,0.384091800020542,True,38,0
163K34S1,791,experiment,59,↑,up,↑,0.42566880001686513,True,38,0
163K34S1,792,experiment,102,←,left,←,0.5854217000305653,True,38,0
163K34S1,793,experiment,91,←,left,←,0.6196900999639183,True,38,1
163K34S1,794,experiment,52,↑,no_key,no_letter,-1.0,False,38,1
163K34S1,795,experiment,89,←,left,←,0.6203216000576504,True,38,1
163K34S1,796,experiment,57,↓,left,←,0.5122107999632135,False,38,1
163K34S1,797,training,55,↑,up,↑,0.45913089998066425,True,38,0
163K34S1,798,training,61,↓,up,↑,0.49878059996990487,False,38,0
163K34S1,799,experiment,63,←,left,←,0.5449835999752395,True,38,1
163K34S1,800,experiment,93,←,left,←,0.4590785999898799,True,38,1
163K34S1,801,experiment,62,→,right,→,0.4850872999522835,True,38,0
163K34S1,802,experiment,75,↓,up,↑,0.5355257999617606,False,38,0
163K34S1,803,experiment,87,↑,up,↑,0.6209073000354692,True,38,1
163K34S1,804,experiment,105,→,right,→,0.6086285999626853,True,38,1
163K34S1,805,experiment,94,↓,down,↓,0.6087197000160813,True,38,1
163K34S1,806,experiment,56,↑,up,↑,0.45070919999852777,True,38,1
163K34S1,807,experiment,58,↑,up,↑,0.38427079998655245,True,38,0
163K34S1,808,experiment,71,←,left,←,0.7039530000183731,True,38,0
163K34S1,809,experiment,107,↓,down,↓,0.6719475999707356,True,38,1
163K34S1,810,experiment,60,↓,down,↓,0.5449837999767624,True,38,1
163K34S1,811,experiment,64,←,no_key,no_letter,-1.0,False,38,1
163K34S1,812,experiment,88,→,right,→,0.5843904999783263,True,38,1
163K34S1,813,experiment,73,←,right,→,0.5683581000193954,False,38,1
163K34S1,814,experiment,55,→,right,→,0.4506925999885425,True,38,1
163K34S1,815,experiment,74,↓,down,↓,0.4424515000428073,True,38,0
163K34S1,816,experiment,48,↑,up,↑,0.6897016000002623,True,38,0
163K34S1,817,experiment,101,↑,up,↑,0.4340430999873206,True,38,1
163K34S1,818,experiment,96,↓,down,↓,0.43411380000179633,True,38,0
163K34S1,819,experiment,52,←,left,←,0.6468433000263758,True,38,0
163K34S1,820,experiment,106,←,left,←,0.45044560002861544,True,38,1
163K34S1,821,experiment,104,→,right,→,0.6518258000141941,True,38,0
163K34S1,822,experiment,70,↑,up,↑,0.5382986000040546,True,38,1
163K34S1,823,experiment,66,↓,down,↓,0.5584913999773562,True,38,1
163K34S1,824,experiment,67,↓,down,↓,0.41853399999672547,True,38,1
163K34S1,825,experiment,61,↓,down,↓,0.45885850000195205,True,38,0
163K34S1,826,experiment,97,↑,up,↑,0.49657599994679913,True,38,0
163K34S1,827,experiment,77,→,right,→,0.4676644999999553,True,38,1
163K34S1,828,experiment,99,↓,down,↓,0.654065599956084,True,38,0
163K34S1,829,experiment,72,↓,up,↑,0.787809000001289,False,38,1
163K34S1,830,experiment,83,↑,up,↑,0.4176549999974668,True,38,1
163K34S1,831,experiment,90,↓,no_key,no_letter,-1.0,False,38,0
163K34S1,832,experiment,69,↓,down,↓,0.5140647999942303,True,38,1
163K34S1,833,experiment,49,←,no_key,no_letter,-1.0,False,38,1
163K34S1,834,experiment,84,↓,down,↓,0.6173277000198141,True,38,1
163K34S1,835,experiment,59,→,left,←,0.6764730000286363,False,38,1
163K34S1,836,experiment,53,↓,left,←,0.8314830999588594,False,38,1
163K34S1,837,experiment,65,→,right,→,0.6802723999717273,True,38,1
163K34S1,838,experiment,89,→,left,←,0.5593206000048667,False,38,1
163K34S1,839,experiment,85,←,no_key,no_letter,-1.0,False,38,1
163K34S1,840,experiment,98,↑,up,↑,0.5959235000191256,True,38,1
163K34S1,841,experiment,80,←,left,←,0.46713120001368225,True,38,1
163K34S1,842,experiment,103,←,left,←,0.531258299946785,True,38,0
163K34S1,843,experiment,102,→,no_key,no_letter,-1.0,False,38,1
163K34S1,844,experiment,86,←,left,←,0.6313000000081956,True,38,1
163K34S1,845,experiment,51,←,right,→,0.5886893999995664,False,38,1
163K34S1,846,experiment,68,→,right,→,0.42452010000124574,True,38,1
163K34S1,847,experiment,54,←,left,←,0.45982300001196563,True,38,0
163K34S1,848,experiment,81,↑,up,↑,0.5004984000115655,True,38,0
163K34S1,849,experiment,82,↓,down,↓,0.7166309000458568,True,38,1
163K34S1,850,experiment,57,↑,down,↓,0.9407516000210308,False,38,1
163K34S1,851,experiment,91,↓,down,↓,0.5123712999629788,True,38,1
163K34S1,852,experiment,95,↓,down,↓,0.5720219000359066,True,38,1
163K34S1,853,experiment,50,←,left,←,0.5240978000219911,True,38,1
163K34S1,854,experiment,100,←,no_key,no_letter,-1.0,False,38,1
163K34S1,855,experiment,76,→,right,→,0.5323884999961592,True,38,1
163K34S1,856,experiment,108,←,left,←,0.46767159999581054,True,38,1
163K34S1,857,experiment,79,←,left,←,0.4174043000093661,True,38,0
163K34S1,858,experiment,78,↓,down,↓,0.641863500000909,True,38,0
163K34S1,859,experiment,92,←,left,←,0.4898037000093609,True,38,1
163K34S1,860,training,63,←,left,←,0.45919069997034967,True,38,0
163K34S1,861,training,85,↑,up,↑,0.46706599998287857,True,38,0
163K34S1,862,experiment,99,↓,down,↓,0.46743489999789745,True,38,0
163K34S1,863,experiment,49,←,left,←,0.40067630005069077,True,38,0
163K34S1,864,experiment,52,←,right,→,0.6075515000266023,False,38,0
163K34S1,865,experiment,91,←,up,↑,0.5127608999609947,False,38,1
163K34S1,866,experiment,77,↓,left,←,0.4902983999927528,False,38,1
163K34S1,867,experiment,57,→,right,→,0.4675594000145793,True,38,1
163K34S1,868,experiment,86,↓,no_key,no_letter,-1.0,False,38,0
163K34S1,869,experiment,100,↓,down,↓,0.6095082000247203,True,38,1
163K34S1,870,experiment,93,↓,down,↓,0.416770700016059,True,38,1
163K34S1,871,experiment,107,↑,up,↑,0.46744040003977716,True,38,0
163K34S1,872,experiment,85,←,left,←,0.4671253999695182,True,38,0
163K34S1,873,experiment,71,←,right,→,0.5465222999919206,False,38,0
163K34S1,874,experiment,105,↑,up,↑,0.41818929999135435,True,38,1
163K34S1,875,experiment,96,↓,down,↓,0.39235169999301434,True,38,0
163K34S1,876,experiment,95,↑,left,←,0.551651599991601,False,38,0
163K34S1,877,experiment,62,↑,up,↑,0.41739030001917854,True,38,1
163K34S1,878,experiment,79,←,left,←,0.4670651000342332,True,38,0
163K34S1,879,experiment,76,↓,down,↓,0.7889359000255354,True,38,0
163K34S1,880,experiment,65,↑,up,↑,0.5509452000260353,True,38,1
163K34S1,881,experiment,84,↑,up,↑,0.5725928000174463,True,38,1
163K34S1,882,experiment,72,↓,down,↓,0.40910340001573786,True,38,1
163K34S1,883,experiment,90,→,right,→,0.45106639998266473,True,38,0
163K34S1,884,experiment,74,←,left,←,0.6111967000178993,True,38,0
163K34S1,885,experiment,94,↓,down,↓,0.4163144000340253,True,38,1
163K34S1,886,experiment,50,↓,no_key,no_letter,-1.0,False,38,0
163K34S1,887,experiment,59,←,right,→,0.5258586999843828,False,38,1
163K34S1,888,experiment,68,↑,up,↑,0.4905983000062406,True,38,1
163K34S1,889,experiment,101,↓,down,↓,0.7563070000032894,True,38,1
163K34S1,890,experiment,54,↑,up,↑,0.43403740000212565,True,38,1
163K34S1,891,experiment,73,←,left,←,0.4900890999706462,True,38,0
163K34S1,892,experiment,53,→,right,→,0.5322555000311695,True,38,1
163K34S1,893,experiment,103,←,left,←,0.3923359999898821,True,38,1
163K34S1,894,experiment,98,←,right,→,0.4340939999674447,False,38,0
163K34S1,895,experiment,58,↑,left,←,0.7094116999651305,False,38,0
163K34S1,896,experiment,82,↑,no_key,no_letter,-1.0,False,38,1
163K34S1,897,experiment,64,←,left,←,0.5203941999934614,True,38,1
163K34S1,898,experiment,70,↑,right,→,0.5877252999925986,False,38,1
163K34S1,899,experiment,51,↓,down,↓,0.7228721999563277,True,38,1
163K34S1,900,experiment,81,←,left,←,0.39956750004785135,True,38,1
163K34S1,901,experiment,69,↓,down,↓,0.4516187999979593,True,38,0
163K34S1,902,experiment,104,↓,down,↓,0.44239480001851916,True,38,0
163K34S1,903,experiment,80,←,down,↓,0.6644688000087626,False,38,0
163K34S1,904,experiment,56,↑,up,↑,0.4340010000159964,True,38,1
163K34S1,905,experiment,83,↓,down,↓,0.5892768999910913,True,38,0
163K34S1,906,experiment,88,↓,no_key,no_letter,-1.0,False,38,1
163K34S1,907,experiment,102,↑,no_key,no_letter,-1.0,False,38,1
163K34S1,908,experiment,55,↓,down,↓,0.6844063999596983,True,38,1
163K34S1,909,experiment,89,←,no_key,no_letter,-1.0,False,38,1
163K34S1,910,experiment,78,↑,up,↑,0.46678570000221953,True,38,1
163K34S1,911,experiment,87,←,no_key,no_letter,-1.0,False,38,0
163K34S1,912,experiment,66,↑,up,↑,0.6028530999901704,True,38,1
163K34S1,913,experiment,108,↓,down,↓,0.4257936999783851,True,38,1
163K34S1,914,experiment,48,↑,up,↑,0.7329904999933206,True,38,0
163K34S1,915,experiment,61,←,left,←,0.4340554000227712,True,38,1
163K34S1,916,experiment,63,←,left,←,0.5320539000094868,True,38,0
163K34S1,917,experiment,97,↓,left,←,0.9101567000034265,False,38,1
163K34S1,918,experiment,106,↓,down,↓,0.40081099997041747,True,38,1
163K34S1,919,experiment,67,↓,no_key,no_letter,-1.0,False,38,0
163K34S1,920,experiment,92,↑,up,↑,0.6008396999677643,True,38,1
163K34S1,921,experiment,60,→,right,→,0.5484252999885939,True,38,1
163K34S1,922,experiment,75,←,no_key,no_letter,-1.0,False,38,1
163K34S1,923,training,75,↓,down,↓,0.6924390999483876,True,38,0
163K34S1,924,training,76,↑,up,↑,0.40875290002441034,True,38,1
163K34S1,925,experiment,106,←,no_key,no_letter,-1.0,False,38,0
163K34S1,926,experiment,68,→,right,→,0.5967415000195615,True,38,1
163K34S1,927,experiment,67,←,left,←,0.459016699984204,True,38,1
163K34S1,928,experiment,71,↑,up,↑,0.5634725000127219,True,38,0
163K34S1,929,experiment,81,←,left,←,0.45901220000814646,True,38,1
163K34S1,930,experiment,102,→,right,→,0.46737589995609596,True,38,0
163K34S1,931,experiment,80,↓,down,↓,0.4869436000008136,True,38,0
163K34S1,932,experiment,60,↑,up,↑,0.4092052000341937,True,38,0
163K34S1,933,experiment,69,↑,up,↑,0.3859643000178039,True,38,0
163K34S1,934,experiment,50,↑,up,↑,0.5420477000297979,True,38,0
163K34S1,935,experiment,52,↑,up,↑,0.5268210000358522,True,38,1
163K34S1,936,experiment,87,→,right,→,0.636563699983526,True,38,1
163K34S1,937,experiment,85,↓,no_key,no_letter,-1.0,False,38,1
163K34S1,938,experiment,54,↓,up,↑,0.5011457999935374,False,38,1
163K34S1,939,experiment,73,←,left,←,0.7281782999634743,True,38,1
163K34S1,940,experiment,101,↓,down,↓,0.59320810000645,True,38,1
163K34S1,941,experiment,84,↓,down,↓,0.6213453000527807,True,38,1
163K34S1,942,experiment,53,↓,left,←,0.41743339999811724,False,38,1
163K34S1,943,experiment,103,←,down,↓,0.4423973999801092,False,38,0
163K34S1,944,experiment,96,↓,down,↓,0.5648048000293784,True,38,0
163K34S1,945,experiment,104,←,left,←,0.627234400017187,True,38,1
163K34S1,946,experiment,78,↑,up,↑,0.6401000000187196,True,38,1
163K34S1,947,experiment,65,↑,up,↑,0.4174881999497302,True,38,1
163K34S1,948,experiment,75,←,left,←,0.5340650000143796,True,38,0
163K34S1,949,experiment,88,←,right,→,0.6678246000083163,False,38,1
163K34S1,950,experiment,63,→,no_key,no_letter,-1.0,False,38,1
163K34S1,951,experiment,98,→,right,→,0.5070119999581948,True,38,1
163K34S1,952,experiment,93,↓,down,↓,0.49563870002748445,True,38,1
163K34S1,953,experiment,79,↑,no_key,no_letter,-1.0,False,38,1
163K34S1,954,experiment,58,↑,up,↑,0.6133252999861725,True,38,1
163K34S1,955,experiment,55,←,left,←,0.45165250002173707,True,38,1
163K34S1,956,experiment,100,↓,right,→,0.35067449999041855,False,38,0
163K34S1,957,experiment,105,→,no_key,no_letter,-1.0,False,38,0
163K34S1,958,experiment,92,→,no_key,no_letter,-1.0,False,38,1
163K34S1,959,experiment,48,↓,down,↓,0.45068930002162233,True,38,1
163K34S1,960,experiment,77,←,right,→,0.6099905000301078,False,38,0
163K34S1,961,experiment,86,→,down,↓,0.5726533000124618,False,38,1
163K34S1,962,experiment,49,→,no_key,no_letter,-1.0,False,38,1
163K34S1,963,experiment,90,↓,no_key,no_letter,-1.0,False,38,1
163K34S1,964,experiment,64,↓,down,↓,0.5459307000273839,True,38,1
163K34S1,965,experiment,74,↓,down,↓,0.46017690002918243,True,38,1
163K34S1,966,experiment,97,↑,up,↑,0.5356457000016235,True,38,0
163K34S1,967,experiment,108,↓,down,↓,0.5503186999703757,True,38,1
163K34S1,968,experiment,59,←,left,←,0.4507717000087723,True,38,1
163K34S1,969,experiment,66,→,right,→,0.44242630002554506,True,38,0
163K34S1,970,experiment,107,↓,no_key,no_letter,-1.0,False,38,0
163K34S1,971,experiment,91,→,right,→,0.5115548000321724,True,38,1
163K34S1,972,experiment,57,←,right,→,0.5515955000300892,False,38,1
163K34S1,973,experiment,72,←,left,←,0.6813136999844573,True,38,1
163K34S1,974,experiment,51,→,right,→,0.5247441999963485,True,38,1
163K34S1,975,experiment,99,↓,down,↓,0.4865159000037238,True,38,1
163K34S1,976,experiment,95,↓,no_key,no_letter,-1.0,False,38,0
163K34S1,977,experiment,89,↓,down,↓,0.4859229000285268,True,38,1
163K34S1,978,experiment,83,↓,down,↓,0.4423763999948278,True,38,0
163K34S1,979,experiment,82,←,no_key,no_letter,-1.0,False,38,0
163K34S1,980,experiment,94,←,left,←,0.585004199994728,True,38,1
163K34S1,981,experiment,76,←,left,←,0.4251502000261098,True,38,1
163K34S1,982,experiment,70,←,left,←,0.4005664000287652,True,38,0
163K34S1,983,experiment,61,↑,up,↑,0.5063510999898426,True,38,0
163K34S1,984,experiment,56,↑,left,←,0.5389067999785766,False,38,1
163K34S1,985,experiment,62,→,left,←,0.45041069999570027,False,38,1
163K34S1,986,training,60,↑,up,↑,0.5231504000257701,True,38,0
163K34S1,987,training,73,←,left,←,0.5815450999652967,True,38,1
163K34S1,988,experiment,52,→,right,→,0.5486708999960683,True,38,1
163K34S1,989,experiment,96,↓,down,↓,0.814403600001242,True,38,1
163K34S1,990,experiment,108,↑,up,↑,0.38414089998696,True,38,1
163K34S1,991,experiment,85,→,no_key,no_letter,-1.0,False,38,0
163K34S1,992,experiment,95,↓,down,↓,0.48600299999816343,True,38,1
163K34S1,993,experiment,98,↑,no_key,no_letter,-1.0,False,38,0
163K34S1,994,experiment,100,↓,down,↓,0.4253141999943182,True,38,1
163K34S1,995,experiment,83,↓,no_key,no_letter,-1.0,False,38,0
163K34S1,996,experiment,56,→,up,↑,0.5046794000081718,False,38,1
163K34S1,997,experiment,50,↓,up,↑,0.6268123000045307,False,38,1
163K34S1,998,experiment,75,→,right,→,0.5286074000177905,True,38,1
163K34S1,999,experiment,84,↑,up,↑,0.6631951999734156,True,38,1
163K34S1,1000,experiment,94,↑,down,↓,0.5733365999767557,False,38,1
163K34S1,1001,experiment,97,→,right,→,0.49416940001538023,True,38,1
163K34S1,1002,experiment,92,←,left,←,0.5148281999863684,True,38,1
163K34S1,1003,experiment,62,↑,up,↑,0.5691550999763422,True,38,1
163K34S1,1004,experiment,57,↑,up,↑,0.5592549000284635,True,38,1
163K34S1,1005,experiment,61,↑,up,↑,0.4424860999570228,True,38,1
163K34S1,1006,experiment,58,↑,no_key,no_letter,-1.0,False,38,0
163K34S1,1007,experiment,101,←,left,←,0.6612287999596447,True,38,1
163K34S1,1008,experiment,74,←,left,←,0.5299244000343606,True,38,1
163K34S1,1009,experiment,104,↑,up,↑,0.4985889000236057,True,38,1
163K34S1,1010,experiment,55,↓,up,↑,0.555272999976296,False,38,1
163K34S1,1011,experiment,48,↑,up,↑,0.49332770000910386,True,38,1
163K34S1,1012,experiment,86,←,left,←,0.4500129999942146,True,38,1
163K34S1,1013,experiment,105,↓,up,↑,0.5501000999938697,False,38,0
163K34S1,1014,experiment,49,←,left,←,0.6078059999854304,True,38,1
163K34S1,1015,experiment,73,↑,up,↑,0.5429115999722853,True,38,1
163K34S1,1016,experiment,90,↑,up,↑,0.39183580002281815,True,38,1
163K34S1,1017,experiment,64,↓,down,↓,0.5970277999876998,True,38,0
163K34S1,1018,experiment,70,↓,left,←,0.5017439000075683,False,38,1
163K34S1,1019,experiment,81,→,down,↓,0.35924039996461943,False,38,1
163K34S1,1020,experiment,91,↑,no_key,no_letter,-1.0,False,38,0
163K34S1,1021,experiment,77,↓,down,↓,0.6151799999643117,True,38,1
163K34S1,1022,experiment,87,↓,down,↓,0.5932104999665171,True,38,1
163K34S1,1023,experiment,67,↓,down,↓,0.514867200050503,True,38,1
163K34S1,1024,experiment,66,→,right,→,0.5440860000089742,True,38,1
163K34S1,1025,experiment,63,←,left,←,0.5570288000162691,True,38,1
163K34S1,1026,experiment,60,←,no_key,no_letter,-1.0,False,38,1
163K34S1,1027,experiment,76,→,right,→,0.4978828000021167,True,38,1
163K34S1,1028,experiment,71,←,left,←,0.5333286000532098,True,38,1
163K34S1,1029,experiment,54,→,left,←,0.49420909996842965,False,38,1
163K34S1,1030,experiment,89,→,right,→,0.45911399996839464,True,38,1
163K34S1,1031,experiment,72,↓,down,↓,0.7214159999857657,True,38,0
163K34S1,1032,experiment,78,→,right,→,0.6418649000115693,True,38,1
163K34S1,1033,experiment,51,↓,down,↓,0.48766150005394593,True,38,1
163K34S1,1034,experiment,103,↓,down,↓,0.5448423000052571,True,38,0
163K34S1,1035,experiment,82,↑,up,↑,0.4337834999896586,True,38,1
163K34S1,1036,experiment,99,↓,down,↓,0.7566310000256635,True,38,0
163K34S1,1037,experiment,107,↓,down,↓,0.5782543999957852,True,38,1
163K34S1,1038,experiment,69,↑,down,↓,0.49250680004479364,False,38,1
163K34S1,1039,experiment,68,→,right,→,0.6411075000069104,True,38,1
163K34S1,1040,experiment,53,→,right,→,0.9334988000337034,True,38,1
163K34S1,1041,experiment,80,↓,down,↓,0.4174763999762945,True,38,1
163K34S1,1042,experiment,79,↓,down,↓,0.4091453999863006,True,38,0
163K34S1,1043,experiment,59,↑,no_key,no_letter,-1.0,False,38,0
163K34S1,1044,experiment,106,↓,down,↓,0.5226527000195347,True,38,1
163K34S1,1045,experiment,65,←,left,←,0.5030843000276946,True,38,1
163K34S1,1046,experiment,93,↓,down,↓,0.5632301000296138,True,38,1
163K34S1,1047,experiment,88,↓,down,↓,0.3679802999831736,True,38,1
163K34S1,1048,experiment,102,←,down,↓,0.37540349998744205,False,38,0
163K34S1,1049,training,84,←,left,←,0.5034732000203803,True,38,0
163K34S1,1050,training,52,→,left,←,0.4977793000289239,False,38,1
163K34S1,1051,experiment,106,→,right,→,0.4426458000089042,True,38,1
163K34S1,1052,experiment,95,←,left,←,0.6317013999796472,True,38,0
163K34S1,1053,experiment,104,←,right,→,0.42571250000037253,False,38,1
163K34S1,1054,experiment,65,↓,no_key,no_letter,-1.0,False,38,0
163K34S1,1055,experiment,50,←,left,←,0.44243190000997856,True,38,1
163K34S1,1056,experiment,100,↓,no_key,no_letter,-1.0,False,38,0
163K34S1,1057,experiment,67,↑,down,↓,0.7943242000183091,False,38,1
163K34S1,1058,experiment,69,→,down,↓,0.6350745999952778,False,38,1
163K34S1,1059,experiment,107,↓,left,←,0.669767800020054,False,38,1
163K34S1,1060,experiment,97,→,right,→,0.5306102000176907,True,38,1
163K34S1,1061,experiment,58,←,left,←,0.46715019998373464,True,38,1
163K34S1,1062,experiment,73,←,no_key,no_letter,-1.0,False,38,0
163K34S1,1063,experiment,89,→,right,→,0.7445984000223689,True,38,1
163K34S1,1064,experiment,63,→,right,→,0.5178439999581315,True,38,1
163K34S1,1065,experiment,53,→,left,←,0.48746869998285547,False,38,1
163K34S1,1066,experiment,90,↓,down,↓,0.5492288999957964,True,38,1
163K34S1,1067,experiment,54,→,right,→,0.45094509999034926,True,38,1
163K34S1,1068,experiment,61,→,right,→,0.8299796000355855,True,38,0
163K34S1,1069,experiment,79,→,right,→,0.391799200035166,True,38,1
163K34S1,1070,experiment,55,→,down,↓,0.5997062999522313,False,38,0
163K34S1,1071,experiment,74,↓,no_key,no_letter,-1.0,False,38,1
163K34S1,1072,experiment,70,↓,down,↓,0.535847700026352,True,38,1
163K34S1,1073,experiment,83,←,left,←,0.4588630000362173,True,38,1
163K34S1,1074,experiment,71,↓,no_key,no_letter,-1.0,False,38,0
163K34S1,1075,experiment,60,↓,down,↓,0.40928969997912645,True,38,1
163K34S1,1076,experiment,81,←,left,←,0.6681142000015825,True,38,0
163K34S1,1077,experiment,108,↓,down,↓,0.39234149997355416,True,38,1
163K34S1,1078,experiment,78,↓,down,↓,0.5228885000105947,True,38,0
163K34S1,1079,experiment,94,→,down,↓,0.4258124000043608,False,38,1
163K34S1,1080,experiment,82,←,right,→,0.4182657999917865,False,38,0
163K34S1,1081,experiment,66,↑,up,↑,0.6417401000508107,True,38,0
163K34S1,1082,experiment,56,←,left,←,0.4584024000214413,True,38,1
163K34S1,1083,experiment,103,←,left,←,0.615850500005763,True,38,0
163K34S1,1084,experiment,93,↑,up,↑,0.37655919999815524,True,38,1
163K34S1,1085,experiment,62,↓,up,↑,0.5393496000324376,False,38,0
163K34S1,1086,experiment,96,→,right,→,0.6613478999934159,True,38,1
163K34S1,1087,experiment,52,↓,down,↓,0.4590874999994412,True,38,1
163K34S1,1088,experiment,105,↑,up,↑,0.5557265999959782,True,38,0
163K34S1,1089,experiment,51,↓,up,↑,0.5318776999483816,False,38,1
163K34S1,1090,experiment,72,←,left,←,0.6783705999841914,True,38,1
163K34S1,1091,experiment,92,←,left,←,0.46737269998993725,True,38,1
163K34S1,1092,experiment,59,←,no_key,no_letter,-1.0,False,38,0
163K34S1,1093,experiment,49,→,right,→,0.48596989997895434,True,38,1
163K34S1,1094,experiment,77,→,left,←,0.4506487000035122,False,38,0
163K34S1,1095,experiment,80,↓,down,↓,0.5545569999958389,True,38,0
163K34S1,1096,experiment,87,←,left,←,0.7669004999916069,True,38,1
163K34S1,1097,experiment,102,↑,up,↑,0.5979163999436423,True,38,1
163K34S1,1098,experiment,84,→,right,→,0.6256938999867998,True,38,1
163K34S1,1099,experiment,76,→,right,→,0.5510803000070155,True,38,1
163K34S1,1100,experiment,85,←,left,←,0.5243931000004523,True,38,1
163K34S1,1101,experiment,91,←,left,←,0.7608100000070408,True,38,1
163K34S1,1102,experiment,101,↓,down,↓,0.5128920000279322,True,38,1
163K34S1,1103,experiment,68,→,right,→,0.5168976999702863,True,38,1
163K34S1,1104,experiment,57,↑,up,↑,0.45905119995586574,True,38,1
163K34S1,1105,experiment,48,→,right,→,0.5141632999875583,True,38,0
163K34S1,1106,experiment,86,↓,up,↑,0.4578742000157945,False,38,1
163K34S1,1107,experiment,88,←,left,←,0.5843392999959178,True,38,0
163K34S1,1108,experiment,64,↓,down,↓,0.4173416999983601,True,38,1
163K34S1,1109,experiment,75,↓,down,↓,0.41823379998095334,True,38,0
163K34S1,1110,experiment,98,↑,up,↑,0.4256852999678813,True,38,0
163K34S1,1111,experiment,99,↓,right,→,0.31726620002882555,False,38,0
163K34S1,1112,training,70,↓,down,↓,0.6012036999454722,True,38,0
163K34S1,1113,training,79,↓,down,↓,0.5345575999817811,True,38,1
163K34S1,1114,experiment,106,↑,up,↑,0.4173731000046246,True,38,1
163K34S1,1115,experiment,55,↓,down,↓,0.5383035999839194,True,38,0
163K34S1,1116,experiment,108,↑,up,↑,0.40904280001996085,True,38,1
163K34S1,1117,experiment,61,↓,down,↓,0.6113855000003241,True,38,0
163K34S1,1118,experiment,83,→,no_key,no_letter,-1.0,False,38,1
163K34S1,1119,experiment,76,↑,up,↑,0.5017029999871738,True,38,1
163K34S1,1120,experiment,79,↑,up,↑,0.7509325999999419,True,38,1
163K34S1,1121,experiment,100,↓,down,↓,0.527271400031168,True,38,1
163K34S1,1122,experiment,101,↓,down,↓,0.42585920001147315,True,38,1
163K34S1,1123,experiment,104,→,right,→,0.5721751000382937,True,38,0
163K34S1,1124,experiment,73,↑,no_key,no_letter,-1.0,False,38,1
163K34S1,1125,experiment,69,↑,up,↑,0.43400629999814555,True,38,1
163K34S1,1126,experiment,84,→,no_key,no_letter,-1.0,False,38,0
163K34S1,1127,experiment,97,↑,up,↑,0.4505843000370078,True,38,1
163K34S1,1128,experiment,90,→,right,→,0.5109148999908939,True,38,0
163K34S1,1129,experiment,53,↑,up,↑,0.4258228000253439,True,38,1
163K34S1,1130,experiment,51,↑,up,↑,0.3915238999761641,True,38,0
163K34S1,1131,experiment,96,↓,down,↓,0.5813928000279702,True,38,0
163K34S1,1132,experiment,91,→,right,→,0.9674593000090681,True,38,1
163K34S1,1133,experiment,77,↓,down,↓,0.510888300021179,True,38,1
163K34S1,1134,experiment,62,→,right,→,0.5975738000124693,True,38,1
163K34S1,1135,experiment,80,↓,down,↓,0.6187277000281028,True,38,1
163K34S1,1136,experiment,99,→,right,→,0.504986000014469,True,38,1
163K34S1,1137,experiment,92,↑,up,↑,0.7413246000069194,True,38,1
163K34S1,1138,experiment,58,→,no_key,no_letter,-1.0,False,38,1
163K34S1,1139,experiment,74,←,left,←,0.4921526000252925,True,38,1
163K34S1,1140,experiment,81,←,left,←,0.580720400030259,True,38,1
163K34S1,1141,experiment,48,↑,up,↑,0.43403320002835244,True,38,1
163K34S1,1142,experiment,86,↑,up,↑,0.5030664000078104,True,38,0
163K34S1,1143,experiment,52,→,no_key,no_letter,-1.0,False,38,1
163K34S1,1144,experiment,70,→,right,→,0.68162809999194,True,38,1
163K34S1,1145,experiment,105,↑,up,↑,0.5308015000191517,True,38,1
163K34S1,1146,experiment,75,←,left,←,0.4927751000504941,True,38,1
163K34S1,1147,experiment,88,→,right,→,0.46001300000352785,True,38,1
163K34S1,1148,experiment,60,→,right,→,0.5474313999875449,True,38,0
163K34S1,1149,experiment,63,→,right,→,0.4341834999504499,True,38,1
163K34S1,1150,experiment,102,→,right,→,0.7802757999743335,True,38,0
163K34S1,1151,experiment,94,→,left,←,0.8052496999735013,False,38,1
163K34S1,1152,experiment,49,↓,no_key,no_letter,-1.0,False,38,1
163K34S1,1153,experiment,71,↓,down,↓,0.6929574999958277,True,38,1
163K34S1,1154,experiment,98,↑,up,↑,0.42513899999903515,True,38,1
163K34S1,1155,experiment,82,↓,up,↑,0.44242079998366535,False,38,0
163K34S1,1156,experiment,67,↓,down,↓,0.5307297999970615,True,38,0
163K34S1,1157,experiment,59,↑,down,↓,0.5454530999995768,False,38,1
163K34S1,1158,experiment,65,↑,down,↓,0.5180812000180595,False,38,1
163K34S1,1159,experiment,68,→,right,→,0.666471200005617,True,38,1
163K34S1,1160,experiment,57,↑,no_key,no_letter,-1.0,False,38,1
163K34S1,1161,experiment,56,↓,down,↓,0.5859667000477202,True,38,1
163K34S1,1162,experiment,95,↓,down,↓,0.5546538999769837,True,38,1
163K34S1,1163,experiment,103,↑,up,↑,0.35140569997020066,True,38,1
163K34S1,1164,experiment,64,←,no_key,no_letter,-1.0,False,38,0
163K34S1,1165,experiment,66,↑,up,↑,0.40084209997439757,True,38,1
163K34S1,1166,experiment,87,↑,up,↑,0.39236800000071526,True,38,0
163K34S1,1167,experiment,93,←,no_key,no_letter,-1.0,False,38,0
163K34S1,1168,experiment,89,←,left,←,0.35889859998133034,True,38,1
163K34S1,1169,experiment,107,↑,up,↑,0.5229756999760866,True,38,0
163K34S1,1170,experiment,50,↓,no_key,no_letter,-1.0,False,38,1
163K34S1,1171,experiment,72,→,right,→,0.4423245000070892,True,38,1
163K34S1,1172,experiment,54,←,left,←,0.553148000035435,True,38,0
163K34S1,1173,experiment,78,↑,up,↑,0.4018752999836579,True,38,1
163K34S1,1174,experiment,85,→,right,→,0.4507801000145264,True,38,0
163K34S1,1175,training,63,→,right,→,0.4256652999902144,True,38,0
163K34S1,1176,training,106,↓,down,↓,0.5473238999838941,True,38,0
163K34S1,1177,experiment,102,↑,up,↑,0.6189437000430189,True,38,1
163K34S1,1178,experiment,94,↑,up,↑,0.44360800000140443,True,38,1
163K34S1,1179,experiment,53,←,right,→,0.43405430001439527,False,38,0
163K34S1,1180,experiment,105,↑,no_key,no_letter,-1.0,False,38,0
163K34S1,1181,experiment,100,↓,down,↓,0.46741949999704957,True,38,1
163K34S1,1182,experiment,64,→,left,←,0.7036561999702826,False,38,0
163K34S1,1183,experiment,101,←,left,←,0.43480809999164194,True,38,1
163K34S1,1184,experiment,77,→,no_key,no_letter,-1.0,False,38,0
163K34S1,1185,experiment,55,↓,no_key,no_letter,-1.0,False,38,1
163K34S1,1186,experiment,69,←,left,←,0.5169641999527812,True,38,1
163K34S1,1187,experiment,87,↑,up,↑,0.43382789997849613,True,38,1
163K34S1,1188,experiment,98,←,no_key,no_letter,-1.0,False,38,0
163K34S1,1189,experiment,63,→,right,→,0.5476469999994151,True,38,1
163K34S1,1190,experiment,71,↑,no_key,no_letter,-1.0,False,38,1
163K34S1,1191,experiment,82,↑,up,↑,0.490954699984286,True,38,1
163K34S1,1192,experiment,50,↓,no_key,no_letter,-1.0,False,38,1
163K34S1,1193,experiment,76,←,left,←,0.500751500017941,True,38,1
163K34S1,1194,experiment,83,↑,up,↑,0.8205189000000246,True,38,1
163K34S1,1195,experiment,89,→,left,←,0.4859709000447765,False,38,1
163K34S1,1196,experiment,84,↓,down,↓,0.5659415000118315,True,38,0
163K34S1,1197,experiment,88,←,left,←,0.5136544000124559,True,38,1
163K34S1,1198,experiment,70,↑,up,↑,0.48587769997539,True,38,1
163K34S1,1199,experiment,58,↑,up,↑,0.5182160999975167,True,38,0
163K34S1,1200,experiment,90,↑,up,↑,0.4175639000022784,True,38,1
163K34S1,1201,experiment,93,←,left,←,0.5309596000006422,True,38,0
163K34S1,1202,experiment,108,→,right,→,0.49019140005111694,True,38,1
163K34S1,1203,experiment,60,→,left,←,0.5373778000357561,False,38,0
163K34S1,1204,experiment,79,↓,up,↑,0.5616344999871217,False,38,1
163K34S1,1205,experiment,59,←,left,←,0.5839195000007749,True,38,1
163K34S1,1206,experiment,54,→,no_key,no_letter,-1.0,False,38,1
163K34S1,1207,experiment,51,↑,up,↑,0.5889302999712527,True,38,1
163K34S1,1208,experiment,74,↑,up,↑,0.5489461999968626,True,38,1
163K34S1,1209,experiment,61,←,no_key,no_letter,-1.0,False,38,1
163K34S1,1210,experiment,104,←,left,←,0.6794219000148587,True,38,1
163K34S1,1211,experiment,52,↑,up,↑,0.6266164999688044,True,38,1
163K34S1,1212,experiment,107,→,no_key,no_letter,-1.0,False,38,1
163K34S1,1213,experiment,106,↓,left,←,0.538455999980215,False,38,1
163K34S1,1214,experiment,56,←,right,→,0.5541701000183821,False,38,1
163K34S1,1215,experiment,72,→,right,→,0.4939600999932736,True,38,1
163K34S1,1216,experiment,97,↑,up,↑,0.45917079999344423,True,38,1
163K34S1,1217,experiment,95,↓,up,↑,0.4931011000298895,False,38,0
163K34S1,1218,experiment,62,↑,no_key,no_letter,-1.0,False,38,1
163K34S1,1219,experiment,68,←,down,↓,0.6130904000019655,False,38,1
163K34S1,1220,experiment,73,↑,up,↑,0.42583849997026846,True,38,1
163K34S1,1221,experiment,99,←,left,←,0.45900449994951487,True,38,0
163K34S1,1222,experiment,78,↑,no_key,no_letter,-1.0,False,38,0
163K34S1,1223,experiment,80,←,left,←,0.45064719999209046,True,38,1
163K34S1,1224,experiment,49,↑,up,↑,0.45102680003037676,True,38,0
163K34S1,1225,experiment,103,↓,down,↓,0.41764970001531765,True,38,0
163K34S1,1226,experiment,75,←,left,←,0.4088608999736607,True,38,0
163K34S1,1227,experiment,81,↑,left,←,0.7237116000032984,False,38,0
163K34S1,1228,experiment,91,↓,down,↓,0.5520867999875918,True,38,1
163K34S1,1229,experiment,65,↓,no_key,no_letter,-1.0,False,38,1
163K34S1,1230,experiment,85,↑,up,↑,0.4421040000161156,True,38,1
163K34S1,1231,experiment,67,↓,down,↓,0.5514316000044346,True,38,0
163K34S1,1232,experiment,48,↑,up,↑,0.4667380999890156,True,38,1
163K34S1,1233,experiment,92,↓,down,↓,0.591240799985826,True,38,0
163K34S1,1234,experiment,86,←,left,←,0.4423737999750301,True,38,1
163K34S1,1235,experiment,57,↑,down,↓,0.6454224000335671,False,38,0
163K34S1,1236,experiment,66,↑,up,↑,0.6294608999742195,True,38,1
163K34S1,1237,experiment,96,↑,up,↑,0.4847241000388749,True,38,1
163K34S1,1238,training,90,←,left,←,0.45904619997600093,True,38,0
163K34S1,1239,training,52,←,left,←,0.4899889000225812,True,38,0
163K34S1,1240,experiment,52,←,left,←,0.7081453000428155,True,38,0
163K34S1,1241,experiment,90,←,no_key,no_letter,-1.0,False,38,1
163K34S1,1242,experiment,91,↓,down,↓,0.6513736000051722,True,38,1
163K34S1,1243,experiment,107,←,left,←,0.45047909999266267,True,38,1
163K34S1,1244,experiment,97,↑,up,↑,0.4431578999501653,True,38,0
163K34S1,1245,experiment,87,↑,up,↑,0.4007530999951996,True,38,0
163K34S1,1246,experiment,49,↓,left,←,0.5296357999905013,False,38,0
163K34S1,1247,experiment,70,→,no_key,no_letter,-1.0,False,38,1
163K34S1,1248,experiment,108,←,down,↓,0.5289816000149585,False,38,1
163K34S1,1249,experiment,50,←,right,→,0.5071240999968722,False,38,1
163K34S1,1250,experiment,95,↓,down,↓,0.4954105000360869,True,38,1
163K34S1,1251,experiment,55,←,left,←,0.4966840999550186,True,38,1
163K34S1,1252,experiment,93,→,right,→,0.4590763000305742,True,38,1
163K34S1,1253,experiment,57,↓,down,↓,0.46709359996020794,True,38,0
163K34S1,1254,experiment,60,→,no_key,no_letter,-1.0,False,38,0
163K34S1,1255,experiment,48,↓,down,↓,0.4884858999866992,True,38,1
163K34S1,1256,experiment,83,→,right,→,0.4892544000176713,True,38,1
163K34S1,1257,experiment,67,→,right,→,0.46739080001134425,True,38,0
163K34S1,1258,experiment,100,↑,up,↑,0.4504066000226885,True,38,0
163K34S1,1259,experiment,106,→,right,→,0.6356229000375606,True,38,0
163K34S1,1260,experiment,88,↓,down,↓,0.620684000023175,True,38,1
163K34S1,1261,experiment,98,↓,up,↑,0.3923600999987684,False,38,1
163K34S1,1262,experiment,65,↓,down,↓,0.5731309000402689,True,38,0
163K34S1,1263,experiment,86,←,no_key,no_letter,-1.0,False,38,1
163K34S1,1264,experiment,53,→,right,→,0.5438079999876209,True,38,1
163K34S1,1265,experiment,76,↓,no_key,no_letter,-1.0,False,38,1
163K34S1,1266,experiment,61,←,right,→,0.49298790004104376,False,38,1
163K34S1,1267,experiment,92,←,right,→,0.5056947999983095,False,38,1
163K34S1,1268,experiment,74,↑,up,↑,0.4507158999913372,True,38,1
163K34S1,1269,experiment,85,→,left,←,0.5576129999826662,False,38,0
163K34S1,1270,experiment,96,↓,down,↓,0.5509452999685891,True,38,1
163K34S1,1271,experiment,58,→,right,→,0.5494521000073291,True,38,1
163K34S1,1272,experiment,69,←,left,←,0.35074869997333735,True,38,1
163K34S1,1273,experiment,89,←,right,→,0.4004211000283249,False,38,0
163K34S1,1274,experiment,62,←,left,←,0.4875288999755867,True,38,0
163K34S1,1275,experiment,79,→,left,←,0.720484999998007,False,38,0
163K34S1,1276,experiment,63,→,right,→,0.7424671999760903,True,38,1
163K34S1,1277,experiment,71,→,right,→,0.4504206000128761,True,38,1
163K34S1,1278,experiment,66,↑,up,↑,0.6962657999829389,True,38,0
163K34S1,1279,experiment,102,→,right,→,0.45052239997312427,True,38,1
163K34S1,1280,experiment,75,↓,left,←,0.5038199999835342,False,38,0
163K34S1,1281,experiment,105,↑,up,↑,0.45081489998847246,True,38,1
163K34S1,1282,experiment,80,↓,no_key,no_letter,-1.0,False,38,0
163K34S1,1283,experiment,82,↓,down,↓,0.38413379999110475,True,38,1
163K34S1,1284,experiment,56,←,down,↓,0.636694599990733,False,38,0
163K34S1,1285,experiment,51,↑,left,←,0.6338204999919981,False,38,1
163K34S1,1286,experiment,103,←,left,←,0.549527199997101,True,38,1
163K34S1,1287,experiment,81,→,right,→,0.5005826999549754,True,38,1
163K34S1,1288,experiment,73,→,left,←,0.4423026000149548,False,38,1
163K34S1,1289,experiment,64,←,right,→,0.5204257000004873,False,38,0
163K34S1,1290,experiment,68,←,right,→,0.6365235000266694,False,38,1
163K34S1,1291,experiment,54,←,no_key,no_letter,-1.0,False,38,1
163K34S1,1292,experiment,59,↓,down,↓,0.6859445999725722,True,38,1
163K34S1,1293,experiment,101,←,left,←,0.5521605999674648,True,38,1
163K34S1,1294,experiment,99,→,left,←,0.5129735000082292,False,38,1
163K34S1,1295,experiment,104,←,right,→,0.6652913000434637,False,38,1
163K34S1,1296,experiment,77,↓,down,↓,0.49266259995056316,True,38,1
163K34S1,1297,experiment,72,←,left,←,0.45873860002029687,True,38,1
163K34S1,1298,experiment,84,←,left,←,0.5295976000488736,True,38,0
163K34S1,1299,experiment,94,↑,down,↓,0.6528802000102587,False,38,1
163K34S1,1300,experiment,78,↓,down,↓,0.696579500043299,True,38,1
163K34S1,1301,training,97,↓,down,↓,0.7251199000165798,True,39,0
163K34S1,1302,training,88,→,right,→,0.6822253999998793,True,39,1
163K34S1,1303,experiment,84,→,right,→,0.72282450000057,True,39,1
163K34S1,1304,experiment,95,←,left,←,0.42569689999800175,True,39,1
163K34S1,1305,experiment,73,→,right,→,1.0838052000035532,True,39,0
163K34S1,1306,experiment,105,↓,down,↓,0.5016154000186361,True,39,1
163K34S1,1307,experiment,90,→,right,→,0.5949566999915987,True,39,1
163K34S1,1308,experiment,88,→,right,→,0.6213752999901772,True,39,1
163K34S1,1309,experiment,104,←,right,→,0.5373552999808453,False,39,1
163K34S1,1310,experiment,93,→,right,→,0.5405846000066958,True,39,1
163K34S1,1311,experiment,99,←,left,←,0.5335239000269212,True,39,1
163K34S1,1312,experiment,50,→,right,→,0.3925351000507362,True,39,1
163K34S1,1313,experiment,77,↑,up,↑,0.7334560999879614,True,39,0
163K34S1,1314,experiment,62,←,left,←,0.49966050003422424,True,39,1
163K34S1,1315,experiment,81,←,left,←,0.5959548000246286,True,39,1
163K34S1,1316,experiment,52,↓,down,↓,0.5463577000191435,True,39,1
163K34S1,1317,experiment,63,←,left,←,0.4423856000066735,True,39,1
163K34S1,1318,experiment,106,→,left,←,0.6815269999788143,False,39,0
163K34S1,1319,experiment,82,←,left,←,0.442369399999734,True,39,1
163K34S1,1320,experiment,56,→,right,→,0.6378287000115961,True,39,0
163K34S1,1321,experiment,87,↓,down,↓,0.5268000999931246,True,39,1
163K34S1,1322,experiment,55,↓,down,↓,0.433872000023257,True,39,1
163K34S1,1323,experiment,57,→,right,→,0.5224128999980167,True,39,0
163K34S1,1324,experiment,53,←,left,←,0.41667880001477897,True,39,1
163K34S1,1325,experiment,59,↑,down,↓,0.5425491000059992,False,39,0
163K34S1,1326,experiment,78,→,right,→,0.6465635999920778,True,39,1
163K34S1,1327,experiment,80,→,left,←,0.4347991999820806,False,39,1
163K34S1,1328,experiment,51,→,right,→,0.45890110003529117,True,39,0
163K34S1,1329,experiment,61,↓,down,↓,0.45899960002861917,True,39,0
163K34S1,1330,experiment,49,→,right,→,0.660221999976784,True,39,0
163K34S1,1331,experiment,71,←,left,←,0.825962700007949,True,39,1
163K34S1,1332,experiment,60,↓,down,↓,0.4673779000295326,True,39,1
163K34S1,1333,experiment,75,→,right,→,0.4420880999532528,True,39,0
163K34S1,1334,experiment,64,←,left,←,0.43338899995433167,True,39,0
163K34S1,1335,experiment,92,↑,up,↑,0.43416499998420477,True,39,0
163K34S1,1336,experiment,89,↑,up,↑,0.5846198999788612,True,39,0
163K34S1,1337,experiment,54,↑,up,↑,0.5590711000259034,True,39,1
163K34S1,1338,experiment,65,→,up,↑,0.5468288999982178,False,39,1
163K34S1,1339,experiment,79,↑,up,↑,0.5302653999533504,True,39,1
163K34S1,1340,experiment,70,↓,down,↓,0.5333355999900959,True,39,1
163K34S1,1341,experiment,102,→,right,→,0.5816254999954253,True,39,1
163K34S1,1342,experiment,103,→,right,→,0.5556639999849722,True,39,1
163K34S1,1343,experiment,48,→,no_key,no_letter,-1.0,False,39,1
163K34S1,1344,experiment,58,→,right,→,0.6497690000105649,True,39,1
163K34S1,1345,experiment,76,↑,up,↑,0.5980521000456065,True,39,1
163K34S1,1346,experiment,98,→,right,→,0.40932219999376684,True,39,1
163K34S1,1347,experiment,66,↓,down,↓,0.7342837999458425,True,39,0
163K34S1,1348,experiment,108,↓,down,↓,0.5885222000069916,True,39,1
163K34S1,1349,experiment,97,←,left,←,0.4347997999866493,True,39,1
163K34S1,1350,experiment,69,↑,up,↑,0.38487879995955154,True,39,0
163K34S1,1351,experiment,68,←,no_key,no_letter,-1.0,False,39,0
163K34S1,1352,experiment,72,↓,down,↓,0.6366360999527387,True,39,1
163K34S1,1353,experiment,100,→,right,→,0.47545139997964725,True,39,1
163K34S1,1354,experiment,101,←,left,←,0.39133979997131974,True,39,0
163K34S1,1355,experiment,107,←,left,←,0.4583285999833606,True,39,0
163K34S1,1356,experiment,86,→,right,→,0.6568264999659732,True,39,0
163K34S1,1357,experiment,94,↑,up,↑,0.5588061000453308,True,39,1
163K34S1,1358,experiment,67,→,right,→,0.6819176999852061,True,39,1
163K34S1,1359,experiment,85,→,right,→,0.4756199999828823,True,39,1
163K34S1,1360,experiment,91,↑,up,↑,0.6319904999691062,True,39,0
163K34S1,1361,experiment,74,→,right,→,0.6858170000487007,True,39,1
163K34S1,1362,experiment,83,↓,up,↑,0.5424733000108972,False,39,1
163K34S1,1363,experiment,96,→,right,→,0.4673849000246264,True,39,1
