PART_ID,Trial_no,Trial_type,CSI,Stim_letter,Key_pressed,letter_choose,Rt,Corr,Stimulus Time,nDropped
163K34S3,1,training,120,←,left,←,0.9508378999307752,True,60,0
163K34S3,2,training,120,↑,up,↑,0.6091322996653616,True,60,0
163K34S3,3,training,120,↑,up,↑,0.6174665000289679,True,60,0
163K34S3,4,training,120,→,right,→,0.5674339001998305,True,60,0
163K34S3,5,training,120,↓,down,↓,0.6922968002036214,True,60,0
163K34S3,6,training,120,↓,down,↓,0.5423973998986185,True,60,0
163K34S3,7,training,120,→,right,→,0.492442199960351,True,60,0
163K34S3,8,training,120,→,right,→,0.6340696001425385,True,60,0
163K34S3,9,training,120,↑,up,↑,0.44356200005859137,True,60,0
163K34S3,10,training,120,↑,up,↑,0.4342417996376753,True,60,0
163K34S3,11,training,120,↑,up,↑,0.5584323997609317,True,60,0
163K34S3,12,training,120,↑,up,↑,0.5425418000668287,True,60,0
163K34S3,13,training,120,→,right,→,0.5507861003279686,True,60,0
163K34S3,14,training,120,←,left,←,0.7145994999445975,True,60,0
163K34S3,15,training,120,↑,up,↑,0.44353790022432804,True,60,0
163K34S3,16,training,120,→,right,→,0.443168300203979,True,60,0
163K34S3,17,training,120,→,right,→,0.5339497001841664,True,60,0
163K34S3,18,training,120,↑,up,↑,0.5425241999328136,True,60,0
163K34S3,19,training,120,←,left,←,0.44358000019565225,True,60,0
163K34S3,20,training,120,→,right,→,0.5011748000979424,True,60,0
163K34S3,21,no_adaptation,120,↑,up,↑,0.7168832002207637,True,36,0
163K34S3,22,no_adaptation,120,↑,up,↑,0.5030318996869028,True,36,0
163K34S3,23,no_adaptation,120,↑,up,↑,0.4978262004442513,True,36,0
163K34S3,24,no_adaptation,120,↑,up,↑,0.4507777001708746,True,36,0
163K34S3,25,no_adaptation,120,→,up,↑,0.6019696001894772,False,36,0
163K34S3,26,no_adaptation,120,↓,down,↓,0.6328275999985635,True,36,0
163K34S3,27,no_adaptation,120,→,right,→,0.47110099997371435,True,36,0
163K34S3,28,no_adaptation,120,←,left,←,0.4088900997303426,True,36,0
163K34S3,29,no_adaptation,120,↓,down,↓,0.8654351001605392,True,36,0
163K34S3,30,no_adaptation,120,→,right,→,0.47042829962447286,True,36,0
163K34S3,31,no_adaptation,120,←,left,←,0.4266741001047194,True,36,0
163K34S3,32,no_adaptation,120,↑,up,↑,0.7354508000425994,True,36,0
163K34S3,33,no_adaptation,120,↓,down,↓,0.6968070003204048,True,36,0
163K34S3,34,no_adaptation,120,↑,up,↑,0.684039699845016,True,36,0
163K34S3,35,no_adaptation,120,→,right,→,0.6638763998635113,True,36,0
163K34S3,36,no_adaptation,120,↓,down,↓,0.4924360001459718,True,36,0
163K34S3,37,no_adaptation,120,←,left,←,0.47210010001435876,True,36,0
163K34S3,38,no_adaptation,120,↑,up,↑,0.4342619003728032,True,36,0
163K34S3,39,no_adaptation,120,→,right,→,0.6811099001206458,True,36,0
163K34S3,40,no_adaptation,120,←,no_key,no_letter,-1.0,False,36,0
163K34S3,41,training,55,←,left,←,0.5045433002524078,True,36,0
163K34S3,42,training,51,←,left,←,0.6994068999774754,True,36,1
163K34S3,43,experiment,48,↑,up,↑,0.5670305998064578,True,36,1
163K34S3,44,experiment,88,↑,up,↑,0.4009360997006297,True,36,1
163K34S3,45,experiment,77,←,up,↑,0.5525472997687757,False,36,0
163K34S3,46,experiment,89,↑,up,↑,0.43381209997460246,True,36,1
163K34S3,47,experiment,62,→,left,←,0.6860899003222585,False,36,0
163K34S3,48,experiment,49,←,no_key,no_letter,-1.0,False,36,1
163K34S3,49,experiment,67,→,right,→,0.7327242000028491,True,36,1
163K34S3,50,experiment,91,→,right,→,0.5046434001997113,True,36,1
163K34S3,51,experiment,83,←,left,←,0.8084253999404609,True,36,1
163K34S3,52,experiment,93,↓,down,↓,0.7127813999541104,True,36,1
163K34S3,53,experiment,69,↓,up,↑,0.5811347002163529,False,36,1
163K34S3,54,experiment,76,→,right,→,0.5084683997556567,True,36,1
163K34S3,55,experiment,56,←,left,←,0.5889543001540005,True,36,1
163K34S3,56,experiment,71,↑,up,↑,0.7892998000606894,True,36,1
163K34S3,57,experiment,66,←,left,←,0.44236139999702573,True,36,1
163K34S3,58,experiment,74,↑,up,↑,0.4174416996538639,True,36,0
163K34S3,59,experiment,90,↑,up,↑,0.6052597998641431,True,36,0
163K34S3,60,experiment,54,←,left,←,0.6827182001434267,True,36,1
163K34S3,61,experiment,98,→,right,→,0.6303514996543527,True,36,1
163K34S3,62,experiment,68,→,no_key,no_letter,-1.0,False,36,1
163K34S3,63,experiment,59,→,right,→,0.5153139000758529,True,36,1
163K34S3,64,experiment,79,↓,down,↓,0.7160439002327621,True,36,1
163K34S3,65,experiment,80,←,left,←,0.45075419964268804,True,36,1
163K34S3,66,experiment,53,↑,up,↑,0.6961873001419008,True,36,0
163K34S3,67,experiment,97,←,left,←,0.46814180025830865,True,36,1
163K34S3,68,experiment,51,↓,down,↓,0.48719790019094944,True,36,0
163K34S3,69,experiment,96,↓,down,↓,0.6117041995748878,True,36,1
163K34S3,70,experiment,87,←,left,←,0.670051600318402,True,36,1
163K34S3,71,experiment,81,↓,down,↓,0.6160740000195801,True,36,1
163K34S3,72,experiment,63,→,no_key,no_letter,-1.0,False,36,1
163K34S3,73,experiment,55,→,right,→,0.4733330002054572,True,36,1
163K34S3,74,experiment,95,←,left,←,0.6538794999942183,True,36,1
163K34S3,75,experiment,61,←,left,←,0.45066870003938675,True,36,1
163K34S3,76,experiment,60,←,left,←,0.45047560008242726,True,36,0
163K34S3,77,experiment,103,↓,down,↓,0.4681005999445915,True,36,0
163K34S3,78,experiment,101,↑,up,↑,0.6628670003265142,True,36,0
163K34S3,79,experiment,106,→,right,→,0.44215499982237816,True,36,1
163K34S3,80,experiment,92,↑,up,↑,0.44235080014914274,True,36,0
163K34S3,81,experiment,72,↓,down,↓,0.5732547999359667,True,36,0
163K34S3,82,experiment,78,←,left,←,0.6526631000451744,True,36,1
163K34S3,83,experiment,70,↓,down,↓,0.7303706002421677,True,36,1
163K34S3,84,experiment,104,←,left,←,0.4425794999115169,True,36,1
163K34S3,85,experiment,52,↑,up,↑,0.4257755996659398,True,36,0
163K34S3,86,experiment,57,↑,up,↑,0.5855917003937066,True,36,0
163K34S3,87,experiment,102,↑,up,↑,0.4422565000131726,True,36,1
163K34S3,88,experiment,82,←,left,←,0.5303766001015902,True,36,0
163K34S3,89,experiment,99,↓,down,↓,0.6836961996741593,True,36,1
163K34S3,90,experiment,64,↑,up,↑,0.5387320998124778,True,36,1
163K34S3,91,experiment,108,↓,down,↓,0.704802599735558,True,36,1
163K34S3,92,experiment,94,→,right,→,0.47746469965204597,True,36,1
163K34S3,93,experiment,85,←,left,←,0.4174490999430418,True,36,1
163K34S3,94,experiment,86,↑,down,↓,0.5752126001752913,False,36,0
163K34S3,95,experiment,50,←,left,←,0.6791429999284446,True,36,1
163K34S3,96,experiment,58,↓,no_key,no_letter,-1.0,False,36,1
163K34S3,97,experiment,100,→,left,←,0.6557139996439219,False,36,1
163K34S3,98,experiment,107,↓,down,↓,0.601316399872303,True,36,1
163K34S3,99,experiment,105,↑,up,↑,0.47065869998186827,True,36,1
163K34S3,100,experiment,65,→,right,→,0.4771143002435565,True,36,0
163K34S3,101,experiment,73,→,right,→,0.8334977999329567,True,36,1
163K34S3,102,experiment,84,↓,down,↓,0.5892019001767039,True,36,1
163K34S3,103,experiment,75,→,right,→,0.6110171996988356,True,36,1
163K34S3,104,training,71,↓,down,↓,0.6374576999805868,True,36,0
163K34S3,105,training,90,←,left,←,0.4931753999553621,True,36,1
163K34S3,106,experiment,107,→,right,→,0.6535506001673639,True,36,1
163K34S3,107,experiment,83,←,left,←,0.4091158998198807,True,36,1
163K34S3,108,experiment,71,→,right,→,0.48000979982316494,True,36,0
163K34S3,109,experiment,85,→,right,→,0.4007802000269294,True,36,1
163K34S3,110,experiment,97,↓,down,↓,0.5824081003665924,True,36,0
163K34S3,111,experiment,99,↓,down,↓,0.4857278997078538,True,36,1
163K34S3,112,experiment,106,↑,up,↑,0.4507617000490427,True,36,1
163K34S3,113,experiment,68,←,left,←,0.5168792000040412,True,36,0
163K34S3,114,experiment,92,↓,down,↓,0.6014063004404306,True,36,1
163K34S3,115,experiment,69,↑,up,↑,0.5861305999569595,True,36,1
163K34S3,116,experiment,89,→,right,→,0.6129564000293612,True,36,1
163K34S3,117,experiment,66,←,left,←,0.4173928997479379,True,36,1
163K34S3,118,experiment,67,↑,up,↑,0.4788883002474904,True,36,0
163K34S3,119,experiment,70,↓,down,↓,0.61143619986251,True,36,1
163K34S3,120,experiment,76,↑,down,↓,0.5614825999364257,False,36,1
163K34S3,121,experiment,49,↑,no_key,no_letter,-1.0,False,36,1
163K34S3,122,experiment,63,↓,down,↓,0.5505311000160873,True,36,1
163K34S3,123,experiment,65,↓,down,↓,0.586587400175631,True,36,1
163K34S3,124,experiment,104,↑,up,↑,0.3847994999960065,True,36,1
163K34S3,125,experiment,86,→,right,→,0.6912719998508692,True,36,0
163K34S3,126,experiment,90,↑,up,↑,0.6575432000681758,True,36,1
163K34S3,127,experiment,60,→,right,→,0.714684400241822,True,36,1
163K34S3,128,experiment,79,↓,no_key,no_letter,-1.0,False,36,1
163K34S3,129,experiment,56,↑,up,↑,0.6177040999755263,True,36,1
163K34S3,130,experiment,73,←,left,←,0.6804098999127746,True,36,1
163K34S3,131,experiment,58,→,right,→,0.6014975998550653,True,36,1
163K34S3,132,experiment,64,↓,down,↓,0.6279428000561893,True,36,1
163K34S3,133,experiment,103,↓,down,↓,0.5601992001757026,True,36,1
163K34S3,134,experiment,88,→,right,→,0.5082090999931097,True,36,1
163K34S3,135,experiment,108,←,left,←,0.6516535002738237,True,36,1
163K34S3,136,experiment,98,↑,up,↑,0.6087051997892559,True,36,1
163K34S3,137,experiment,94,↑,down,↓,0.5847029001452029,False,36,1
163K34S3,138,experiment,54,→,right,→,0.6313582002185285,True,36,1
163K34S3,139,experiment,62,↑,up,↑,0.6568980002775788,True,36,1
163K34S3,140,experiment,87,↓,no_key,no_letter,-1.0,False,36,1
163K34S3,141,experiment,81,↓,down,↓,0.47126440005376935,True,36,1
163K34S3,142,experiment,50,↑,up,↑,0.715196100063622,True,36,0
163K34S3,143,experiment,75,↑,up,↑,0.4172438997775316,True,36,1
163K34S3,144,experiment,80,↑,up,↑,0.5212555001489818,True,36,0
163K34S3,145,experiment,102,←,left,←,0.426522099878639,True,36,1
163K34S3,146,experiment,84,↓,down,↓,0.47656039986759424,True,36,0
163K34S3,147,experiment,51,↓,down,↓,0.5918564000166953,True,36,1
163K34S3,148,experiment,105,↓,no_key,no_letter,-1.0,False,36,1
163K34S3,149,experiment,72,→,left,←,0.5739630996249616,False,36,1
163K34S3,150,experiment,95,←,left,←,0.4713858002796769,True,36,1
163K34S3,151,experiment,61,↑,up,↑,0.6152667002752423,True,36,0
163K34S3,152,experiment,55,→,right,→,0.6599946999922395,True,36,1
163K34S3,153,experiment,59,↑,up,↑,0.4176245001144707,True,36,1
163K34S3,154,experiment,53,↓,down,↓,0.642845899797976,True,36,0
163K34S3,155,experiment,57,→,right,→,0.49394609965384007,True,36,1
163K34S3,156,experiment,77,↑,up,↑,0.5603763000108302,True,36,1
163K34S3,157,experiment,78,→,left,←,0.5197120998054743,False,36,1
163K34S3,158,experiment,93,→,no_key,no_letter,-1.0,False,36,1
163K34S3,159,experiment,52,↑,up,↑,0.6194537002593279,True,36,1
163K34S3,160,experiment,74,→,no_key,no_letter,-1.0,False,36,1
163K34S3,161,experiment,96,←,left,←,0.41736699966713786,True,36,1
163K34S3,162,experiment,100,↓,down,↓,0.48870009975507855,True,36,0
163K34S3,163,experiment,101,↓,down,↓,0.5703500001691282,True,36,1
163K34S3,164,experiment,91,↓,down,↓,0.5651394003070891,True,36,1
163K34S3,165,experiment,48,↓,no_key,no_letter,-1.0,False,36,1
163K34S3,166,experiment,82,↑,down,↓,0.5717154000885785,False,36,1
163K34S3,167,training,60,←,left,←,0.679143900051713,True,36,0
163K34S3,168,training,107,←,no_key,no_letter,-1.0,False,36,1
163K34S3,169,experiment,92,←,left,←,0.5142669999040663,True,36,1
163K34S3,170,experiment,49,←,no_key,no_letter,-1.0,False,36,1
163K34S3,171,experiment,85,←,left,←,0.3924786001443863,True,36,1
163K34S3,172,experiment,54,↓,down,↓,0.6312747998163104,True,36,0
163K34S3,173,experiment,94,→,left,←,0.5262709003873169,False,36,1
163K34S3,174,experiment,103,←,left,←,0.4087584000080824,True,36,1
163K34S3,175,experiment,70,→,right,→,0.5904001998715103,True,36,0
163K34S3,176,experiment,73,↑,down,↓,0.5661439998075366,False,36,1
163K34S3,177,experiment,72,←,no_key,no_letter,-1.0,False,36,1
163K34S3,178,experiment,50,←,left,←,0.4340113000944257,True,36,1
163K34S3,179,experiment,59,↓,down,↓,0.49005840020254254,True,36,0
163K34S3,180,experiment,83,↓,down,↓,0.4431945001706481,True,36,1
163K34S3,181,experiment,62,↓,down,↓,0.5150186000391841,True,36,0
163K34S3,182,experiment,60,↓,down,↓,0.5701689003035426,True,36,1
163K34S3,183,experiment,61,←,left,←,0.5669027999974787,True,36,1
163K34S3,184,experiment,87,↓,no_key,no_letter,-1.0,False,36,1
163K34S3,185,experiment,71,→,up,↑,0.6121767000295222,False,36,1
163K34S3,186,experiment,51,↓,down,↓,0.4507422000169754,True,36,1
163K34S3,187,experiment,105,→,right,→,0.4930044002830982,True,36,0
163K34S3,188,experiment,68,↓,down,↓,0.4341794000938535,True,36,1
163K34S3,189,experiment,93,↑,down,↓,0.569508200045675,False,36,0
163K34S3,190,experiment,76,↓,down,↓,0.48937989957630634,True,36,1
163K34S3,191,experiment,79,←,left,←,0.7068348000757396,True,36,1
163K34S3,192,experiment,95,↑,up,↑,0.6546434001065791,True,36,1
163K34S3,193,experiment,86,→,no_key,no_letter,-1.0,False,36,1
163K34S3,194,experiment,89,←,left,←,0.5865365001372993,True,36,1
163K34S3,195,experiment,90,←,right,→,0.5969999996013939,False,36,1
163K34S3,196,experiment,80,→,no_key,no_letter,-1.0,False,36,1
163K34S3,197,experiment,98,↓,down,↓,0.47461909987032413,True,36,1
163K34S3,198,experiment,74,→,right,→,0.5580961001105607,True,36,1
163K34S3,199,experiment,84,→,right,→,0.49917880026623607,True,36,1
163K34S3,200,experiment,65,→,left,←,0.6494005997665226,False,36,1
163K34S3,201,experiment,55,↑,up,↑,0.5728866001591086,True,36,1
163K34S3,202,experiment,91,↑,up,↑,0.5670821997337043,True,36,1
163K34S3,203,experiment,57,←,left,←,0.5651610996574163,True,36,1
163K34S3,204,experiment,66,→,right,→,0.6723130000755191,True,36,1
163K34S3,205,experiment,52,↓,down,↓,0.5156042003072798,True,36,1
163K34S3,206,experiment,100,←,left,←,0.42551369965076447,True,36,1
163K34S3,207,experiment,99,←,left,←,0.4078441997990012,True,36,0
163K34S3,208,experiment,58,↓,no_key,no_letter,-1.0,False,36,0
163K34S3,209,experiment,102,→,right,→,0.48574679996818304,True,36,1
163K34S3,210,experiment,48,→,left,←,0.8337961002252996,False,36,1
163K34S3,211,experiment,67,↑,up,↑,0.7458554999902844,True,36,1
163K34S3,212,experiment,81,←,left,←,0.6725870999507606,True,36,1
163K34S3,213,experiment,96,↓,down,↓,0.44216120010241866,True,36,1
163K34S3,214,experiment,64,→,right,→,0.47029109997674823,True,36,0
163K34S3,215,experiment,82,←,left,←,0.4007800999097526,True,36,0
163K34S3,216,experiment,69,→,right,→,0.5193917001597583,True,36,0
163K34S3,217,experiment,104,↓,down,↓,0.5921006998978555,True,36,1
163K34S3,218,experiment,108,←,left,←,0.45093690045177937,True,36,1
163K34S3,219,experiment,88,↓,down,↓,0.6038770000450313,True,36,0
163K34S3,220,experiment,97,↓,down,↓,0.45074590016156435,True,36,1
163K34S3,221,experiment,63,→,right,→,0.49196220003068447,True,36,0
163K34S3,222,experiment,78,←,left,←,0.5898036998696625,True,36,1
163K34S3,223,experiment,53,→,no_key,no_letter,-1.0,False,36,1
163K34S3,224,experiment,107,↓,down,↓,0.5214100000448525,True,36,1
163K34S3,225,experiment,56,→,right,→,0.5775732002221048,True,36,1
163K34S3,226,experiment,77,↑,up,↑,0.6246051997877657,True,36,1
163K34S3,227,experiment,75,↓,down,↓,0.4174639997072518,True,36,1
163K34S3,228,experiment,101,→,right,→,0.5233284998685122,True,36,0
163K34S3,229,experiment,106,→,right,→,0.4910877998918295,True,36,1
163K34S3,230,training,67,↓,down,↓,0.5964739001356065,True,36,0
163K34S3,231,training,87,→,right,→,0.7271263999864459,True,36,1
163K34S3,232,experiment,86,↓,no_key,no_letter,-1.0,False,36,1
163K34S3,233,experiment,74,↓,down,↓,0.5254722000099719,True,36,1
163K34S3,234,experiment,105,←,left,←,0.7010300997644663,True,36,1
163K34S3,235,experiment,64,↑,up,↑,0.45072249975055456,True,36,1
163K34S3,236,experiment,56,→,right,→,0.5823012003675103,True,36,0
163K34S3,237,experiment,70,←,left,←,0.4255270999856293,True,36,1
163K34S3,238,experiment,67,↓,up,↑,0.6153862001374364,False,36,0
163K34S3,239,experiment,82,←,left,←,0.47564070019870996,True,36,1
163K34S3,240,experiment,107,↑,up,↑,0.45075209997594357,True,36,1
163K34S3,241,experiment,102,↓,down,↓,0.6231685001403093,True,36,0
163K34S3,242,experiment,83,↓,down,↓,0.5862488998100162,True,36,1
163K34S3,243,experiment,50,↑,no_key,no_letter,-1.0,False,36,1
163K34S3,244,experiment,80,↑,up,↑,0.5043005999177694,True,36,1
163K34S3,245,experiment,54,↑,up,↑,0.5300130997784436,True,36,1
163K34S3,246,experiment,65,↓,no_key,no_letter,-1.0,False,36,1
163K34S3,247,experiment,98,↓,down,↓,0.5749854003079236,True,36,1
163K34S3,248,experiment,57,↑,up,↑,0.4174174000509083,True,36,1
163K34S3,249,experiment,77,↑,up,↑,0.41718059964478016,True,36,0
163K34S3,250,experiment,73,↑,up,↑,0.6562256002798676,True,36,0
163K34S3,251,experiment,104,→,left,←,0.562833399977535,False,36,1
163K34S3,252,experiment,78,←,left,←,0.4349135998636484,True,36,1
163K34S3,253,experiment,48,←,left,←,0.7038198998197913,True,36,0
163K34S3,254,experiment,72,↓,down,↓,0.6913786996155977,True,36,1
163K34S3,255,experiment,103,↓,down,↓,0.6610403996892273,True,36,1
163K34S3,256,experiment,90,↑,up,↑,0.4091147999279201,True,36,1
163K34S3,257,experiment,66,↑,up,↑,0.4090094999410212,True,36,0
163K34S3,258,experiment,96,↓,no_key,no_letter,-1.0,False,36,0
163K34S3,259,experiment,97,→,right,→,0.685240600258112,True,36,1
163K34S3,260,experiment,76,→,left,←,0.728122599888593,False,36,1
163K34S3,261,experiment,52,↑,up,↑,0.6415232000872493,True,36,1
163K34S3,262,experiment,93,↑,up,↑,0.4504852001555264,True,36,1
163K34S3,263,experiment,63,↑,up,↑,0.5771674998104572,True,36,0
163K34S3,264,experiment,101,↓,down,↓,0.7681206995621324,True,36,1
163K34S3,265,experiment,62,←,left,←,0.6844387999735773,True,36,1
163K34S3,266,experiment,51,↑,up,↑,0.5999027001671493,True,36,1
163K34S3,267,experiment,84,↓,down,↓,0.6275666998699307,True,36,1
163K34S3,268,experiment,94,↓,down,↓,0.4838851001113653,True,36,1
163K34S3,269,experiment,88,↑,up,↑,0.4430939997546375,True,36,1
163K34S3,270,experiment,85,↑,no_key,no_letter,-1.0,False,36,0
163K34S3,271,experiment,71,→,right,→,0.4424565997906029,True,36,1
163K34S3,272,experiment,99,←,left,←,0.4258024003356695,True,36,0
163K34S3,273,experiment,81,←,left,←,0.6364136999472976,True,36,0
163K34S3,274,experiment,89,←,left,←,0.4421836002729833,True,36,1
163K34S3,275,experiment,58,→,right,→,0.47999959997832775,True,36,0
163K34S3,276,experiment,69,→,right,→,0.47738469997420907,True,36,1
163K34S3,277,experiment,61,→,left,←,0.5736193996854126,False,36,1
163K34S3,278,experiment,55,↓,down,↓,0.7479693000204861,True,36,1
163K34S3,279,experiment,59,↑,up,↑,0.5939886998385191,True,36,1
163K34S3,280,experiment,68,↑,up,↑,0.555300600361079,True,36,1
163K34S3,281,experiment,60,←,left,←,0.5687003000639379,True,36,1
163K34S3,282,experiment,100,↑,up,↑,0.4809244000352919,True,36,1
163K34S3,283,experiment,75,←,left,←,0.4507699003443122,True,36,1
163K34S3,284,experiment,108,↑,up,↑,0.6292408998124301,True,36,0
163K34S3,285,experiment,95,↓,down,↓,0.48412680020555854,True,36,1
163K34S3,286,experiment,91,→,left,←,0.5939952000044286,False,36,1
163K34S3,287,experiment,53,↑,up,↑,0.5844975998625159,True,36,1
163K34S3,288,experiment,92,→,right,→,0.7301683002151549,True,36,1
163K34S3,289,experiment,87,←,left,←,0.5195550001226366,True,36,1
163K34S3,290,experiment,106,→,right,→,0.42548099998384714,True,36,1
163K34S3,291,experiment,79,↓,up,↑,0.6435044999234378,False,36,0
163K34S3,292,experiment,49,←,left,←,0.5130566000007093,True,36,1
163K34S3,293,training,56,←,left,←,0.4424644000828266,True,36,0
163K34S3,294,training,55,↓,up,↑,0.5565640996210277,False,36,0
163K34S3,295,experiment,108,←,left,←,0.4174553998745978,True,36,1
163K34S3,296,experiment,104,↓,down,↓,0.60606520017609,True,36,0
163K34S3,297,experiment,53,←,left,←,0.6197049003094435,True,36,1
163K34S3,298,experiment,97,←,no_key,no_letter,-1.0,False,36,1
163K34S3,299,experiment,58,→,right,→,0.4727991996333003,True,36,1
163K34S3,300,experiment,49,←,left,←,0.5963572999462485,True,36,1
163K34S3,301,experiment,100,↑,up,↑,0.4257571999914944,True,36,1
163K34S3,302,experiment,95,←,left,←,0.49759749975055456,True,36,0
163K34S3,303,experiment,82,→,right,→,0.45105989975854754,True,36,1
163K34S3,304,experiment,90,←,no_key,no_letter,-1.0,False,36,0
163K34S3,305,experiment,91,↑,up,↑,0.49199220025911927,True,36,1
163K34S3,306,experiment,60,↑,up,↑,0.5879740999080241,True,36,1
163K34S3,307,experiment,94,↑,up,↑,0.58892219979316,True,36,1
163K34S3,308,experiment,103,←,left,←,0.42573829973116517,True,36,1
163K34S3,309,experiment,70,←,left,←,0.4820966003462672,True,36,0
163K34S3,310,experiment,62,←,left,←,0.41740559972822666,True,36,1
163K34S3,311,experiment,93,↓,no_key,no_letter,-1.0,False,36,0
163K34S3,312,experiment,54,↑,up,↑,0.5041352999396622,True,36,1
163K34S3,313,experiment,51,↑,up,↑,0.4087947001680732,True,36,1
163K34S3,314,experiment,87,↑,no_key,no_letter,-1.0,False,36,0
163K34S3,315,experiment,64,←,left,←,0.4729996002279222,True,36,1
163K34S3,316,experiment,88,↓,down,↓,0.5678425002843142,True,36,1
163K34S3,317,experiment,83,↓,down,↓,0.5013372995890677,True,36,1
163K34S3,318,experiment,65,↓,no_key,no_letter,-1.0,False,36,1
163K34S3,319,experiment,71,↓,down,↓,0.5806566001847386,True,36,1
163K34S3,320,experiment,63,↑,up,↑,0.6002278998494148,True,36,1
163K34S3,321,experiment,73,←,left,←,0.495416599791497,True,36,1
163K34S3,322,experiment,86,→,no_key,no_letter,-1.0,False,36,1
163K34S3,323,experiment,75,↑,up,↑,0.5663740001618862,True,36,1
163K34S3,324,experiment,106,↓,down,↓,0.612051900010556,True,36,1
163K34S3,325,experiment,50,↑,up,↑,0.7307930998504162,True,36,1
163K34S3,326,experiment,52,→,left,←,0.5478106001392007,False,36,1
163K34S3,327,experiment,72,→,no_key,no_letter,-1.0,False,36,1
163K34S3,328,experiment,55,←,no_key,no_letter,-1.0,False,36,1
163K34S3,329,experiment,56,→,no_key,no_letter,-1.0,False,36,1
163K34S3,330,experiment,77,→,right,→,0.5696152998134494,True,36,1
163K34S3,331,experiment,59,→,right,→,0.6791105000302196,True,36,1
163K34S3,332,experiment,78,↓,down,↓,0.4898148998618126,True,36,1
163K34S3,333,experiment,48,↓,down,↓,0.6538439001888037,True,36,1
163K34S3,334,experiment,89,↓,down,↓,0.4940415001474321,True,36,1
163K34S3,335,experiment,74,→,right,→,0.4340458996593952,True,36,1
163K34S3,336,experiment,92,↑,up,↑,0.4098847000859678,True,36,0
163K34S3,337,experiment,85,→,right,→,0.6910135000944138,True,36,0
163K34S3,338,experiment,105,←,left,←,0.4507181001827121,True,36,1
163K34S3,339,experiment,98,←,left,←,0.672792499884963,True,36,0
163K34S3,340,experiment,99,↑,no_key,no_letter,-1.0,False,36,1
163K34S3,341,experiment,69,↑,up,↑,0.5985171999782324,True,36,1
163K34S3,342,experiment,96,↓,down,↓,0.582026599906385,True,36,1
163K34S3,343,experiment,79,→,no_key,no_letter,-1.0,False,36,1
163K34S3,344,experiment,66,←,left,←,0.49516869988292456,True,36,1
163K34S3,345,experiment,102,←,left,←,0.7530067004263401,True,36,1
163K34S3,346,experiment,57,↓,up,↑,0.7117917002178729,False,36,1
163K34S3,347,experiment,80,→,no_key,no_letter,-1.0,False,36,1
163K34S3,348,experiment,76,←,left,←,0.4726260001771152,True,36,1
163K34S3,349,experiment,84,→,right,→,0.5366306998766959,True,36,1
163K34S3,350,experiment,67,↓,down,↓,0.6847681999206543,True,36,1
163K34S3,351,experiment,61,↑,up,↑,0.6448376001790166,True,36,1
163K34S3,352,experiment,81,→,right,→,0.6159252999350429,True,36,1
163K34S3,353,experiment,107,↑,up,↑,0.40903150010854006,True,36,1
163K34S3,354,experiment,101,→,right,→,0.4504867000505328,True,36,0
163K34S3,355,experiment,68,↑,up,↑,0.5274342000484467,True,36,0
163K34S3,356,training,71,↑,up,↑,0.5343213998712599,True,36,0
163K34S3,357,training,51,←,left,←,0.43414059979841113,True,36,1
163K34S3,358,experiment,77,→,right,→,0.6841608001850545,True,36,0
163K34S3,359,experiment,75,←,left,←,0.5355250001884997,True,36,1
163K34S3,360,experiment,92,→,no_key,no_letter,-1.0,False,36,1
163K34S3,361,experiment,76,↑,up,↑,0.4510819003917277,True,36,1
163K34S3,362,experiment,58,↑,up,↑,0.4341465001925826,True,36,0
163K34S3,363,experiment,88,↓,down,↓,0.5255720000714064,True,36,0
163K34S3,364,experiment,106,↑,up,↑,0.636960499919951,True,36,1
163K34S3,365,experiment,80,←,left,←,0.6325885001569986,True,36,1
163K34S3,366,experiment,65,→,right,→,0.4817261998541653,True,36,1
163K34S3,367,experiment,93,→,no_key,no_letter,-1.0,False,36,1
163K34S3,368,experiment,81,↑,up,↑,0.43407570011913776,True,36,1
163K34S3,369,experiment,70,→,right,→,0.4424192998558283,True,36,0
163K34S3,370,experiment,69,→,right,→,0.4982126001268625,True,36,0
163K34S3,371,experiment,86,→,right,→,0.4507466000504792,True,36,1
163K34S3,372,experiment,60,→,right,→,0.38396349968388677,True,36,0
163K34S3,373,experiment,61,→,right,→,0.3669161000289023,True,36,0
163K34S3,374,experiment,103,→,no_key,no_letter,-1.0,False,36,0
163K34S3,375,experiment,71,←,left,←,0.6700674998573959,True,36,1
163K34S3,376,experiment,73,↑,up,↑,0.49877920001745224,True,36,1
163K34S3,377,experiment,90,↓,down,↓,0.5124801001511514,True,36,1
163K34S3,378,experiment,84,←,no_key,no_letter,-1.0,False,36,1
163K34S3,379,experiment,79,←,left,←,0.6700639999471605,True,36,1
163K34S3,380,experiment,78,↓,down,↓,0.569172500167042,True,36,1
163K34S3,381,experiment,89,↑,up,↑,0.7564759999513626,True,36,1
163K34S3,382,experiment,100,←,left,←,0.6364134000614285,True,36,1
163K34S3,383,experiment,59,←,no_key,no_letter,-1.0,False,36,1
163K34S3,384,experiment,91,↑,up,↑,0.5380821996368468,True,36,1
163K34S3,385,experiment,87,←,left,←,0.6228786995634437,True,36,1
163K34S3,386,experiment,67,↓,down,↓,0.4507325002923608,True,36,1
163K34S3,387,experiment,51,→,right,→,0.46825290005654097,True,36,0
163K34S3,388,experiment,98,→,left,←,0.47231100033968687,False,36,0
163K34S3,389,experiment,53,←,left,←,0.5789075000211596,True,36,1
163K34S3,390,experiment,49,↓,down,↓,0.44241739995777607,True,36,1
163K34S3,391,experiment,96,→,right,→,0.4505230998620391,True,36,0
163K34S3,392,experiment,66,↑,up,↑,0.5366952996701002,True,36,0
163K34S3,393,experiment,99,→,right,→,0.713769500143826,True,36,1
163K34S3,394,experiment,50,←,left,←,0.4340881002135575,True,36,1
163K34S3,395,experiment,104,↓,down,↓,0.4506961996667087,True,36,0
163K34S3,396,experiment,48,↓,down,↓,0.4930758001282811,True,36,0
163K34S3,397,experiment,101,↓,down,↓,0.48765730019658804,True,36,1
163K34S3,398,experiment,56,←,left,←,0.5688165999017656,True,36,1
163K34S3,399,experiment,94,↓,down,↓,0.5546019999310374,True,36,1
163K34S3,400,experiment,68,→,right,→,0.49339620023965836,True,36,1
163K34S3,401,experiment,57,→,no_key,no_letter,-1.0,False,36,1
163K34S3,402,experiment,85,↑,up,↑,0.4256164999678731,True,36,1
163K34S3,403,experiment,64,←,left,←,0.5401209001429379,True,36,0
163K34S3,404,experiment,72,↓,no_key,no_letter,-1.0,False,36,1
163K34S3,405,experiment,54,↓,down,↓,0.5650567999109626,True,36,1
163K34S3,406,experiment,107,↓,down,↓,0.5383717999793589,True,36,1
163K34S3,407,experiment,62,→,right,→,0.6878598998300731,True,36,1
163K34S3,408,experiment,82,→,right,→,0.49727000016719103,True,36,1
163K34S3,409,experiment,63,→,left,←,0.4171795002184808,False,36,1
163K34S3,410,experiment,83,↓,down,↓,0.5707017998211086,True,36,0
163K34S3,411,experiment,102,←,left,←,0.4424561997875571,True,36,1
163K34S3,412,experiment,55,←,no_key,no_letter,-1.0,False,36,0
163K34S3,413,experiment,74,→,right,→,0.5492537999525666,True,36,1
163K34S3,414,experiment,97,→,right,→,0.42577659990638494,True,36,1
163K34S3,415,experiment,105,→,right,→,0.4008546997793019,True,36,0
163K34S3,416,experiment,108,↑,no_key,no_letter,-1.0,False,36,0
163K34S3,417,experiment,52,↑,no_key,no_letter,-1.0,False,36,1
163K34S3,418,experiment,95,→,right,→,0.4943020003847778,True,36,1
163K34S3,419,training,70,←,no_key,no_letter,-1.0,False,36,0
163K34S3,420,training,108,↑,up,↑,0.49321610014885664,True,36,1
163K34S3,421,experiment,56,←,left,←,0.6308621000498533,True,36,1
163K34S3,422,experiment,79,↓,down,↓,0.6985199996270239,True,36,1
163K34S3,423,experiment,72,→,right,→,0.5663387002423406,True,36,1
163K34S3,424,experiment,91,↓,down,↓,0.5769980996847153,True,36,1
163K34S3,425,experiment,67,↑,up,↑,0.4507539002224803,True,36,1
163K34S3,426,experiment,63,↑,up,↑,0.44243460008874536,True,36,0
163K34S3,427,experiment,100,←,left,←,0.616301900241524,True,36,0
163K34S3,428,experiment,73,←,no_key,no_letter,-1.0,False,36,1
163K34S3,429,experiment,70,↑,up,↑,0.5447913999669254,True,36,1
163K34S3,430,experiment,80,↑,up,↑,0.5119515997357666,True,36,1
163K34S3,431,experiment,77,←,left,←,0.5936560002155602,True,36,1
163K34S3,432,experiment,52,←,left,←,0.4337905999273062,True,36,1
163K34S3,433,experiment,96,←,left,←,0.4090932998806238,True,36,0
163K34S3,434,experiment,105,↑,up,↑,0.5065076001919806,True,36,0
163K34S3,435,experiment,62,↑,up,↑,0.44257340021431446,True,36,1
163K34S3,436,experiment,55,↓,down,↓,0.7727431999519467,True,36,0
163K34S3,437,experiment,61,↑,up,↑,0.6091323997825384,True,36,1
163K34S3,438,experiment,58,↑,up,↑,0.4424421996809542,True,36,1
163K34S3,439,experiment,60,↓,down,↓,0.5590113997459412,True,36,0
163K34S3,440,experiment,107,←,left,←,0.49260889971628785,True,36,1
163K34S3,441,experiment,108,→,right,→,0.6449453998357058,True,36,1
163K34S3,442,experiment,64,←,left,←,0.6302284998819232,True,36,1
163K34S3,443,experiment,87,←,left,←,0.40886650001630187,True,36,1
163K34S3,444,experiment,95,↑,up,↑,0.5906020002439618,True,36,0
163K34S3,445,experiment,90,↓,down,↓,0.4811022002249956,True,36,1
163K34S3,446,experiment,99,↑,up,↑,0.43401100020855665,True,36,1
163K34S3,447,experiment,106,↓,up,↑,0.5185309997759759,False,36,0
163K34S3,448,experiment,54,←,left,←,0.5357963996939361,True,36,1
163K34S3,449,experiment,59,↓,down,↓,0.6785025000572205,True,36,1
163K34S3,450,experiment,57,←,no_key,no_letter,-1.0,False,36,1
163K34S3,451,experiment,48,→,no_key,no_letter,-1.0,False,36,1
163K34S3,452,experiment,89,→,right,→,0.5084277000278234,True,36,1
163K34S3,453,experiment,104,↑,up,↑,0.5731069999746978,True,36,1
163K34S3,454,experiment,88,←,left,←,0.42569199996069074,True,36,1
163K34S3,455,experiment,71,↓,down,↓,0.5190937002189457,True,36,0
163K34S3,456,experiment,76,↓,down,↓,0.48098429990932345,True,36,1
163K34S3,457,experiment,85,←,left,←,0.4814621997065842,True,36,1
163K34S3,458,experiment,92,↑,up,↑,0.5187507998198271,True,36,1
163K34S3,459,experiment,93,→,right,→,0.5467800996266305,True,36,1
163K34S3,460,experiment,68,←,left,←,0.4859984000213444,True,36,1
163K34S3,461,experiment,81,↓,down,↓,0.45069980015978217,True,36,1
163K34S3,462,experiment,101,←,left,←,0.47517240000888705,True,36,0
163K34S3,463,experiment,83,↑,up,↑,0.44252869999036193,True,36,1
163K34S3,464,experiment,49,→,right,→,0.5929656000807881,True,36,0
163K34S3,465,experiment,53,→,right,→,0.4719084999524057,True,36,1
163K34S3,466,experiment,69,→,left,←,0.845212200190872,False,36,0
163K34S3,467,experiment,86,←,no_key,no_letter,-1.0,False,36,1
163K34S3,468,experiment,98,↓,down,↓,0.47129559982568026,True,36,1
163K34S3,469,experiment,78,→,right,→,0.5372399999760091,True,36,1
163K34S3,470,experiment,82,→,no_key,no_letter,-1.0,False,36,1
163K34S3,471,experiment,66,↑,up,↑,0.7871789997443557,True,36,1
163K34S3,472,experiment,51,→,right,→,0.6427347999997437,True,36,1
163K34S3,473,experiment,94,↑,no_key,no_letter,-1.0,False,36,1
163K34S3,474,experiment,65,↓,no_key,no_letter,-1.0,False,36,1
163K34S3,475,experiment,75,←,left,←,0.6366148996166885,True,36,1
163K34S3,476,experiment,102,↑,up,↑,0.6648309002630413,True,36,1
163K34S3,477,experiment,84,↑,up,↑,0.6337211998179555,True,36,1
163K34S3,478,experiment,103,→,no_key,no_letter,-1.0,False,36,1
163K34S3,479,experiment,74,→,right,→,0.5420360001735389,True,36,1
163K34S3,480,experiment,50,↑,up,↑,0.5756304999813437,True,36,1
163K34S3,481,experiment,97,→,right,→,0.49589170003309846,True,36,1
163K34S3,482,training,60,→,right,→,0.565257600042969,True,36,0
163K34S3,483,training,101,→,right,→,0.47708530025556684,True,36,1
163K34S3,484,experiment,55,→,right,→,0.4088694001547992,True,36,1
163K34S3,485,experiment,100,↑,no_key,no_letter,-1.0,False,36,1
163K34S3,486,experiment,58,←,right,→,0.4963989998213947,False,36,1
163K34S3,487,experiment,102,→,right,→,0.4349712999537587,True,36,1
163K34S3,488,experiment,88,↓,down,↓,0.49843990011140704,True,36,0
163K34S3,489,experiment,106,→,no_key,no_letter,-1.0,False,36,1
163K34S3,490,experiment,70,→,no_key,no_letter,-1.0,False,36,1
163K34S3,491,experiment,59,→,right,→,0.5135834002867341,True,36,1
163K34S3,492,experiment,81,↓,down,↓,0.5458607003092766,True,36,1
163K34S3,493,experiment,68,↑,up,↑,0.5014826999977231,True,36,1
163K34S3,494,experiment,95,→,right,→,0.6892054001800716,True,36,1
163K34S3,495,experiment,69,↓,down,↓,0.5823087999597192,True,36,1
163K34S3,496,experiment,51,→,right,→,0.6455137999728322,True,36,1
163K34S3,497,experiment,56,→,right,→,0.48906980035826564,True,36,1
163K34S3,498,experiment,53,←,left,←,0.3923662002198398,True,36,1
163K34S3,499,experiment,67,←,left,←,0.5568289998918772,True,36,0
163K34S3,500,experiment,83,→,right,→,0.4088305998593569,True,36,1
163K34S3,501,experiment,77,→,right,→,0.5279751000925899,True,36,0
163K34S3,502,experiment,65,→,right,→,0.6130315996706486,True,36,1
163K34S3,503,experiment,99,↓,down,↓,0.49194200010970235,True,36,1
163K34S3,504,experiment,97,→,right,→,0.6068480997346342,True,36,1
163K34S3,505,experiment,87,↑,no_key,no_letter,-1.0,False,36,1
163K34S3,506,experiment,78,→,right,→,0.4805314000695944,True,36,1
163K34S3,507,experiment,54,↑,up,↑,0.6745319999754429,True,36,1
163K34S3,508,experiment,105,→,right,→,0.5082099996507168,True,36,1
163K34S3,509,experiment,103,←,left,←,0.4342529997229576,True,36,1
163K34S3,510,experiment,64,→,right,→,0.677974599879235,True,36,0
163K34S3,511,experiment,108,↑,up,↑,0.5746356002055109,True,36,1
163K34S3,512,experiment,107,↓,down,↓,0.6917054001241922,True,36,1
163K34S3,513,experiment,96,↓,down,↓,0.7678474001586437,True,36,1
163K34S3,514,experiment,63,←,left,←,0.6117739998735487,True,36,1
163K34S3,515,experiment,57,←,left,←,0.4510546000674367,True,36,1
163K34S3,516,experiment,79,↑,up,↑,0.7475017001852393,True,36,0
163K34S3,517,experiment,76,↓,down,↓,0.5717226001434028,True,36,1
163K34S3,518,experiment,49,←,left,←,0.5961168999783695,True,36,1
163K34S3,519,experiment,82,→,right,→,0.4807192999869585,True,36,1
163K34S3,520,experiment,75,↓,no_key,no_letter,-1.0,False,36,1
163K34S3,521,experiment,66,←,left,←,0.7512170001864433,True,36,1
163K34S3,522,experiment,73,←,left,←,0.520059600006789,True,36,1
163K34S3,523,experiment,98,→,right,→,0.6584772001951933,True,36,1
163K34S3,524,experiment,52,→,right,→,0.5026606000028551,True,36,1
163K34S3,525,experiment,84,↓,down,↓,0.5986048998311162,True,36,1
163K34S3,526,experiment,80,→,right,→,0.5393685000017285,True,36,1
163K34S3,527,experiment,62,→,no_key,no_letter,-1.0,False,36,1
163K34S3,528,experiment,48,→,no_key,no_letter,-1.0,False,36,1
163K34S3,529,experiment,90,→,right,→,0.46916319988667965,True,36,1
163K34S3,530,experiment,71,←,left,←,0.4507848001085222,True,36,0
163K34S3,531,experiment,60,→,left,←,0.5150895998813212,False,36,0
163K34S3,532,experiment,86,↑,up,↑,0.5774876000359654,True,36,1
163K34S3,533,experiment,74,↓,down,↓,0.5614904002286494,True,36,1
163K34S3,534,experiment,94,←,left,←,0.6755023002624512,True,36,1
163K34S3,535,experiment,101,→,left,←,0.5426309001632035,False,36,1
163K34S3,536,experiment,93,←,left,←,0.5535762999206781,True,36,1
163K34S3,537,experiment,72,→,no_key,no_letter,-1.0,False,36,1
163K34S3,538,experiment,92,↓,down,↓,0.7496921001002192,True,36,1
163K34S3,539,experiment,61,→,right,→,0.5869613997638226,True,36,1
163K34S3,540,experiment,91,→,right,→,0.4007036001421511,True,36,1
163K34S3,541,experiment,104,←,left,←,0.35916770016774535,True,36,0
163K34S3,542,experiment,89,↑,up,↑,0.6211385000497103,True,36,0
163K34S3,543,experiment,50,↓,no_key,no_letter,-1.0,False,36,1
163K34S3,544,experiment,85,←,no_key,no_letter,-1.0,False,36,1
163K34S3,545,training,80,↓,down,↓,0.5868835002183914,True,36,0
163K34S3,546,training,62,→,right,→,0.6705403998494148,True,36,1
163K34S3,547,experiment,69,↓,no_key,no_letter,-1.0,False,36,1
163K34S3,548,experiment,93,↑,no_key,no_letter,-1.0,False,36,1
163K34S3,549,experiment,76,↓,down,↓,0.4941740999929607,True,36,1
163K34S3,550,experiment,68,↓,down,↓,0.5554152000695467,True,36,1
163K34S3,551,experiment,49,↓,down,↓,0.44245809968560934,True,36,1
163K34S3,552,experiment,98,↓,down,↓,0.426711100153625,True,36,0
163K34S3,553,experiment,50,↑,no_key,no_letter,-1.0,False,36,0
163K34S3,554,experiment,83,←,left,←,0.5722504002042115,True,36,1
163K34S3,555,experiment,95,→,right,→,0.48536689998582006,True,36,1
163K34S3,556,experiment,59,←,left,←,0.44216470001265407,True,36,1
163K34S3,557,experiment,87,←,left,←,0.4341218997724354,True,36,0
163K34S3,558,experiment,99,←,right,→,0.595535600092262,False,36,0
163K34S3,559,experiment,106,↓,down,↓,0.5198001000098884,True,36,1
163K34S3,560,experiment,81,↑,up,↑,0.48810850037261844,True,36,1
163K34S3,561,experiment,102,←,left,←,0.7940023001283407,True,36,1
163K34S3,562,experiment,48,→,right,→,0.5219346000812948,True,36,1
163K34S3,563,experiment,73,↓,down,↓,0.6526663997210562,True,36,1
163K34S3,564,experiment,60,↑,up,↑,0.4787182002328336,True,36,1
163K34S3,565,experiment,94,→,right,→,0.5071972999721766,True,36,1
163K34S3,566,experiment,71,↑,up,↑,0.5910493996925652,True,36,1
163K34S3,567,experiment,107,←,left,←,0.7235558000393212,True,36,1
163K34S3,568,experiment,51,←,left,←,0.6850123996846378,True,36,1
163K34S3,569,experiment,58,←,left,←,0.42575749987736344,True,36,1
163K34S3,570,experiment,100,←,left,←,0.5952151999808848,True,36,0
163K34S3,571,experiment,84,↑,up,↑,0.4423989001661539,True,36,1
163K34S3,572,experiment,85,←,left,←,0.4811998000368476,True,36,0
163K34S3,573,experiment,70,↓,down,↓,0.7259768000803888,True,36,1
163K34S3,574,experiment,77,↑,up,↑,0.41741649992763996,True,36,1
163K34S3,575,experiment,67,→,right,→,0.511190100107342,True,36,0
163K34S3,576,experiment,78,↑,up,↑,0.6645705997943878,True,36,1
163K34S3,577,experiment,92,↑,up,↑,0.5910621001385152,True,36,1
163K34S3,578,experiment,89,←,no_key,no_letter,-1.0,False,36,1
163K34S3,579,experiment,57,↓,down,↓,0.4718214999884367,True,36,1
163K34S3,580,experiment,72,↓,down,↓,0.6119283000007272,True,36,0
163K34S3,581,experiment,88,→,right,→,0.4782724999822676,True,36,1
163K34S3,582,experiment,53,→,right,→,0.5450993999838829,True,36,1
163K34S3,583,experiment,74,→,right,→,0.38384889997541904,True,36,1
163K34S3,584,experiment,80,→,right,→,0.7759636002592742,True,36,0
163K34S3,585,experiment,96,←,left,←,0.4015016001649201,True,36,1
163K34S3,586,experiment,79,↑,no_key,no_letter,-1.0,False,36,0
163K34S3,587,experiment,104,↑,up,↑,0.5715900999493897,True,36,1
163K34S3,588,experiment,105,←,no_key,no_letter,-1.0,False,36,1
163K34S3,589,experiment,101,↑,up,↑,0.6163729000836611,True,36,1
163K34S3,590,experiment,61,→,right,→,0.571161899715662,True,36,1
163K34S3,591,experiment,97,←,no_key,no_letter,-1.0,False,36,1
163K34S3,592,experiment,52,→,left,←,0.46724449982866645,False,36,1
163K34S3,593,experiment,90,←,no_key,no_letter,-1.0,False,36,0
163K34S3,594,experiment,63,↓,down,↓,0.6536912000738084,True,36,1
163K34S3,595,experiment,103,→,right,→,0.4079239000566304,True,36,1
163K34S3,596,experiment,55,↓,down,↓,0.7417811001650989,True,36,0
163K34S3,597,experiment,82,←,left,←,0.4424601998180151,True,36,1
163K34S3,598,experiment,75,↓,down,↓,0.4892372996546328,True,36,0
163K34S3,599,experiment,65,↑,no_key,no_letter,-1.0,False,36,1
163K34S3,600,experiment,56,↓,down,↓,0.4784005000256002,True,36,1
163K34S3,601,experiment,86,↓,no_key,no_letter,-1.0,False,36,1
163K34S3,602,experiment,54,↑,up,↑,0.45077989995479584,True,36,1
163K34S3,603,experiment,66,←,left,←,0.39243930019438267,True,36,0
163K34S3,604,experiment,108,←,left,←,0.5439486000686884,True,36,0
163K34S3,605,experiment,62,↑,up,↑,0.45072409976273775,True,36,1
163K34S3,606,experiment,64,↑,up,↑,0.6297276001423597,True,36,0
163K34S3,607,experiment,91,→,left,←,0.5175348003394902,False,36,1
163K34S3,608,training,61,↑,up,↑,0.6366494996473193,True,36,0
163K34S3,609,training,62,←,no_key,no_letter,-1.0,False,36,1
163K34S3,610,experiment,102,→,left,←,0.5492377001792192,False,36,1
163K34S3,611,experiment,71,←,left,←,0.39266900019720197,True,36,1
163K34S3,612,experiment,48,↑,up,↑,0.4717509998008609,True,36,0
163K34S3,613,experiment,85,→,right,→,0.4878197996877134,True,36,1
163K34S3,614,experiment,61,→,left,←,0.48735079960897565,False,36,1
163K34S3,615,experiment,68,↑,no_key,no_letter,-1.0,False,36,1
163K34S3,616,experiment,49,←,left,←,0.4341410999186337,True,36,1
163K34S3,617,experiment,97,↓,down,↓,0.48316350020468235,True,36,0
163K34S3,618,experiment,77,↑,up,↑,0.5176492999307811,True,36,1
163K34S3,619,experiment,52,→,right,→,0.47982210014015436,True,36,1
163K34S3,620,experiment,66,←,left,←,0.5178499999456108,True,36,1
163K34S3,621,experiment,63,↓,down,↓,0.4842467997223139,True,36,1
163K34S3,622,experiment,54,→,right,→,0.6544269998557866,True,36,1
163K34S3,623,experiment,105,←,left,←,0.5607254998758435,True,36,1
163K34S3,624,experiment,95,↓,down,↓,0.44239560002461076,True,36,1
163K34S3,625,experiment,84,↑,up,↑,0.7001505000516772,True,36,0
163K34S3,626,experiment,83,↓,down,↓,0.4257394000887871,True,36,1
163K34S3,627,experiment,91,→,right,→,0.4504578998312354,True,36,0
163K34S3,628,experiment,73,←,left,←,0.4425721000880003,True,36,0
163K34S3,629,experiment,74,↓,down,↓,0.7745201997458935,True,36,0
163K34S3,630,experiment,72,←,left,←,0.7031442997977138,True,36,1
163K34S3,631,experiment,80,↑,up,↑,0.44242719979956746,True,36,1
163K34S3,632,experiment,89,←,left,←,0.5363451996818185,True,36,0
163K34S3,633,experiment,87,↑,up,↑,0.6058784001506865,True,36,1
163K34S3,634,experiment,67,↑,no_key,no_letter,-1.0,False,36,1
163K34S3,635,experiment,75,←,left,←,0.6546102999709547,True,36,1
163K34S3,636,experiment,108,↑,up,↑,0.4176986003294587,True,36,1
163K34S3,637,experiment,82,→,right,→,0.49168939981609583,True,36,0
163K34S3,638,experiment,98,→,right,→,0.6227227002382278,True,36,1
163K34S3,639,experiment,64,→,right,→,0.6001896997913718,True,36,1
163K34S3,640,experiment,60,→,left,←,0.6118665998801589,False,36,1
163K34S3,641,experiment,103,↑,up,↑,0.6008978001773357,True,36,1
163K34S3,642,experiment,51,↑,up,↑,0.47224400006234646,True,36,1
163K34S3,643,experiment,53,↓,down,↓,0.46754980040714145,True,36,1
163K34S3,644,experiment,57,→,right,→,0.46898149978369474,True,36,0
163K34S3,645,experiment,99,↓,down,↓,0.6163077000528574,True,36,0
163K34S3,646,experiment,55,←,left,←,0.3670832999050617,True,36,1
163K34S3,647,experiment,50,←,left,←,0.6292543997988105,True,36,0
163K34S3,648,experiment,92,↓,down,↓,0.5168180000036955,True,36,1
163K34S3,649,experiment,59,→,right,→,0.5082968999631703,True,36,1
163K34S3,650,experiment,76,←,left,←,0.478864099830389,True,36,1
163K34S3,651,experiment,70,↓,down,↓,0.5954003999941051,True,36,1
163K34S3,652,experiment,58,↑,up,↑,0.3931244001723826,True,36,1
163K34S3,653,experiment,86,↑,down,↓,0.6748863002285361,False,36,0
163K34S3,654,experiment,94,→,right,→,0.4884882001206279,True,36,1
163K34S3,655,experiment,62,↓,down,↓,0.5117500000633299,True,36,1
163K34S3,656,experiment,107,→,right,→,0.4954415997490287,True,36,1
163K34S3,657,experiment,65,↓,down,↓,0.6379444003105164,True,36,1
163K34S3,658,experiment,56,→,right,→,0.5212128004059196,True,36,1
163K34S3,659,experiment,106,↓,down,↓,0.4887350001372397,True,36,1
163K34S3,660,experiment,88,↑,down,↓,0.6313893999904394,False,36,1
163K34S3,661,experiment,104,↓,down,↓,0.4756807000376284,True,36,1
163K34S3,662,experiment,93,↑,no_key,no_letter,-1.0,False,36,1
163K34S3,663,experiment,79,→,no_key,no_letter,-1.0,False,36,1
163K34S3,664,experiment,96,←,left,←,0.5760130998678505,True,36,1
163K34S3,665,experiment,90,↑,up,↑,0.442425400018692,True,36,1
163K34S3,666,experiment,81,↓,down,↓,0.47785550029948354,True,36,0
163K34S3,667,experiment,69,→,right,→,0.6026331000030041,True,36,1
163K34S3,668,experiment,100,→,right,→,0.42628550017252564,True,36,1
163K34S3,669,experiment,78,↓,no_key,no_letter,-1.0,False,36,0
163K34S3,670,experiment,101,←,left,←,0.4768670001067221,True,36,1
163K34S3,671,training,98,↑,up,↑,0.7056845999322832,True,36,0
163K34S3,672,training,55,←,left,←,0.571025799959898,True,36,1
163K34S3,673,experiment,49,↑,up,↑,0.42578990012407303,True,36,1
163K34S3,674,experiment,60,↓,no_key,no_letter,-1.0,False,36,0
163K34S3,675,experiment,101,↑,down,↓,0.5492161000147462,False,36,1
163K34S3,676,experiment,58,→,no_key,no_letter,-1.0,False,36,1
163K34S3,677,experiment,64,→,left,←,0.4953630999661982,False,36,1
163K34S3,678,experiment,97,↑,up,↑,0.409113600384444,True,36,1
163K34S3,679,experiment,81,→,right,→,0.4793879999779165,True,36,0
163K34S3,680,experiment,93,↓,no_key,no_letter,-1.0,False,36,1
163K34S3,681,experiment,96,↓,down,↓,0.5971687999553978,True,36,1
163K34S3,682,experiment,105,↓,down,↓,0.4821381000801921,True,36,1
163K34S3,683,experiment,104,↑,down,↓,0.5474991998635232,False,36,1
163K34S3,684,experiment,102,↓,left,←,0.442455000244081,False,36,1
163K34S3,685,experiment,82,↑,down,↓,0.5496882000006735,False,36,0
163K34S3,686,experiment,62,→,right,→,0.6266823001205921,True,36,1
163K34S3,687,experiment,53,←,no_key,no_letter,-1.0,False,36,1
163K34S3,688,experiment,72,↑,no_key,no_letter,-1.0,False,36,1
163K34S3,689,experiment,71,→,right,→,0.5539549998939037,True,36,1
163K34S3,690,experiment,84,↓,down,↓,0.6396991000510752,True,36,1
163K34S3,691,experiment,65,←,left,←,0.6479842001572251,True,36,1
163K34S3,692,experiment,66,←,left,←,0.5358066000044346,True,36,1
163K34S3,693,experiment,87,→,right,→,0.6453227996826172,True,36,1
163K34S3,694,experiment,86,←,left,←,0.6784465000964701,True,36,1
163K34S3,695,experiment,50,←,no_key,no_letter,-1.0,False,36,1
163K34S3,696,experiment,79,←,left,←,0.4259011996909976,True,36,1
163K34S3,697,experiment,73,→,no_key,no_letter,-1.0,False,36,0
163K34S3,698,experiment,91,↓,no_key,no_letter,-1.0,False,36,1
163K34S3,699,experiment,56,↓,down,↓,0.47240159986540675,True,36,1
163K34S3,700,experiment,76,→,left,←,0.6353505998849869,False,36,1
163K34S3,701,experiment,63,←,right,→,0.5087291998788714,False,36,1
163K34S3,702,experiment,54,→,right,→,0.4864687998779118,True,36,1
163K34S3,703,experiment,67,→,no_key,no_letter,-1.0,False,36,1
163K34S3,704,experiment,51,↑,no_key,no_letter,-1.0,False,36,1
163K34S3,705,experiment,90,←,no_key,no_letter,-1.0,False,36,1
163K34S3,706,experiment,85,↑,up,↑,0.4916435000486672,True,36,1
163K34S3,707,experiment,55,↓,no_key,no_letter,-1.0,False,36,1
163K34S3,708,experiment,92,↓,down,↓,0.6715987999923527,True,36,1
163K34S3,709,experiment,108,→,right,→,0.4421020997688174,True,36,1
163K34S3,710,experiment,88,←,left,←,0.6085417000576854,True,36,0
163K34S3,711,experiment,94,↓,down,↓,0.6166449002921581,True,36,1
163K34S3,712,experiment,59,↓,down,↓,0.5800236002542078,True,36,1
163K34S3,713,experiment,107,↑,up,↑,0.6887697000056505,True,36,1
163K34S3,714,experiment,75,←,left,←,0.6196681996807456,True,36,1
163K34S3,715,experiment,77,↓,down,↓,0.6251198002137244,True,36,1
163K34S3,716,experiment,100,→,no_key,no_letter,-1.0,False,36,1
163K34S3,717,experiment,68,↑,down,↓,0.968679599929601,False,36,1
163K34S3,718,experiment,83,↓,down,↓,0.5500223999843001,True,36,1
163K34S3,719,experiment,98,↓,down,↓,0.44239059975370765,True,36,1
163K34S3,720,experiment,89,←,left,←,0.5751602002419531,True,36,0
163K34S3,721,experiment,61,↓,down,↓,0.563504199963063,True,36,1
163K34S3,722,experiment,69,↓,down,↓,0.5816029999405146,True,36,1
163K34S3,723,experiment,48,↑,up,↑,0.4257646002806723,True,36,1
163K34S3,724,experiment,80,←,left,←,0.6177491000853479,True,36,0
163K34S3,725,experiment,74,→,right,→,0.4419820001348853,True,36,1
163K34S3,726,experiment,103,↓,no_key,no_letter,-1.0,False,36,0
163K34S3,727,experiment,99,←,no_key,no_letter,-1.0,False,36,1
163K34S3,728,experiment,106,→,right,→,0.49723799992352724,True,36,1
163K34S3,729,experiment,70,↓,no_key,no_letter,-1.0,False,36,1
163K34S3,730,experiment,57,↓,down,↓,0.5802140003070235,True,36,1
163K34S3,731,experiment,95,→,right,→,0.45051079988479614,True,36,1
163K34S3,732,experiment,52,←,left,←,0.704016299918294,True,36,0
163K34S3,733,experiment,78,←,left,←,0.48984739976003766,True,36,1
163K34S3,734,training,59,→,right,→,0.6274136998690665,True,36,0
163K34S3,735,training,97,→,right,→,0.42662909999489784,True,36,1
163K34S3,736,experiment,54,↓,down,↓,0.669760599732399,True,36,0
163K34S3,737,experiment,81,←,left,←,0.40080650011077523,True,36,1
163K34S3,738,experiment,91,↓,down,↓,0.5688318000175059,True,36,0
163K34S3,739,experiment,52,↑,no_key,no_letter,-1.0,False,36,1
163K34S3,740,experiment,64,←,left,←,0.4174167001619935,True,36,1
163K34S3,741,experiment,89,↑,up,↑,0.6052927998825908,True,36,0
163K34S3,742,experiment,101,←,left,←,0.6269228998571634,True,36,1
163K34S3,743,experiment,75,→,right,→,0.44265179987996817,True,36,1
163K34S3,744,experiment,99,→,right,→,0.40904470020905137,True,36,0
163K34S3,745,experiment,80,←,left,←,0.6338861999101937,True,36,0
163K34S3,746,experiment,73,←,left,←,0.4185337000526488,True,36,1
163K34S3,747,experiment,51,↓,down,↓,0.7496034996584058,True,36,0
163K34S3,748,experiment,53,↓,down,↓,0.6537260999903083,True,36,1
163K34S3,749,experiment,82,→,right,→,0.5121144000440836,True,36,1
163K34S3,750,experiment,63,←,no_key,no_letter,-1.0,False,36,1
163K34S3,751,experiment,62,→,right,→,0.44338650023564696,True,36,1
163K34S3,752,experiment,67,↑,no_key,no_letter,-1.0,False,36,0
163K34S3,753,experiment,86,↓,down,↓,0.6777607998810709,True,36,1
163K34S3,754,experiment,87,↓,down,↓,0.5255939001217484,True,36,1
163K34S3,755,experiment,68,←,left,←,0.47389949997887015,True,36,1
163K34S3,756,experiment,55,↑,up,↑,0.7639035996980965,True,36,1
163K34S3,757,experiment,106,↑,down,↓,0.6498424001038074,False,36,1
163K34S3,758,experiment,72,↑,up,↑,0.47181470040231943,True,36,1
163K34S3,759,experiment,66,↑,no_key,no_letter,-1.0,False,36,0
163K34S3,760,experiment,49,←,no_key,no_letter,-1.0,False,36,1
163K34S3,761,experiment,76,↑,up,↑,0.5101506998762488,True,36,1
163K34S3,762,experiment,57,→,left,←,0.6706273001618683,False,36,1
163K34S3,763,experiment,108,←,left,←,0.43380549969151616,True,36,1
163K34S3,764,experiment,70,←,left,←,0.7262876997701824,True,36,0
163K34S3,765,experiment,79,↑,up,↑,0.4088149000890553,True,36,1
163K34S3,766,experiment,100,↑,up,↑,0.5164264002814889,True,36,0
163K34S3,767,experiment,83,→,no_key,no_letter,-1.0,False,36,1
163K34S3,768,experiment,105,→,right,→,0.5298520000651479,True,36,1
163K34S3,769,experiment,102,→,right,→,0.434086499735713,True,36,1
163K34S3,770,experiment,107,←,left,←,0.49280339991673827,True,36,0
163K34S3,771,experiment,56,↓,down,↓,0.7022489998489618,True,36,1
163K34S3,772,experiment,50,←,left,←,0.6014453996904194,True,36,1
163K34S3,773,experiment,84,↓,down,↓,0.48526089964434505,True,36,1
163K34S3,774,experiment,69,→,no_key,no_letter,-1.0,False,36,1
163K34S3,775,experiment,85,←,left,←,0.4711905000731349,True,36,1
163K34S3,776,experiment,60,↑,down,↓,0.6073954999446869,False,36,0
163K34S3,777,experiment,61,←,left,←,0.384073399938643,True,36,1
163K34S3,778,experiment,90,←,left,←,0.7246186998672783,True,36,0
163K34S3,779,experiment,98,↓,down,↓,0.4339995998889208,True,36,1
163K34S3,780,experiment,94,→,no_key,no_letter,-1.0,False,36,0
163K34S3,781,experiment,58,↓,left,←,0.4756591999903321,False,36,1
163K34S3,782,experiment,97,→,right,→,0.4423485998995602,True,36,1
163K34S3,783,experiment,95,↓,down,↓,0.621278100181371,True,36,0
163K34S3,784,experiment,78,→,left,←,0.49798740027472377,False,36,1
163K34S3,785,experiment,103,→,right,→,0.49936140002682805,True,36,1
163K34S3,786,experiment,96,←,left,←,0.47940339986234903,True,36,1
163K34S3,787,experiment,93,↑,down,↓,0.7404165999032557,False,36,1
163K34S3,788,experiment,77,←,left,←,0.4423721004277468,True,36,1
163K34S3,789,experiment,65,→,no_key,no_letter,-1.0,False,36,0
163K34S3,790,experiment,74,→,left,←,0.42557809967547655,False,36,1
163K34S3,791,experiment,104,→,no_key,no_letter,-1.0,False,36,0
163K34S3,792,experiment,71,↓,down,↓,0.6661459002643824,True,36,1
163K34S3,793,experiment,59,↑,up,↑,0.6993998000398278,True,36,1
163K34S3,794,experiment,92,↓,down,↓,0.4965661000460386,True,36,1
163K34S3,795,experiment,88,↓,down,↓,0.5828629001043737,True,36,1
163K34S3,796,experiment,48,↓,down,↓,0.5272861998528242,True,36,1
163K34S3,797,training,103,↓,down,↓,0.4740089997649193,True,36,0
163K34S3,798,training,91,→,no_key,no_letter,-1.0,False,36,1
163K34S3,799,experiment,86,↑,up,↑,0.5723071000538766,True,36,1
163K34S3,800,experiment,107,←,no_key,no_letter,-1.0,False,36,1
163K34S3,801,experiment,72,↑,up,↑,0.7459912998601794,True,36,1
163K34S3,802,experiment,52,←,no_key,no_letter,-1.0,False,36,1
163K34S3,803,experiment,79,↑,up,↑,0.4097330002114177,True,36,1
163K34S3,804,experiment,66,←,left,←,0.5215871999971569,True,36,0
163K34S3,805,experiment,56,↑,up,↑,0.48954950040206313,True,36,1
163K34S3,806,experiment,50,←,left,←,0.53309529973194,True,36,1
163K34S3,807,experiment,51,↓,up,↑,0.5424966001883149,False,36,1
163K34S3,808,experiment,74,↓,down,↓,0.44237260008230805,True,36,1
163K34S3,809,experiment,97,←,left,←,0.6852859002538025,True,36,0
163K34S3,810,experiment,70,↓,down,↓,0.6663386998698115,True,36,1
163K34S3,811,experiment,108,↑,no_key,no_letter,-1.0,False,36,1
163K34S3,812,experiment,90,←,left,←,0.534252299927175,True,36,1
163K34S3,813,experiment,62,→,right,→,0.47646200004965067,True,36,1
163K34S3,814,experiment,48,→,right,→,0.401738999877125,True,36,1
163K34S3,815,experiment,83,↑,up,↑,0.6843825001269579,True,36,0
163K34S3,816,experiment,85,←,left,←,0.434171199798584,True,36,1
163K34S3,817,experiment,82,→,right,→,0.4718416999094188,True,36,0
163K34S3,818,experiment,73,↑,up,↑,0.40085799992084503,True,36,1
163K34S3,819,experiment,81,→,right,→,0.43373290030285716,True,36,0
163K34S3,820,experiment,69,↑,up,↑,0.4087392003275454,True,36,0
163K34S3,821,experiment,99,↑,up,↑,0.3840065002441406,True,36,0
163K34S3,822,experiment,96,→,right,→,0.47769919969141483,True,36,0
163K34S3,823,experiment,75,↓,no_key,no_letter,-1.0,False,36,1
163K34S3,824,experiment,89,↓,down,↓,0.5476412000134587,True,36,1
163K34S3,825,experiment,91,↓,no_key,no_letter,-1.0,False,36,1
163K34S3,826,experiment,101,←,left,←,0.48647439992055297,True,36,1
163K34S3,827,experiment,80,←,left,←,0.5041348002851009,True,36,1
163K34S3,828,experiment,63,→,no_key,no_letter,-1.0,False,36,1
163K34S3,829,experiment,55,←,left,←,0.47741090040653944,True,36,1
163K34S3,830,experiment,57,↑,up,↑,0.5103581002913415,True,36,1
163K34S3,831,experiment,54,←,no_key,no_letter,-1.0,False,36,1
163K34S3,832,experiment,100,←,left,←,0.5112344999797642,True,36,1
163K34S3,833,experiment,95,↓,down,↓,0.5469752000644803,True,36,1
163K34S3,834,experiment,106,→,no_key,no_letter,-1.0,False,36,1
163K34S3,835,experiment,49,→,right,→,0.42567439982667565,True,36,1
163K34S3,836,experiment,71,↓,down,↓,0.4967225999571383,True,36,0
163K34S3,837,experiment,104,←,left,←,0.6263828999362886,True,36,1
163K34S3,838,experiment,87,←,left,←,0.4994459003210068,True,36,1
163K34S3,839,experiment,78,←,left,←,0.4424224002286792,True,36,1
163K34S3,840,experiment,94,↓,down,↓,0.5234742998145521,True,36,0
163K34S3,841,experiment,53,←,left,←,0.6126469997689128,True,36,1
163K34S3,842,experiment,88,↓,down,↓,0.7663314999081194,True,36,1
163K34S3,843,experiment,65,↓,down,↓,0.6668341001495719,True,36,1
163K34S3,844,experiment,105,↓,down,↓,0.4840668998658657,True,36,1
163K34S3,845,experiment,67,↑,no_key,no_letter,-1.0,False,36,1
163K34S3,846,experiment,76,↓,down,↓,0.5135706998407841,True,36,1
163K34S3,847,experiment,102,→,right,→,0.5544551997445524,True,36,1
163K34S3,848,experiment,59,↑,no_key,no_letter,-1.0,False,36,1
163K34S3,849,experiment,84,←,left,←,0.6290804999880493,True,36,1
163K34S3,850,experiment,93,↓,down,↓,0.4771373998373747,True,36,1
163K34S3,851,experiment,58,↓,down,↓,0.6142163998447359,True,36,1
163K34S3,852,experiment,98,↑,no_key,no_letter,-1.0,False,36,1
163K34S3,853,experiment,64,→,right,→,0.43403240013867617,True,36,1
163K34S3,854,experiment,103,←,left,←,0.44239170011132956,True,36,0
163K34S3,855,experiment,68,←,left,←,0.5548398001119494,True,36,0
163K34S3,856,experiment,92,←,no_key,no_letter,-1.0,False,36,1
163K34S3,857,experiment,60,↓,down,↓,0.4507848001085222,True,36,1
163K34S3,858,experiment,77,↑,up,↑,0.6465129000134766,True,36,0
163K34S3,859,experiment,61,↑,up,↑,0.4505222998559475,True,36,1
163K34S3,860,training,85,←,left,←,0.6612645001150668,True,36,0
163K34S3,861,training,53,↓,down,↓,0.5848948997445405,True,36,1
163K34S3,862,experiment,81,↑,up,↑,0.4509815997444093,True,36,1
163K34S3,863,experiment,95,↑,up,↑,0.38406139984726906,True,36,0
163K34S3,864,experiment,71,↑,up,↑,0.6604358996264637,True,36,0
163K34S3,865,experiment,65,←,no_key,no_letter,-1.0,False,36,1
163K34S3,866,experiment,70,↑,up,↑,0.49370349990203977,True,36,1
163K34S3,867,experiment,55,↓,down,↓,0.5913875000551343,True,36,1
163K34S3,868,experiment,73,←,left,←,0.43399660009890795,True,36,1
163K34S3,869,experiment,52,↓,down,↓,0.7638731999322772,True,36,0
163K34S3,870,experiment,58,→,left,←,0.5215809000656009,False,36,1
163K34S3,871,experiment,107,→,right,→,0.5689759999513626,True,36,1
163K34S3,872,experiment,105,←,left,←,0.5351507999002934,True,36,1
163K34S3,873,experiment,86,←,left,←,0.45112930005416274,True,36,1
163K34S3,874,experiment,54,↓,no_key,no_letter,-1.0,False,36,0
163K34S3,875,experiment,83,→,no_key,no_letter,-1.0,False,36,1
163K34S3,876,experiment,89,←,left,←,0.6086383000947535,True,36,1
163K34S3,877,experiment,90,↑,up,↑,0.6979533000849187,True,36,1
163K34S3,878,experiment,75,←,left,←,0.6365772997960448,True,36,1
163K34S3,879,experiment,85,→,left,←,0.5987005000934005,False,36,1
163K34S3,880,experiment,82,↓,down,↓,0.467614300083369,True,36,1
163K34S3,881,experiment,96,←,left,←,0.5117512000724673,True,36,0
163K34S3,882,experiment,77,↑,down,↓,0.5296316999010742,False,36,1
163K34S3,883,experiment,102,→,no_key,no_letter,-1.0,False,36,1
163K34S3,884,experiment,104,↑,no_key,no_letter,-1.0,False,36,1
163K34S3,885,experiment,100,←,no_key,no_letter,-1.0,False,36,1
163K34S3,886,experiment,67,↑,no_key,no_letter,-1.0,False,36,1
163K34S3,887,experiment,59,↑,up,↑,0.4719241000711918,True,36,1
163K34S3,888,experiment,80,↓,down,↓,0.5534755000844598,True,36,1
163K34S3,889,experiment,72,↓,down,↓,0.48343810020014644,True,36,1
163K34S3,890,experiment,63,↓,no_key,no_letter,-1.0,False,36,1
163K34S3,891,experiment,66,↓,no_key,no_letter,-1.0,False,36,1
163K34S3,892,experiment,62,↑,up,↑,0.6736679999157786,True,36,1
163K34S3,893,experiment,87,↓,down,↓,0.553313400130719,True,36,1
163K34S3,894,experiment,53,↓,no_key,no_letter,-1.0,False,36,1
163K34S3,895,experiment,99,↑,up,↑,0.41016670037060976,True,36,1
163K34S3,896,experiment,76,←,left,←,0.5027247001416981,True,36,0
163K34S3,897,experiment,49,←,left,←,0.7300909999758005,True,36,1
163K34S3,898,experiment,64,→,right,→,0.45083789993077517,True,36,1
163K34S3,899,experiment,69,←,no_key,no_letter,-1.0,False,36,0
163K34S3,900,experiment,101,↑,up,↑,0.3929025996476412,True,36,1
163K34S3,901,experiment,51,↓,down,↓,0.6435218001715839,True,36,0
163K34S3,902,experiment,97,→,right,→,0.5052971001714468,True,36,1
163K34S3,903,experiment,92,→,right,→,0.502012699842453,True,36,1
163K34S3,904,experiment,94,←,left,←,0.5703963995911181,True,36,1
163K34S3,905,experiment,61,←,left,←,0.599159300327301,True,36,1
163K34S3,906,experiment,50,↑,no_key,no_letter,-1.0,False,36,1
163K34S3,907,experiment,98,→,right,→,0.6784113999456167,True,36,1
163K34S3,908,experiment,106,↑,no_key,no_letter,-1.0,False,36,1
163K34S3,909,experiment,88,↓,down,↓,0.7392838001251221,True,36,1
163K34S3,910,experiment,74,→,left,←,0.7565955999307334,False,36,1
163K34S3,911,experiment,91,↓,down,↓,0.47213410027325153,True,36,1
163K34S3,912,experiment,108,↓,down,↓,0.42588420026004314,True,36,0
163K34S3,913,experiment,48,↓,no_key,no_letter,-1.0,False,36,0
163K34S3,914,experiment,79,↓,no_key,no_letter,-1.0,False,36,1
163K34S3,915,experiment,68,↑,down,↓,0.5595072000287473,False,36,1
163K34S3,916,experiment,103,→,no_key,no_letter,-1.0,False,36,1
163K34S3,917,experiment,60,→,no_key,no_letter,-1.0,False,36,1
163K34S3,918,experiment,56,↑,up,↑,0.5136366002261639,True,36,1
163K34S3,919,experiment,93,↑,down,↓,0.5976458000950515,False,36,1
163K34S3,920,experiment,84,↑,no_key,no_letter,-1.0,False,36,1
163K34S3,921,experiment,78,→,right,→,0.4421708001755178,True,36,1
163K34S3,922,experiment,57,↑,up,↑,0.6830478999763727,True,36,0
163K34S3,923,training,64,↓,no_key,no_letter,-1.0,False,36,0
163K34S3,924,training,82,→,right,→,0.5113148000091314,True,36,1
163K34S3,925,experiment,96,↑,no_key,no_letter,-1.0,False,36,1
163K34S3,926,experiment,76,↓,down,↓,0.490304599981755,True,36,1
163K34S3,927,experiment,56,→,right,→,0.47573329973965883,True,36,1
163K34S3,928,experiment,91,↑,no_key,no_letter,-1.0,False,36,1
163K34S3,929,experiment,65,←,left,←,0.7892591003328562,True,36,1
163K34S3,930,experiment,69,↓,down,↓,0.4340455001220107,True,36,1
163K34S3,931,experiment,98,↑,up,↑,0.7475904999300838,True,36,0
163K34S3,932,experiment,78,↓,down,↓,0.5153093999251723,True,36,1
163K34S3,933,experiment,66,↓,down,↓,0.5044133001938462,True,36,1
163K34S3,934,experiment,79,→,down,↓,0.6174971000291407,False,36,1
163K34S3,935,experiment,50,↑,no_key,no_letter,-1.0,False,36,1
163K34S3,936,experiment,102,↓,down,↓,0.5507690999656916,True,36,1
163K34S3,937,experiment,94,←,left,←,0.409022799693048,True,36,1
163K34S3,938,experiment,82,←,left,←,0.40049290005117655,True,36,0
163K34S3,939,experiment,103,↑,no_key,no_letter,-1.0,False,36,0
163K34S3,940,experiment,104,←,left,←,0.450940000358969,True,36,1
163K34S3,941,experiment,86,←,left,←,0.5448302999138832,True,36,0
163K34S3,942,experiment,75,↑,up,↑,0.4426396996714175,True,36,1
163K34S3,943,experiment,61,→,right,→,0.5473621999844909,True,36,0
163K34S3,944,experiment,51,←,left,←,0.41738189989700913,True,36,1
163K34S3,945,experiment,71,→,right,→,0.4678976000286639,True,36,0
163K34S3,946,experiment,107,→,left,←,0.7401952999643981,False,36,0
163K34S3,947,experiment,74,↑,no_key,no_letter,-1.0,False,36,1
163K34S3,948,experiment,64,↑,up,↑,0.44257579976692796,True,36,1
163K34S3,949,experiment,108,←,no_key,no_letter,-1.0,False,36,0
163K34S3,950,experiment,97,↓,down,↓,0.7714489996433258,True,36,1
163K34S3,951,experiment,72,↑,no_key,no_letter,-1.0,False,36,1
163K34S3,952,experiment,100,↑,no_key,no_letter,-1.0,False,36,1
163K34S3,953,experiment,92,↓,no_key,no_letter,-1.0,False,36,1
163K34S3,954,experiment,57,←,no_key,no_letter,-1.0,False,36,1
163K34S3,955,experiment,48,↑,no_key,no_letter,-1.0,False,36,1
163K34S3,956,experiment,67,→,no_key,no_letter,-1.0,False,36,1
163K34S3,957,experiment,70,↓,down,↓,0.5048377001658082,True,36,1
163K34S3,958,experiment,73,↑,no_key,no_letter,-1.0,False,36,1
163K34S3,959,experiment,84,↓,down,↓,0.5925268996506929,True,36,1
163K34S3,960,experiment,87,→,right,→,0.44216439966112375,True,36,1
163K34S3,961,experiment,95,→,no_key,no_letter,-1.0,False,36,0
163K34S3,962,experiment,81,↑,down,↓,0.6634181998670101,False,36,1
163K34S3,963,experiment,88,←,left,←,0.6631657998077571,True,36,1
163K34S3,964,experiment,93,↑,down,↓,0.5573493000119925,False,36,1
163K34S3,965,experiment,77,↓,down,↓,0.5889133000746369,True,36,1
163K34S3,966,experiment,60,↑,up,↑,0.43376570008695126,True,36,1
163K34S3,967,experiment,99,→,no_key,no_letter,-1.0,False,36,0
163K34S3,968,experiment,49,↓,down,↓,0.5666800001636147,True,36,1
163K34S3,969,experiment,83,←,left,←,0.46858000010252,True,36,1
163K34S3,970,experiment,52,↓,down,↓,0.607472499832511,True,36,0
163K34S3,971,experiment,90,↑,up,↑,0.6488884999416769,True,36,1
163K34S3,972,experiment,62,→,no_key,no_letter,-1.0,False,36,1
163K34S3,973,experiment,85,↑,up,↑,0.442508100066334,True,36,1
163K34S3,974,experiment,105,↓,up,↑,0.5611315001733601,False,36,0
163K34S3,975,experiment,59,↑,down,↓,0.5748437000438571,False,36,1
163K34S3,976,experiment,106,←,left,←,0.45091169979423285,True,36,1
163K34S3,977,experiment,55,↓,no_key,no_letter,-1.0,False,36,0
163K34S3,978,experiment,68,←,no_key,no_letter,-1.0,False,36,1
163K34S3,979,experiment,101,→,left,←,0.5448640999384224,False,36,1
163K34S3,980,experiment,89,←,left,←,0.541151599958539,True,36,1
163K34S3,981,experiment,54,↓,no_key,no_letter,-1.0,False,36,1
163K34S3,982,experiment,80,↑,down,↓,0.5555345001630485,False,36,1
163K34S3,983,experiment,58,→,no_key,no_letter,-1.0,False,36,1
163K34S3,984,experiment,53,←,no_key,no_letter,-1.0,False,36,1
163K34S3,985,experiment,63,↓,down,↓,0.44220220018178225,True,36,1
163K34S3,986,training,74,↓,down,↓,0.5741682001389563,True,37,0
163K34S3,987,training,77,↓,down,↓,0.5651247003115714,True,37,1
163K34S3,988,experiment,61,←,no_key,no_letter,-1.0,False,37,1
163K34S3,989,experiment,67,→,right,→,0.5001094997860491,True,37,1
163K34S3,990,experiment,91,↓,down,↓,0.5854297000914812,True,37,1
163K34S3,991,experiment,68,↓,no_key,no_letter,-1.0,False,37,1
163K34S3,992,experiment,56,←,left,←,0.44272090028971434,True,37,1
163K34S3,993,experiment,58,↑,no_key,no_letter,-1.0,False,37,0
163K34S3,994,experiment,84,←,no_key,no_letter,-1.0,False,37,1
163K34S3,995,experiment,71,↑,no_key,no_letter,-1.0,False,37,1
163K34S3,996,experiment,105,↑,up,↑,0.6624071002006531,True,37,1
163K34S3,997,experiment,85,↑,up,↑,0.5193835999816656,True,37,1
163K34S3,998,experiment,80,↑,up,↑,0.4881571000441909,True,37,1
163K34S3,999,experiment,92,←,left,←,0.7093699001707137,True,37,1
163K34S3,1000,experiment,96,←,left,←,0.5205292999744415,True,37,1
163K34S3,1001,experiment,48,↓,left,←,0.6195815997198224,False,37,1
163K34S3,1002,experiment,86,←,left,←,0.5020880000665784,True,37,1
163K34S3,1003,experiment,103,→,right,→,0.7034454001113772,True,37,1
163K34S3,1004,experiment,51,←,left,←,0.6262124003842473,True,37,1
163K34S3,1005,experiment,99,↓,no_key,no_letter,-1.0,False,37,1
163K34S3,1006,experiment,89,↑,up,↑,0.41746419994160533,True,37,1
163K34S3,1007,experiment,106,↓,down,↓,0.49406349984928966,True,37,0
163K34S3,1008,experiment,82,↓,down,↓,0.487374400254339,True,37,1
163K34S3,1009,experiment,57,↑,no_key,no_letter,-1.0,False,37,1
163K34S3,1010,experiment,54,→,right,→,0.4173449999652803,True,37,1
163K34S3,1011,experiment,52,←,left,←,0.5158963999710977,True,37,0
163K34S3,1012,experiment,98,←,no_key,no_letter,-1.0,False,37,1
163K34S3,1013,experiment,73,↓,down,↓,0.4594267997890711,True,37,1
163K34S3,1014,experiment,104,↑,up,↑,0.44383860006928444,True,37,0
163K34S3,1015,experiment,77,→,right,→,0.69289689976722,True,37,0
163K34S3,1016,experiment,55,→,right,→,0.4948215000331402,True,37,1
163K34S3,1017,experiment,60,←,left,←,0.42568889958783984,True,37,1
163K34S3,1018,experiment,93,↑,up,↑,0.5897895996458828,True,37,0
163K34S3,1019,experiment,83,↑,up,↑,0.7062029000371695,True,37,1
163K34S3,1020,experiment,59,←,left,←,0.4980906001292169,True,37,1
163K34S3,1021,experiment,101,←,left,←,0.5880062999203801,True,37,1
163K34S3,1022,experiment,102,←,left,←,0.5784323001280427,True,37,1
163K34S3,1023,experiment,53,↑,up,↑,0.529328899923712,True,37,1
163K34S3,1024,experiment,97,→,right,→,0.44259140035137534,True,37,1
163K34S3,1025,experiment,107,↓,up,↑,0.5655767000280321,False,37,0
163K34S3,1026,experiment,94,→,right,→,0.5352623998187482,True,37,1
163K34S3,1027,experiment,63,←,right,→,0.5486734001897275,False,37,1
163K34S3,1028,experiment,79,←,no_key,no_letter,-1.0,False,37,1
163K34S3,1029,experiment,72,↑,up,↑,0.6286968998610973,True,37,1
163K34S3,1030,experiment,50,←,no_key,no_letter,-1.0,False,37,1
163K34S3,1031,experiment,64,→,right,→,0.48644009977579117,True,37,1
163K34S3,1032,experiment,70,→,right,→,0.5950637003406882,True,37,1
163K34S3,1033,experiment,88,↓,no_key,no_letter,-1.0,False,37,1
163K34S3,1034,experiment,78,→,right,→,0.5163016999140382,True,37,1
163K34S3,1035,experiment,69,↑,up,↑,0.6963450997136533,True,37,1
163K34S3,1036,experiment,66,↓,down,↓,0.5180696998722851,True,37,1
163K34S3,1037,experiment,95,↓,no_key,no_letter,-1.0,False,37,1
163K34S3,1038,experiment,65,↑,up,↑,0.43420090014114976,True,37,1
163K34S3,1039,experiment,100,↓,down,↓,0.6890297001227736,True,37,0
163K34S3,1040,experiment,74,←,left,←,0.38420799979940057,True,37,1
163K34S3,1041,experiment,87,↑,up,↑,0.4344550999812782,True,37,0
163K34S3,1042,experiment,75,→,no_key,no_letter,-1.0,False,37,0
163K34S3,1043,experiment,90,↑,up,↑,0.44260150007903576,True,37,1
163K34S3,1044,experiment,49,↑,up,↑,0.5005910997278988,True,37,0
163K34S3,1045,experiment,108,→,right,→,0.5162180997431278,True,37,1
163K34S3,1046,experiment,76,→,right,→,0.5339437001384795,True,37,1
163K34S3,1047,experiment,62,↓,down,↓,0.4997510998509824,True,37,1
163K34S3,1048,experiment,81,↓,down,↓,0.5964494999498129,True,37,1
163K34S3,1049,training,82,→,right,→,0.6205770997330546,True,37,0
163K34S3,1050,training,88,↓,down,↓,0.4785257000476122,True,37,1
163K34S3,1051,experiment,51,↓,down,↓,0.6016020998358727,True,37,0
163K34S3,1052,experiment,96,←,left,←,0.6891840999014676,True,37,1
163K34S3,1053,experiment,50,↑,up,↑,0.6446515000425279,True,37,1
163K34S3,1054,experiment,91,→,right,→,0.42576180025935173,True,37,1
163K34S3,1055,experiment,92,←,left,←,0.47667220002040267,True,37,0
163K34S3,1056,experiment,60,←,left,←,0.45906659960746765,True,37,0
163K34S3,1057,experiment,73,↑,no_key,no_letter,-1.0,False,37,0
163K34S3,1058,experiment,59,↓,down,↓,0.5023167999461293,True,37,1
163K34S3,1059,experiment,53,↑,no_key,no_letter,-1.0,False,37,1
163K34S3,1060,experiment,54,←,left,←,0.5029820003546774,True,37,1
163K34S3,1061,experiment,72,←,left,←,0.5225316998548806,True,37,1
163K34S3,1062,experiment,99,↑,up,↑,0.4770223000086844,True,37,1
163K34S3,1063,experiment,61,←,left,←,0.5564613002352417,True,37,0
163K34S3,1064,experiment,86,→,right,→,0.593145000282675,True,37,1
163K34S3,1065,experiment,104,↑,up,↑,0.6225359002128243,True,37,1
163K34S3,1066,experiment,80,→,right,→,0.6025402997620404,True,37,1
163K34S3,1067,experiment,63,↑,up,↑,0.47791860019788146,True,37,1
163K34S3,1068,experiment,78,→,right,→,0.5756606999784708,True,37,0
163K34S3,1069,experiment,52,→,right,→,0.40873050037771463,True,37,1
163K34S3,1070,experiment,74,↑,up,↑,0.4423928000032902,True,37,0
163K34S3,1071,experiment,69,↓,down,↓,0.5243190000765026,True,37,0
163K34S3,1072,experiment,85,→,right,→,0.44238699972629547,True,37,1
163K34S3,1073,experiment,95,←,left,←,0.4505167999304831,True,37,0
163K34S3,1074,experiment,62,↑,up,↑,0.6095292000100017,True,37,0
163K34S3,1075,experiment,49,↑,up,↑,0.40129660023376346,True,37,1
163K34S3,1076,experiment,57,↑,up,↑,0.4340670998208225,True,37,0
163K34S3,1077,experiment,94,←,left,←,0.48428549990057945,True,37,0
163K34S3,1078,experiment,93,↓,down,↓,0.45872850017622113,True,37,1
163K34S3,1079,experiment,98,→,right,→,0.685268500354141,True,37,0
163K34S3,1080,experiment,65,←,left,←,0.5559545001015067,True,37,1
163K34S3,1081,experiment,70,↑,no_key,no_letter,-1.0,False,37,1
163K34S3,1082,experiment,87,↓,down,↓,0.4591474998742342,True,37,1
163K34S3,1083,experiment,77,↑,up,↑,0.6852253000251949,True,37,0
163K34S3,1084,experiment,100,←,left,←,0.4805556000210345,True,37,1
163K34S3,1085,experiment,68,↑,up,↑,0.48625499987974763,True,37,1
163K34S3,1086,experiment,107,↓,down,↓,0.6860881000757217,True,37,1
163K34S3,1087,experiment,84,←,left,←,0.6144308997318149,True,37,1
163K34S3,1088,experiment,71,↑,up,↑,0.43412770004943013,True,37,1
163K34S3,1089,experiment,81,↓,down,↓,0.44248929992318153,True,37,0
163K34S3,1090,experiment,103,←,left,←,0.5645957998931408,True,37,0
163K34S3,1091,experiment,106,↑,no_key,no_letter,-1.0,False,37,1
163K34S3,1092,experiment,75,↓,down,↓,0.5697149001061916,True,37,1
163K34S3,1093,experiment,56,↓,down,↓,0.7039944999851286,True,37,1
163K34S3,1094,experiment,97,↑,no_key,no_letter,-1.0,False,37,1
163K34S3,1095,experiment,58,→,no_key,no_letter,-1.0,False,37,1
163K34S3,1096,experiment,101,↓,no_key,no_letter,-1.0,False,37,1
163K34S3,1097,experiment,82,↓,down,↓,0.5245202998630702,True,37,1
163K34S3,1098,experiment,83,→,down,↓,0.6437270999886096,False,37,1
163K34S3,1099,experiment,64,↑,up,↑,0.4173988001421094,True,37,1
163K34S3,1100,experiment,79,↓,down,↓,0.5931147001683712,True,37,0
163K34S3,1101,experiment,88,↓,down,↓,0.4591057002544403,True,37,1
163K34S3,1102,experiment,89,→,right,→,0.4914547000080347,True,37,0
163K34S3,1103,experiment,102,→,right,→,0.41739149997010827,True,37,1
163K34S3,1104,experiment,90,↑,down,↓,1.0056547997519374,False,37,0
163K34S3,1105,experiment,105,↓,no_key,no_letter,-1.0,False,37,1
163K34S3,1106,experiment,67,→,right,→,0.6201964998617768,True,37,1
163K34S3,1107,experiment,48,←,no_key,no_letter,-1.0,False,37,1
163K34S3,1108,experiment,108,←,right,→,0.5997789995744824,False,37,1
163K34S3,1109,experiment,66,↑,up,↑,0.5055014002136886,True,37,1
163K34S3,1110,experiment,76,↑,up,↑,0.4507602001540363,True,37,1
163K34S3,1111,experiment,55,↑,up,↑,0.5986983999609947,True,37,0
163K34S3,1112,training,56,→,left,←,0.5112208002246916,False,37,0
163K34S3,1113,training,80,←,right,→,0.40888330014422536,False,37,1
163K34S3,1114,experiment,88,→,right,→,0.521624700166285,True,37,0
163K34S3,1115,experiment,75,←,left,←,0.5873415004462004,True,37,1
163K34S3,1116,experiment,62,↓,down,↓,0.8552828999236226,True,37,1
163K34S3,1117,experiment,107,→,right,→,0.4423579000867903,True,37,1
163K34S3,1118,experiment,87,←,left,←,0.3840439999476075,True,37,0
163K34S3,1119,experiment,60,↓,down,↓,0.573730300180614,True,37,0
163K34S3,1120,experiment,48,→,right,→,0.5263677998445928,True,37,1
163K34S3,1121,experiment,54,←,left,←,0.5831388002261519,True,37,1
163K34S3,1122,experiment,56,→,right,→,0.43422009982168674,True,37,1
163K34S3,1123,experiment,79,←,left,←,0.3925136001780629,True,37,0
163K34S3,1124,experiment,66,↓,down,↓,0.5944081000052392,True,37,0
163K34S3,1125,experiment,80,←,left,←,0.358965499792248,True,37,1
163K34S3,1126,experiment,52,↓,down,↓,0.4795051999390125,True,37,0
163K34S3,1127,experiment,94,←,left,←,0.5088732000440359,True,37,0
163K34S3,1128,experiment,58,↓,no_key,no_letter,-1.0,False,37,1
163K34S3,1129,experiment,108,↑,up,↑,0.4588334998115897,True,37,1
163K34S3,1130,experiment,91,→,right,→,0.4807782997377217,True,37,0
163K34S3,1131,experiment,63,→,left,←,0.6794244996272027,False,37,0
163K34S3,1132,experiment,55,←,left,←,0.649388900026679,True,37,1
163K34S3,1133,experiment,81,↓,down,↓,0.6361497999168932,True,37,1
163K34S3,1134,experiment,74,→,no_key,no_letter,-1.0,False,37,1
163K34S3,1135,experiment,101,←,left,←,0.6170051000081003,True,37,1
163K34S3,1136,experiment,98,→,no_key,no_letter,-1.0,False,37,1
163K34S3,1137,experiment,72,↓,no_key,no_letter,-1.0,False,37,1
163K34S3,1138,experiment,105,↓,down,↓,0.6374111999757588,True,37,1
163K34S3,1139,experiment,90,↓,down,↓,0.5976967997848988,True,37,1
163K34S3,1140,experiment,93,↑,up,↑,0.4340380998328328,True,37,1
163K34S3,1141,experiment,78,↑,up,↑,0.4353212998248637,True,37,0
163K34S3,1142,experiment,73,→,right,→,0.6797666996717453,True,37,0
163K34S3,1143,experiment,61,↑,up,↑,0.40917979972437024,True,37,1
163K34S3,1144,experiment,99,←,left,←,0.7500320998951793,True,37,0
163K34S3,1145,experiment,51,↑,up,↑,0.5345749999396503,True,37,1
163K34S3,1146,experiment,77,→,right,→,0.6632530996575952,True,37,1
163K34S3,1147,experiment,85,↑,up,↑,0.442145399749279,True,37,1
163K34S3,1148,experiment,83,→,no_key,no_letter,-1.0,False,37,0
163K34S3,1149,experiment,102,→,no_key,no_letter,-1.0,False,37,1
163K34S3,1150,experiment,84,↑,up,↑,0.4507265998981893,True,37,1
163K34S3,1151,experiment,96,↑,up,↑,0.44353710021823645,True,37,0
163K34S3,1152,experiment,64,←,left,←,0.698863800149411,True,37,0
163K34S3,1153,experiment,71,↓,down,↓,0.550628200173378,True,37,1
163K34S3,1154,experiment,59,↑,up,↑,0.43411159981042147,True,37,1
163K34S3,1155,experiment,92,↓,down,↓,0.5240779998712242,True,37,0
163K34S3,1156,experiment,49,↓,no_key,no_letter,-1.0,False,37,1
163K34S3,1157,experiment,103,←,down,↓,0.7567607997916639,False,37,1
163K34S3,1158,experiment,86,↓,down,↓,0.53742800001055,True,37,1
163K34S3,1159,experiment,50,↑,no_key,no_letter,-1.0,False,37,1
163K34S3,1160,experiment,69,↑,up,↑,0.6527642998844385,True,37,1
163K34S3,1161,experiment,70,←,left,←,0.6352129997685552,True,37,1
163K34S3,1162,experiment,82,→,right,→,0.5102273998782039,True,37,1
163K34S3,1163,experiment,100,→,right,→,0.44218809995800257,True,37,1
163K34S3,1164,experiment,97,←,left,←,0.4780436996370554,True,37,0
163K34S3,1165,experiment,106,↑,up,↑,0.6786906998604536,True,37,0
163K34S3,1166,experiment,76,←,left,←,0.5860470999032259,True,37,1
163K34S3,1167,experiment,53,↑,up,↑,0.5927762999199331,True,37,1
163K34S3,1168,experiment,57,↓,down,↓,0.4862819998525083,True,37,1
163K34S3,1169,experiment,67,→,right,→,0.8035705997608602,True,37,1
163K34S3,1170,experiment,95,→,right,→,0.6276066000573337,True,37,1
163K34S3,1171,experiment,104,↑,up,↑,0.4507411001250148,True,37,1
163K34S3,1172,experiment,65,↓,down,↓,0.6795002003200352,True,37,0
163K34S3,1173,experiment,89,↑,up,↑,0.4424640000797808,True,37,1
163K34S3,1174,experiment,68,↓,up,↑,0.5411733998917043,False,37,0
163K34S3,1175,training,67,→,right,→,0.570815599989146,True,37,0
163K34S3,1176,training,97,↓,down,↓,0.49911070009693503,True,37,1
163K34S3,1177,experiment,58,←,no_key,no_letter,-1.0,False,37,1
163K34S3,1178,experiment,88,↓,down,↓,0.6388269998133183,True,37,1
163K34S3,1179,experiment,74,↓,down,↓,0.5640114000998437,True,37,1
163K34S3,1180,experiment,107,→,right,→,0.5774543001316488,True,37,1
163K34S3,1181,experiment,98,↑,up,↑,0.6575218001380563,True,37,1
163K34S3,1182,experiment,87,↑,up,↑,0.4347573001869023,True,37,1
163K34S3,1183,experiment,85,↑,up,↑,0.5073084002360702,True,37,0
163K34S3,1184,experiment,48,←,left,←,0.7427193000912666,True,37,1
163K34S3,1185,experiment,82,←,no_key,no_letter,-1.0,False,37,1
163K34S3,1186,experiment,69,↓,down,↓,0.4872742001898587,True,37,1
163K34S3,1187,experiment,50,↓,down,↓,0.5943952999077737,True,37,1
163K34S3,1188,experiment,99,↑,down,↓,0.7293588002212346,False,37,1
163K34S3,1189,experiment,51,↓,no_key,no_letter,-1.0,False,37,1
163K34S3,1190,experiment,54,←,left,←,0.5214045997709036,True,37,1
163K34S3,1191,experiment,61,→,no_key,no_letter,-1.0,False,37,1
163K34S3,1192,experiment,65,→,no_key,no_letter,-1.0,False,37,1
163K34S3,1193,experiment,103,←,left,←,0.5850360998883843,True,37,1
163K34S3,1194,experiment,94,↑,left,←,0.8978487998247147,False,37,1
163K34S3,1195,experiment,55,→,no_key,no_letter,-1.0,False,37,1
163K34S3,1196,experiment,76,↓,no_key,no_letter,-1.0,False,37,1
163K34S3,1197,experiment,89,←,left,←,0.6293027000501752,True,37,1
163K34S3,1198,experiment,108,↑,up,↑,0.487640299834311,True,37,1
163K34S3,1199,experiment,60,↓,down,↓,0.623953000176698,True,37,1
163K34S3,1200,experiment,84,↓,no_key,no_letter,-1.0,False,37,1
163K34S3,1201,experiment,86,←,left,←,0.662279199808836,True,37,1
163K34S3,1202,experiment,67,←,left,←,0.44242799980565906,True,37,1
163K34S3,1203,experiment,93,→,no_key,no_letter,-1.0,False,37,0
163K34S3,1204,experiment,53,←,no_key,no_letter,-1.0,False,37,1
163K34S3,1205,experiment,72,↑,up,↑,0.651473100297153,True,37,1
163K34S3,1206,experiment,102,↑,no_key,no_letter,-1.0,False,37,1
163K34S3,1207,experiment,68,←,left,←,0.4340467001311481,True,37,1
163K34S3,1208,experiment,73,↑,no_key,no_letter,-1.0,False,37,0
163K34S3,1209,experiment,66,↑,no_key,no_letter,-1.0,False,37,1
163K34S3,1210,experiment,56,→,right,→,0.6872914000414312,True,37,1
163K34S3,1211,experiment,95,↓,down,↓,0.7395621999166906,True,37,1
163K34S3,1212,experiment,52,↓,no_key,no_letter,-1.0,False,37,1
163K34S3,1213,experiment,101,→,right,→,0.6832952997647226,True,37,1
163K34S3,1214,experiment,77,←,left,←,0.549948800355196,True,37,1
163K34S3,1215,experiment,104,↓,down,↓,0.596849599853158,True,37,1
163K34S3,1216,experiment,71,←,left,←,0.6209594998508692,True,37,1
163K34S3,1217,experiment,81,←,left,←,0.53700130013749,True,37,1
163K34S3,1218,experiment,78,↑,no_key,no_letter,-1.0,False,37,1
163K34S3,1219,experiment,90,←,left,←,0.6839864999055862,True,37,1
163K34S3,1220,experiment,91,↑,up,↑,0.4348035999573767,True,37,1
163K34S3,1221,experiment,80,↓,no_key,no_letter,-1.0,False,37,0
163K34S3,1222,experiment,105,↓,down,↓,0.45170470001176,True,37,1
163K34S3,1223,experiment,96,→,left,←,0.7277540001086891,False,37,0
163K34S3,1224,experiment,59,↓,down,↓,0.5588047001510859,True,37,1
163K34S3,1225,experiment,63,↑,down,↓,0.6112395999953151,False,37,1
163K34S3,1226,experiment,64,→,left,←,0.685171399731189,False,37,1
163K34S3,1227,experiment,92,↓,down,↓,0.41737909987568855,True,37,1
163K34S3,1228,experiment,62,→,right,→,0.4508324000053108,True,37,0
163K34S3,1229,experiment,97,↑,up,↑,0.4431396001018584,True,37,0
163K34S3,1230,experiment,75,↑,up,↑,0.5343546001240611,True,37,0
163K34S3,1231,experiment,57,←,no_key,no_letter,-1.0,False,37,1
163K34S3,1232,experiment,83,→,right,→,0.4909438998438418,True,37,1
163K34S3,1233,experiment,106,←,left,←,0.7233931999653578,True,37,1
163K34S3,1234,experiment,49,→,right,→,0.45903100026771426,True,37,1
163K34S3,1235,experiment,70,↑,up,↑,0.442692699842155,True,37,0
163K34S3,1236,experiment,79,↑,up,↑,0.574908799957484,True,37,0
163K34S3,1237,experiment,100,↑,up,↑,0.550288800150156,True,37,1
163K34S3,1238,training,73,↑,up,↑,0.45900689996778965,True,37,0
163K34S3,1239,training,88,→,right,→,0.6469019004143775,True,37,0
163K34S3,1240,experiment,52,→,left,←,0.747359300032258,False,37,1
163K34S3,1241,experiment,75,→,right,→,0.5880754003301263,True,37,1
163K34S3,1242,experiment,82,←,left,←,0.592754099983722,True,37,1
163K34S3,1243,experiment,56,↓,down,↓,0.502271399833262,True,37,1
163K34S3,1244,experiment,88,←,left,←,0.6207002997398376,True,37,1
163K34S3,1245,experiment,55,←,no_key,no_letter,-1.0,False,37,1
163K34S3,1246,experiment,98,↑,down,↓,0.6492884000763297,False,37,1
163K34S3,1247,experiment,73,↑,down,↓,0.7345456001348794,False,37,1
163K34S3,1248,experiment,101,↑,up,↑,0.5033150003291667,True,37,1
163K34S3,1249,experiment,95,↓,down,↓,0.4837619001045823,True,37,1
163K34S3,1250,experiment,78,↓,down,↓,0.4936416996642947,True,37,1
163K34S3,1251,experiment,51,←,left,←,0.5201182998716831,True,37,1
163K34S3,1252,experiment,94,↓,down,↓,0.5318314000032842,True,37,1
163K34S3,1253,experiment,100,↓,down,↓,0.5088912998326123,True,37,1
163K34S3,1254,experiment,86,↓,down,↓,0.6277758996002376,True,37,1
163K34S3,1255,experiment,48,→,right,→,0.4516496998257935,True,37,1
163K34S3,1256,experiment,96,→,left,←,0.671465199906379,False,37,0
163K34S3,1257,experiment,58,↓,down,↓,0.5768297999165952,True,37,1
163K34S3,1258,experiment,92,←,no_key,no_letter,-1.0,False,37,1
163K34S3,1259,experiment,108,←,left,←,0.7273422996513546,True,37,1
163K34S3,1260,experiment,105,←,no_key,no_letter,-1.0,False,37,1
163K34S3,1261,experiment,87,↓,down,↓,0.602642500307411,True,37,1
163K34S3,1262,experiment,57,↑,no_key,no_letter,-1.0,False,37,1
163K34S3,1263,experiment,65,→,right,→,0.5701929000206292,True,37,1
163K34S3,1264,experiment,99,→,right,→,0.5063088997267187,True,37,1
163K34S3,1265,experiment,60,↓,down,↓,0.5616648998111486,True,37,1
163K34S3,1266,experiment,77,↑,down,↓,0.9854709999635816,False,37,1
163K34S3,1267,experiment,70,↑,up,↑,0.618368299677968,True,37,1
163K34S3,1268,experiment,84,↓,down,↓,0.6455496000126004,True,37,1
163K34S3,1269,experiment,54,↓,down,↓,0.5297936000861228,True,37,1
163K34S3,1270,experiment,61,→,no_key,no_letter,-1.0,False,37,1
163K34S3,1271,experiment,68,↓,down,↓,0.5135510000400245,True,37,1
163K34S3,1272,experiment,53,←,no_key,no_letter,-1.0,False,37,1
163K34S3,1273,experiment,62,←,left,←,0.6228714003227651,True,37,1
163K34S3,1274,experiment,80,↓,down,↓,0.4834430003538728,True,37,1
163K34S3,1275,experiment,102,→,right,→,0.6452937996946275,True,37,1
163K34S3,1276,experiment,81,↑,up,↑,0.4259464000351727,True,37,1
163K34S3,1277,experiment,71,↑,up,↑,0.6230712998658419,True,37,0
163K34S3,1278,experiment,64,↑,up,↑,0.6964520998299122,True,37,1
163K34S3,1279,experiment,79,←,left,←,0.5538599002175033,True,37,1
163K34S3,1280,experiment,97,↑,up,↑,0.42600829992443323,True,37,1
163K34S3,1281,experiment,93,→,no_key,no_letter,-1.0,False,37,0
163K34S3,1282,experiment,63,←,left,←,0.6061657001264393,True,37,1
163K34S3,1283,experiment,50,→,right,→,0.6211233003996313,True,37,1
163K34S3,1284,experiment,74,↑,up,↑,0.5949817001819611,True,37,1
163K34S3,1285,experiment,85,↓,down,↓,0.487383299972862,True,37,1
163K34S3,1286,experiment,66,→,no_key,no_letter,-1.0,False,37,1
163K34S3,1287,experiment,104,↓,down,↓,0.4909876002930105,True,37,1
163K34S3,1288,experiment,91,←,left,←,0.5848014997318387,True,37,1
163K34S3,1289,experiment,76,→,right,→,0.3764538001269102,True,37,1
163K34S3,1290,experiment,90,←,left,←,0.6181506002321839,True,37,0
163K34S3,1291,experiment,69,↓,down,↓,0.5454910998232663,True,37,1
163K34S3,1292,experiment,103,↓,down,↓,0.5614519999362528,True,37,1
163K34S3,1293,experiment,106,↑,up,↑,0.7592114000581205,True,37,1
163K34S3,1294,experiment,67,←,left,←,0.4593171002343297,True,37,1
163K34S3,1295,experiment,59,←,left,←,0.5397552000358701,True,37,0
163K34S3,1296,experiment,49,↑,up,↑,0.4587543001398444,True,37,1
163K34S3,1297,experiment,72,↑,up,↑,0.44332229997962713,True,37,0
163K34S3,1298,experiment,107,↓,down,↓,0.8684331001713872,True,37,0
163K34S3,1299,experiment,89,←,left,←,0.3840683000162244,True,37,1
163K34S3,1300,experiment,83,↓,no_key,no_letter,-1.0,False,37,0
163K34S3,1301,training,103,↑,up,↑,0.5775279998779297,True,37,0
163K34S3,1302,training,73,↓,down,↓,0.5219115000218153,True,37,1
163K34S3,1303,experiment,52,←,right,→,0.6115323998965323,False,37,1
163K34S3,1304,experiment,87,↓,no_key,no_letter,-1.0,False,37,1
163K34S3,1305,experiment,74,↓,down,↓,0.4941271999850869,True,37,1
163K34S3,1306,experiment,104,←,left,←,0.4423813000321388,True,37,1
163K34S3,1307,experiment,96,↓,up,↑,0.5326928999274969,False,37,0
163K34S3,1308,experiment,106,→,right,→,0.6113235000520945,True,37,1
163K34S3,1309,experiment,84,↑,up,↑,0.6309916996397078,True,37,1
163K34S3,1310,experiment,75,↑,up,↑,0.4590480998158455,True,37,1
163K34S3,1311,experiment,54,↑,up,↑,0.6393071003258228,True,37,0
163K34S3,1312,experiment,73,←,left,←,0.653124500066042,True,37,1
163K34S3,1313,experiment,92,↓,no_key,no_letter,-1.0,False,37,1
163K34S3,1314,experiment,105,←,left,←,0.49001200031489134,True,37,1
163K34S3,1315,experiment,57,↓,down,↓,0.6265587001107633,True,37,1
163K34S3,1316,experiment,101,↑,up,↑,0.647688299883157,True,37,1
163K34S3,1317,experiment,59,←,left,←,0.44244949985295534,True,37,1
163K34S3,1318,experiment,71,↑,up,↑,0.6397877996787429,True,37,0
163K34S3,1319,experiment,82,→,no_key,no_letter,-1.0,False,37,1
163K34S3,1320,experiment,80,↓,down,↓,0.512447000015527,True,37,1
163K34S3,1321,experiment,98,↑,up,↑,0.6348605998791754,True,37,1
163K34S3,1322,experiment,76,→,right,→,0.6318459999747574,True,37,1
163K34S3,1323,experiment,97,←,left,←,0.5819094004109502,True,37,1
163K34S3,1324,experiment,91,↓,down,↓,0.6318292999640107,True,37,1
163K34S3,1325,experiment,79,→,no_key,no_letter,-1.0,False,37,1
163K34S3,1326,experiment,61,↓,down,↓,0.5282997000031173,True,37,1
163K34S3,1327,experiment,62,←,left,←,0.49435630021616817,True,37,1
163K34S3,1328,experiment,95,↑,up,↑,0.6102774003520608,True,37,1
163K34S3,1329,experiment,58,↑,no_key,no_letter,-1.0,False,37,1
163K34S3,1330,experiment,72,←,no_key,no_letter,-1.0,False,37,1
163K34S3,1331,experiment,89,→,no_key,no_letter,-1.0,False,37,1
163K34S3,1332,experiment,63,↑,up,↑,0.517368400003761,True,37,1
163K34S3,1333,experiment,56,→,right,→,0.5017232997342944,True,37,1
163K34S3,1334,experiment,102,↑,up,↑,0.5914834998548031,True,37,1
163K34S3,1335,experiment,68,←,left,←,0.40010949969291687,True,37,1
163K34S3,1336,experiment,69,↓,no_key,no_letter,-1.0,False,37,0
163K34S3,1337,experiment,100,→,right,→,0.45054080011323094,True,37,1
163K34S3,1338,experiment,78,→,no_key,no_letter,-1.0,False,37,0
163K34S3,1339,experiment,107,→,right,→,0.45910510001704097,True,37,1
163K34S3,1340,experiment,50,↓,down,↓,0.9890492996200919,True,37,0
163K34S3,1341,experiment,103,←,left,←,0.5627383999526501,True,37,1
163K34S3,1342,experiment,49,↓,no_key,no_letter,-1.0,False,37,1
163K34S3,1343,experiment,90,←,left,←,0.42583590000867844,True,37,1
163K34S3,1344,experiment,67,←,left,←,0.5980954999104142,True,37,0
163K34S3,1345,experiment,65,←,left,←,0.5042314003221691,True,37,1
163K34S3,1346,experiment,64,→,left,←,0.49458609987050295,False,37,1
163K34S3,1347,experiment,94,↑,no_key,no_letter,-1.0,False,37,1
163K34S3,1348,experiment,88,↑,no_key,no_letter,-1.0,False,37,1
163K34S3,1349,experiment,55,→,right,→,0.6760686999186873,True,37,1
163K34S3,1350,experiment,53,↓,down,↓,0.535215999931097,True,37,1
163K34S3,1351,experiment,83,↑,up,↑,0.6618307996541262,True,37,1
163K34S3,1352,experiment,93,↓,down,↓,0.45895810006186366,True,37,1
163K34S3,1353,experiment,66,↓,down,↓,0.4341152999550104,True,37,0
163K34S3,1354,experiment,48,←,left,←,0.6094447001814842,True,37,0
163K34S3,1355,experiment,77,↓,down,↓,0.5991479000076652,True,37,1
163K34S3,1356,experiment,51,↑,left,←,0.5898866998031735,False,37,1
163K34S3,1357,experiment,60,←,no_key,no_letter,-1.0,False,37,1
163K34S3,1358,experiment,86,→,right,→,0.4509072997607291,True,37,1
163K34S3,1359,experiment,81,→,no_key,no_letter,-1.0,False,37,0
163K34S3,1360,experiment,99,→,right,→,0.44227520003914833,True,37,1
163K34S3,1361,experiment,70,↓,down,↓,0.5181455998681486,True,37,0
163K34S3,1362,experiment,85,↑,no_key,no_letter,-1.0,False,37,1
163K34S3,1363,experiment,108,↑,down,↓,0.6973963002674282,False,37,1
163K34S3,1364,training,70,→,left,←,0.8600777997635305,False,37,0
163K34S3,1365,training,108,→,no_key,no_letter,-1.0,False,37,1
163K34S3,1366,experiment,67,↓,no_key,no_letter,-1.0,False,37,1
163K34S3,1367,experiment,78,↓,down,↓,0.5258539998903871,True,37,1
163K34S3,1368,experiment,90,→,right,→,0.6104766000062227,True,37,1
163K34S3,1369,experiment,56,↓,no_key,no_letter,-1.0,False,37,1
163K34S3,1370,experiment,54,→,no_key,no_letter,-1.0,False,37,1
163K34S3,1371,experiment,91,↓,down,↓,0.4590387996286154,True,37,1
163K34S3,1372,experiment,60,←,no_key,no_letter,-1.0,False,37,0
163K34S3,1373,experiment,93,↑,up,↑,0.4424684001132846,True,37,1
163K34S3,1374,experiment,58,↓,down,↓,0.6211753999814391,True,37,0
163K34S3,1375,experiment,55,→,right,→,0.4007504000328481,True,37,1
163K34S3,1376,experiment,77,↓,no_key,no_letter,-1.0,False,37,0
163K34S3,1377,experiment,100,→,right,→,0.4792627999559045,True,37,1
163K34S3,1378,experiment,81,→,right,→,0.41743490006774664,True,37,0
163K34S3,1379,experiment,83,←,left,←,0.690826500300318,True,37,0
163K34S3,1380,experiment,51,←,left,←,0.4165525999851525,True,37,1
163K34S3,1381,experiment,70,↓,down,↓,0.6136107998900115,True,37,0
163K34S3,1382,experiment,86,→,right,→,0.6876972997561097,True,37,1
163K34S3,1383,experiment,48,↓,down,↓,0.5958380997180939,True,37,1
163K34S3,1384,experiment,65,↑,up,↑,0.43416829966008663,True,37,1
163K34S3,1385,experiment,89,→,no_key,no_letter,-1.0,False,37,0
163K34S3,1386,experiment,96,↓,down,↓,0.5348475999198854,True,37,1
163K34S3,1387,experiment,76,↑,up,↑,0.48825130006298423,True,37,1
163K34S3,1388,experiment,63,↓,no_key,no_letter,-1.0,False,37,1
163K34S3,1389,experiment,97,→,no_key,no_letter,-1.0,False,37,1
163K34S3,1390,experiment,92,←,no_key,no_letter,-1.0,False,37,1
163K34S3,1391,experiment,49,↑,up,↑,0.6575221000239253,True,37,1
163K34S3,1392,experiment,104,→,no_key,no_letter,-1.0,False,37,1
163K34S3,1393,experiment,105,→,right,→,0.4341680998913944,True,37,1
163K34S3,1394,experiment,52,←,left,←,0.6621003998443484,True,37,0
163K34S3,1395,experiment,80,←,no_key,no_letter,-1.0,False,37,1
163K34S3,1396,experiment,102,→,right,→,0.4799311999231577,True,37,1
163K34S3,1397,experiment,107,←,left,←,0.458958700299263,True,37,0
163K34S3,1398,experiment,72,↓,down,↓,0.7333084000274539,True,37,0
163K34S3,1399,experiment,84,→,right,→,0.5635353000834584,True,37,1
163K34S3,1400,experiment,106,←,left,←,0.39252630015835166,True,37,1
163K34S3,1401,experiment,98,→,right,→,0.5442633000202477,True,37,0
163K34S3,1402,experiment,99,↓,down,↓,0.5213131001219153,True,37,1
163K34S3,1403,experiment,69,→,right,→,0.5250056004151702,True,37,1
163K34S3,1404,experiment,66,↓,down,↓,0.513782599940896,True,37,1
163K34S3,1405,experiment,79,↑,no_key,no_letter,-1.0,False,37,1
163K34S3,1406,experiment,53,↓,no_key,no_letter,-1.0,False,37,1
163K34S3,1407,experiment,62,↑,down,↓,0.6452921000309289,False,37,1
163K34S3,1408,experiment,108,↓,down,↓,0.6314567998051643,True,37,1
163K34S3,1409,experiment,75,↑,no_key,no_letter,-1.0,False,37,1
163K34S3,1410,experiment,74,→,no_key,no_letter,-1.0,False,37,1
163K34S3,1411,experiment,95,↓,down,↓,0.5414515999145806,True,37,1
163K34S3,1412,experiment,103,←,right,→,0.5652548996731639,False,37,1
163K34S3,1413,experiment,87,↑,no_key,no_letter,-1.0,False,37,1
163K34S3,1414,experiment,82,←,left,←,0.790348400361836,True,37,1
163K34S3,1415,experiment,61,←,left,←,0.45129079977050424,True,37,1
163K34S3,1416,experiment,71,↑,up,↑,0.48800510028377175,True,37,0
163K34S3,1417,experiment,50,↑,up,↑,0.6669367998838425,True,37,1
163K34S3,1418,experiment,59,↓,down,↓,0.6923528001643717,True,37,1
163K34S3,1419,experiment,73,↑,up,↑,0.4507087003439665,True,37,1
163K34S3,1420,experiment,68,←,left,←,0.6948794000782073,True,37,0
163K34S3,1421,experiment,94,↓,down,↓,0.715671899728477,True,37,1
163K34S3,1422,experiment,101,←,left,←,0.41742980014532804,True,37,1
163K34S3,1423,experiment,64,↑,no_key,no_letter,-1.0,False,37,0
163K34S3,1424,experiment,85,←,left,←,0.6344916997477412,True,37,1
163K34S3,1425,experiment,57,↑,no_key,no_letter,-1.0,False,37,1
163K34S3,1426,experiment,88,→,right,→,0.6650582998991013,True,37,1
163K34S3,1427,training,100,←,left,←,0.5689262999221683,True,37,0
163K34S3,1428,training,61,→,right,→,0.4173024999909103,True,37,1
163K34S3,1429,experiment,89,↑,up,↑,0.4171754000708461,True,37,0
163K34S3,1430,experiment,94,↑,up,↑,0.3837097999639809,True,37,0
163K34S3,1431,experiment,101,←,left,←,0.5324945999309421,True,37,1
163K34S3,1432,experiment,62,→,right,→,0.4258345998823643,True,37,1
163K34S3,1433,experiment,91,↑,up,↑,0.4430992999114096,True,37,0
163K34S3,1434,experiment,88,→,right,→,0.459207100328058,True,37,0
163K34S3,1435,experiment,108,→,left,←,0.5634435000829399,False,37,0
163K34S3,1436,experiment,51,↑,up,↑,0.44265880016610026,True,37,1
163K34S3,1437,experiment,66,←,no_key,no_letter,-1.0,False,37,0
163K34S3,1438,experiment,81,←,no_key,no_letter,-1.0,False,37,1
163K34S3,1439,experiment,72,↑,no_key,no_letter,-1.0,False,37,1
163K34S3,1440,experiment,104,↓,down,↓,0.543242999818176,True,37,1
163K34S3,1441,experiment,64,↓,down,↓,0.6839433000423014,True,37,1
163K34S3,1442,experiment,79,→,right,→,0.7979680998250842,True,37,1
163K34S3,1443,experiment,103,↑,no_key,no_letter,-1.0,False,37,1
163K34S3,1444,experiment,57,↑,up,↑,0.41775699984282255,True,37,1
163K34S3,1445,experiment,71,←,left,←,0.511610500048846,True,37,0
163K34S3,1446,experiment,98,←,left,←,0.562317700125277,True,37,1
163K34S3,1447,experiment,65,↑,up,↑,0.6217179000377655,True,37,1
163K34S3,1448,experiment,84,←,left,←,0.3673398997634649,True,37,1
163K34S3,1449,experiment,96,→,no_key,no_letter,-1.0,False,37,0
163K34S3,1450,experiment,90,←,left,←,0.6837271000258625,True,37,1
163K34S3,1451,experiment,69,↓,down,↓,0.5690181003883481,True,37,1
163K34S3,1452,experiment,105,←,left,←,0.4590277001261711,True,37,1
163K34S3,1453,experiment,58,←,left,←,0.5049666003324091,True,37,0
163K34S3,1454,experiment,74,→,left,←,0.5635926998220384,False,37,1
163K34S3,1455,experiment,85,↑,up,↑,0.43381610000506043,True,37,1
163K34S3,1456,experiment,48,↓,no_key,no_letter,-1.0,False,37,0
163K34S3,1457,experiment,100,→,right,→,0.5097027001902461,True,37,1
163K34S3,1458,experiment,73,↓,down,↓,0.5770153999328613,True,37,1
163K34S3,1459,experiment,82,←,left,←,0.6061995001509786,True,37,1
163K34S3,1460,experiment,53,←,right,→,0.5719062001444399,False,37,1
163K34S3,1461,experiment,50,↓,down,↓,0.4848070000298321,True,37,1
163K34S3,1462,experiment,92,↓,down,↓,0.5696955998428166,True,37,1
163K34S3,1463,experiment,56,↑,up,↑,0.5121085001155734,True,37,1
163K34S3,1464,experiment,75,←,no_key,no_letter,-1.0,False,37,1
163K34S3,1465,experiment,54,→,right,→,0.4814549000002444,True,37,1
163K34S3,1466,experiment,78,←,left,←,0.44246189994737506,True,37,1
163K34S3,1467,experiment,106,↓,no_key,no_letter,-1.0,False,37,0
163K34S3,1468,experiment,55,→,right,→,0.5478075998835266,True,37,1
163K34S3,1469,experiment,80,→,right,→,0.6348468000069261,True,37,1
163K34S3,1470,experiment,63,↑,down,↓,0.6282067000865936,False,37,1
163K34S3,1471,experiment,99,↑,up,↑,0.45080360025167465,True,37,1
163K34S3,1472,experiment,67,→,no_key,no_letter,-1.0,False,37,0
163K34S3,1473,experiment,76,↓,down,↓,0.8642249000258744,True,37,1
163K34S3,1474,experiment,102,↓,down,↓,0.619114900007844,True,37,1
163K34S3,1475,experiment,68,←,left,←,0.5476200999692082,True,37,1
163K34S3,1476,experiment,107,↑,up,↑,0.7775795003399253,True,37,1
163K34S3,1477,experiment,95,↓,no_key,no_letter,-1.0,False,37,1
163K34S3,1478,experiment,60,→,no_key,no_letter,-1.0,False,37,1
163K34S3,1479,experiment,70,←,no_key,no_letter,-1.0,False,37,1
163K34S3,1480,experiment,86,↑,up,↑,0.74021300021559,True,37,1
163K34S3,1481,experiment,83,←,left,←,0.5946730999276042,True,37,1
163K34S3,1482,experiment,49,→,right,→,0.5545739997178316,True,37,1
163K34S3,1483,experiment,61,↑,up,↑,0.4509882996790111,True,37,1
163K34S3,1484,experiment,87,↑,up,↑,0.4170669997110963,True,37,0
163K34S3,1485,experiment,97,↓,down,↓,0.6141778999008238,True,37,0
163K34S3,1486,experiment,52,→,right,→,0.45912820007652044,True,37,1
163K34S3,1487,experiment,77,↓,down,↓,0.48779619997367263,True,37,0
163K34S3,1488,experiment,59,←,left,←,0.42542879981920123,True,37,1
163K34S3,1489,experiment,93,↓,down,↓,0.5033082999289036,True,37,0
163K34S3,1490,training,101,→,right,→,0.43295640032738447,True,37,0
163K34S3,1491,training,106,↓,down,↓,0.5791859999299049,True,37,0
163K34S3,1492,experiment,65,↓,down,↓,0.5823218999430537,True,37,1
163K34S3,1493,experiment,95,↓,down,↓,0.4423641003668308,True,37,1
163K34S3,1494,experiment,60,↓,down,↓,0.45877570006996393,True,37,0
163K34S3,1495,experiment,59,→,no_key,no_letter,-1.0,False,37,0
163K34S3,1496,experiment,62,→,right,→,0.5180802997201681,True,37,1
