PART_ID,Trial_no,Trial_type,CSI,Stim_letter,Key_pressed,letter_choose,Rt,Corr,Stimulus Time,nDropped
163K34S2,1,training,120,↓,down,↓,0.5176934999763034,True,60,0
163K34S2,2,training,120,←,left,←,0.4187320999917574,True,60,0
163K34S2,3,training,120,→,left,←,0.4603636000538245,False,60,0
163K34S2,4,training,120,←,left,←,0.7028187999967486,True,60,0
163K34S2,5,training,120,→,right,→,0.7453844999545254,True,60,0
163K34S2,6,training,120,→,right,→,0.5592353999963962,True,60,0
163K34S2,7,training,120,←,left,←,0.6341314999735914,True,60,0
163K34S2,8,training,120,→,right,→,0.7367332000285387,True,60,0
163K34S2,9,training,120,→,right,→,0.8261515999911353,True,60,0
163K34S2,10,training,120,←,left,←,0.5758549000020139,True,60,0
163K34S2,11,training,120,←,left,←,0.4685404000338167,True,60,0
163K34S2,12,training,120,→,right,→,0.6007129999925382,True,60,0
163K34S2,13,training,120,→,right,→,0.46878659998765215,True,60,0
163K34S2,14,training,120,↑,up,↑,0.608814999985043,True,60,0
163K34S2,15,training,120,→,right,→,0.42691799998283386,True,60,0
163K34S2,16,training,120,↓,down,↓,0.6504751999746077,True,60,0
163K34S2,17,training,120,→,right,→,0.4352717000292614,True,60,0
163K34S2,18,training,120,→,right,→,0.5751257999800146,True,60,0
163K34S2,19,training,120,↓,down,↓,0.5758348000235856,True,60,0
163K34S2,20,training,120,↓,down,↓,0.45181170001160353,True,60,0
163K34S2,21,no_adaptation,120,↑,up,↑,0.4176962000201456,True,36,0
163K34S2,22,no_adaptation,120,←,no_key,no_letter,-1.0,False,36,0
163K34S2,23,no_adaptation,120,↓,down,↓,0.5903249999973923,True,36,0
163K34S2,24,no_adaptation,120,↑,up,↑,0.4170200999942608,True,36,0
163K34S2,25,no_adaptation,120,←,up,↑,0.5239749000174925,False,36,0
163K34S2,26,no_adaptation,120,←,left,←,0.42589230003068224,True,36,0
163K34S2,27,no_adaptation,120,↓,down,↓,0.5160831999965012,True,36,0
163K34S2,28,no_adaptation,120,→,right,→,0.6946420000167564,True,36,0
163K34S2,29,no_adaptation,120,↓,down,↓,0.43476839998038486,True,36,0
163K34S2,30,no_adaptation,120,→,down,↓,0.5190380000276491,False,36,0
163K34S2,31,no_adaptation,120,↑,down,↓,0.5292940000072122,False,36,0
163K34S2,32,no_adaptation,120,←,left,←,0.5072217000415549,True,36,0
163K34S2,33,no_adaptation,120,←,left,←,0.6300407000235282,True,36,0
163K34S2,34,no_adaptation,120,↑,up,↑,0.6198390999925323,True,36,0
163K34S2,35,no_adaptation,120,←,left,←,0.6500174999819137,True,36,0
163K34S2,36,no_adaptation,120,↓,down,↓,0.7032324000028893,True,36,0
163K34S2,37,no_adaptation,120,→,right,→,0.4823808999499306,True,36,0
163K34S2,38,no_adaptation,120,→,right,→,0.493775499984622,True,36,0
163K34S2,39,no_adaptation,120,→,right,→,0.48890890000620857,True,36,0
163K34S2,40,no_adaptation,120,↑,up,↑,0.7004086000379175,True,36,0
163K34S2,41,training,71,←,left,←,0.49384819995611906,True,36,0
163K34S2,42,training,62,→,right,→,0.5171356999780983,True,36,1
163K34S2,43,experiment,53,←,left,←,0.6945311999879777,True,36,1
163K34S2,44,experiment,69,↑,up,↑,0.4162215000251308,True,36,1
163K34S2,45,experiment,81,↓,down,↓,0.5833497999701649,True,36,0
163K34S2,46,experiment,72,↑,up,↑,0.37714380002580583,True,36,1
163K34S2,47,experiment,102,↓,down,↓,0.5337514000129886,True,36,0
163K34S2,48,experiment,59,←,left,←,0.6685421000001952,True,36,1
163K34S2,49,experiment,82,←,right,→,0.6382481000036933,False,36,1
163K34S2,50,experiment,71,→,right,→,0.484835600014776,True,36,1
163K34S2,51,experiment,90,↑,up,↑,0.375802599999588,True,36,1
163K34S2,52,experiment,103,↓,down,↓,0.40091049997135997,True,36,0
163K34S2,53,experiment,83,←,left,←,0.442456399963703,True,36,0
163K34S2,54,experiment,67,↑,up,↑,0.5883848000084981,True,36,0
163K34S2,55,experiment,86,↑,up,↑,0.38474010000936687,True,36,1
163K34S2,56,experiment,57,→,left,←,0.6444795000134036,False,36,0
163K34S2,57,experiment,105,↓,down,↓,0.5674610999994911,True,36,1
163K34S2,58,experiment,68,↑,up,↑,0.6341216000146233,True,36,1
163K34S2,59,experiment,66,↓,left,←,0.7144322000094689,False,36,1
163K34S2,60,experiment,84,↓,down,↓,0.5613408000208437,True,36,1
163K34S2,61,experiment,87,↓,down,↓,0.557672300026752,True,36,1
163K34S2,62,experiment,106,↓,up,↑,0.47648100001970306,False,36,1
163K34S2,63,experiment,85,←,left,←,0.4173939999891445,True,36,1
163K34S2,64,experiment,73,↑,up,↑,0.5702220999519341,True,36,0
163K34S2,65,experiment,93,↓,down,↓,0.5002811000449583,True,36,1
163K34S2,66,experiment,60,→,right,→,0.5560467000468634,True,36,1
163K34S2,67,experiment,78,←,left,←,0.433825500018429,True,36,1
163K34S2,68,experiment,61,→,right,→,0.5172659999807365,True,36,0
163K34S2,69,experiment,107,→,right,→,0.4848643000004813,True,36,1
163K34S2,70,experiment,100,←,no_key,no_letter,-1.0,False,36,1
163K34S2,71,experiment,74,↑,up,↑,0.44248130003688857,True,36,1
163K34S2,72,experiment,94,↑,up,↑,0.4941784999682568,True,36,0
163K34S2,73,experiment,51,→,left,←,0.5450652000145055,False,36,1
163K34S2,74,experiment,56,→,right,→,0.5203638999955729,True,36,1
163K34S2,75,experiment,58,↓,down,↓,0.45064349996391684,True,36,1
163K34S2,76,experiment,99,↓,down,↓,0.5886111999861896,True,36,0
163K34S2,77,experiment,64,↓,down,↓,0.5914562999969348,True,36,1
163K34S2,78,experiment,98,↓,down,↓,0.5267455999855883,True,36,1
163K34S2,79,experiment,54,↑,up,↑,0.5755224000313319,True,36,1
163K34S2,80,experiment,95,→,right,→,0.6885063999798149,True,36,1
163K34S2,81,experiment,104,←,left,←,0.6418000999838114,True,36,1
163K34S2,82,experiment,79,↑,up,↑,0.42566780000925064,True,36,1
163K34S2,83,experiment,89,↑,up,↑,0.4173953999998048,True,36,0
163K34S2,84,experiment,65,←,left,←,0.43410519999451935,True,36,0
163K34S2,85,experiment,97,↓,down,↓,0.434399499965366,True,36,0
163K34S2,86,experiment,76,←,left,←,0.5938652000040747,True,36,0
163K34S2,87,experiment,55,→,right,→,0.5363560000550933,True,36,1
163K34S2,88,experiment,88,↑,up,↑,0.5806653000181541,True,36,1
163K34S2,89,experiment,91,↓,down,↓,0.4004702999955043,True,36,1
163K34S2,90,experiment,52,→,right,→,0.5168400999973528,True,36,0
163K34S2,91,experiment,62,↓,down,↓,0.4090391999925487,True,36,1
163K34S2,92,experiment,50,←,right,→,0.7297828000155278,False,36,0
163K34S2,93,experiment,96,↓,down,↓,0.44263959996169433,True,36,1
163K34S2,94,experiment,108,↑,up,↑,0.4166772000025958,True,36,0
163K34S2,95,experiment,101,↓,down,↓,0.4910321999923326,True,36,0
163K34S2,96,experiment,80,↓,down,↓,0.5402571000158787,True,36,1
163K34S2,97,experiment,77,→,right,→,0.684631000040099,True,36,1
163K34S2,98,experiment,48,↑,up,↑,0.418225200031884,True,36,1
163K34S2,99,experiment,92,↓,down,↓,0.384125699987635,True,36,0
163K34S2,100,experiment,70,↑,up,↑,0.5295952000305988,True,36,0
163K34S2,101,experiment,49,↓,down,↓,0.7076973000075668,True,36,1
163K34S2,102,experiment,63,→,right,→,0.6820707999868318,True,36,1
163K34S2,103,experiment,75,→,right,→,0.5417111000278965,True,36,1
163K34S2,104,training,94,↓,down,↓,0.43453300005057827,True,36,0
163K34S2,105,training,108,↑,up,↑,0.48394980002194643,True,36,0
163K34S2,106,experiment,102,→,right,→,0.4508249999489635,True,36,1
163K34S2,107,experiment,76,↓,down,↓,0.44246009999187663,True,36,0
163K34S2,108,experiment,61,↓,down,↓,0.5077043000492267,True,36,0
163K34S2,109,experiment,103,↓,no_key,no_letter,-1.0,False,36,1
163K34S2,110,experiment,89,←,right,→,0.6558464000117965,False,36,1
163K34S2,111,experiment,91,←,left,←,0.6628855000017211,True,36,1
163K34S2,112,experiment,107,↑,up,↑,0.40904329996556044,True,36,1
163K34S2,113,experiment,100,↑,up,↑,0.6779985000030138,True,36,0
163K34S2,114,experiment,90,→,right,→,0.6128776000114158,True,36,1
163K34S2,115,experiment,95,←,left,←,0.5960952000459656,True,36,1
163K34S2,116,experiment,99,↓,up,↑,0.5627374000032432,False,36,1
163K34S2,117,experiment,82,←,down,↓,0.5845179000170901,False,36,1
163K34S2,118,experiment,80,←,no_key,no_letter,-1.0,False,36,1
163K34S2,119,experiment,93,↑,up,↑,0.4421516000293195,True,36,1
163K34S2,120,experiment,85,↓,down,↓,0.48956439999165013,True,36,0
163K34S2,121,experiment,54,↓,down,↓,0.48389490001136437,True,36,1
163K34S2,122,experiment,57,↑,left,←,0.7326820999733172,False,36,1
163K34S2,123,experiment,83,↓,no_key,no_letter,-1.0,False,36,1
163K34S2,124,experiment,101,→,right,→,0.570765600015875,True,36,1
163K34S2,125,experiment,98,→,right,→,0.8988436999497935,True,36,1
163K34S2,126,experiment,84,→,right,→,0.5065461000194773,True,36,1
163K34S2,127,experiment,79,↑,down,↓,0.595614799996838,False,36,1
163K34S2,128,experiment,63,↑,up,↑,0.4868237999617122,True,36,1
163K34S2,129,experiment,70,↑,up,↑,0.43431280000368133,True,36,1
163K34S2,130,experiment,62,→,right,→,0.6372224999940954,True,36,0
163K34S2,131,experiment,97,↓,up,↑,0.49927450000541285,False,36,1
163K34S2,132,experiment,53,→,up,↑,0.7893568000290543,False,36,1
163K34S2,133,experiment,64,→,left,←,0.8560797999962233,False,36,1
163K34S2,134,experiment,104,↑,up,↑,0.5066829000134021,True,36,1
163K34S2,135,experiment,65,↓,down,↓,0.5447716999915428,True,36,1
163K34S2,136,experiment,66,↑,up,↑,0.4926378999953158,True,36,1
163K34S2,137,experiment,48,←,left,←,0.6088642000104301,True,36,1
163K34S2,138,experiment,86,→,right,→,0.6513698000344448,True,36,1
163K34S2,139,experiment,81,↓,down,↓,0.558091200015042,True,36,1
163K34S2,140,experiment,106,→,right,→,0.740159900044091,True,36,1
163K34S2,141,experiment,77,←,left,←,0.6526667000143789,True,36,1
163K34S2,142,experiment,49,↑,up,↑,0.4260233999812044,True,36,1
163K34S2,143,experiment,52,→,right,→,0.6710116000031121,True,36,0
163K34S2,144,experiment,78,↓,down,↓,0.6098049000138417,True,36,1
163K34S2,145,experiment,50,↓,down,↓,0.5366712000104599,True,36,1
163K34S2,146,experiment,67,←,left,←,0.5646847999887541,True,36,1
163K34S2,147,experiment,71,↓,down,↓,0.526310499990359,True,36,1
163K34S2,148,experiment,58,→,right,→,0.5494185000425205,True,36,1
163K34S2,149,experiment,108,↑,up,↑,0.40064950002124533,True,36,1
163K34S2,150,experiment,73,↓,down,↓,0.5383963999920525,True,36,0
163K34S2,151,experiment,56,↓,down,↓,0.5219032000168227,True,36,1
163K34S2,152,experiment,92,←,left,←,0.4785526000196114,True,36,1
163K34S2,153,experiment,87,→,right,→,0.5174049999914132,True,36,1
163K34S2,154,experiment,68,↑,down,↓,0.5698417000239715,False,36,1
163K34S2,155,experiment,55,↓,down,↓,0.49692420003702864,True,36,1
163K34S2,156,experiment,74,↑,up,↑,0.46831000002566725,True,36,1
163K34S2,157,experiment,88,↑,up,↑,0.41736179997678846,True,36,0
163K34S2,158,experiment,69,↓,down,↓,0.5868094000034034,True,36,0
163K34S2,159,experiment,60,↓,down,↓,0.38402709999354556,True,36,1
163K34S2,160,experiment,75,↓,down,↓,0.4788865000009537,True,36,0
163K34S2,161,experiment,94,↓,up,↑,0.5154176999931224,False,36,1
163K34S2,162,experiment,51,→,right,→,0.7575365999946371,True,36,1
163K34S2,163,experiment,96,→,right,→,0.5348445999552496,True,36,1
163K34S2,164,experiment,105,←,left,←,0.4787672000238672,True,36,1
163K34S2,165,experiment,72,↓,down,↓,0.44369949999963865,True,36,1
163K34S2,166,experiment,59,←,left,←,0.49258979997830465,True,36,0
163K34S2,167,training,107,↑,up,↑,0.5959846999612637,True,36,0
163K34S2,168,training,63,←,no_key,no_letter,-1.0,False,36,1
163K34S2,169,experiment,84,↑,up,↑,0.5476086999988183,True,36,1
163K34S2,170,experiment,78,→,left,←,0.49931420001666993,False,36,1
163K34S2,171,experiment,58,↑,up,↑,0.3829257999896072,True,36,1
163K34S2,172,experiment,55,↑,up,↑,0.4087845999747515,True,36,0
163K34S2,173,experiment,48,→,right,→,0.4731965000391938,True,36,0
163K34S2,174,experiment,98,←,left,←,0.5885852000210434,True,36,1
163K34S2,175,experiment,96,←,no_key,no_letter,-1.0,False,36,1
163K34S2,176,experiment,67,↑,up,↑,0.42545800004154444,True,36,1
163K34S2,177,experiment,88,→,right,→,0.6163896000362001,True,36,0
163K34S2,178,experiment,54,←,left,←,0.5494309999630786,True,36,1
163K34S2,179,experiment,51,↑,up,↑,0.5582518000155687,True,36,1
163K34S2,180,experiment,82,↑,up,↑,0.4421534999855794,True,36,1
163K34S2,181,experiment,108,↑,up,↑,0.4087518000160344,True,36,0
163K34S2,182,experiment,87,→,right,→,0.42585580004379153,True,36,0
163K34S2,183,experiment,93,→,right,→,0.41704939998453483,True,36,0
163K34S2,184,experiment,60,↓,down,↓,0.7302443000371568,True,36,0
163K34S2,185,experiment,85,→,left,←,0.4962707000086084,False,36,1
163K34S2,186,experiment,57,←,left,←,0.4890817000414245,True,36,1
163K34S2,187,experiment,77,↓,down,↓,0.4914864000165835,True,36,1
163K34S2,188,experiment,76,→,right,→,0.5501225999905728,True,36,1
163K34S2,189,experiment,75,→,right,→,0.3597743999562226,True,36,1
163K34S2,190,experiment,74,↑,up,↑,0.5509180999943055,True,36,0
163K34S2,191,experiment,107,↓,down,↓,0.42577649996383116,True,36,1
163K34S2,192,experiment,106,→,right,→,0.5360187999904156,True,36,0
163K34S2,193,experiment,81,→,right,→,0.511421800008975,True,36,1
163K34S2,194,experiment,52,↑,up,↑,0.4508806999656372,True,36,1
163K34S2,195,experiment,95,→,right,→,0.4506698999903165,True,36,0
163K34S2,196,experiment,100,←,left,←,0.44259029999375343,True,36,0
163K34S2,197,experiment,99,←,left,←,0.776280999998562,True,36,0
163K34S2,198,experiment,73,→,right,→,0.4093433999805711,True,36,1
163K34S2,199,experiment,105,←,left,←,0.5484199000056833,True,36,0
163K34S2,200,experiment,80,↓,down,↓,0.4507675999775529,True,36,1
163K34S2,201,experiment,56,↓,no_key,no_letter,-1.0,False,36,0
163K34S2,202,experiment,79,←,left,←,0.4773655000026338,True,36,1
163K34S2,203,experiment,65,→,right,→,0.5715559999807738,True,36,1
163K34S2,204,experiment,92,↓,down,↓,0.5419303000089712,True,36,1
163K34S2,205,experiment,72,↑,down,↓,0.5359439000021666,False,36,1
163K34S2,206,experiment,90,↑,up,↑,0.43423240003176033,True,36,1
163K34S2,207,experiment,69,↑,up,↑,0.5151958999922499,True,36,0
163K34S2,208,experiment,61,↓,up,↑,0.5299000999657437,False,36,1
163K34S2,209,experiment,94,↑,up,↑,0.5491117999772541,True,36,1
163K34S2,210,experiment,83,←,no_key,no_letter,-1.0,False,36,1
163K34S2,211,experiment,104,→,right,→,0.5132621999946423,True,36,1
163K34S2,212,experiment,89,←,left,←,0.5346398000256158,True,36,1
163K34S2,213,experiment,49,↓,down,↓,0.48889340000459924,True,36,1
163K34S2,214,experiment,68,↓,up,↑,0.5263634999864735,False,36,1
163K34S2,215,experiment,71,→,right,→,0.42632520000915974,True,36,1
163K34S2,216,experiment,101,←,no_key,no_letter,-1.0,False,36,0
163K34S2,217,experiment,102,←,left,←,0.4768865000223741,True,36,1
163K34S2,218,experiment,62,←,left,←,0.540699900011532,True,36,1
163K34S2,219,experiment,97,↑,up,↑,0.5981787999626249,True,36,1
163K34S2,220,experiment,70,↑,up,↑,0.4091698999982327,True,36,1
163K34S2,221,experiment,103,↑,up,↑,0.5234168999595568,True,36,0
163K34S2,222,experiment,53,←,left,←,0.5804764000349678,True,36,1
163K34S2,223,experiment,64,→,no_key,no_letter,-1.0,False,36,1
163K34S2,224,experiment,91,↓,up,↑,0.6261033000191674,False,36,1
163K34S2,225,experiment,59,↑,up,↑,0.417410199996084,True,36,1
163K34S2,226,experiment,66,↓,down,↓,0.6298779999488033,True,36,0
163K34S2,227,experiment,63,↓,down,↓,0.6796410999959335,True,36,1
163K34S2,228,experiment,86,←,left,←,0.4089930999907665,True,36,1
163K34S2,229,experiment,50,↑,up,↑,0.42569790000561625,True,36,0
163K34S2,230,training,83,↑,up,↑,0.42565220000687987,True,36,0
163K34S2,231,training,103,←,left,←,0.40892620000522584,True,36,0
163K34S2,232,experiment,96,↑,up,↑,0.5740630999789573,True,36,0
163K34S2,233,experiment,55,↑,up,↑,0.4083991999505088,True,36,1
163K34S2,234,experiment,87,↓,down,↓,0.646498000016436,True,36,0
163K34S2,235,experiment,82,→,right,→,0.8649792000069283,True,36,1
163K34S2,236,experiment,104,↑,up,↑,0.5152199000003748,True,36,1
163K34S2,237,experiment,52,←,left,←,0.4505530000315048,True,36,1
163K34S2,238,experiment,61,←,right,→,0.5660661000292748,False,36,0
163K34S2,239,experiment,89,←,left,←,0.42650609998963773,True,36,1
163K34S2,240,experiment,76,←,left,←,0.42568510002456605,True,36,0
163K34S2,241,experiment,97,↓,down,↓,0.4508221000432968,True,36,0
163K34S2,242,experiment,80,↓,down,↓,0.4795964000513777,True,36,0
163K34S2,243,experiment,59,↓,down,↓,0.5998933999799192,True,36,1
163K34S2,244,experiment,95,↓,down,↓,0.7758021000190638,True,36,1
163K34S2,245,experiment,81,↓,down,↓,0.557491299987305,True,36,1
163K34S2,246,experiment,57,←,no_key,no_letter,-1.0,False,36,1
163K34S2,247,experiment,71,←,left,←,0.5171718000201508,True,36,1
163K34S2,248,experiment,63,←,left,←,0.5395113999838941,True,36,1
163K34S2,249,experiment,68,←,left,←,0.5666954999906011,True,36,1
163K34S2,250,experiment,86,→,right,→,0.4990694000152871,True,36,1
163K34S2,251,experiment,84,→,no_key,no_letter,-1.0,False,36,1
163K34S2,252,experiment,60,←,left,←,0.6396773000014946,True,36,1
163K34S2,253,experiment,67,←,left,←,0.47179660003166646,True,36,1
163K34S2,254,experiment,48,←,left,←,0.5882808000314981,True,36,0
163K34S2,255,experiment,58,→,left,←,0.4969502000021748,False,36,1
163K34S2,256,experiment,90,↓,down,↓,0.5985452000168152,True,36,1
163K34S2,257,experiment,64,↓,down,↓,0.9289386000018567,True,36,1
163K34S2,258,experiment,51,↑,up,↑,0.6347395000047982,True,36,1
163K34S2,259,experiment,88,←,left,←,0.4257073000189848,True,36,1
163K34S2,260,experiment,103,↓,down,↓,0.39261869998881593,True,36,0
163K34S2,261,experiment,69,↓,down,↓,0.4887427000212483,True,36,0
163K34S2,262,experiment,73,→,right,→,0.6363464000169188,True,36,1
163K34S2,263,experiment,83,↑,up,↑,0.41668660001596436,True,36,1
163K34S2,264,experiment,66,↑,up,↑,0.5917522000381723,True,36,0
163K34S2,265,experiment,85,↓,down,↓,0.5875338999903761,True,36,1
163K34S2,266,experiment,54,→,right,→,0.6336386000039056,True,36,1
163K34S2,267,experiment,53,←,no_key,no_letter,-1.0,False,36,1
163K34S2,268,experiment,49,↑,up,↑,0.5909557999693789,True,36,1
163K34S2,269,experiment,79,→,right,→,0.6046740000019781,True,36,1
163K34S2,270,experiment,107,→,right,→,0.5688470000168309,True,36,1
163K34S2,271,experiment,74,→,right,→,0.4426306000095792,True,36,1
163K34S2,272,experiment,78,←,left,←,0.684823099989444,True,36,0
163K34S2,273,experiment,99,←,left,←,0.45070029998896644,True,36,1
163K34S2,274,experiment,108,↓,down,↓,0.6335390000022016,True,36,0
163K34S2,275,experiment,91,↑,up,↑,0.5295747999916784,True,36,1
163K34S2,276,experiment,50,←,left,←,0.7154309999896213,True,36,1
163K34S2,277,experiment,100,↑,up,↑,0.629303699999582,True,36,1
163K34S2,278,experiment,72,↓,down,↓,0.5397449000156485,True,36,1
163K34S2,279,experiment,101,↑,up,↑,0.7961322999908589,True,36,1
163K34S2,280,experiment,102,←,left,←,0.593855999992229,True,36,1
163K34S2,281,experiment,70,→,right,→,0.5545837000245228,True,36,1
163K34S2,282,experiment,77,↓,no_key,no_letter,-1.0,False,36,1
163K34S2,283,experiment,65,↓,no_key,no_letter,-1.0,False,36,1
163K34S2,284,experiment,98,→,right,→,0.6062485999427736,True,36,1
163K34S2,285,experiment,106,↑,up,↑,0.5696845999918878,True,36,1
163K34S2,286,experiment,56,↑,up,↑,0.6081444000010379,True,36,1
163K34S2,287,experiment,94,↓,down,↓,0.42631020001135767,True,36,1
163K34S2,288,experiment,75,→,right,→,0.5975937000475824,True,36,0
163K34S2,289,experiment,93,↑,up,↑,0.518411599972751,True,36,1
163K34S2,290,experiment,92,←,left,←,0.6670988000114448,True,36,1
163K34S2,291,experiment,105,→,left,←,0.8045674999593757,False,36,1
163K34S2,292,experiment,62,↓,up,↑,0.5193312000483274,False,36,1
163K34S2,293,training,91,→,right,→,0.5662984999944456,True,36,0
163K34S2,294,training,66,→,right,→,0.4739191999542527,True,36,1
163K34S2,295,experiment,58,→,right,→,0.5309099999722093,True,36,0
163K34S2,296,experiment,52,←,left,←,0.4510654999758117,True,36,1
163K34S2,297,experiment,60,↓,down,↓,0.5013052999856882,True,36,0
163K34S2,298,experiment,82,↓,down,↓,0.5896666999906301,True,36,1
163K34S2,299,experiment,104,↑,up,↑,0.44237529998645186,True,36,1
163K34S2,300,experiment,72,↓,down,↓,0.5847644999739714,True,36,0
163K34S2,301,experiment,73,→,right,→,0.5529321000212803,True,36,1
163K34S2,302,experiment,84,→,right,→,0.5345688000088558,True,36,1
163K34S2,303,experiment,94,→,right,→,0.4508695999975316,True,36,1
163K34S2,304,experiment,90,→,right,→,0.4182227000128478,True,36,0
163K34S2,305,experiment,74,→,right,→,0.39242839999496937,True,36,0
163K34S2,306,experiment,63,↓,down,↓,0.6575302999699488,True,36,0
163K34S2,307,experiment,83,↑,no_key,no_letter,-1.0,False,36,1
163K34S2,308,experiment,100,→,right,→,0.49880110000958666,True,36,1
163K34S2,309,experiment,96,↓,down,↓,0.5665151000139304,True,36,1
163K34S2,310,experiment,54,←,no_key,no_letter,-1.0,False,36,1
163K34S2,311,experiment,87,←,left,←,0.6174991999869235,True,36,1
163K34S2,312,experiment,75,↑,up,↑,0.6395175000070594,True,36,1
163K34S2,313,experiment,103,←,left,←,0.6111783999949694,True,36,1
163K34S2,314,experiment,50,←,left,←,0.6339500999893062,True,36,1
163K34S2,315,experiment,65,↓,down,↓,0.5066723999916576,True,36,1
163K34S2,316,experiment,85,↑,no_key,no_letter,-1.0,False,36,1
163K34S2,317,experiment,79,→,right,→,0.6406840000418015,True,36,1
163K34S2,318,experiment,86,↓,down,↓,0.4821284000063315,True,36,1
163K34S2,319,experiment,105,→,no_key,no_letter,-1.0,False,36,1
163K34S2,320,experiment,49,↓,no_key,no_letter,-1.0,False,36,1
163K34S2,321,experiment,108,→,right,→,0.5366696999990381,True,36,1
163K34S2,322,experiment,59,←,up,↑,0.5991608999902382,False,36,1
163K34S2,323,experiment,98,↓,down,↓,0.5741970999515615,True,36,1
163K34S2,324,experiment,70,←,left,←,0.4340626999619417,True,36,1
163K34S2,325,experiment,68,→,right,→,0.3925454000127502,True,36,0
163K34S2,326,experiment,92,↓,no_key,no_letter,-1.0,False,36,0
163K34S2,327,experiment,67,→,right,→,0.5787534000119194,True,36,1
163K34S2,328,experiment,78,↑,up,↑,0.63329030002933,True,36,1
163K34S2,329,experiment,80,↑,up,↑,0.5650254000211135,True,36,1
163K34S2,330,experiment,97,↓,down,↓,0.7257796000340022,True,36,1
163K34S2,331,experiment,51,↓,no_key,no_letter,-1.0,False,36,1
163K34S2,332,experiment,77,↓,down,↓,0.5428615999990143,True,36,1
163K34S2,333,experiment,106,←,left,←,0.4935232999850996,True,36,1
163K34S2,334,experiment,61,←,left,←,0.6211401000036858,True,36,1
163K34S2,335,experiment,91,↑,up,↑,0.45076000003609806,True,36,1
163K34S2,336,experiment,56,→,right,→,0.5283280999865383,True,36,0
163K34S2,337,experiment,89,←,left,←,0.589369599998463,True,36,1
163K34S2,338,experiment,101,↑,up,↑,0.5797665999853052,True,36,1
163K34S2,339,experiment,76,↓,down,↓,0.618806799990125,True,36,1
163K34S2,340,experiment,81,←,no_key,no_letter,-1.0,False,36,1
163K34S2,341,experiment,99,←,no_key,no_letter,-1.0,False,36,1
163K34S2,342,experiment,107,←,left,←,0.5160197000368498,True,36,1
163K34S2,343,experiment,88,→,right,→,0.6895931999897584,True,36,1
163K34S2,344,experiment,95,↑,up,↑,0.5258217999944463,True,36,1
163K34S2,345,experiment,102,←,left,←,0.5347040999913588,True,36,1
163K34S2,346,experiment,69,→,right,→,0.49812760000349954,True,36,1
163K34S2,347,experiment,93,↓,up,↑,0.5826990000205114,False,36,1
163K34S2,348,experiment,71,←,left,←,0.5434857999789529,True,36,1
163K34S2,349,experiment,64,↓,down,↓,0.47675640002125874,True,36,1
163K34S2,350,experiment,53,↑,up,↑,0.5430422999779694,True,36,1
163K34S2,351,experiment,48,↑,up,↑,0.6010047000017948,True,36,1
163K34S2,352,experiment,66,←,left,←,0.5229036000091583,True,36,1
163K34S2,353,experiment,62,↑,up,↑,0.47337760002119467,True,36,1
163K34S2,354,experiment,57,→,left,←,0.5626698000123724,False,36,1
163K34S2,355,experiment,55,↓,down,↓,0.6814062999910675,True,36,1
163K34S2,356,training,74,←,left,←,0.36731040000449866,True,36,0
163K34S2,357,training,77,→,right,→,0.5071915000444278,True,36,0
163K34S2,358,experiment,67,←,left,←,0.3848617000039667,True,36,1
163K34S2,359,experiment,75,←,right,→,0.4871260999934748,False,36,0
163K34S2,360,experiment,103,←,left,←,0.38415769999846816,True,36,1
163K34S2,361,experiment,86,↓,down,↓,0.5804813000140712,True,36,0
163K34S2,362,experiment,108,→,right,→,0.47336290002567694,True,36,1
163K34S2,363,experiment,107,→,right,→,0.4743620000081137,True,36,0
163K34S2,364,experiment,73,↑,up,↑,0.4255554999690503,True,36,1
163K34S2,365,experiment,79,→,right,→,0.6023731000022963,True,36,0
163K34S2,366,experiment,94,↓,down,↓,0.6428276000078768,True,36,1
163K34S2,367,experiment,58,←,right,→,0.4700442000175826,False,36,1
163K34S2,368,experiment,100,↓,up,↑,0.600813900004141,False,36,0
163K34S2,369,experiment,65,→,right,→,0.5550764999934472,True,36,1
163K34S2,370,experiment,80,↑,no_key,no_letter,-1.0,False,36,1
163K34S2,371,experiment,74,→,right,→,0.4427764999563806,True,36,1
163K34S2,372,experiment,57,↓,down,↓,0.5485886000096798,True,36,0
163K34S2,373,experiment,48,↓,down,↓,0.5426257000071928,True,36,1
163K34S2,374,experiment,88,←,left,←,0.4678792000049725,True,36,1
163K34S2,375,experiment,50,→,left,←,0.615178800013382,False,36,0
163K34S2,376,experiment,89,←,left,←,0.45039180002640933,True,36,1
163K34S2,377,experiment,54,←,left,←,0.4766840999945998,True,36,0
163K34S2,378,experiment,66,↓,down,↓,0.530464600014966,True,36,1
163K34S2,379,experiment,51,↑,up,↑,0.5798714000266045,True,36,1
163K34S2,380,experiment,68,↓,down,↓,0.5496876000543125,True,36,1
163K34S2,381,experiment,76,↑,up,↑,0.5982867000275292,True,36,1
163K34S2,382,experiment,63,→,right,→,0.5768312000436708,True,36,1
163K34S2,383,experiment,72,↑,up,↑,0.40050390001852065,True,36,1
163K34S2,384,experiment,59,↓,down,↓,0.5972729999921285,True,36,0
163K34S2,385,experiment,56,→,no_key,no_letter,-1.0,False,36,1
163K34S2,386,experiment,101,↑,no_key,no_letter,-1.0,False,36,1
163K34S2,387,experiment,49,→,right,→,0.4903133999905549,True,36,1
163K34S2,388,experiment,52,↓,down,↓,0.6448456000071019,True,36,1
163K34S2,389,experiment,84,←,no_key,no_letter,-1.0,False,36,1
163K34S2,390,experiment,104,↓,down,↓,0.5651487000286579,True,36,1
163K34S2,391,experiment,105,↓,down,↓,0.5231179000111297,True,36,1
163K34S2,392,experiment,53,←,left,←,0.5162102000322193,True,36,1
163K34S2,393,experiment,98,→,right,→,0.631075499986764,True,36,1
163K34S2,394,experiment,93,↑,down,↓,0.6620126999914646,False,36,1
163K34S2,395,experiment,70,↑,up,↑,0.4507894000271335,True,36,1
163K34S2,396,experiment,91,↑,up,↑,0.5231449999846518,True,36,0
163K34S2,397,experiment,99,←,left,←,0.6607574999798089,True,36,1
163K34S2,398,experiment,69,↓,no_key,no_letter,-1.0,False,36,1
163K34S2,399,experiment,61,↓,down,↓,0.4174199000117369,True,36,1
163K34S2,400,experiment,78,↑,up,↑,0.49261290003778413,True,36,0
163K34S2,401,experiment,77,←,left,←,0.47148120001656935,True,36,1
163K34S2,402,experiment,97,↓,down,↓,0.5232508999761194,True,36,1
163K34S2,403,experiment,87,←,left,←,0.553073699993547,True,36,1
163K34S2,404,experiment,83,↓,down,↓,0.5431097999680787,True,36,1
163K34S2,405,experiment,106,↓,left,←,0.4007429000339471,False,36,1
163K34S2,406,experiment,82,↓,down,↓,0.5058275999617763,True,36,0
163K34S2,407,experiment,90,→,right,→,0.6152144999941811,True,36,1
163K34S2,408,experiment,71,←,left,←,0.5267465999932028,True,36,1
163K34S2,409,experiment,60,↑,up,↑,0.5654128000023775,True,36,1
163K34S2,410,experiment,81,↑,up,↑,0.6274999000015669,True,36,1
163K34S2,411,experiment,62,←,left,←,0.613764000008814,True,36,1
163K34S2,412,experiment,85,←,left,←,0.4090616999892518,True,36,1
163K34S2,413,experiment,64,→,left,←,0.3923818999901414,False,36,0
163K34S2,414,experiment,92,→,right,→,0.4677398999920115,True,36,0
163K34S2,415,experiment,96,↑,up,↑,0.4424944999627769,True,36,0
163K34S2,416,experiment,55,←,left,←,0.44242819998180494,True,36,0
163K34S2,417,experiment,102,↓,down,↓,0.6789614000008442,True,36,0
163K34S2,418,experiment,95,←,left,←,0.555633999989368,True,36,1
163K34S2,419,training,103,↑,up,↑,0.5294871000223793,True,36,0
163K34S2,420,training,88,←,left,←,0.4086863999837078,True,36,1
163K34S2,421,experiment,95,←,left,←,0.45118719997117296,True,36,0
163K34S2,422,experiment,61,↑,up,↑,0.41743719996884465,True,36,0
163K34S2,423,experiment,71,↓,down,↓,0.45074890000978485,True,36,0
163K34S2,424,experiment,80,↑,up,↑,0.4970245999866165,True,36,0
163K34S2,425,experiment,72,←,left,←,0.48424530000193045,True,36,1
163K34S2,426,experiment,56,↑,up,↑,0.42571229999884963,True,36,1
163K34S2,427,experiment,68,↓,up,↑,0.5494386000209488,False,36,0
163K34S2,428,experiment,91,↑,no_key,no_letter,-1.0,False,36,1
163K34S2,429,experiment,102,→,right,→,0.4338183000218123,True,36,1
163K34S2,430,experiment,100,←,left,←,0.4424359999829903,True,36,0
163K34S2,431,experiment,53,↓,down,↓,0.6647067999583669,True,36,0
163K34S2,432,experiment,92,↑,up,↑,0.408739099977538,True,36,1
163K34S2,433,experiment,98,↑,up,↑,0.40887670003576204,True,36,0
163K34S2,434,experiment,48,←,left,←,0.5564075000002049,True,36,0
163K34S2,435,experiment,107,→,right,→,0.44323010003427044,True,36,1
163K34S2,436,experiment,82,↑,up,↑,0.3923431999864988,True,36,0
163K34S2,437,experiment,70,→,left,←,0.5726844999589957,False,36,0
163K34S2,438,experiment,87,→,left,←,0.5364153999835253,False,36,1
163K34S2,439,experiment,106,→,right,→,0.5113763000117615,True,36,1
163K34S2,440,experiment,90,→,right,→,0.5567111000418663,True,36,1
163K34S2,441,experiment,73,↑,up,↑,0.4423724999651313,True,36,1
163K34S2,442,experiment,50,↑,no_key,no_letter,-1.0,False,36,0
163K34S2,443,experiment,97,↓,down,↓,0.46746640000492334,True,36,1
163K34S2,444,experiment,93,←,left,←,0.6012392999837175,True,36,0
163K34S2,445,experiment,58,↑,down,↓,0.5816542000393383,False,36,1
163K34S2,446,experiment,57,→,no_key,no_letter,-1.0,False,36,1
163K34S2,447,experiment,83,→,right,→,0.4727431000210345,True,36,1
163K34S2,448,experiment,64,↑,up,↑,0.48761429998558015,True,36,1
163K34S2,449,experiment,74,←,left,←,0.5794051999691874,True,36,1
163K34S2,450,experiment,77,↓,down,↓,0.49809300003107637,True,36,1
163K34S2,451,experiment,78,↑,up,↑,0.4090291999746114,True,36,1
163K34S2,452,experiment,108,→,right,→,0.5588972000405192,True,36,0
163K34S2,453,experiment,96,↑,up,↑,0.409697099996265,True,36,1
163K34S2,454,experiment,51,←,right,→,0.5342294999863952,False,36,0
163K34S2,455,experiment,104,→,left,←,0.5257803999702446,False,36,1
163K34S2,456,experiment,88,→,right,→,0.3842194000026211,True,36,1
163K34S2,457,experiment,75,←,left,←,0.42595510004321113,True,36,0
163K34S2,458,experiment,67,↓,down,↓,0.5622903000330552,True,36,0
163K34S2,459,experiment,85,←,right,→,0.41740310000022873,False,36,1
163K34S2,460,experiment,84,↓,left,←,0.35085970000363886,False,36,0
163K34S2,461,experiment,60,←,left,←,0.5278404999990016,True,36,0
163K34S2,462,experiment,59,→,right,→,0.6226016999571584,True,36,1
163K34S2,463,experiment,62,↑,up,↑,0.39242520002881065,True,36,1
163K34S2,464,experiment,65,↓,down,↓,0.6428313999786042,True,36,0
163K34S2,465,experiment,101,←,left,←,0.5432623999658972,True,36,1
163K34S2,466,experiment,63,↓,down,↓,0.434031100012362,True,36,1
163K34S2,467,experiment,86,↑,up,↑,0.45077300001867115,True,36,0
163K34S2,468,experiment,99,→,right,→,0.47481379995588213,True,36,0
163K34S2,469,experiment,69,↑,up,↑,0.5274918000213802,True,36,1
163K34S2,470,experiment,55,↓,no_key,no_letter,-1.0,False,36,1
163K34S2,471,experiment,54,→,no_key,no_letter,-1.0,False,36,1
163K34S2,472,experiment,105,→,right,→,0.5806451999815181,True,36,1
163K34S2,473,experiment,79,→,left,←,0.5546766000334173,False,36,1
163K34S2,474,experiment,81,↓,down,↓,0.5210230000084266,True,36,1
163K34S2,475,experiment,66,↑,up,↑,0.4257130000041798,True,36,1
163K34S2,476,experiment,49,←,no_key,no_letter,-1.0,False,36,0
163K34S2,477,experiment,103,←,left,←,0.4008288999903016,True,36,1
163K34S2,478,experiment,94,←,left,←,0.4008077000034973,True,36,0
163K34S2,479,experiment,52,↑,up,↑,0.584694400022272,True,36,0
163K34S2,480,experiment,89,↑,up,↑,0.5073629000107758,True,36,1
163K34S2,481,experiment,76,↓,down,↓,0.5574664000305347,True,36,1
163K34S2,482,training,66,↑,up,↑,0.4007283000391908,True,36,0
163K34S2,483,training,87,↑,up,↑,0.47300499997800216,True,36,0
163K34S2,484,experiment,81,→,right,→,0.44225590000860393,True,36,1
163K34S2,485,experiment,50,↑,left,←,0.5016677000094205,False,36,0
163K34S2,486,experiment,101,↓,down,↓,0.6559052999946289,True,36,1
163K34S2,487,experiment,87,↓,down,↓,0.6960782999522053,True,36,1
163K34S2,488,experiment,52,↓,down,↓,0.45074970001587644,True,36,1
163K34S2,489,experiment,93,↓,down,↓,0.585164199990686,True,36,0
163K34S2,490,experiment,58,←,left,←,0.45077489997493103,True,36,1
163K34S2,491,experiment,60,↑,up,↑,0.5196578000322916,True,36,0
163K34S2,492,experiment,98,←,left,←,0.4257297999574803,True,36,1
163K34S2,493,experiment,90,↑,up,↑,0.4174530999734998,True,36,0
163K34S2,494,experiment,63,↓,down,↓,0.3923719000304118,True,36,0
163K34S2,495,experiment,82,↓,down,↓,0.44166009995387867,True,36,0
163K34S2,496,experiment,73,←,left,←,0.4505189000046812,True,36,0
163K34S2,497,experiment,88,→,right,→,0.41709539998555556,True,36,0
163K34S2,498,experiment,108,→,right,→,0.41764899995177984,True,36,0
163K34S2,499,experiment,99,←,left,←,0.38392560003558174,True,36,0
163K34S2,500,experiment,84,←,left,←,0.44260920002125204,True,36,0
163K34S2,501,experiment,68,↓,down,↓,0.43479229998774827,True,36,0
163K34S2,502,experiment,75,←,left,←,0.37583730003098026,True,36,0
163K34S2,503,experiment,85,↑,no_key,no_letter,-1.0,False,36,0
163K34S2,504,experiment,92,←,left,←,0.4090641000075266,True,36,1
163K34S2,505,experiment,49,→,no_key,no_letter,-1.0,False,36,0
163K34S2,506,experiment,107,→,right,→,0.6887713000178337,True,36,1
163K34S2,507,experiment,56,↓,no_key,no_letter,-1.0,False,36,1
163K34S2,508,experiment,102,→,left,←,0.6489218000206165,False,36,1
163K34S2,509,experiment,67,↑,up,↑,0.6403911000234075,True,36,1
163K34S2,510,experiment,76,↓,down,↓,0.45070089999353513,True,36,1
163K34S2,511,experiment,95,←,left,←,0.57079980004346,True,36,0
163K34S2,512,experiment,69,←,left,←,0.41736540000420064,True,36,1
163K34S2,513,experiment,65,←,left,←,0.4087779999827035,True,36,0
163K34S2,514,experiment,55,↓,down,↓,0.5706975999637507,True,36,0
163K34S2,515,experiment,57,←,left,←,0.48872269998537377,True,36,1
163K34S2,516,experiment,89,↓,down,↓,0.38404249999439344,True,36,1
163K34S2,517,experiment,70,→,left,←,0.44210390001535416,False,36,0
163K34S2,518,experiment,97,←,left,←,0.45084460003999993,True,36,0
163K34S2,519,experiment,54,→,right,→,0.4734362000017427,True,36,0
163K34S2,520,experiment,64,↓,no_key,no_letter,-1.0,False,36,1
163K34S2,521,experiment,83,↓,down,↓,0.4174356000148691,True,36,1
163K34S2,522,experiment,79,←,left,←,0.450857600022573,True,36,0
163K34S2,523,experiment,62,↑,up,↑,0.602684399986174,True,36,0
163K34S2,524,experiment,86,↓,down,↓,0.6380348000093363,True,36,1
163K34S2,525,experiment,96,↓,no_key,no_letter,-1.0,False,36,1
163K34S2,526,experiment,106,↓,down,↓,0.4260078999795951,True,36,1
163K34S2,527,experiment,91,↓,down,↓,0.5215927999815904,True,36,0
163K34S2,528,experiment,77,→,right,→,0.5066676000133157,True,36,1
163K34S2,529,experiment,51,↓,down,↓,0.48533880000468343,True,36,1
163K34S2,530,experiment,48,↑,down,↓,0.5372289999504574,False,36,1
163K34S2,531,experiment,103,↑,up,↑,0.6333995999884792,True,36,1
163K34S2,532,experiment,66,←,right,→,0.5057307999813929,False,36,1
163K34S2,533,experiment,71,↓,down,↓,0.45075150002958253,True,36,1
163K34S2,534,experiment,53,↑,up,↑,0.4102566000074148,True,36,0
163K34S2,535,experiment,61,→,right,→,0.4256728000473231,True,36,0
163K34S2,536,experiment,105,→,left,←,0.5990455999854021,False,36,0
163K34S2,537,experiment,78,↓,down,↓,0.6687585000181571,True,36,1
163K34S2,538,experiment,104,→,right,→,0.3683075000299141,True,36,1
163K34S2,539,experiment,100,↓,no_key,no_letter,-1.0,False,36,0
163K34S2,540,experiment,94,→,right,→,0.6319062999682501,True,36,1
163K34S2,541,experiment,59,↑,up,↑,0.5544346999959089,True,36,1
163K34S2,542,experiment,80,↓,down,↓,0.5130415000021458,True,36,1
163K34S2,543,experiment,74,↑,up,↑,0.6355711999931373,True,36,1
163K34S2,544,experiment,72,↓,down,↓,0.40911399998003617,True,36,1
163K34S2,545,training,75,↓,down,↓,0.5649474000092596,True,36,0
163K34S2,546,training,64,→,right,→,0.41740370000479743,True,36,1
163K34S2,547,experiment,107,↑,up,↑,0.49972299998626113,True,36,0
163K34S2,548,experiment,82,←,no_key,no_letter,-1.0,False,36,1
163K34S2,549,experiment,93,←,left,←,0.5899774999707006,True,36,1
163K34S2,550,experiment,106,↑,up,↑,0.41735840000910684,True,36,1
163K34S2,551,experiment,49,↓,down,↓,0.44245020003290847,True,36,0
163K34S2,552,experiment,56,↑,up,↑,0.3840326000354253,True,36,0
163K34S2,553,experiment,108,←,left,←,0.760265699995216,True,36,0
163K34S2,554,experiment,64,→,right,→,0.44241499999770895,True,36,1
163K34S2,555,experiment,72,↓,up,↑,0.49023850000230595,False,36,0
163K34S2,556,experiment,104,←,no_key,no_letter,-1.0,False,36,1
163K34S2,557,experiment,86,→,right,→,0.4424303999985568,True,36,1
163K34S2,558,experiment,100,↑,up,↑,0.6759945999947377,True,36,0
163K34S2,559,experiment,99,→,right,→,0.442626099975314,True,36,1
163K34S2,560,experiment,103,←,left,←,0.42592800001148134,True,36,0
163K34S2,561,experiment,48,↑,up,↑,0.44244079996133223,True,36,0
163K34S2,562,experiment,68,↑,up,↑,0.5205578999593854,True,36,0
163K34S2,563,experiment,95,←,left,←,0.6284327000030316,True,36,1
163K34S2,564,experiment,65,→,right,→,0.450787500012666,True,36,1
163K34S2,565,experiment,76,→,left,←,0.5531870999839157,False,36,0
163K34S2,566,experiment,74,↑,up,↑,0.5062639000243507,True,36,1
163K34S2,567,experiment,67,↑,no_key,no_letter,-1.0,False,36,1
163K34S2,568,experiment,90,↓,down,↓,0.7221518000005744,True,36,1
163K34S2,569,experiment,71,↑,up,↑,0.41741989995352924,True,36,1
163K34S2,570,experiment,89,↑,up,↑,0.5346535000135191,True,36,0
163K34S2,571,experiment,101,←,left,←,0.43386370001826435,True,36,1
163K34S2,572,experiment,83,←,left,←,0.5613575999741443,True,36,0
163K34S2,573,experiment,102,↓,no_key,no_letter,-1.0,False,36,1
163K34S2,574,experiment,98,←,left,←,0.47354079998331144,True,36,1
163K34S2,575,experiment,85,↓,no_key,no_letter,-1.0,False,36,1
163K34S2,576,experiment,105,←,left,←,0.40881130000343546,True,36,1
163K34S2,577,experiment,91,↓,down,↓,0.5599028999567963,True,36,0
163K34S2,578,experiment,53,↑,up,↑,0.720019800006412,True,36,1
163K34S2,579,experiment,77,↓,down,↓,0.6250080000027083,True,36,1
163K34S2,580,experiment,84,↓,down,↓,0.5080883000046015,True,36,1
163K34S2,581,experiment,81,←,left,←,0.4762621999834664,True,36,1
163K34S2,582,experiment,62,↑,up,↑,0.7162274000002071,True,36,1
163K34S2,583,experiment,52,←,no_key,no_letter,-1.0,False,36,1
163K34S2,584,experiment,66,←,left,←,0.48136780003551394,True,36,1
163K34S2,585,experiment,88,↑,up,↑,0.44246029999339953,True,36,1
163K34S2,586,experiment,50,↓,down,↓,0.6372021000133827,True,36,0
163K34S2,587,experiment,96,←,left,←,0.36733470001490787,True,36,1
163K34S2,588,experiment,58,→,right,→,0.5128290000138804,True,36,0
163K34S2,589,experiment,55,↑,up,↑,0.5376669999677688,True,36,1
163K34S2,590,experiment,94,↓,down,↓,0.5484022000455298,True,36,1
163K34S2,591,experiment,75,↑,up,↑,0.5973440000088885,True,36,1
163K34S2,592,experiment,57,↑,up,↑,0.48992349999025464,True,36,1
163K34S2,593,experiment,51,↓,no_key,no_letter,-1.0,False,36,1
163K34S2,594,experiment,73,↓,no_key,no_letter,-1.0,False,36,1
163K34S2,595,experiment,69,←,no_key,no_letter,-1.0,False,36,1
163K34S2,596,experiment,63,↑,up,↑,0.4678839999833144,True,36,1
163K34S2,597,experiment,87,↓,down,↓,0.5069676000275649,True,36,0
163K34S2,598,experiment,97,→,right,→,0.4423456999938935,True,36,1
163K34S2,599,experiment,70,↑,up,↑,0.5890955000068061,True,36,0
163K34S2,600,experiment,78,→,no_key,no_letter,-1.0,False,36,1
163K34S2,601,experiment,59,↓,down,↓,0.6237910999916494,True,36,1
163K34S2,602,experiment,92,↑,up,↑,0.4508977999794297,True,36,1
163K34S2,603,experiment,79,↑,up,↑,0.4090106000076048,True,36,0
163K34S2,604,experiment,61,↑,down,↓,0.6135405999957584,False,36,0
163K34S2,605,experiment,60,↓,down,↓,0.6326882999856025,True,36,1
163K34S2,606,experiment,54,←,left,←,0.44238189997849986,True,36,1
163K34S2,607,experiment,80,→,right,→,0.5281978000421077,True,36,0
163K34S2,608,training,103,←,left,←,0.558315800037235,True,36,0
163K34S2,609,training,49,↑,up,↑,0.5994641999714077,True,36,1
163K34S2,610,experiment,48,↓,down,↓,0.4009224000037648,True,36,1
163K34S2,611,experiment,103,→,right,→,0.660264800011646,True,36,0
163K34S2,612,experiment,58,↑,up,↑,0.6063505000201985,True,36,1
163K34S2,613,experiment,96,←,left,←,0.409039499994833,True,36,1
163K34S2,614,experiment,102,←,no_key,no_letter,-1.0,False,36,0
163K34S2,615,experiment,99,→,right,→,0.626610699982848,True,36,1
163K34S2,616,experiment,62,→,right,→,0.4509124999749474,True,36,1
163K34S2,617,experiment,78,←,left,←,0.3933736000326462,True,36,0
163K34S2,618,experiment,56,←,left,←,0.5248412999790162,True,36,0
163K34S2,619,experiment,106,↓,down,↓,0.684310499986168,True,36,1
163K34S2,620,experiment,81,→,left,←,0.49367769999662414,False,36,1
163K34S2,621,experiment,92,→,right,→,0.6511045000515878,True,36,1
163K34S2,622,experiment,100,→,no_key,no_letter,-1.0,False,36,1
163K34S2,623,experiment,98,↓,down,↓,0.5036702000070363,True,36,1
163K34S2,624,experiment,94,↓,down,↓,0.4999882999691181,True,36,1
163K34S2,625,experiment,67,↑,up,↑,0.4099104000488296,True,36,1
163K34S2,626,experiment,105,→,no_key,no_letter,-1.0,False,36,0
163K34S2,627,experiment,90,↓,down,↓,0.5279776999959722,True,36,1
163K34S2,628,experiment,61,↑,up,↑,0.5744225999806076,True,36,1
163K34S2,629,experiment,53,↑,up,↑,0.450761100044474,True,36,1
163K34S2,630,experiment,55,↓,down,↓,0.608571499993559,True,36,0
163K34S2,631,experiment,89,→,right,→,0.5783197999699041,True,36,1
163K34S2,632,experiment,77,↓,down,↓,0.49737940001068637,True,36,1
163K34S2,633,experiment,70,↓,down,↓,0.5416638000169769,True,36,1
163K34S2,634,experiment,88,←,left,←,0.42569589999038726,True,36,1
163K34S2,635,experiment,68,→,left,←,0.4826158999931067,False,36,0
163K34S2,636,experiment,91,←,left,←,0.44205360003979877,True,36,1
163K34S2,637,experiment,75,↑,up,↑,0.5250539000262506,True,36,0
163K34S2,638,experiment,79,←,left,←,0.5577226000023074,True,36,1
163K34S2,639,experiment,54,↓,up,↑,0.5010332000092603,False,36,1
163K34S2,640,experiment,83,↓,down,↓,0.40080840000882745,True,36,1
163K34S2,641,experiment,64,↓,down,↓,0.5270939999609254,True,36,0
163K34S2,642,experiment,93,←,left,←,0.6268133000121452,True,36,1
163K34S2,643,experiment,74,←,left,←,0.4018402000074275,True,36,1
163K34S2,644,experiment,87,→,right,→,0.4090959999593906,True,36,0
163K34S2,645,experiment,80,↑,down,↓,0.5352823000284843,False,36,0
163K34S2,646,experiment,101,←,left,←,0.5839994999696501,True,36,1
163K34S2,647,experiment,59,→,right,→,0.4691815000260249,True,36,1
163K34S2,648,experiment,65,←,left,←,0.42571660003159195,True,36,0
163K34S2,649,experiment,84,↓,down,↓,0.6222379000391811,True,36,0
163K34S2,650,experiment,57,↓,no_key,no_letter,-1.0,False,36,1
163K34S2,651,experiment,108,←,left,←,0.4257376999594271,True,36,1
163K34S2,652,experiment,97,↓,down,↓,0.5889676000224426,True,36,0
163K34S2,653,experiment,66,↑,down,↓,0.6949126999825239,False,36,1
163K34S2,654,experiment,85,↑,up,↑,0.5425968999625184,True,36,1
163K34S2,655,experiment,49,→,right,→,0.44222759996773675,True,36,1
163K34S2,656,experiment,73,↑,up,↑,0.4092090000049211,True,36,0
163K34S2,657,experiment,82,→,right,→,0.8016337000299245,True,36,0
163K34S2,658,experiment,71,↓,down,↓,0.5696048999670893,True,36,1
163K34S2,659,experiment,72,↑,up,↑,0.4090935999993235,True,36,1
163K34S2,660,experiment,52,↓,down,↓,0.4504311000346206,True,36,0
163K34S2,661,experiment,63,↑,up,↑,0.4340570000349544,True,36,0
163K34S2,662,experiment,76,↓,down,↓,0.4171018000342883,True,36,0
163K34S2,663,experiment,86,↑,up,↑,0.5772926000063308,True,36,0
163K34S2,664,experiment,95,↓,down,↓,0.5047966000274755,True,36,1
163K34S2,665,experiment,51,↑,up,↑,0.6751973000355065,True,36,1
163K34S2,666,experiment,104,↓,no_key,no_letter,-1.0,False,36,1
163K34S2,667,experiment,50,↑,up,↑,0.6295583000173792,True,36,1
163K34S2,668,experiment,60,↑,down,↓,0.5282695000059903,False,36,1
163K34S2,669,experiment,107,↑,up,↑,0.35977319994708523,True,36,1
163K34S2,670,experiment,69,→,left,←,0.5053331999806687,False,36,0
163K34S2,671,training,102,↑,up,↑,0.3589602999854833,True,36,0
163K34S2,672,training,95,←,left,←,0.5972372000105679,True,36,0
163K34S2,673,experiment,94,↓,down,↓,0.669540999981109,True,36,1
163K34S2,674,experiment,64,↓,up,↑,0.589342100021895,False,36,1
163K34S2,675,experiment,55,↑,up,↑,0.3924333999748342,True,36,1
163K34S2,676,experiment,63,→,right,→,0.4857773999683559,True,36,0
163K34S2,677,experiment,96,←,left,←,0.4093753000488505,True,36,1
163K34S2,678,experiment,49,↓,down,↓,0.39236280001932755,True,36,0
163K34S2,679,experiment,89,→,right,→,0.46757949999300763,True,36,0
163K34S2,680,experiment,54,↓,down,↓,0.5419022000278346,True,36,0
163K34S2,681,experiment,95,↓,down,↓,0.38419030001387,True,36,1
163K34S2,682,experiment,98,↑,up,↑,0.5196212999871932,True,36,0
163K34S2,683,experiment,57,↓,down,↓,0.567717999976594,True,36,1
163K34S2,684,experiment,48,↓,down,↓,0.5368574000312947,True,36,1
163K34S2,685,experiment,90,↑,up,↑,0.5812249000300653,True,36,1
163K34S2,686,experiment,84,↓,no_key,no_letter,-1.0,False,36,1
163K34S2,687,experiment,59,←,left,←,0.40877380000893027,True,36,1
163K34S2,688,experiment,87,↑,up,↑,0.512944099958986,True,36,0
163K34S2,689,experiment,52,←,left,←,0.5225770000251941,True,36,1
163K34S2,690,experiment,72,↑,up,↑,0.6214402999612503,True,36,1
163K34S2,691,experiment,82,↓,down,↓,0.37604629999259487,True,36,1
163K34S2,692,experiment,73,←,left,←,0.5927000000374392,True,36,0
163K34S2,693,experiment,81,↓,down,↓,0.43409460003022105,True,36,1
163K34S2,694,experiment,105,←,no_key,no_letter,-1.0,False,36,0
163K34S2,695,experiment,74,↑,up,↑,0.40988629998173565,True,36,1
163K34S2,696,experiment,79,↑,up,↑,0.4174248999916017,True,36,0
163K34S2,697,experiment,53,←,left,←,0.5546624999842606,True,36,0
163K34S2,698,experiment,66,→,no_key,no_letter,-1.0,False,36,1
163K34S2,699,experiment,70,↑,up,↑,0.5276765000307932,True,36,1
163K34S2,700,experiment,83,←,no_key,no_letter,-1.0,False,36,1
163K34S2,701,experiment,108,↑,up,↑,0.49161210004240274,True,36,1
163K34S2,702,experiment,97,←,left,←,0.5832634000107646,True,36,1
163K34S2,703,experiment,58,→,right,→,0.5563777000061236,True,36,1
163K34S2,704,experiment,77,↑,up,↑,0.5081139999674633,True,36,1
163K34S2,705,experiment,60,↓,down,↓,0.6277893999940716,True,36,1
163K34S2,706,experiment,50,↑,up,↑,0.5217007999890484,True,36,1
163K34S2,707,experiment,76,←,left,←,0.5390259000123478,True,36,1
163K34S2,708,experiment,51,↑,up,↑,0.434046899958048,True,36,1
163K34S2,709,experiment,107,↓,down,↓,0.4416765000205487,True,36,0
163K34S2,710,experiment,99,→,left,←,0.5392983999918215,False,36,0
163K34S2,711,experiment,67,↑,up,↑,0.4868424999876879,True,36,1
163K34S2,712,experiment,62,←,left,←,0.4868688000133261,True,36,1
163K34S2,713,experiment,80,→,right,→,0.4729181000147946,True,36,1
163K34S2,714,experiment,86,↓,down,↓,0.6482479000114836,True,36,1
163K34S2,715,experiment,68,↓,down,↓,0.4255169999669306,True,36,1
163K34S2,716,experiment,61,↓,down,↓,0.4508668999769725,True,36,0
163K34S2,717,experiment,103,←,left,←,0.4174298999714665,True,36,0
163K34S2,718,experiment,91,←,left,←,0.516795200004708,True,36,0
163K34S2,719,experiment,56,↓,down,↓,0.5013846000074409,True,36,1
163K34S2,720,experiment,92,←,left,←,0.7142671999754384,True,36,1
163K34S2,721,experiment,78,↓,down,↓,0.4174921000376344,True,36,1
163K34S2,722,experiment,71,↓,down,↓,0.5464579000254162,True,36,0
163K34S2,723,experiment,69,↓,down,↓,0.45084140001563355,True,36,1
163K34S2,724,experiment,88,←,no_key,no_letter,-1.0,False,36,0
163K34S2,725,experiment,65,←,left,←,0.6168535000178963,True,36,1
163K34S2,726,experiment,75,↓,down,↓,0.39242529997136444,True,36,1
163K34S2,727,experiment,104,←,left,←,0.45072059996891767,True,36,0
163K34S2,728,experiment,93,→,left,←,0.48282549995929,False,36,0
163K34S2,729,experiment,106,→,right,→,0.46786819997942075,True,36,1
163K34S2,730,experiment,100,→,right,→,0.4340133999940008,True,36,0
163K34S2,731,experiment,102,↑,up,↑,0.434031100012362,True,36,0
163K34S2,732,experiment,85,↑,up,↑,0.43410180002683774,True,36,0
163K34S2,733,experiment,101,←,left,←,0.4969492999953218,True,36,0
163K34S2,734,training,63,→,right,→,0.545325800019782,True,36,0
163K34S2,735,training,100,↓,no_key,no_letter,-1.0,False,36,1
163K34S2,736,experiment,72,←,left,←,0.4091887000249699,True,36,1
163K34S2,737,experiment,48,↓,down,↓,0.7139732999494299,True,36,0
163K34S2,738,experiment,65,↑,up,↑,0.5113339999807067,True,36,1
163K34S2,739,experiment,97,→,right,→,0.5303546999930404,True,36,1
163K34S2,740,experiment,107,→,no_key,no_letter,-1.0,False,36,1
163K34S2,741,experiment,54,→,left,←,0.5361817000084557,False,36,1
163K34S2,742,experiment,58,←,no_key,no_letter,-1.0,False,36,1
163K34S2,743,experiment,71,←,left,←,0.40061820001574233,True,36,1
163K34S2,744,experiment,69,→,right,→,0.41783140000188723,True,36,0
163K34S2,745,experiment,77,←,left,←,0.44241040002088994,True,36,0
163K34S2,746,experiment,96,↑,no_key,no_letter,-1.0,False,36,0
163K34S2,747,experiment,98,→,right,→,0.4834874999942258,True,36,1
163K34S2,748,experiment,60,→,right,→,0.48398670001188293,True,36,1
163K34S2,749,experiment,53,←,left,←,0.5986397000378929,True,36,1
163K34S2,750,experiment,59,←,up,↑,0.5466653000330552,False,36,1
163K34S2,751,experiment,95,↓,down,↓,0.7165839000372216,True,36,1
163K34S2,752,experiment,84,↓,down,↓,0.515662899997551,True,36,1
163K34S2,753,experiment,81,→,no_key,no_letter,-1.0,False,36,1
163K34S2,754,experiment,90,→,right,→,0.646535900013987,True,36,1
163K34S2,755,experiment,67,←,left,←,0.4858704000362195,True,36,1
163K34S2,756,experiment,62,↓,down,↓,0.5177369999582879,True,36,1
163K34S2,757,experiment,105,↑,up,↑,0.6137786000035703,True,36,1
163K34S2,758,experiment,103,↓,down,↓,0.49846599996089935,True,36,1
163K34S2,759,experiment,57,↑,up,↑,0.5393022000207566,True,36,1
163K34S2,760,experiment,56,↓,down,↓,0.48331690003396943,True,36,1
163K34S2,761,experiment,55,↑,up,↑,0.4257470999727957,True,36,1
163K34S2,762,experiment,49,↑,down,↓,0.5629064000095241,False,36,0
163K34S2,763,experiment,75,→,right,→,0.6509089000173844,True,36,1
163K34S2,764,experiment,80,→,right,→,0.42589930002577603,True,36,1
163K34S2,765,experiment,86,→,right,→,0.5676790999714285,True,36,0
163K34S2,766,experiment,68,↑,up,↑,0.5301571000018157,True,36,1
163K34S2,767,experiment,76,↑,up,↑,0.40046769997570664,True,36,1
163K34S2,768,experiment,73,↓,down,↓,0.5702786999754608,True,36,0
163K34S2,769,experiment,85,←,left,←,0.6069392000208609,True,36,1
163K34S2,770,experiment,106,←,left,←,0.7150065000168979,True,36,1
163K34S2,771,experiment,63,→,right,→,0.45084000000497326,True,36,1
163K34S2,772,experiment,79,↓,down,↓,0.5083408000064082,True,36,0
163K34S2,773,experiment,66,↓,up,↑,0.6735692000365816,False,36,1
163K34S2,774,experiment,92,↓,down,↓,0.4956996000255458,True,36,1
163K34S2,775,experiment,91,←,left,←,0.5251797000528313,True,36,1
163K34S2,776,experiment,61,←,left,←,0.4423741999780759,True,36,1
163K34S2,777,experiment,99,←,left,←,0.4093556000152603,True,36,0
163K34S2,778,experiment,100,→,no_key,no_letter,-1.0,False,36,0
163K34S2,779,experiment,108,←,right,→,0.5547571000060998,False,36,1
163K34S2,780,experiment,50,↓,down,↓,0.64342310000211,True,36,1
163K34S2,781,experiment,52,←,left,←,0.4962113000219688,True,36,1
163K34S2,782,experiment,82,↓,left,←,0.4888086999999359,False,36,1
163K34S2,783,experiment,51,↓,down,↓,0.5076721999794245,True,36,1
163K34S2,784,experiment,101,↓,down,↓,0.6614127000211738,True,36,1
163K34S2,785,experiment,89,↓,down,↓,0.5571852999855764,True,36,1
163K34S2,786,experiment,70,←,left,←,0.535226000007242,True,36,1
163K34S2,787,experiment,93,↓,down,↓,0.5225002999650314,True,36,1
163K34S2,788,experiment,102,↓,down,↓,0.4678900999715552,True,36,1
163K34S2,789,experiment,64,↑,no_key,no_letter,-1.0,False,36,0
163K34S2,790,experiment,104,→,left,←,0.5770908000413328,False,36,1
163K34S2,791,experiment,88,→,right,→,0.44239500002004206,True,36,1
163K34S2,792,experiment,94,↑,up,↑,0.4673829000093974,True,36,0
163K34S2,793,experiment,78,←,left,←,0.42583829996874556,True,36,0
163K34S2,794,experiment,74,↑,up,↑,0.5793074000393972,True,36,0
163K34S2,795,experiment,87,→,right,→,0.5666024999809451,True,36,1
163K34S2,796,experiment,83,→,right,→,0.4841259999666363,True,36,1
163K34S2,797,training,89,←,left,←,0.4760169999790378,True,36,0
163K34S2,798,training,95,↑,up,↑,0.5122722999658436,True,36,1
163K34S2,799,experiment,108,↓,up,↑,0.4957708999863826,False,36,1
163K34S2,800,experiment,66,↓,no_key,no_letter,-1.0,False,36,1
163K34S2,801,experiment,106,↑,up,↑,0.43413210002472624,True,36,1
163K34S2,802,experiment,71,→,right,→,0.5853422000072896,True,36,0
163K34S2,803,experiment,77,↓,down,↓,0.40076310001313686,True,36,1
163K34S2,804,experiment,56,↓,no_key,no_letter,-1.0,False,36,0
163K34S2,805,experiment,90,↓,down,↓,0.4505635999958031,True,36,1
163K34S2,806,experiment,52,→,right,→,0.49178949999623,True,36,0
163K34S2,807,experiment,87,→,right,→,0.4754662000341341,True,36,1
163K34S2,808,experiment,54,←,left,←,0.6292480999836698,True,36,1
163K34S2,809,experiment,51,←,left,←,0.5069449999718927,True,36,1
163K34S2,810,experiment,79,↑,down,↓,0.5801911000162363,False,36,1
163K34S2,811,experiment,92,↑,up,↑,0.41676579997874796,True,36,1
163K34S2,812,experiment,75,↑,up,↑,0.5801829999545589,True,36,0
163K34S2,813,experiment,89,←,left,←,0.41740069998195395,True,36,1
163K34S2,814,experiment,65,→,right,→,0.48777359997620806,True,36,0
163K34S2,815,experiment,83,→,right,→,0.4090272000175901,True,36,1
163K34S2,816,experiment,73,←,left,←,0.7988405000069179,True,36,0
163K34S2,817,experiment,99,→,left,←,0.6857692999765277,False,36,1
163K34S2,818,experiment,94,↑,up,↑,0.42569489998277277,True,36,1
163K34S2,819,experiment,69,←,left,←,0.5139525000122376,True,36,0
163K34S2,820,experiment,64,↑,up,↑,0.41736999998101965,True,36,1
163K34S2,821,experiment,55,↑,up,↑,0.5082272000145167,True,36,0
163K34S2,822,experiment,82,↑,up,↑,0.42569010000443086,True,36,1
163K34S2,823,experiment,81,←,left,←,0.41732369997771457,True,36,0
163K34S2,824,experiment,76,↓,down,↓,0.42569669999647886,True,36,0
163K34S2,825,experiment,103,↑,up,↑,0.5458298000157811,True,36,0
163K34S2,826,experiment,97,←,left,←,0.5949295000173151,True,36,1
163K34S2,827,experiment,62,↓,down,↓,0.6462869999813847,True,36,1
163K34S2,828,experiment,49,→,right,→,0.6837782000075094,True,36,1
163K34S2,829,experiment,84,→,right,→,0.7161865999805741,True,36,1
163K34S2,830,experiment,93,↑,up,↑,0.6000693999812938,True,36,1
163K34S2,831,experiment,70,↓,down,↓,0.4258501000003889,True,36,1
163K34S2,832,experiment,100,↑,up,↑,0.4091068999841809,True,36,0
163K34S2,833,experiment,61,←,left,←,0.6404464000370353,True,36,0
163K34S2,834,experiment,102,↓,no_key,no_letter,-1.0,False,36,1
163K34S2,835,experiment,57,→,right,→,0.4748610000242479,True,36,1
163K34S2,836,experiment,74,→,right,→,0.47908310004277155,True,36,1
163K34S2,837,experiment,105,←,left,←,0.3926620000274852,True,36,1
163K34S2,838,experiment,85,→,right,→,0.539075699984096,True,36,0
163K34S2,839,experiment,53,←,left,←,0.42572679999284446,True,36,1
163K34S2,840,experiment,107,↑,up,↑,0.4173441000166349,True,36,0
163K34S2,841,experiment,80,→,right,→,0.5303079000441357,True,36,0
163K34S2,842,experiment,72,→,right,→,0.5806627999991179,True,36,1
163K34S2,843,experiment,67,→,right,→,0.4507140999776311,True,36,1
163K34S2,844,experiment,104,→,right,→,0.529537700000219,True,36,0
163K34S2,845,experiment,60,↑,up,↑,0.8878795999917202,True,36,1
163K34S2,846,experiment,50,←,left,←,0.5232940999558195,True,36,1
163K34S2,847,experiment,63,↓,down,↓,0.6492458999855444,True,36,1
163K34S2,848,experiment,68,→,right,→,0.6241278999950737,True,36,1
163K34S2,849,experiment,58,↓,down,↓,0.5235212999978103,True,36,1
163K34S2,850,experiment,86,↓,down,↓,0.4976250000181608,True,36,1
163K34S2,851,experiment,101,←,left,←,0.6036536000319757,True,36,1
163K34S2,852,experiment,59,↓,down,↓,0.5277315999846905,True,36,1
163K34S2,853,experiment,95,↓,down,↓,0.5307851999532431,True,36,1
163K34S2,854,experiment,91,↑,up,↑,0.6709102000459097,True,36,1
163K34S2,855,experiment,98,↑,up,↑,0.4256864000344649,True,36,1
163K34S2,856,experiment,88,←,left,←,0.5084604999865405,True,36,0
163K34S2,857,experiment,78,→,right,→,0.4701748000225052,True,36,1
163K34S2,858,experiment,48,←,left,←,0.5705348000046797,True,36,1
163K34S2,859,experiment,96,↑,up,↑,0.6113027000101283,True,36,1
163K34S2,860,training,71,↓,down,↓,0.5451451999833807,True,35,0
163K34S2,861,training,65,↓,no_key,no_letter,-1.0,False,35,1
163K34S2,862,experiment,88,↑,up,↑,0.4267990000080317,True,35,1
163K34S2,863,experiment,99,↓,down,↓,0.5024191000266001,True,35,0
163K34S2,864,experiment,76,→,right,→,0.4653333999449387,True,35,1
163K34S2,865,experiment,84,↑,up,↑,0.593571100034751,True,35,1
163K34S2,866,experiment,98,↑,up,↑,0.40154880000045523,True,35,1
163K34S2,867,experiment,58,→,right,→,0.5727134000044316,True,35,0
163K34S2,868,experiment,104,↑,up,↑,0.6589501000125892,True,35,1
163K34S2,869,experiment,52,→,right,→,0.47131069999886677,True,35,1
163K34S2,870,experiment,94,↓,down,↓,0.5401331999455579,True,35,1
163K34S2,871,experiment,77,→,right,→,0.43408529995940626,True,35,1
163K34S2,872,experiment,71,→,right,→,0.4424424000317231,True,35,0
163K34S2,873,experiment,82,↑,up,↑,0.41737170005217195,True,35,0
163K34S2,874,experiment,90,→,right,→,0.5901730000041425,True,35,0
163K34S2,875,experiment,69,→,left,←,0.5593328000395559,False,35,1
163K34S2,876,experiment,62,→,right,→,0.46814890002133325,True,35,1
163K34S2,877,experiment,68,←,left,←,0.6104559000232257,True,35,1
163K34S2,878,experiment,73,↓,down,↓,0.681502899969928,True,35,1
163K34S2,879,experiment,64,←,left,←,0.4342945999815129,True,35,1
163K34S2,880,experiment,50,↓,left,←,0.5500573000172153,False,35,0
163K34S2,881,experiment,107,↑,no_key,no_letter,-1.0,False,35,1
163K34S2,882,experiment,83,↓,down,↓,0.5697140999836847,True,35,1
163K34S2,883,experiment,57,↓,down,↓,0.4254071000032127,True,35,1
163K34S2,884,experiment,70,↓,down,↓,0.5267002999898978,True,35,0
163K34S2,885,experiment,74,↓,down,↓,0.3840384000213817,True,35,1
163K34S2,886,experiment,108,↓,down,↓,0.48498840001411736,True,35,0
163K34S2,887,experiment,103,↑,up,↑,0.6468759999843314,True,35,1
163K34S2,888,experiment,78,→,down,↓,0.6105979999992996,False,35,1
163K34S2,889,experiment,81,←,no_key,no_letter,-1.0,False,35,1
163K34S2,890,experiment,48,→,no_key,no_letter,-1.0,False,35,1
163K34S2,891,experiment,75,→,right,→,0.4650862999842502,True,35,1
163K34S2,892,experiment,67,↑,up,↑,0.5192726000095718,True,35,1
163K34S2,893,experiment,106,↓,down,↓,0.44237509998492897,True,35,1
163K34S2,894,experiment,53,←,left,←,0.507210000010673,True,35,0
163K34S2,895,experiment,60,←,right,→,0.5306785000138916,False,35,1
163K34S2,896,experiment,80,↓,down,↓,0.490223300002981,True,35,1
163K34S2,897,experiment,55,←,left,←,0.5559145999723114,True,35,1
163K34S2,898,experiment,97,→,right,→,0.5408953999867663,True,35,1
163K34S2,899,experiment,92,→,right,→,0.5203635999932885,True,35,1
163K34S2,900,experiment,61,↓,down,↓,0.4171427999972366,True,35,1
163K34S2,901,experiment,100,↑,up,↑,0.43404910003300756,True,35,0
163K34S2,902,experiment,89,↑,up,↑,0.5969444999936968,True,35,0
163K34S2,903,experiment,87,↓,down,↓,0.6158774999785237,True,35,1
163K34S2,904,experiment,63,↓,down,↓,0.5056823000195436,True,35,1
163K34S2,905,experiment,54,→,right,→,0.6511060000048019,True,35,1
163K34S2,906,experiment,101,↓,down,↓,0.5752074999618344,True,35,1
163K34S2,907,experiment,91,→,right,→,0.5374962000059895,True,35,1
163K34S2,908,experiment,72,←,left,←,0.4758746000006795,True,35,1
163K34S2,909,experiment,93,↓,down,↓,0.41020840004784986,True,35,1
163K34S2,910,experiment,105,→,right,→,0.41740809998009354,True,35,0
163K34S2,911,experiment,96,→,left,←,0.6038191000116058,False,35,0
163K34S2,912,experiment,102,→,no_key,no_letter,-1.0,False,35,1
163K34S2,913,experiment,85,→,right,→,0.5103552000364289,True,35,1
163K34S2,914,experiment,79,↑,up,↑,0.4796126000001095,True,35,1
163K34S2,915,experiment,49,←,left,←,0.5954606999875978,True,35,1
163K34S2,916,experiment,86,←,left,←,0.4171927999705076,True,35,1
163K34S2,917,experiment,56,←,right,→,0.555071400012821,False,35,0
163K34S2,918,experiment,66,↓,no_key,no_letter,-1.0,False,35,1
163K34S2,919,experiment,65,↑,up,↑,0.5541920999530703,True,35,1
163K34S2,920,experiment,51,↓,down,↓,0.6748611000366509,True,35,1
163K34S2,921,experiment,95,→,right,→,0.511746000032872,True,35,1
163K34S2,922,experiment,59,→,left,←,0.575523899984546,False,35,1
163K34S2,923,training,108,↓,down,↓,0.5998075999668799,True,35,0
163K34S2,924,training,80,↓,down,↓,0.5410231999703683,True,35,1
163K34S2,925,experiment,84,←,left,←,0.4338183000218123,True,35,1
163K34S2,926,experiment,49,↓,down,↓,0.7288834999781102,True,35,0
163K34S2,927,experiment,90,↓,down,↓,0.4424114999710582,True,35,1
163K34S2,928,experiment,97,↑,up,↑,0.6827369999955408,True,35,0
163K34S2,929,experiment,107,↓,down,↓,0.6034050000016578,True,35,1
163K34S2,930,experiment,73,↓,down,↓,0.626859100011643,True,35,1
163K34S2,931,experiment,100,→,right,→,0.5843940999475308,True,35,1
163K34S2,932,experiment,64,→,no_key,no_letter,-1.0,False,35,1
163K34S2,933,experiment,70,→,right,→,0.49318759999005124,True,35,1
163K34S2,934,experiment,96,↓,right,→,0.521249599987641,False,35,1
163K34S2,935,experiment,75,↓,down,↓,0.4007053999812342,True,35,1
163K34S2,936,experiment,102,↑,up,↑,0.6806288000079803,True,35,0
163K34S2,937,experiment,108,←,left,←,0.4091142999823205,True,35,1
163K34S2,938,experiment,77,↓,down,↓,0.46284929994726554,True,35,0
163K34S2,939,experiment,83,→,up,↑,0.49613260000478476,False,35,0
163K34S2,940,experiment,88,→,right,→,0.4341044999891892,True,35,1
163K34S2,941,experiment,94,↑,up,↑,0.4343202000018209,True,35,0
163K34S2,942,experiment,60,↑,up,↑,0.4425526999984868,True,35,0
163K34S2,943,experiment,79,↓,down,↓,0.4086240000324324,True,35,0
163K34S2,944,experiment,67,↑,no_key,no_letter,-1.0,False,35,0
163K34S2,945,experiment,99,→,no_key,no_letter,-1.0,False,35,1
163K34S2,946,experiment,104,↓,up,↑,0.5781956000137143,False,35,1
163K34S2,947,experiment,78,→,no_key,no_letter,-1.0,False,35,1
163K34S2,948,experiment,91,←,left,←,0.4760141999577172,True,35,1
163K34S2,949,experiment,58,↑,up,↑,0.5172206000424922,True,35,1
163K34S2,950,experiment,103,←,left,←,0.3921488000196405,True,35,1
163K34S2,951,experiment,68,→,right,→,0.4087611000286415,True,35,0
163K34S2,952,experiment,86,→,right,→,0.5054069000179879,True,35,0
163K34S2,953,experiment,81,↑,up,↑,0.46625409997068346,True,35,1
163K34S2,954,experiment,51,↑,up,↑,0.5181664999690838,True,35,1
163K34S2,955,experiment,55,↓,down,↓,0.6307574000093155,True,35,1
163K34S2,956,experiment,54,→,right,→,0.6670851000235416,True,35,1
163K34S2,957,experiment,93,←,left,←,0.38417120004305616,True,35,1
163K34S2,958,experiment,56,↑,up,↑,0.5426407000049949,True,35,0
163K34S2,959,experiment,72,→,right,→,0.4969559999881312,True,35,1
163K34S2,960,experiment,92,↓,no_key,no_letter,-1.0,False,35,1
163K34S2,961,experiment,66,↑,up,↑,0.5530356999952346,True,35,1
163K34S2,962,experiment,52,←,left,←,0.6173122999607585,True,35,1
163K34S2,963,experiment,53,←,left,←,0.43401249998714775,True,35,1
163K34S2,964,experiment,87,←,left,←,0.3926099999807775,True,35,0
163K34S2,965,experiment,106,↓,down,↓,0.5882317000068724,True,35,0
163K34S2,966,experiment,101,→,right,→,0.425475700001698,True,35,1
163K34S2,967,experiment,95,→,right,→,0.4090764000429772,True,35,0
163K34S2,968,experiment,82,→,right,→,0.37571499997284263,True,35,0
163K34S2,969,experiment,105,↓,down,↓,0.46702290000393987,True,35,0
163K34S2,970,experiment,69,↑,up,↑,0.4648934999713674,True,35,1
163K34S2,971,experiment,65,↓,down,↓,0.6956666999612935,True,35,1
163K34S2,972,experiment,85,↓,down,↓,0.6076396999997087,True,35,1
163K34S2,973,experiment,61,→,right,→,0.4260114000062458,True,35,1
163K34S2,974,experiment,80,↓,down,↓,0.5904925999930128,True,35,0
163K34S2,975,experiment,50,↓,down,↓,0.5575612999964505,True,35,1
163K34S2,976,experiment,48,↓,down,↓,0.5271398000186309,True,35,1
163K34S2,977,experiment,76,↓,down,↓,0.42547259997809306,True,35,1
163K34S2,978,experiment,89,←,right,→,0.561199999996461,False,35,0
163K34S2,979,experiment,62,→,left,←,0.5419282999937423,False,35,1
163K34S2,980,experiment,63,←,left,←,0.6190029999706894,True,35,1
163K34S2,981,experiment,71,↑,up,↑,0.5943999000010081,True,35,1
163K34S2,982,experiment,59,↑,up,↑,0.4088034000014886,True,35,1
163K34S2,983,experiment,98,↑,up,↑,0.5412813000148162,True,35,0
163K34S2,984,experiment,57,→,right,→,0.5085298999911174,True,35,1
163K34S2,985,experiment,74,→,right,→,0.4338999000028707,True,35,1
163K34S2,986,training,88,←,left,←,0.6093476000241935,True,35,0
163K34S2,987,training,92,←,left,←,0.4665957999532111,True,35,1
163K34S2,988,experiment,105,←,left,←,0.5641978000057861,True,35,1
163K34S2,989,experiment,54,→,right,→,0.47557559999404475,True,35,1
163K34S2,990,experiment,80,↑,up,↑,0.40904679999221116,True,35,1
163K34S2,991,experiment,71,↑,up,↑,0.4173824000172317,True,35,0
163K34S2,992,experiment,59,↑,up,↑,0.4007584999781102,True,35,0
163K34S2,993,experiment,69,↓,no_key,no_letter,-1.0,False,35,0
163K34S2,994,experiment,74,↓,down,↓,0.4341421999852173,True,35,1
163K34S2,995,experiment,94,↓,no_key,no_letter,-1.0,False,35,0
163K34S2,996,experiment,107,↑,up,↑,0.5810518999933265,True,35,1
163K34S2,997,experiment,60,←,left,←,0.5133432999718934,True,35,1
163K34S2,998,experiment,51,→,right,→,0.4338038999703713,True,35,1
163K34S2,999,experiment,99,↑,up,↑,0.42587400000775233,True,35,0
163K34S2,1000,experiment,68,↑,up,↑,0.3842367000179365,True,35,0
163K34S2,1001,experiment,49,↓,down,↓,0.5921939000254497,True,35,0
163K34S2,1002,experiment,76,↓,down,↓,0.42575789999682456,True,35,1
163K34S2,1003,experiment,86,↓,down,↓,0.39243780000833794,True,35,0
163K34S2,1004,experiment,57,↑,down,↓,0.5093783000484109,False,35,0
163K34S2,1005,experiment,66,↓,no_key,no_letter,-1.0,False,35,1
163K34S2,1006,experiment,61,↑,up,↑,0.5517535000108182,True,35,1
163K34S2,1007,experiment,102,↑,up,↑,0.5914076000335626,True,35,1
163K34S2,1008,experiment,108,↑,up,↑,0.40911760000744835,True,35,1
163K34S2,1009,experiment,62,↑,down,↓,0.5898440000019036,False,35,0
163K34S2,1010,experiment,77,←,left,←,0.660245799983386,True,35,1
163K34S2,1011,experiment,58,↑,up,↑,0.3920773999998346,True,35,1
163K34S2,1012,experiment,65,→,no_key,no_letter,-1.0,False,35,0
163K34S2,1013,experiment,52,←,left,←,0.417552099970635,True,35,1
163K34S2,1014,experiment,100,→,right,→,0.5577354000415653,True,35,0
163K34S2,1015,experiment,72,↓,down,↓,0.6631401000195183,True,35,1
163K34S2,1016,experiment,98,↑,no_key,no_letter,-1.0,False,35,1
163K34S2,1017,experiment,64,↓,down,↓,0.6955093000433408,True,35,1
163K34S2,1018,experiment,83,↑,up,↑,0.5199554999708198,True,35,1
163K34S2,1019,experiment,92,←,no_key,no_letter,-1.0,False,35,1
163K34S2,1020,experiment,79,←,left,←,0.5390840999898501,True,35,1
163K34S2,1021,experiment,90,←,left,←,0.4087671999586746,True,35,1
163K34S2,1022,experiment,104,↓,down,↓,0.587487599987071,True,35,0
163K34S2,1023,experiment,50,↑,no_key,no_letter,-1.0,False,35,1
163K34S2,1024,experiment,75,↓,down,↓,0.6030966999824159,True,35,1
163K34S2,1025,experiment,96,←,left,←,0.674669400032144,True,35,1
163K34S2,1026,experiment,70,→,left,←,0.48025819996837527,False,35,1
163K34S2,1027,experiment,73,←,right,→,0.44246940000448376,False,35,1
163K34S2,1028,experiment,55,↑,up,↑,0.5598339000134729,True,35,0
163K34S2,1029,experiment,87,→,down,↓,0.5320837000035681,False,35,1
163K34S2,1030,experiment,101,↑,up,↑,0.42556770000373945,True,35,1
163K34S2,1031,experiment,67,↓,down,↓,0.46951899997657165,True,35,0
163K34S2,1032,experiment,93,↓,no_key,no_letter,-1.0,False,35,1
163K34S2,1033,experiment,89,→,right,→,0.6226330999634229,True,35,1
163K34S2,1034,experiment,82,↓,no_key,no_letter,-1.0,False,35,1
163K34S2,1035,experiment,78,→,right,→,0.6170479999855161,True,35,1
163K34S2,1036,experiment,48,↓,down,↓,0.6561572999926284,True,35,1
163K34S2,1037,experiment,106,←,down,↓,0.5941527000395581,False,35,1
163K34S2,1038,experiment,56,↑,up,↑,0.5435303999693133,True,35,1
163K34S2,1039,experiment,84,→,left,←,0.597508100036066,False,35,1
163K34S2,1040,experiment,88,←,left,←,0.4643606999889016,True,35,1
163K34S2,1041,experiment,103,→,right,→,0.46728519996395335,True,35,1
163K34S2,1042,experiment,95,→,right,→,0.5520070999627933,True,35,1
163K34S2,1043,experiment,63,→,right,→,0.46129870001459494,True,35,1
163K34S2,1044,experiment,81,↓,right,→,0.7988784000044689,False,35,0
163K34S2,1045,experiment,91,←,left,←,0.37570519995642826,True,35,1
163K34S2,1046,experiment,53,←,left,←,0.6069974999991246,True,35,0
163K34S2,1047,experiment,85,→,right,→,0.6584514999995008,True,35,1
163K34S2,1048,experiment,97,↓,down,↓,0.5191254999954253,True,35,1
163K34S2,1049,training,92,↓,no_key,no_letter,-1.0,False,35,0
163K34S2,1050,training,108,↓,down,↓,0.47538020001957193,True,35,1
163K34S2,1051,experiment,54,→,right,→,0.5739802000462078,True,35,1
163K34S2,1052,experiment,59,←,right,→,0.5150044999900274,False,35,1
163K34S2,1053,experiment,61,←,left,←,0.4263890999718569,True,35,1
163K34S2,1054,experiment,92,←,left,←,0.4007429000339471,True,35,0
163K34S2,1055,experiment,79,↓,down,↓,0.590292299981229,True,35,0
163K34S2,1056,experiment,52,→,right,→,0.6691197999753058,True,35,1
163K34S2,1057,experiment,64,←,left,←,0.3924213999998756,True,35,1
163K34S2,1058,experiment,104,←,left,←,0.40072640002472326,True,35,0
163K34S2,1059,experiment,95,←,no_key,no_letter,-1.0,False,35,0
163K34S2,1060,experiment,80,←,left,←,0.4644817000371404,True,35,1
163K34S2,1061,experiment,85,↓,down,↓,0.6408506000298075,True,35,1
163K34S2,1062,experiment,86,↓,down,↓,0.626136300037615,True,35,1
163K34S2,1063,experiment,98,↓,down,↓,0.4338532999972813,True,35,1
163K34S2,1064,experiment,106,←,left,←,0.7149027999839745,True,35,0
163K34S2,1065,experiment,81,→,left,←,0.5869347999687307,False,35,1
163K34S2,1066,experiment,105,←,left,←,0.6243734000017866,True,35,1
163K34S2,1067,experiment,69,↓,down,↓,0.5843034000135958,True,35,1
163K34S2,1068,experiment,78,↓,no_key,no_letter,-1.0,False,35,1
163K34S2,1069,experiment,93,→,right,→,0.5526820999803022,True,35,1
163K34S2,1070,experiment,53,→,right,→,0.6167587999952957,True,35,1
163K34S2,1071,experiment,83,↓,down,↓,0.39210759999696165,True,35,1
163K34S2,1072,experiment,99,↓,down,↓,0.4424527999944985,True,35,0
163K34S2,1073,experiment,103,↑,up,↑,0.4254860000219196,True,35,0
163K34S2,1074,experiment,55,↑,down,↓,0.4668619000003673,False,35,0
163K34S2,1075,experiment,97,→,right,→,0.598747199983336,True,35,1
163K34S2,1076,experiment,48,→,right,→,0.4710890999995172,True,35,1
163K34S2,1077,experiment,50,←,left,←,0.40904140000930056,True,35,1
163K34S2,1078,experiment,107,→,right,→,0.5260146000073291,True,35,0
163K34S2,1079,experiment,67,↑,up,↑,0.425818000047002,True,35,1
163K34S2,1080,experiment,49,→,right,→,0.48857539996970445,True,35,0
163K34S2,1081,experiment,96,←,no_key,no_letter,-1.0,False,35,1
163K34S2,1082,experiment,65,←,left,←,0.3933794999611564,True,35,1
163K34S2,1083,experiment,100,→,left,←,0.6462573999888264,False,35,0
163K34S2,1084,experiment,88,←,left,←,0.3840473999734968,True,35,1
163K34S2,1085,experiment,94,↑,up,↑,0.49557650001952425,True,35,0
163K34S2,1086,experiment,90,↓,down,↓,0.6530183999566361,True,35,1
163K34S2,1087,experiment,108,↑,up,↑,0.5186881999834441,True,35,1
163K34S2,1088,experiment,82,←,right,→,0.582487499981653,False,35,1
163K34S2,1089,experiment,102,←,left,←,0.46932690002722666,True,35,1
163K34S2,1090,experiment,73,↓,down,↓,0.6252968999906443,True,35,1
163K34S2,1091,experiment,87,→,left,←,0.6109478000435047,False,35,1
163K34S2,1092,experiment,89,↑,up,↑,0.3925477999728173,True,35,1
163K34S2,1093,experiment,101,→,down,↓,0.5227098999894224,False,35,0
163K34S2,1094,experiment,72,↑,up,↑,0.4340900999959558,True,35,1
163K34S2,1095,experiment,68,↓,no_key,no_letter,-1.0,False,35,0
163K34S2,1096,experiment,71,←,left,←,0.4945742000127211,True,35,1
163K34S2,1097,experiment,58,↓,down,↓,0.4714531999779865,True,35,1
163K34S2,1098,experiment,84,←,left,←,0.5198609000071883,True,35,1
163K34S2,1099,experiment,62,↓,no_key,no_letter,-1.0,False,35,1
163K34S2,1100,experiment,56,↑,up,↑,0.4614378000260331,True,35,1
163K34S2,1101,experiment,66,→,right,→,0.5640079000149854,True,35,0
163K34S2,1102,experiment,76,→,right,→,0.4916918000089936,True,35,1
163K34S2,1103,experiment,77,←,left,←,0.5980975000420585,True,35,1
163K34S2,1104,experiment,51,→,left,←,0.5888301999657415,False,35,1
163K34S2,1105,experiment,91,→,right,→,0.5832098000100814,True,35,1
163K34S2,1106,experiment,70,→,no_key,no_letter,-1.0,False,35,1
163K34S2,1107,experiment,57,↓,down,↓,0.5818855999968946,True,35,1
163K34S2,1108,experiment,63,↑,up,↑,0.5692480999859981,True,35,1
163K34S2,1109,experiment,60,→,right,→,0.47088480001548305,True,35,1
163K34S2,1110,experiment,74,←,left,←,0.4090289000305347,True,35,1
163K34S2,1111,experiment,75,↓,down,↓,0.5925471999798901,True,35,0
163K34S2,1112,training,104,←,left,←,0.617077499977313,True,35,0
163K34S2,1113,training,66,←,no_key,no_letter,-1.0,False,35,1
163K34S2,1114,experiment,82,←,left,←,0.4337703000055626,True,35,1
163K34S2,1115,experiment,51,↓,down,↓,0.48525220004376024,True,35,0
163K34S2,1116,experiment,96,→,right,→,0.4974748999811709,True,35,1
163K34S2,1117,experiment,52,→,right,→,0.4685412999824621,True,35,1
163K34S2,1118,experiment,57,↑,up,↑,0.4257684000185691,True,35,1
163K34S2,1119,experiment,91,←,left,←,0.6057843000162393,True,35,0
163K34S2,1120,experiment,86,→,right,→,0.4806749999988824,True,35,1
163K34S2,1121,experiment,107,↓,down,↓,0.4181259999750182,True,35,1
163K34S2,1122,experiment,60,→,right,→,0.6516485000029206,True,35,0
163K34S2,1123,experiment,72,↑,left,←,0.49743069999385625,False,35,1
163K34S2,1124,experiment,97,↓,down,↓,0.5807340000174008,True,35,1
163K34S2,1125,experiment,87,→,right,→,0.4175346000120044,True,35,1
163K34S2,1126,experiment,69,←,left,←,0.37576759996591136,True,35,0
163K34S2,1127,experiment,77,←,left,←,0.37580809998326004,True,35,0
163K34S2,1128,experiment,56,↓,down,↓,0.4423741999780759,True,35,0
163K34S2,1129,experiment,88,↓,down,↓,0.6451860999804921,True,35,0
163K34S2,1130,experiment,106,←,left,←,0.3835848000016995,True,35,1
163K34S2,1131,experiment,65,→,right,→,0.5219923999975435,True,35,0
163K34S2,1132,experiment,53,→,up,↑,0.6590651000151411,False,35,1
163K34S2,1133,experiment,64,→,no_key,no_letter,-1.0,False,35,1
163K34S2,1134,experiment,101,↑,down,↓,0.6587353000068106,False,35,1
163K34S2,1135,experiment,63,←,left,←,0.366776300012134,True,35,1
163K34S2,1136,experiment,100,↑,up,↑,0.45926640002289787,True,35,0
163K34S2,1137,experiment,67,↑,up,↑,0.4659508999902755,True,35,0
163K34S2,1138,experiment,108,→,no_key,no_letter,-1.0,False,35,1
163K34S2,1139,experiment,78,←,left,←,0.6093606999493204,True,35,1
163K34S2,1140,experiment,61,↑,up,↑,0.48424209997756407,True,35,1
163K34S2,1141,experiment,89,→,left,←,0.5148966000415385,False,35,1
163K34S2,1142,experiment,49,←,left,←,0.4257498999941163,True,35,1
163K34S2,1143,experiment,74,↓,down,↓,0.5554610999533907,True,35,0
163K34S2,1144,experiment,105,↓,down,↓,0.5377855999977328,True,35,1
163K34S2,1145,experiment,80,→,right,→,0.46575899998424575,True,35,1
163K34S2,1146,experiment,94,←,left,←,0.40040819998830557,True,35,1
163K34S2,1147,experiment,66,→,right,→,0.4338385000010021,True,35,0
163K34S2,1148,experiment,73,↑,up,↑,0.5502198999747634,True,35,0
163K34S2,1149,experiment,92,↓,down,↓,0.5853961000102572,True,35,1
163K34S2,1150,experiment,81,→,right,→,0.526549200003501,True,35,1
163K34S2,1151,experiment,99,→,left,←,0.5203563999966718,False,35,1
163K34S2,1152,experiment,102,→,left,←,0.5373876999947242,False,35,1
163K34S2,1153,experiment,68,→,right,→,0.5494584000553004,True,35,1
163K34S2,1154,experiment,95,↓,down,↓,0.5431155000114813,True,35,1
163K34S2,1155,experiment,90,→,right,→,0.4593786000041291,True,35,1
163K34S2,1156,experiment,70,←,no_key,no_letter,-1.0,False,35,0
163K34S2,1157,experiment,79,→,no_key,no_letter,-1.0,False,35,1
163K34S2,1158,experiment,76,←,right,→,0.4720611999509856,False,35,1
163K34S2,1159,experiment,75,↓,no_key,no_letter,-1.0,False,35,1
163K34S2,1160,experiment,103,←,right,→,0.5622445000335574,False,35,1
163K34S2,1161,experiment,85,←,down,↓,0.5593278000014834,False,35,1
163K34S2,1162,experiment,83,↓,down,↓,0.41737119999015704,True,35,1
163K34S2,1163,experiment,58,↑,up,↑,0.4094418999738991,True,35,0
163K34S2,1164,experiment,48,↓,down,↓,0.7115605000290088,True,35,0
163K34S2,1165,experiment,84,←,left,←,0.5909920000121929,True,35,1
163K34S2,1166,experiment,104,↑,no_key,no_letter,-1.0,False,35,1
163K34S2,1167,experiment,54,→,right,→,0.49171809997642413,True,35,1
163K34S2,1168,experiment,71,↓,down,↓,0.46433970000362024,True,35,1
163K34S2,1169,experiment,55,→,right,→,0.49884490005206317,True,35,1
163K34S2,1170,experiment,98,↑,up,↑,0.5978448000387289,True,35,1
163K34S2,1171,experiment,59,↑,up,↑,0.4348145999829285,True,35,1
163K34S2,1172,experiment,62,↓,down,↓,0.5950665999553166,True,35,0
163K34S2,1173,experiment,50,→,no_key,no_letter,-1.0,False,35,1
163K34S2,1174,experiment,93,→,no_key,no_letter,-1.0,False,35,1
163K34S2,1175,training,72,↑,up,↑,0.5770215999800712,True,35,0
163K34S2,1176,training,97,→,right,→,0.5295541999512352,True,35,1
163K34S2,1177,experiment,81,←,left,←,0.4016186000080779,True,35,1
163K34S2,1178,experiment,74,↓,down,↓,0.46365319995675236,True,35,0
163K34S2,1179,experiment,65,↓,up,↑,0.4945964000071399,False,35,0
163K34S2,1180,experiment,70,↓,down,↓,0.4340426999842748,True,35,1
163K34S2,1181,experiment,98,↑,up,↑,0.584764700033702,True,35,0
163K34S2,1182,experiment,89,↓,down,↓,0.4914794000214897,True,35,1
163K34S2,1183,experiment,54,↑,up,↑,0.40911049995338544,True,35,1
163K34S2,1184,experiment,91,↓,down,↓,0.41735300002619624,True,35,0
163K34S2,1185,experiment,77,↓,down,↓,0.4678108000080101,True,35,0
163K34S2,1186,experiment,67,↓,no_key,no_letter,-1.0,False,35,1
163K34S2,1187,experiment,58,↑,up,↑,0.4090913999825716,True,35,1
163K34S2,1188,experiment,63,←,left,←,0.4901857999502681,True,35,0
163K34S2,1189,experiment,64,←,left,←,0.384479200001806,True,35,1
163K34S2,1190,experiment,57,←,left,←,0.3591295999940485,True,35,0
163K34S2,1191,experiment,85,↓,right,→,0.43404199997894466,False,35,0
163K34S2,1192,experiment,100,↓,down,↓,0.40905009995913133,True,35,0
163K34S2,1193,experiment,105,↑,up,↑,0.4171760000172071,True,35,0
163K34S2,1194,experiment,101,→,right,→,0.6165371999959461,True,35,0
163K34S2,1195,experiment,62,→,right,→,0.6749851000495255,True,35,1
163K34S2,1196,experiment,82,↓,down,↓,0.44248879997758195,True,35,1
163K34S2,1197,experiment,71,↑,up,↑,0.5463709000032395,True,35,0
163K34S2,1198,experiment,80,↑,up,↑,0.6179636999731883,True,35,1
163K34S2,1199,experiment,49,→,right,→,0.7366748999920674,True,35,1
163K34S2,1200,experiment,76,←,left,←,0.4264561000163667,True,35,1
163K34S2,1201,experiment,72,→,right,→,0.6158512000110932,True,35,0
163K34S2,1202,experiment,53,↑,up,↑,0.42569110001204535,True,35,1
163K34S2,1203,experiment,66,→,no_key,no_letter,-1.0,False,35,0
163K34S2,1204,experiment,108,↓,down,↓,0.6108185000484809,True,35,1
163K34S2,1205,experiment,106,→,right,→,0.47116039996035397,True,35,1
163K34S2,1206,experiment,60,→,right,→,0.4720666999928653,True,35,1
163K34S2,1207,experiment,55,→,left,←,0.6100023000035435,False,35,1
163K34S2,1208,experiment,48,↑,up,↑,0.4183257999829948,True,35,1
163K34S2,1209,experiment,93,↓,down,↓,0.488877700001467,True,35,0
163K34S2,1210,experiment,51,↑,up,↑,0.39237339998362586,True,35,1
163K34S2,1211,experiment,95,↓,down,↓,0.5879689999856055,True,35,0
163K34S2,1212,experiment,61,↓,down,↓,0.5359731000498869,True,35,1
163K34S2,1213,experiment,56,↓,down,↓,0.5677563000353985,True,35,1
163K34S2,1214,experiment,59,↑,down,↓,0.5411902000196278,False,35,1
163K34S2,1215,experiment,50,↓,no_key,no_letter,-1.0,False,35,1
163K34S2,1216,experiment,78,→,up,↑,0.5819602999836206,False,35,1
163K34S2,1217,experiment,107,←,right,→,0.6106817999971099,False,35,1
163K34S2,1218,experiment,102,←,left,←,0.40919039997970685,True,35,1
163K34S2,1219,experiment,68,←,left,←,0.6723777999868616,True,35,0
163K34S2,1220,experiment,83,→,right,→,0.6893808000022545,True,35,1
163K34S2,1221,experiment,88,←,left,←,0.4012700999737717,True,35,1
163K34S2,1222,experiment,92,→,right,→,0.5204208000213839,True,35,0
163K34S2,1223,experiment,87,↑,up,↑,0.44243890000507236,True,35,1
163K34S2,1224,experiment,69,↓,down,↓,0.6373694000067189,True,35,0
163K34S2,1225,experiment,97,→,right,→,0.6033889999962412,True,35,1
163K34S2,1226,experiment,94,←,left,←,0.36679439997533336,True,35,1
163K34S2,1227,experiment,96,←,left,←,0.4423821999807842,True,35,0
163K34S2,1228,experiment,75,←,left,←,0.47358940000412986,True,35,0
163K34S2,1229,experiment,99,↑,up,↑,0.6048820999567397,True,35,1
163K34S2,1230,experiment,79,↓,down,↓,0.5220255000167526,True,35,1
163K34S2,1231,experiment,73,←,left,←,0.4006976000382565,True,35,1
163K34S2,1232,experiment,52,←,left,←,0.6744732999941334,True,35,0
163K34S2,1233,experiment,103,→,no_key,no_letter,-1.0,False,35,1
163K34S2,1234,experiment,86,→,right,→,0.5376039000111632,True,35,1
163K34S2,1235,experiment,84,↑,up,↑,0.6476744000101462,True,35,1
163K34S2,1236,experiment,90,→,right,→,0.6713739999686368,True,35,1
163K34S2,1237,experiment,104,↑,up,↑,0.4425747999921441,True,35,1
163K34S2,1238,training,54,←,left,←,0.6481557000079192,True,35,0
163K34S2,1239,training,72,→,right,→,0.3924756000051275,True,35,1
163K34S2,1240,experiment,59,→,left,←,0.5459200000041164,False,35,0
163K34S2,1241,experiment,93,↓,no_key,no_letter,-1.0,False,35,1
163K34S2,1242,experiment,67,↓,down,↓,0.5275897999526933,True,35,1
163K34S2,1243,experiment,90,↓,down,↓,0.5962453000247478,True,35,1
163K34S2,1244,experiment,71,↑,up,↑,0.6042957000317983,True,35,1
163K34S2,1245,experiment,75,↑,up,↑,0.5149808999849483,True,35,1
163K34S2,1246,experiment,95,→,right,→,0.6304251999827102,True,35,1
163K34S2,1247,experiment,73,→,right,→,0.6445049000321887,True,35,1
163K34S2,1248,experiment,79,↓,down,↓,0.44214160001138225,True,35,1
163K34S2,1249,experiment,83,↑,up,↑,0.5864147000247613,True,35,0
163K34S2,1250,experiment,88,↑,up,↑,0.5253167999908328,True,35,1
163K34S2,1251,experiment,55,←,left,←,0.6778837000019848,True,35,1
163K34S2,1252,experiment,86,→,right,→,0.7017393999849446,True,35,1
163K34S2,1253,experiment,72,→,no_key,no_letter,-1.0,False,35,1
163K34S2,1254,experiment,100,↓,left,←,0.6973800000268966,False,35,1
163K34S2,1255,experiment,52,↑,up,↑,0.5637649000273086,True,35,1
163K34S2,1256,experiment,99,→,right,→,0.49198560003424063,True,35,1
163K34S2,1257,experiment,84,↑,up,↑,0.5958976999972947,True,35,1
163K34S2,1258,experiment,77,←,left,←,0.6579099999507889,True,35,1
163K34S2,1259,experiment,50,↓,down,↓,0.6466822000220418,True,35,1
163K34S2,1260,experiment,94,↑,no_key,no_letter,-1.0,False,35,1
163K34S2,1261,experiment,58,→,no_key,no_letter,-1.0,False,35,1
163K34S2,1262,experiment,105,↓,down,↓,0.48121620004530996,True,35,1
163K34S2,1263,experiment,49,↓,down,↓,0.7012275999877602,True,35,1
163K34S2,1264,experiment,104,↓,down,↓,0.5261470000259578,True,35,1
163K34S2,1265,experiment,74,↑,up,↑,0.4726469999877736,True,35,1
163K34S2,1266,experiment,89,↑,no_key,no_letter,-1.0,False,35,1
163K34S2,1267,experiment,56,→,no_key,no_letter,-1.0,False,35,1
163K34S2,1268,experiment,80,↓,down,↓,0.4689428000128828,True,35,1
163K34S2,1269,experiment,54,→,right,→,0.47970840003108606,True,35,1
163K34S2,1270,experiment,64,→,left,←,0.5585766000440344,False,35,1
163K34S2,1271,experiment,82,↓,down,↓,0.5246161000104621,True,35,1
163K34S2,1272,experiment,106,↑,down,↓,0.5320150000043213,False,35,1
163K34S2,1273,experiment,107,→,right,→,0.45936999999685213,True,35,1
163K34S2,1274,experiment,76,→,right,→,0.4340235000126995,True,35,0
163K34S2,1275,experiment,91,→,right,→,0.36747459997422993,True,35,0
163K34S2,1276,experiment,63,↓,down,↓,0.4345854999846779,True,35,0
163K34S2,1277,experiment,97,↑,up,↑,0.6313839000067674,True,35,0
163K34S2,1278,experiment,101,←,left,←,0.7001005000201985,True,35,1
163K34S2,1279,experiment,48,←,left,←,0.464292699994985,True,35,1
163K34S2,1280,experiment,103,←,left,←,0.4669315000064671,True,35,0
163K34S2,1281,experiment,68,↓,down,↓,0.5765532999648713,True,35,1
163K34S2,1282,experiment,102,↓,down,↓,0.41740109998499975,True,35,1
163K34S2,1283,experiment,92,↑,up,↑,0.7033558000111952,True,35,0
163K34S2,1284,experiment,108,→,no_key,no_letter,-1.0,False,35,1
163K34S2,1285,experiment,87,←,left,←,0.384083200013265,True,35,1
163K34S2,1286,experiment,51,←,left,←,0.49847789999330416,True,35,0
163K34S2,1287,experiment,57,←,left,←,0.37571709998883307,True,35,1
163K34S2,1288,experiment,62,←,left,←,0.48694070003693923,True,35,0
163K34S2,1289,experiment,85,←,left,←,0.830960099992808,True,35,1
163K34S2,1290,experiment,70,↓,down,↓,0.6139584999764338,True,35,1
163K34S2,1291,experiment,53,↑,up,↑,0.6113654000218958,True,35,1
163K34S2,1292,experiment,66,←,left,←,0.4092792000155896,True,35,1
163K34S2,1293,experiment,60,↓,down,↓,0.4174825999652967,True,35,0
163K34S2,1294,experiment,69,←,right,→,0.5516491999733262,False,35,0
163K34S2,1295,experiment,78,←,left,←,0.34238489996641874,True,35,1
163K34S2,1296,experiment,65,↑,up,↑,0.4916072000050917,True,35,0
163K34S2,1297,experiment,98,↑,up,↑,0.5668923999764957,True,35,1
163K34S2,1298,experiment,96,←,left,←,0.5680480999872088,True,35,1
163K34S2,1299,experiment,81,↓,no_key,no_letter,-1.0,False,35,1
163K34S2,1300,experiment,61,↓,down,↓,0.5710035999654792,True,35,1
163K34S2,1301,training,77,↑,up,↑,0.44232989998999983,True,35,0
163K34S2,1302,training,67,↓,down,↓,0.44235759996809065,True,35,0
163K34S2,1303,experiment,72,↓,down,↓,0.4421130999689922,True,35,0
163K34S2,1304,experiment,94,↑,up,↑,0.3921587999793701,True,35,0
163K34S2,1305,experiment,92,↑,down,↓,0.5122096000122838,False,35,0
163K34S2,1306,experiment,61,←,left,←,0.42577149998396635,True,35,1
163K34S2,1307,experiment,65,←,left,←,0.6079437999869697,True,35,0
163K34S2,1308,experiment,99,↑,up,↑,0.4173659000080079,True,35,1
163K34S2,1309,experiment,49,←,left,←,0.5486789999995381,True,35,0
163K34S2,1310,experiment,62,←,left,←,0.5297658000490628,True,35,1
163K34S2,1311,experiment,77,↓,down,↓,0.5704608000232838,True,35,1
163K34S2,1312,experiment,64,↓,down,↓,0.4424859000137076,True,35,1
163K34S2,1313,experiment,81,→,left,←,0.5290358999627642,False,35,0
163K34S2,1314,experiment,58,↓,down,↓,0.7520548999891616,True,35,1
163K34S2,1315,experiment,100,↓,down,↓,0.48043860000325367,True,35,1
163K34S2,1316,experiment,70,→,right,→,0.7095440999837592,True,35,1
163K34S2,1317,experiment,88,←,left,←,0.37569640000583604,True,35,1
163K34S2,1318,experiment,84,→,right,→,0.42568630003370345,True,35,0
163K34S2,1319,experiment,108,↓,down,↓,0.5704667000100017,True,35,0
163K34S2,1320,experiment,91,↓,down,↓,0.5171509999781847,True,35,1
163K34S2,1321,experiment,56,↓,down,↓,0.48561470001004636,True,35,1
163K34S2,1322,experiment,95,↓,down,↓,0.49822649999987334,True,35,1
163K34S2,1323,experiment,103,←,left,←,0.6916800000471994,True,35,1
163K34S2,1324,experiment,80,←,left,←,0.47697459999471903,True,35,1
163K34S2,1325,experiment,83,↑,no_key,no_letter,-1.0,False,35,1
163K34S2,1326,experiment,52,←,down,↓,0.6379095999873243,False,35,1
163K34S2,1327,experiment,85,→,right,→,0.5036431000335142,True,35,1
163K34S2,1328,experiment,82,←,left,←,0.40917860000627115,True,35,1
163K34S2,1329,experiment,63,←,left,←,0.4340393000165932,True,35,0
163K34S2,1330,experiment,59,←,left,←,0.43332530005136505,True,35,0
163K34S2,1331,experiment,106,↓,down,↓,0.503255799994804,True,35,0
163K34S2,1332,experiment,50,←,left,←,0.42575890000443906,True,35,1
163K34S2,1333,experiment,55,←,down,↓,0.5825467999675311,False,35,0
163K34S2,1334,experiment,69,↓,down,↓,0.5040914000128396,True,35,1
163K34S2,1335,experiment,101,↑,up,↑,0.42672200000379235,True,35,1
163K34S2,1336,experiment,76,↓,down,↓,0.5024274000315927,True,35,0
163K34S2,1337,experiment,87,↑,down,↓,0.47733060002792627,False,35,1
163K34S2,1338,experiment,96,↑,up,↑,0.38402870000572875,True,35,1
163K34S2,1339,experiment,51,↓,down,↓,0.5128926000325009,True,35,0
163K34S2,1340,experiment,74,←,left,←,0.5793925999896601,True,35,1
163K34S2,1341,experiment,71,↓,down,↓,0.4340239000157453,True,35,1
163K34S2,1342,experiment,104,→,right,→,0.5595469999825582,True,35,0
163K34S2,1343,experiment,90,→,right,→,0.4750389999826439,True,35,1
163K34S2,1344,experiment,107,↑,up,↑,0.6279300000169314,True,35,1
163K34S2,1345,experiment,67,→,right,→,0.5723677999922074,True,35,1
163K34S2,1346,experiment,68,↑,up,↑,0.582610499986913,True,35,1
163K34S2,1347,experiment,102,←,left,←,0.42573540000012144,True,35,1
163K34S2,1348,experiment,105,←,left,←,0.41744079999625683,True,35,0
163K34S2,1349,experiment,86,←,left,←,0.39241140004014596,True,35,0
163K34S2,1350,experiment,57,→,right,→,0.48711260000709444,True,35,0
163K34S2,1351,experiment,98,↑,up,↑,0.5384622000274248,True,35,1
163K34S2,1352,experiment,97,←,left,←,0.4091886000242084,True,35,1
163K34S2,1353,experiment,78,→,right,→,0.4181325999670662,True,35,0
163K34S2,1354,experiment,60,↑,up,↑,0.6196167999878526,True,35,0
163K34S2,1355,experiment,89,↑,up,↑,0.4340531000052579,True,35,1
163K34S2,1356,experiment,79,↓,down,↓,0.632765099988319,True,35,0
163K34S2,1357,experiment,48,↓,down,↓,0.5993006000062451,True,35,1
163K34S2,1358,experiment,53,↑,up,↑,0.4258191999979317,True,35,1
163K34S2,1359,experiment,66,→,right,→,0.5337758000241593,True,35,0
163K34S2,1360,experiment,75,↓,down,↓,0.4340201999875717,True,35,1
163K34S2,1361,experiment,73,↓,down,↓,0.49281730002257973,True,35,0
163K34S2,1362,experiment,54,↑,down,↓,0.6309771999949589,False,35,1
163K34S2,1363,experiment,93,←,left,←,0.4257520000101067,True,35,1
