PART_ID,Trial,Stimuli,Training,FIXTIME,MTIME,Correct,SOA,Level,Reversal,Reversal_count,Latency,Rating
081M33,1,SQUARES,training,45,17,True,12,-,-,-,0.567593200000033,-
081M33,2,SQUARES,training,45,17,True,12,-,-,-,0.4339289999999778,-
081M33,3,SQUARES,training,45,17,True,12,-,-,-,0.050647100000048795,-
081M33,4,SQUARES,training,45,17,True,12,-,-,-,0.017990900000029342,-
081M33,5,SQUARES,training,45,17,True,12,-,-,-,0.1006176999999866,-
081M33,6,SQUARES,training,45,17,True,12,-,-,-,0.23384879999997565,-
081M33,7,SQUARES,training,45,17,True,12,-,-,-,0.1838189999999713,-
081M33,8,SQUARES,training,45,17,True,12,-,-,-,0.11727960000001758,-
081M33,9,SQUARES,training,45,17,True,12,-,-,-,0.2672442999999589,-
081M33,10,SQUARES,training,45,17,True,12,-,-,-,0.017274000000043088,-
081M33,11,SQUARES,training,45,17,True,6,-,-,-,0.20060610000001589,-
081M33,12,SQUARES,training,45,17,True,6,-,-,-,0.15055690000002642,-
081M33,13,SQUARES,training,45,17,True,6,-,-,-,0.13388029999998707,-
081M33,14,SQUARES,training,45,17,True,6,-,-,-,0.333954800000015,-
081M33,15,SQUARES,training,45,17,True,6,-,-,-,0.18403160000002572,-
081M33,16,SQUARES,training,45,17,True,6,-,-,-,0.13380949999998393,-
081M33,17,SQUARES,training,45,17,True,6,-,-,-,0.18391880000001493,-
081M33,18,SQUARES,training,45,17,True,6,-,-,-,0.23417010000002847,-
081M33,19,SQUARES,training,45,17,False,6,-,-,-,0.45064289999993434,-
081M33,20,SQUARES,training,45,17,True,6,-,-,-,0.10061110000003737,-
081M33,1,SQUARES,exp,45,17,True,6,0,0,0,0.10066540000002533,-
081M33,2,SQUARES,exp,45,17,True,6,1,0,-,0.0006452000000081171,-
081M33,3,SQUARES,exp,45,17,True,5,1,0,-,0.0674996000000192,-
081M33,4,SQUARES,exp,45,17,True,5,1,0,-,0.0006527999998979794,-
081M33,5,SQUARES,exp,45,17,True,4,1,0,-,0.050716799999918294,-
081M33,6,SQUARES,exp,45,17,True,4,1,0,-,2.7506875000000264,-
081M33,7,SQUARES,exp,45,17,False,3,-1,1,1,0.28348159999995914,-
081M33,8,SQUARES,exp,45,17,True,4,-1,0,-,0.10071449999998094,-
081M33,9,SQUARES,exp,45,17,True,4,1,1,2,0.10058580000008988,-
081M33,10,SQUARES,exp,45,17,True,3,1,0,-,0.03376720000005662,-
081M33,11,SQUARES,exp,45,17,True,3,1,0,-,0.10078299999997853,-
081M33,12,SQUARES,exp,45,17,True,2,1,0,-,0.13413459999992483,-
081M33,13,SQUARES,exp,45,17,True,2,1,0,-,0.1839906999999812,-
081M33,14,SQUARES,exp,45,17,True,1,1,0,-,0.28382360000000517,-
081M33,15,SQUARES,exp,45,17,True,1,1,0,-,0.1838659000000007,-
081M33,16,SQUARES,exp,45,17,True,0,1,0,-,0.45060509999996157,-
081M33,17,SQUARES,exp,45,17,False,0,-1,1,3,0.28407910000009906,-
081M33,18,SQUARES,exp,45,17,True,1,-1,0,-,0.6672300999999834,-
081M33,19,SQUARES,exp,45,17,False,1,-1,0,-,0.5672642999999198,-
081M33,20,SQUARES,exp,45,17,True,2,-1,0,-,0.6839531000000534,-
081M33,21,SQUARES,exp,45,17,False,2,-1,0,-,0.8502683000000388,-
081M33,22,SQUARES,exp,45,17,True,3,-1,0,-,0.4839151999999558,-
081M33,23,SQUARES,exp,45,17,True,3,1,1,4,0.38401329999999234,-
081M33,24,SQUARES,exp,45,17,True,2,1,0,-,0.5341761000000815,-
081M33,25,SQUARES,exp,45,17,True,2,1,0,-,0.5005412000000433,-
081M33,26,SQUARES,exp,45,17,True,1,1,0,-,0.20058579999999893,-
081M33,27,SQUARES,exp,45,17,True,1,1,0,-,0.8171760999999833,-
081M33,28,SQUARES,exp,45,17,False,0,-1,1,5,1.1172866000000568,-
081M33,29,SQUARES,exp,45,17,False,1,-1,0,-,0.25066449999997076,-
081M33,30,SQUARES,exp,45,17,True,2,-1,0,-,0.4838581000000204,-
081M33,31,SQUARES,exp,45,17,False,2,-1,0,-,1.7840905000000475,-
081M33,32,SQUARES,exp,45,17,True,3,-1,0,-,0.5842595999999958,-
081M33,33,SQUARES,exp,45,17,True,3,1,1,6,0.55071989999999,-
081M33,34,SQUARES,exp,45,17,False,2,-1,1,7,0.550711099999944,-
081M33,35,SQUARES,exp,45,17,True,3,-1,0,-,0.4336716999999908,-
081M33,36,SQUARES,exp,45,17,False,3,-1,0,-,0.5174667,-
081M33,37,SQUARES,exp,45,17,True,4,-1,0,-,0.45046800000000076,-
081M33,38,SQUARES,exp,45,17,True,4,1,1,8,0.15081920000000082,-
081M33,39,SQUARES,exp,45,17,False,3,-1,1,9,0.15015940000000683,-
081M33,40,SQUARES,exp,45,17,False,4,-1,0,-,2.051066100000071,-
081M33,41,SQUARES,exp,45,17,False,5,-1,0,-,2.616575799999964,-
081M33,42,SQUARES,exp,45,17,True,6,-1,0,-,0.5838356000000431,-
081M33,43,SQUARES,exp,45,17,True,6,1,1,10,0.23396230000003015,-
081M33,1,CIRCLES,training,45,17,True,20,-,-,-,1.1840603000000556,-
081M33,2,CIRCLES,training,45,17,True,20,-,-,-,2.283987799999977,-
081M33,3,CIRCLES,training,45,17,True,20,-,-,-,0.3339273999999932,-
081M33,4,CIRCLES,training,45,17,True,20,-,-,-,0.45064109999998436,-
081M33,5,CIRCLES,training,45,17,True,20,-,-,-,0.3674032000000125,-
081M33,6,CIRCLES,training,45,17,True,20,-,-,-,0.000573000000031243,-
081M33,7,CIRCLES,training,45,17,True,20,-,-,-,0.3339251999999533,-
081M33,8,CIRCLES,training,45,17,True,20,-,-,-,0.21737020000000484,-
081M33,9,CIRCLES,training,45,17,True,20,-,-,-,0.7674853000000894,-
081M33,10,CIRCLES,training,45,17,True,20,-,-,-,0.18408149999993384,-
081M33,11,CIRCLES,training,45,17,True,10,-,-,-,0.2839288000000124,-
081M33,12,CIRCLES,training,45,17,True,10,-,-,-,0.2841458999999986,-
081M33,13,CIRCLES,training,45,17,True,10,-,-,-,0.350789099999929,-
081M33,14,CIRCLES,training,45,17,True,10,-,-,-,0.2839897999999721,-
081M33,15,CIRCLES,training,45,17,True,10,-,-,-,0.31714629999999033,-
081M33,16,CIRCLES,training,45,17,True,10,-,-,-,0.28405659999998534,-
081M33,17,CIRCLES,training,45,17,True,10,-,-,-,0.2673796999999922,-
081M33,18,CIRCLES,training,45,17,True,10,-,-,-,0.4671218000000863,-
081M33,19,CIRCLES,training,45,17,True,10,-,-,-,0.26736779999998816,-
081M33,20,CIRCLES,training,45,17,True,10,-,-,-,0.1009103999999752,-
081M33,1,CIRCLES,exp,45,17,True,10,0,0,0,0.2506371000000627,-
081M33,2,CIRCLES,exp,45,17,True,10,1,0,-,0.23370330000000195,-
081M33,3,CIRCLES,exp,45,17,True,9,1,0,-,0.13397879999990892,-
081M33,4,CIRCLES,exp,45,17,True,9,1,0,-,0.20068979999996372,-
081M33,5,CIRCLES,exp,45,17,True,8,1,0,-,0.05054359999996905,-
081M33,6,CIRCLES,exp,45,17,True,8,1,0,-,0.06737550000002557,-
081M33,7,CIRCLES,exp,45,17,True,7,1,0,-,0.06743310000001657,-
081M33,8,CIRCLES,exp,45,17,True,7,1,0,-,0.11753720000001522,-
081M33,9,CIRCLES,exp,45,17,True,6,1,0,-,0.13350279999997383,-
081M33,10,CIRCLES,exp,45,17,True,6,1,0,-,0.10072420000005877,-
081M33,11,CIRCLES,exp,45,17,True,5,1,0,-,0.06730170000003,-
081M33,12,CIRCLES,exp,45,17,True,5,1,0,-,0.10067340000000513,-
081M33,13,CIRCLES,exp,45,17,True,4,1,0,-,0.2005576999999903,-
081M33,14,CIRCLES,exp,45,17,True,4,1,0,-,0.1339856999999256,-
081M33,15,CIRCLES,exp,45,17,True,3,1,0,-,0.350593799999956,-
081M33,16,CIRCLES,exp,45,17,True,3,1,0,-,0.2004905000000008,-
081M33,17,CIRCLES,exp,45,17,False,2,-1,1,1,0.30028920000006565,-
081M33,18,CIRCLES,exp,45,17,True,3,-1,0,-,0.2839463999999907,-
081M33,19,CIRCLES,exp,45,17,True,3,1,1,2,0.18387219999999616,-
081M33,20,CIRCLES,exp,45,17,False,2,-1,1,3,1.0671980999999278,-
081M33,21,CIRCLES,exp,45,17,True,3,-1,0,-,0.18375060000005305,-
081M33,22,CIRCLES,exp,45,17,True,3,1,1,4,0.000560699999937242,-
081M33,23,CIRCLES,exp,45,17,False,2,-1,1,5,0.35075130000006993,-
081M33,24,CIRCLES,exp,45,17,True,3,-1,0,-,0.30073970000000827,-
081M33,25,CIRCLES,exp,45,17,True,3,1,1,6,0.3174381999999696,-
081M33,26,CIRCLES,exp,45,17,True,2,1,0,-,0.3000793999999587,-
081M33,27,CIRCLES,exp,45,17,True,2,1,0,-,0.4339263999999048,-
081M33,28,CIRCLES,exp,45,17,False,1,-1,1,7,0.968270099999927,-
081M33,29,CIRCLES,exp,45,17,True,2,-1,0,-,0.250652700000046,-
081M33,30,CIRCLES,exp,45,17,False,2,-1,0,-,0.7673089999999547,-
081M33,31,CIRCLES,exp,45,17,False,3,-1,0,-,1.150718299999994,-
081M33,32,CIRCLES,exp,45,17,True,4,-1,0,-,0.15061840000009852,-
081M33,33,CIRCLES,exp,45,17,True,4,1,1,8,0.11712679999993725,-
081M33,34,CIRCLES,exp,45,17,False,3,-1,1,9,0.0006869999999707943,-
081M33,35,CIRCLES,exp,45,17,False,4,-1,0,-,0.7340993000000253,-
081M33,36,CIRCLES,exp,45,17,False,5,-1,0,-,0.8172426000000996,-
081M33,37,CIRCLES,exp,45,17,True,6,-1,0,-,0.0339301000000205,-
081M33,38,CIRCLES,exp,45,17,True,6,1,1,10,0.2339288000000579,-
