PART_ID,Trial,Stimuli,Training,FIXTIME,MTIME,Correct,SOA,Level,Reversal,Reversal_count,Latency,Rating
194K24,1,SQUARES,training,45,17,True,12,-,-,-,1.8841717999894172,-
194K24,2,SQUARES,training,45,17,True,12,-,-,-,0.16734770010225475,-
194K24,3,SQUARES,training,45,17,True,12,-,-,-,0.03399259992875159,-
194K24,4,SQUARES,training,45,17,True,12,-,-,-,0.7341465000063181,-
194K24,5,SQUARES,training,45,17,True,12,-,-,-,0.06724649993702769,-
194K24,6,SQUARES,training,45,17,True,12,-,-,-,0.6339891001116484,-
194K24,7,SQUARES,training,45,17,True,12,-,-,-,0.03347730007953942,-
194K24,8,SQUARES,training,45,17,True,12,-,-,-,0.11732640000991523,-
194K24,9,SQUARES,training,45,17,True,12,-,-,-,0.6175924001727253,-
194K24,10,SQUARES,training,45,17,True,12,-,-,-,0.23374430020339787,-
194K24,11,SQUARES,training,45,17,True,6,-,-,-,0.18390819989144802,-
194K24,12,SQUARES,training,45,17,True,6,-,-,-,0.18425379996187985,-
194K24,13,SQUARES,training,45,17,True,6,-,-,-,0.0006578001193702221,-
194K24,14,SQUARES,training,45,17,True,6,-,-,-,0.0501763999927789,-
194K24,15,SQUARES,training,45,17,True,6,-,-,-,0.10071479994803667,-
194K24,16,SQUARES,training,45,17,True,6,-,-,-,0.017358100041747093,-
194K24,17,SQUARES,training,45,17,True,6,-,-,-,0.03380289999768138,-
194K24,18,SQUARES,training,45,17,True,6,-,-,-,0.6836099999491125,-
194K24,19,SQUARES,training,45,17,True,6,-,-,-,0.11713899997994304,-
194K24,20,SQUARES,training,45,17,True,6,-,-,-,0.033840700052678585,-
194K24,1,SQUARES,exp,45,17,True,6,0,0,0,0.2507583999540657,-
194K24,2,SQUARES,exp,45,17,True,6,1,0,-,0.06730680004693568,-
194K24,3,SQUARES,exp,45,17,True,5,1,0,-,0.017332300078123808,-
194K24,4,SQUARES,exp,45,17,False,5,-1,1,1,0.23378659994341433,-
194K24,5,SQUARES,exp,45,17,True,6,-1,0,-,0.7338614000473171,-
194K24,6,SQUARES,exp,45,17,True,6,1,1,2,0.13395579997450113,-
194K24,7,SQUARES,exp,45,17,True,5,1,0,-,0.2340737998019904,-
194K24,8,SQUARES,exp,45,17,True,5,1,0,-,0.08381690015085042,-
194K24,9,SQUARES,exp,45,17,True,4,1,0,-,0.0008719000034034252,-
194K24,10,SQUARES,exp,45,17,True,4,1,0,-,0.034138299990445375,-
194K24,11,SQUARES,exp,45,17,True,3,1,0,-,0.0006742000114172697,-
194K24,12,SQUARES,exp,45,17,True,3,1,0,-,0.08402199996635318,-
194K24,13,SQUARES,exp,45,17,True,2,1,0,-,0.20072690001688898,-
194K24,14,SQUARES,exp,45,17,True,2,1,0,-,0.15064059989526868,-
194K24,15,SQUARES,exp,45,17,True,1,1,0,-,0.16723569994792342,-
194K24,16,SQUARES,exp,45,17,False,1,-1,1,3,0.16721709980629385,-
194K24,17,SQUARES,exp,45,17,True,2,-1,0,-,0.034065499901771545,-
194K24,18,SQUARES,exp,45,17,True,2,1,1,4,0.10071570007130504,-
194K24,19,SQUARES,exp,45,17,False,1,-1,1,5,0.13405959983356297,-
194K24,20,SQUARES,exp,45,17,False,2,-1,0,-,0.16726490017026663,-
194K24,21,SQUARES,exp,45,17,False,3,-1,0,-,0.617280300008133,-
194K24,22,SQUARES,exp,45,17,True,4,-1,0,-,0.13403100008144975,-
194K24,23,SQUARES,exp,45,17,True,4,1,1,6,0.06728050019592047,-
194K24,24,SQUARES,exp,45,17,False,3,-1,1,7,0.11744260019622743,-
194K24,25,SQUARES,exp,45,17,True,4,-1,0,-,0.01732419990003109,-
194K24,26,SQUARES,exp,45,17,True,4,1,1,8,0.16686309990473092,-
194K24,27,SQUARES,exp,45,17,True,3,1,0,-,0.06736420001834631,-
194K24,28,SQUARES,exp,45,17,False,3,-1,1,9,0.13399140001274645,-
194K24,29,SQUARES,exp,45,17,True,4,-1,0,-,0.2007281999103725,-
194K24,30,SQUARES,exp,45,17,True,4,1,1,10,0.10067419987171888,-
194K24,1,CIRCLES,training,45,17,True,20,-,-,-,0.10066109988838434,-
194K24,2,CIRCLES,training,45,17,True,20,-,-,-,0.6172921999823302,-
194K24,3,CIRCLES,training,45,17,True,20,-,-,-,0.5006802999414504,-
194K24,4,CIRCLES,training,45,17,True,20,-,-,-,0.21713999984785914,-
194K24,5,CIRCLES,training,45,17,True,20,-,-,-,0.1673638999927789,-
194K24,6,CIRCLES,training,45,17,True,20,-,-,-,0.383986699860543,-
194K24,7,CIRCLES,training,45,17,True,20,-,-,-,0.2173146998975426,-
194K24,8,CIRCLES,training,45,17,True,20,-,-,-,0.017235300038009882,-
194K24,9,CIRCLES,training,45,17,True,20,-,-,-,0.25072110001929104,-
194K24,10,CIRCLES,training,45,17,True,20,-,-,-,0.20071089989505708,-
194K24,11,CIRCLES,training,45,17,True,10,-,-,-,0.23384110000915825,-
194K24,12,CIRCLES,training,45,17,True,10,-,-,-,0.4006883997935802,-
194K24,13,CIRCLES,training,45,17,True,10,-,-,-,0.18392489990219474,-
194K24,14,CIRCLES,training,45,17,True,10,-,-,-,0.4167579999193549,-
194K24,15,CIRCLES,training,45,17,True,10,-,-,-,0.28391899983398616,-
194K24,16,CIRCLES,training,45,17,True,10,-,-,-,0.36732600000686944,-
194K24,17,CIRCLES,training,45,17,True,10,-,-,-,0.26692770002409816,-
194K24,18,CIRCLES,training,45,17,True,10,-,-,-,0.25057659996673465,-
194K24,19,CIRCLES,training,45,17,True,10,-,-,-,0.2838928001001477,-
194K24,20,CIRCLES,training,45,17,True,10,-,-,-,0.017129400046542287,-
194K24,1,CIRCLES,exp,45,17,True,10,0,0,0,0.333963300101459,-
194K24,2,CIRCLES,exp,45,17,True,10,1,0,-,0.23347129998728633,-
194K24,3,CIRCLES,exp,45,17,True,9,1,0,-,0.23405089997686446,-
194K24,4,CIRCLES,exp,45,17,True,9,1,0,-,0.28390870010480285,-
194K24,5,CIRCLES,exp,45,17,True,8,1,0,-,0.23374489997513592,-
194K24,6,CIRCLES,exp,45,17,True,8,1,0,-,0.2172146998345852,-
194K24,7,CIRCLES,exp,45,17,True,7,1,0,-,0.2174092000350356,-
194K24,8,CIRCLES,exp,45,17,True,7,1,0,-,0.16716090007685125,-
194K24,9,CIRCLES,exp,45,17,True,6,1,0,-,0.20069259987212718,-
194K24,10,CIRCLES,exp,45,17,True,6,1,0,-,0.11732740001752973,-
194K24,11,CIRCLES,exp,45,17,True,5,1,0,-,0.06743449997156858,-
194K24,12,CIRCLES,exp,45,17,True,5,1,0,-,0.08410750003531575,-
194K24,13,CIRCLES,exp,45,17,True,4,1,0,-,0.10018379986286163,-
194K24,14,CIRCLES,exp,45,17,True,4,1,0,-,0.0502339000813663,-
194K24,15,CIRCLES,exp,45,17,True,3,1,0,-,0.03369159996509552,-
194K24,16,CIRCLES,exp,45,17,False,3,-1,1,1,0.234012900153175,-
194K24,17,CIRCLES,exp,45,17,True,4,-1,0,-,0.7171716000884771,-
194K24,18,CIRCLES,exp,45,17,True,4,1,1,2,0.05038189981132746,-
194K24,19,CIRCLES,exp,45,17,True,3,1,0,-,0.2170609999448061,-
194K24,20,CIRCLES,exp,45,17,True,3,1,0,-,0.45028950017876923,-
194K24,21,CIRCLES,exp,45,17,True,2,1,0,-,0.16714849998243153,-
194K24,22,CIRCLES,exp,45,17,False,2,-1,1,3,0.11736149992793798,-
194K24,23,CIRCLES,exp,45,17,False,3,-1,0,-,0.4506180000025779,-
194K24,24,CIRCLES,exp,45,17,True,4,-1,0,-,0.050584099953994155,-
194K24,25,CIRCLES,exp,45,17,True,4,1,1,4,0.15032240003347397,-
194K24,26,CIRCLES,exp,45,17,True,3,1,0,-,0.4503718998748809,-
194K24,27,CIRCLES,exp,45,17,False,3,-1,1,5,0.5170126999728382,-
194K24,28,CIRCLES,exp,45,17,False,4,-1,0,-,0.01698080007918179,-
194K24,29,CIRCLES,exp,45,17,False,5,-1,0,-,2.4173425999470055,-
194K24,30,CIRCLES,exp,45,17,True,6,-1,0,-,0.06730200001038611,-
194K24,31,CIRCLES,exp,45,17,True,6,1,1,6,0.06726199993863702,-
194K24,32,CIRCLES,exp,45,17,True,5,1,0,-,0.1341301000211388,-
194K24,33,CIRCLES,exp,45,17,True,5,1,0,-,0.0506500001065433,-
194K24,34,CIRCLES,exp,45,17,True,4,1,0,-,0.0006913000252097845,-
194K24,35,CIRCLES,exp,45,17,True,4,1,0,-,0.6174566999543458,-
194K24,36,CIRCLES,exp,45,17,True,3,1,0,-,0.08364679990336299,-
194K24,37,CIRCLES,exp,45,17,True,3,1,0,-,0.3841160999145359,-
194K24,38,CIRCLES,exp,45,17,True,2,1,0,-,0.11750039993785322,-
194K24,39,CIRCLES,exp,45,17,True,2,1,0,-,0.38408719981089234,-
194K24,40,CIRCLES,exp,45,17,True,1,1,0,-,0.267257499974221,-
194K24,41,CIRCLES,exp,45,17,True,1,1,0,-,0.4838791999500245,-
194K24,42,CIRCLES,exp,45,17,True,0,1,0,-,0.11754340003244579,-
194K24,43,CIRCLES,exp,45,17,False,0,-1,1,7,0.23395249992609024,-
194K24,44,CIRCLES,exp,45,17,True,1,-1,0,-,0.1672854998614639,-
194K24,45,CIRCLES,exp,45,17,False,1,-1,0,-,0.40072429995052516,-
194K24,46,CIRCLES,exp,45,17,False,2,-1,0,-,0.5008628000505269,-
194K24,47,CIRCLES,exp,45,17,True,3,-1,0,-,0.25064489990472794,-
194K24,48,CIRCLES,exp,45,17,True,3,1,1,8,0.5834724998567253,-
194K24,49,CIRCLES,exp,45,17,False,2,-1,1,9,0.6840011000167578,-
194K24,50,CIRCLES,exp,45,17,False,3,-1,0,-,0.016982599860057235,-
194K24,51,CIRCLES,exp,45,17,True,4,-1,0,-,0.4501618000213057,-
194K24,52,CIRCLES,exp,45,17,True,4,1,1,10,0.0006560999900102615,-
