PART_ID,Trial,Stimuli,Training,FIXTIME,MTIME,Correct,SOA,Level,Reversal,Reversal_count,Latency,Rating
PB005M20,1,SQUARES,training,45,17,False,12,-,-,-,3.2176408000086667,-
PB005M20,2,SQUARES,training,45,17,False,12,-,-,-,2.5007089999999152,-
PB005M20,3,SQUARES,training,45,17,True,12,-,-,-,1.3506081000086851,-
PB005M20,4,SQUARES,training,45,17,True,12,-,-,-,0.5339575999969384,-
PB005M20,5,SQUARES,training,45,17,True,12,-,-,-,0.30062109998834785,-
PB005M20,6,SQUARES,training,45,17,True,12,-,-,-,0.3506564999988768,-
PB005M20,7,SQUARES,training,45,17,True,12,-,-,-,0.21730979999119882,-
PB005M20,8,SQUARES,training,45,17,True,12,-,-,-,0.20059159999073017,-
PB005M20,9,SQUARES,training,45,17,True,12,-,-,-,0.2839115000097081,-
PB005M20,10,SQUARES,training,45,17,True,12,-,-,-,0.26724050000484567,-
PB005M20,11,SQUARES,training,45,17,True,6,-,-,-,0.43401209999865387,-
PB005M20,12,SQUARES,training,45,17,True,6,-,-,-,0.23350420000497252,-
PB005M20,13,SQUARES,training,45,17,False,6,-,-,-,0.40055219999339897,-
PB005M20,14,SQUARES,training,45,17,True,6,-,-,-,0.23392759999842383,-
PB005M20,15,SQUARES,training,45,17,True,6,-,-,-,0.08387030000449158,-
PB005M20,16,SQUARES,training,45,17,False,6,-,-,-,0.2005559999961406,-
PB005M20,17,SQUARES,training,45,17,True,6,-,-,-,0.2673353000136558,-
PB005M20,18,SQUARES,training,45,17,True,6,-,-,-,0.6001544999890029,-
PB005M20,19,SQUARES,training,45,17,True,6,-,-,-,0.20062289999623317,-
PB005M20,20,SQUARES,training,45,17,True,6,-,-,-,0.18395370000507683,-
PB005M20,1,SQUARES,exp,45,17,False,6,-1,0,0,0.8505928999948082,-
PB005M20,2,SQUARES,exp,45,17,True,7,-1,0,-,0.20054270001128316,-
PB005M20,3,SQUARES,exp,45,17,True,7,1,1,1,0.3672491000033915,-
PB005M20,4,SQUARES,exp,45,17,True,6,1,0,-,0.5340288000006694,-
PB005M20,5,SQUARES,exp,45,17,True,6,1,0,-,0.11717810000118334,-
PB005M20,6,SQUARES,exp,45,17,True,5,1,0,-,0.18378930000471883,-
PB005M20,7,SQUARES,exp,45,17,True,5,1,0,-,0.3006483999924967,-
PB005M20,8,SQUARES,exp,45,17,True,4,1,0,-,0.08377800000016578,-
PB005M20,9,SQUARES,exp,45,17,True,4,1,0,-,0.2838791999965906,-
PB005M20,10,SQUARES,exp,45,17,True,3,1,0,-,0.15064300000085495,-
PB005M20,11,SQUARES,exp,45,17,True,3,1,0,-,0.18398030000389554,-
PB005M20,12,SQUARES,exp,45,17,False,2,-1,1,2,0.9673602999973809,-
PB005M20,13,SQUARES,exp,45,17,True,3,-1,0,-,0.9006089000031352,-
PB005M20,14,SQUARES,exp,45,17,True,3,1,1,3,0.41724779999640305,-
PB005M20,15,SQUARES,exp,45,17,True,2,1,0,-,0.9168976000073599,-
PB005M20,16,SQUARES,exp,45,17,True,2,1,0,-,0.5006261999951676,-
PB005M20,17,SQUARES,exp,45,17,False,1,-1,1,4,0.7674631999980193,-
PB005M20,18,SQUARES,exp,45,17,False,2,-1,0,-,0.9672959000017727,-
PB005M20,19,SQUARES,exp,45,17,True,3,-1,0,-,0.6673027000069851,-
PB005M20,20,SQUARES,exp,45,17,True,3,1,1,5,0.2673486999992747,-
PB005M20,21,SQUARES,exp,45,17,True,2,1,0,-,0.2505964000010863,-
PB005M20,22,SQUARES,exp,45,17,True,2,1,0,-,0.7339365999941947,-
PB005M20,23,SQUARES,exp,45,17,False,1,-1,1,6,0.31683399999747053,-
PB005M20,24,SQUARES,exp,45,17,False,2,-1,0,-,0.23390400000789668,-
PB005M20,25,SQUARES,exp,45,17,True,3,-1,0,-,0.16733909999311436,-
PB005M20,26,SQUARES,exp,45,17,False,3,-1,0,-,0.26722539999173023,-
PB005M20,27,SQUARES,exp,45,17,True,4,-1,0,-,0.15057630000228528,-
PB005M20,28,SQUARES,exp,45,17,True,4,1,1,7,0.16735799999150913,-
PB005M20,29,SQUARES,exp,45,17,False,3,-1,1,8,0.2505564999883063,-
PB005M20,30,SQUARES,exp,45,17,True,4,-1,0,-,0.06724380000378005,-
PB005M20,31,SQUARES,exp,45,17,True,4,1,1,9,0.3672895000054268,-
PB005M20,32,SQUARES,exp,45,17,True,3,1,0,-,0.7838854000001447,-
PB005M20,33,SQUARES,exp,45,17,True,3,1,0,-,1.4005936000030488,-
PB005M20,34,SQUARES,exp,45,17,True,2,1,0,-,0.40055790000769775,-
PB005M20,35,SQUARES,exp,45,17,False,2,-1,1,10,1.1173380999971414,-
PB005M20,1,CIRCLES,training,45,17,True,20,-,-,-,0.050216700008604676,-
PB005M20,2,CIRCLES,training,45,17,True,20,-,-,-,1.3673604000068735,-
PB005M20,3,CIRCLES,training,45,17,True,20,-,-,-,0.8339391999907093,-
PB005M20,4,CIRCLES,training,45,17,True,20,-,-,-,0.7839582000015071,-
PB005M20,5,CIRCLES,training,45,17,False,20,-,-,-,0.5339227000076789,-
PB005M20,6,CIRCLES,training,45,17,True,20,-,-,-,0.6839629000023706,-
PB005M20,7,CIRCLES,training,45,17,True,20,-,-,-,0.46728019999864046,-
PB005M20,8,CIRCLES,training,45,17,True,20,-,-,-,0.35058070000377484,-
PB005M20,9,CIRCLES,training,45,17,True,20,-,-,-,0.3339503000024706,-
PB005M20,10,CIRCLES,training,45,17,True,20,-,-,-,0.3838735000026645,-
PB005M20,11,CIRCLES,training,45,17,True,10,-,-,-,0.40067059999273624,-
PB005M20,12,CIRCLES,training,45,17,True,10,-,-,-,0.4007702000089921,-
PB005M20,13,CIRCLES,training,45,17,True,10,-,-,-,0.3172962999960873,-
PB005M20,14,CIRCLES,training,45,17,True,10,-,-,-,0.33390900000813417,-
PB005M20,15,CIRCLES,training,45,17,True,10,-,-,-,0.46726970000599977,-
PB005M20,16,CIRCLES,training,45,17,True,10,-,-,-,0.3506634000077611,-
PB005M20,17,CIRCLES,training,45,17,True,10,-,-,-,0.30064309999579564,-
PB005M20,18,CIRCLES,training,45,17,True,10,-,-,-,0.4506009000033373,-
PB005M20,19,CIRCLES,training,45,17,True,10,-,-,-,0.36686989999725483,-
PB005M20,20,CIRCLES,training,45,17,True,10,-,-,-,0.36718699999619275,-
PB005M20,1,CIRCLES,exp,45,17,True,10,0,0,0,0.41678259999025613,-
PB005M20,2,CIRCLES,exp,45,17,True,10,1,0,-,0.30062290000205394,-
PB005M20,3,CIRCLES,exp,45,17,True,9,1,0,-,0.367247000001953,-
PB005M20,4,CIRCLES,exp,45,17,True,9,1,0,-,0.7339748999947915,-
PB005M20,5,CIRCLES,exp,45,17,True,8,1,0,-,0.4671832000021823,-
PB005M20,6,CIRCLES,exp,45,17,True,8,1,0,-,0.2172873000090476,-
PB005M20,7,CIRCLES,exp,45,17,True,7,1,0,-,0.3338882000098238,-
PB005M20,8,CIRCLES,exp,45,17,True,7,1,0,-,0.4838506999949459,-
PB005M20,9,CIRCLES,exp,45,17,False,6,-1,1,1,0.30061079999723006,-
PB005M20,10,CIRCLES,exp,45,17,True,7,-1,0,-,0.11729610001202673,-
PB005M20,11,CIRCLES,exp,45,17,True,7,1,1,2,0.033935299987206236,-
PB005M20,12,CIRCLES,exp,45,17,True,6,1,0,-,0.2671002999995835,-
PB005M20,13,CIRCLES,exp,45,17,True,6,1,0,-,0.35056900000199676,-
PB005M20,14,CIRCLES,exp,45,17,True,5,1,0,-,0.2838835000002291,-
PB005M20,15,CIRCLES,exp,45,17,False,5,-1,1,3,0.5506402000028174,-
PB005M20,16,CIRCLES,exp,45,17,False,6,-1,0,-,0.3670356000075117,-
PB005M20,17,CIRCLES,exp,45,17,True,7,-1,0,-,0.25043050000385847,-
PB005M20,18,CIRCLES,exp,45,17,True,7,1,1,4,0.2839326999965124,-
PB005M20,19,CIRCLES,exp,45,17,False,6,-1,1,5,0.4673007000092184,-
PB005M20,20,CIRCLES,exp,45,17,True,7,-1,0,-,0.2834889000077965,-
PB005M20,21,CIRCLES,exp,45,17,True,7,1,1,6,0.2506128999957582,-
PB005M20,22,CIRCLES,exp,45,17,True,6,1,0,-,0.2672947999963071,-
PB005M20,23,CIRCLES,exp,45,17,True,6,1,0,-,0.2838301999872783,-
PB005M20,24,CIRCLES,exp,45,17,True,5,1,0,-,0.35058379999827594,-
PB005M20,25,CIRCLES,exp,45,17,True,5,1,0,-,0.28392339999845717,-
PB005M20,26,CIRCLES,exp,45,17,True,4,1,0,-,0.2671822999982396,-
PB005M20,27,CIRCLES,exp,45,17,True,4,1,0,-,0.6339717999944696,-
PB005M20,28,CIRCLES,exp,45,17,False,3,-1,1,7,0.9839321000035852,-
PB005M20,29,CIRCLES,exp,45,17,True,4,-1,0,-,0.6005995000014082,-
PB005M20,30,CIRCLES,exp,45,17,True,4,1,1,8,0.4505885999969905,-
PB005M20,31,CIRCLES,exp,45,17,True,3,1,0,-,0.31736450000607874,-
PB005M20,32,CIRCLES,exp,45,17,True,3,1,0,-,0.26728740001271944,-
PB005M20,33,CIRCLES,exp,45,17,True,2,1,0,-,0.2501932000013767,-
PB005M20,34,CIRCLES,exp,45,17,True,2,1,0,-,0.20055860000138637,-
PB005M20,35,CIRCLES,exp,45,17,True,1,1,0,-,0.5506194999907166,-
PB005M20,36,CIRCLES,exp,45,17,True,1,1,0,-,1.2169180000055349,-
PB005M20,37,CIRCLES,exp,45,17,True,0,1,0,-,0.3838187000073958,-
PB005M20,38,CIRCLES,exp,45,17,False,0,-1,1,9,0.7341282999987016,-
PB005M20,39,CIRCLES,exp,45,17,True,1,-1,0,-,0.8673112999967998,-
PB005M20,40,CIRCLES,exp,45,17,True,1,1,1,10,0.2505665999924531,-
