PART_ID,Trial,Stimuli,Training,FIXTIME,MTIME,Correct,SOA,Level,Reversal,Reversal_count,Latency,Rating
PB004K20,1,SQUARES,training,45,17,False,12,-,-,-,1.0842910000064876,-
PB004K20,2,SQUARES,training,45,17,True,12,-,-,-,0.15078969999740366,-
PB004K20,3,SQUARES,training,45,17,True,12,-,-,-,1.6841738000075566,-
PB004K20,4,SQUARES,training,45,17,True,12,-,-,-,0.4513911999965785,-
PB004K20,5,SQUARES,training,45,17,True,12,-,-,-,0.4502171000058297,-
PB004K20,6,SQUARES,training,45,17,True,12,-,-,-,0.26747489999979734,-
PB004K20,7,SQUARES,training,45,17,True,12,-,-,-,0.4006802000076277,-
PB004K20,8,SQUARES,training,45,17,True,12,-,-,-,0.7004183000099147,-
PB004K20,9,SQUARES,training,45,17,True,12,-,-,-,0.6171004000061657,-
PB004K20,10,SQUARES,training,45,17,True,12,-,-,-,0.4841436999995494,-
PB004K20,11,SQUARES,training,45,17,True,6,-,-,-,0.5507512999902247,-
PB004K20,12,SQUARES,training,45,17,True,6,-,-,-,0.5672060000069905,-
PB004K20,13,SQUARES,training,45,17,True,6,-,-,-,0.6013735000015004,-
PB004K20,14,SQUARES,training,45,17,True,6,-,-,-,0.7508474000060232,-
PB004K20,15,SQUARES,training,45,17,True,6,-,-,-,0.5168833999923663,-
PB004K20,16,SQUARES,training,45,17,True,6,-,-,-,0.4005077000038,-
PB004K20,17,SQUARES,training,45,17,True,6,-,-,-,0.3174525999929756,-
PB004K20,18,SQUARES,training,45,17,True,6,-,-,-,0.3337238999956753,-
PB004K20,19,SQUARES,training,45,17,True,6,-,-,-,0.4673880000045756,-
PB004K20,20,SQUARES,training,45,17,True,6,-,-,-,0.4342068000114523,-
PB004K20,1,SQUARES,exp,45,17,True,6,0,0,0,0.4174709999933839,-
PB004K20,2,SQUARES,exp,45,17,True,6,1,0,-,0.3506180999975186,-
PB004K20,3,SQUARES,exp,45,17,True,5,1,0,-,0.4340648999932455,-
PB004K20,4,SQUARES,exp,45,17,True,5,1,0,-,0.4671531999920262,-
PB004K20,5,SQUARES,exp,45,17,True,4,1,0,-,0.5002021999971475,-
PB004K20,6,SQUARES,exp,45,17,True,4,1,0,-,0.6671760999888647,-
PB004K20,7,SQUARES,exp,45,17,True,3,1,0,-,0.6174740999995265,-
PB004K20,8,SQUARES,exp,45,17,True,3,1,0,-,0.4672063999896636,-
PB004K20,9,SQUARES,exp,45,17,True,2,1,0,-,0.9174921999947401,-
PB004K20,10,SQUARES,exp,45,17,True,2,1,0,-,0.7837826000031782,-
PB004K20,11,SQUARES,exp,45,17,False,1,-1,1,1,0.6009139000088908,-
PB004K20,12,SQUARES,exp,45,17,True,2,-1,0,-,0.36714390000270214,-
PB004K20,13,SQUARES,exp,45,17,True,2,1,1,2,0.41738929999701213,-
PB004K20,14,SQUARES,exp,45,17,False,1,-1,1,3,0.6006972000031965,-
PB004K20,15,SQUARES,exp,45,17,True,2,-1,0,-,0.4006002999958582,-
PB004K20,16,SQUARES,exp,45,17,True,2,1,1,4,0.5506768000050215,-
PB004K20,17,SQUARES,exp,45,17,False,1,-1,1,5,0.4338807000021916,-
PB004K20,18,SQUARES,exp,45,17,True,2,-1,0,-,0.534025400003884,-
PB004K20,19,SQUARES,exp,45,17,True,2,1,1,6,0.46744089999992866,-
PB004K20,20,SQUARES,exp,45,17,True,1,1,0,-,0.8340798999997787,-
PB004K20,21,SQUARES,exp,45,17,True,1,1,0,-,0.4505363999924157,-
PB004K20,22,SQUARES,exp,45,17,True,0,1,0,-,1.1005698000080884,-
PB004K20,23,SQUARES,exp,45,17,False,0,-1,1,7,0.8507362000091234,-
PB004K20,24,SQUARES,exp,45,17,False,1,-1,0,-,0.9668940000119619,-
PB004K20,25,SQUARES,exp,45,17,False,2,-1,0,-,0.6173246999969706,-
PB004K20,26,SQUARES,exp,45,17,False,3,-1,0,-,0.9174379000032786,-
PB004K20,27,SQUARES,exp,45,17,False,4,-1,0,-,1.234060300004785,-
PB004K20,28,SQUARES,exp,45,17,True,5,-1,0,-,0.9340702000044985,-
PB004K20,29,SQUARES,exp,45,17,False,5,-1,0,-,0.8674300999991829,-
PB004K20,30,SQUARES,exp,45,17,True,6,-1,0,-,0.4173787999898195,-
PB004K20,31,SQUARES,exp,45,17,True,6,1,1,8,0.4344803999993019,-
PB004K20,32,SQUARES,exp,45,17,True,5,1,0,-,0.7506301999965217,-
PB004K20,33,SQUARES,exp,45,17,True,5,1,0,-,0.4674483999988297,-
PB004K20,34,SQUARES,exp,45,17,True,4,1,0,-,0.6835522000037599,-
PB004K20,35,SQUARES,exp,45,17,True,4,1,0,-,0.3840033000014955,-
PB004K20,36,SQUARES,exp,45,17,True,3,1,0,-,0.6005217000056291,-
PB004K20,37,SQUARES,exp,45,17,False,3,-1,1,9,0.8002599000028567,-
PB004K20,38,SQUARES,exp,45,17,True,4,-1,0,-,0.350731899990933,-
PB004K20,39,SQUARES,exp,45,17,True,4,1,1,10,0.40044559999660123,-
PB004K20,1,CIRCLES,training,45,17,True,20,-,-,-,0.23407269999734126,-
PB004K20,2,CIRCLES,training,45,17,True,20,-,-,-,0.11740970000391826,-
PB004K20,3,CIRCLES,training,45,17,True,20,-,-,-,1.6173349000018789,-
PB004K20,4,CIRCLES,training,45,17,True,20,-,-,-,0.00019109999993816018,-
PB004K20,5,CIRCLES,training,45,17,True,20,-,-,-,1.0675050999998348,-
PB004K20,6,CIRCLES,training,45,17,True,20,-,-,-,0.7173366999923019,-
PB004K20,7,CIRCLES,training,45,17,True,20,-,-,-,0.4006290999968769,-
PB004K20,8,CIRCLES,training,45,17,True,20,-,-,-,1.1340655000094557,-
PB004K20,9,CIRCLES,training,45,17,True,20,-,-,-,0.4165114000061294,-
PB004K20,10,CIRCLES,training,45,17,True,20,-,-,-,0.13390319999598432,-
PB004K20,11,CIRCLES,training,45,17,False,10,-,-,-,0.8837043999956222,-
PB004K20,12,CIRCLES,training,45,17,True,10,-,-,-,0.11748670000815764,-
PB004K20,13,CIRCLES,training,45,17,True,10,-,-,-,0.250713800007361,-
PB004K20,14,CIRCLES,training,45,17,True,10,-,-,-,0.2172902000020258,-
PB004K20,15,CIRCLES,training,45,17,True,10,-,-,-,0.11744099999486934,-
PB004K20,16,CIRCLES,training,45,17,True,10,-,-,-,0.25069210000219755,-
PB004K20,17,CIRCLES,training,45,17,True,10,-,-,-,0.11735500000941101,-
PB004K20,18,CIRCLES,training,45,17,True,10,-,-,-,0.08410240001103375,-
PB004K20,19,CIRCLES,training,45,17,True,10,-,-,-,0.1339834999962477,-
PB004K20,20,CIRCLES,training,45,17,True,10,-,-,-,0.11738429999968503,-
PB004K20,1,CIRCLES,exp,45,17,True,10,0,0,0,0.15143289999105036,-
PB004K20,2,CIRCLES,exp,45,17,True,10,1,0,-,0.33401839999714866,-
PB004K20,3,CIRCLES,exp,45,17,True,9,1,0,-,0.3007069000013871,-
PB004K20,4,CIRCLES,exp,45,17,True,9,1,0,-,0.3341050000017276,-
PB004K20,5,CIRCLES,exp,45,17,True,8,1,0,-,0.41729169999598525,-
PB004K20,6,CIRCLES,exp,45,17,True,8,1,0,-,0.18459100001200568,-
PB004K20,7,CIRCLES,exp,45,17,True,7,1,0,-,0.317675500002224,-
PB004K20,8,CIRCLES,exp,45,17,True,7,1,0,-,0.33424599999852944,-
PB004K20,9,CIRCLES,exp,45,17,True,6,1,0,-,0.23386659999960102,-
PB004K20,10,CIRCLES,exp,45,17,True,6,1,0,-,0.18415630000527017,-
PB004K20,11,CIRCLES,exp,45,17,True,5,1,0,-,0.3340848000079859,-
PB004K20,12,CIRCLES,exp,45,17,True,5,1,0,-,0.28401029999076854,-
PB004K20,13,CIRCLES,exp,45,17,True,4,1,0,-,0.317573899999843,-
PB004K20,14,CIRCLES,exp,45,17,True,4,1,0,-,0.3004664000036428,-
PB004K20,15,CIRCLES,exp,45,17,True,3,1,0,-,0.7006859999964945,-
PB004K20,16,CIRCLES,exp,45,17,True,3,1,0,-,0.35026680000009947,-
PB004K20,17,CIRCLES,exp,45,17,True,2,1,0,-,0.7676640000136103,-
PB004K20,18,CIRCLES,exp,45,17,True,2,1,0,-,0.33403939999698196,-
PB004K20,19,CIRCLES,exp,45,17,True,1,1,0,-,0.7173693999939132,-
PB004K20,20,CIRCLES,exp,45,17,True,1,1,0,-,0.8171621999936178,-
PB004K20,21,CIRCLES,exp,45,17,False,0,-1,1,1,1.0007577000069432,-
PB004K20,22,CIRCLES,exp,45,17,True,1,-1,0,-,0.5341420999902766,-
PB004K20,23,CIRCLES,exp,45,17,False,1,-1,0,-,0.6507081000017934,-
PB004K20,24,CIRCLES,exp,45,17,True,2,-1,0,-,0.35033190000103787,-
PB004K20,25,CIRCLES,exp,45,17,True,2,1,1,2,0.6004174999980023,-
PB004K20,26,CIRCLES,exp,45,17,False,1,-1,1,3,0.41746900000725873,-
PB004K20,27,CIRCLES,exp,45,17,True,2,-1,0,-,0.6173841999989236,-
PB004K20,28,CIRCLES,exp,45,17,False,2,-1,0,-,0.5006015999970259,-
PB004K20,29,CIRCLES,exp,45,17,True,3,-1,0,-,0.7340027000027476,-
PB004K20,30,CIRCLES,exp,45,17,True,3,1,1,4,0.3504514999949606,-
PB004K20,31,CIRCLES,exp,45,17,True,2,1,0,-,0.5000848999916343,-
PB004K20,32,CIRCLES,exp,45,17,True,2,1,0,-,0.3173897999949986,-
PB004K20,33,CIRCLES,exp,45,17,False,1,-1,1,5,0.5002218000008725,-
PB004K20,34,CIRCLES,exp,45,17,True,2,-1,0,-,0.4672993999993196,-
PB004K20,35,CIRCLES,exp,45,17,True,2,1,1,6,1.0507964999997057,-
PB004K20,36,CIRCLES,exp,45,17,True,1,1,0,-,0.5006602000066778,-
PB004K20,37,CIRCLES,exp,45,17,True,1,1,0,-,0.35069590000784956,-
PB004K20,38,CIRCLES,exp,45,17,False,0,-1,1,7,0.5339976999966893,-
PB004K20,39,CIRCLES,exp,45,17,True,1,-1,0,-,0.21743980000610463,-
PB004K20,40,CIRCLES,exp,45,17,False,1,-1,0,-,0.5006711000023643,-
PB004K20,41,CIRCLES,exp,45,17,True,2,-1,0,-,0.3339457999973092,-
PB004K20,42,CIRCLES,exp,45,17,False,2,-1,0,-,0.2668809000024339,-
PB004K20,43,CIRCLES,exp,45,17,False,3,-1,0,-,0.21672169999510515,-
PB004K20,44,CIRCLES,exp,45,17,True,4,-1,0,-,0.11821610000333749,-
PB004K20,45,CIRCLES,exp,45,17,True,4,1,1,8,0.18411899999773595,-
PB004K20,46,CIRCLES,exp,45,17,True,3,1,0,-,0.8008284999959869,-
PB004K20,47,CIRCLES,exp,45,17,True,3,1,0,-,0.2507699000125285,-
PB004K20,48,CIRCLES,exp,45,17,False,2,-1,1,9,0.3673460999998497,-
PB004K20,49,CIRCLES,exp,45,17,True,3,-1,0,-,0.2842918000096688,-
PB004K20,50,CIRCLES,exp,45,17,False,3,-1,0,-,0.36733490000187885,-
PB004K20,51,CIRCLES,exp,45,17,True,4,-1,0,-,0.26737600000342354,-
PB004K20,52,CIRCLES,exp,45,17,False,4,-1,0,-,0.333826100002625,-
PB004K20,53,CIRCLES,exp,45,17,True,5,-1,0,-,0.21721819999220315,-
PB004K20,54,CIRCLES,exp,45,17,True,5,1,1,10,0.33416159999615047,-
