PART_ID,Trial,Stimuli,Training,FIXTIME,MTIME,Correct,SOA,Level,Reversal,Reversal_count,Latency,Rating
PB017K26,1,SQUARES,training,45,17,True,12,-,-,-,1.1006138999946415,-
PB017K26,2,SQUARES,training,45,17,True,12,-,-,-,0.3005391999904532,-
PB017K26,3,SQUARES,training,45,17,True,12,-,-,-,0.0006486999918706715,-
PB017K26,4,SQUARES,training,45,17,True,12,-,-,-,0.017623299994738773,-
PB017K26,5,SQUARES,training,45,17,True,12,-,-,-,0.0009640999778639525,-
PB017K26,6,SQUARES,training,45,17,True,12,-,-,-,1.784129200008465,-
PB017K26,7,SQUARES,training,45,17,True,12,-,-,-,0.03405319998273626,-
PB017K26,8,SQUARES,training,45,17,True,12,-,-,-,0.050667100003920496,-
PB017K26,9,SQUARES,training,45,17,True,12,-,-,-,0.11739060000400059,-
PB017K26,10,SQUARES,training,45,17,True,12,-,-,-,1.1340663000009954,-
PB017K26,11,SQUARES,training,45,17,True,6,-,-,-,0.4839483999821823,-
PB017K26,12,SQUARES,training,45,17,True,6,-,-,-,0.28418109999620356,-
PB017K26,13,SQUARES,training,45,17,True,6,-,-,-,0.05057180000585504,-
PB017K26,14,SQUARES,training,45,17,True,6,-,-,-,0.2172734999912791,-
PB017K26,15,SQUARES,training,45,17,True,6,-,-,-,0.06776560001890175,-
PB017K26,16,SQUARES,training,45,17,True,6,-,-,-,0.06766729999799281,-
PB017K26,17,SQUARES,training,45,17,True,6,-,-,-,0.1840675999992527,-
PB017K26,18,SQUARES,training,45,17,True,6,-,-,-,0.08354400002281182,-
PB017K26,19,SQUARES,training,45,17,True,6,-,-,-,0.05097020001267083,-
PB017K26,20,SQUARES,training,45,17,True,6,-,-,-,0.06738990001031198,-
PB017K26,1,SQUARES,exp,45,17,True,6,0,0,0,0.033544200006872416,-
PB017K26,2,SQUARES,exp,45,17,True,6,1,0,-,0.017530700017232448,-
PB017K26,3,SQUARES,exp,45,17,True,5,1,0,-,0.017421399999875575,-
PB017K26,4,SQUARES,exp,45,17,True,5,1,0,-,0.0006137000164017081,-
PB017K26,5,SQUARES,exp,45,17,True,4,1,0,-,0.05073029999039136,-
PB017K26,6,SQUARES,exp,45,17,True,4,1,0,-,0.1008371000061743,-
PB017K26,7,SQUARES,exp,45,17,True,3,1,0,-,0.0507655999972485,-
PB017K26,8,SQUARES,exp,45,17,True,3,1,0,-,0.10120999999344349,-
PB017K26,9,SQUARES,exp,45,17,True,2,1,0,-,0.08385589998215437,-
PB017K26,10,SQUARES,exp,45,17,True,2,1,0,-,0.16744069999549538,-
PB017K26,11,SQUARES,exp,45,17,False,1,-1,1,1,0.10081259999424219,-
PB017K26,12,SQUARES,exp,45,17,True,2,-1,0,-,0.10021609999239445,-
PB017K26,13,SQUARES,exp,45,17,True,2,1,1,2,0.3342096999986097,-
PB017K26,14,SQUARES,exp,45,17,True,1,1,0,-,0.10064530000090599,-
PB017K26,15,SQUARES,exp,45,17,True,1,1,0,-,0.4010091999953147,-
PB017K26,16,SQUARES,exp,45,17,False,0,-1,1,3,0.9509396000066772,-
PB017K26,17,SQUARES,exp,45,17,True,1,-1,0,-,0.4007722999958787,-
PB017K26,18,SQUARES,exp,45,17,True,1,1,1,4,0.6345219000068028,-
PB017K26,19,SQUARES,exp,45,17,False,0,-1,1,5,1.0176912000169978,-
PB017K26,20,SQUARES,exp,45,17,True,1,-1,0,-,0.6506683999905363,-
PB017K26,21,SQUARES,exp,45,17,False,1,-1,0,-,0.5342204999760725,-
PB017K26,22,SQUARES,exp,45,17,True,2,-1,0,-,0.500323300017044,-
PB017K26,23,SQUARES,exp,45,17,True,2,1,1,6,0.2841115999908652,-
PB017K26,24,SQUARES,exp,45,17,False,1,-1,1,7,0.4841430000087712,-
PB017K26,25,SQUARES,exp,45,17,False,2,-1,0,-,0.6175130999763496,-
PB017K26,26,SQUARES,exp,45,17,False,3,-1,0,-,0.5836023000010755,-
PB017K26,27,SQUARES,exp,45,17,True,4,-1,0,-,0.3175009999831673,-
PB017K26,28,SQUARES,exp,45,17,True,4,1,1,8,0.2014729000220541,-
PB017K26,29,SQUARES,exp,45,17,True,3,1,0,-,0.2007140000059735,-
PB017K26,30,SQUARES,exp,45,17,True,3,1,0,-,0.3008352000033483,-
PB017K26,31,SQUARES,exp,45,17,False,2,-1,1,9,0.8678142999997362,-
PB017K26,32,SQUARES,exp,45,17,True,3,-1,0,-,0.2841648999892641,-
PB017K26,33,SQUARES,exp,45,17,True,3,1,1,10,0.9840718999912497,-
PB017K26,1,CIRCLES,training,45,17,True,20,-,-,-,1.1007727999822237,-
PB017K26,2,CIRCLES,training,45,17,True,20,-,-,-,0.816813400015235,-
PB017K26,3,CIRCLES,training,45,17,True,20,-,-,-,0.5508925000031013,-
PB017K26,4,CIRCLES,training,45,17,True,20,-,-,-,0.48411799999303184,-
PB017K26,5,CIRCLES,training,45,17,True,20,-,-,-,0.45067249998101033,-
PB017K26,6,CIRCLES,training,45,17,True,20,-,-,-,0.33408289999351837,-
PB017K26,7,CIRCLES,training,45,17,True,20,-,-,-,0.11744289999478497,-
PB017K26,8,CIRCLES,training,45,17,True,20,-,-,-,0.10073110001394525,-
PB017K26,9,CIRCLES,training,45,17,True,20,-,-,-,0.4673666000016965,-
PB017K26,10,CIRCLES,training,45,17,True,20,-,-,-,0.45087890001013875,-
PB017K26,11,CIRCLES,training,45,17,True,10,-,-,-,0.43418469998869114,-
PB017K26,12,CIRCLES,training,45,17,True,10,-,-,-,0.4010576000146102,-
PB017K26,13,CIRCLES,training,45,17,True,10,-,-,-,0.3840084000257775,-
PB017K26,14,CIRCLES,training,45,17,True,10,-,-,-,0.41739670000970364,-
PB017K26,15,CIRCLES,training,45,17,True,10,-,-,-,0.367404600023292,-
PB017K26,16,CIRCLES,training,45,17,True,10,-,-,-,0.3677682999987155,-
PB017K26,17,CIRCLES,training,45,17,True,10,-,-,-,0.3008339000225533,-
PB017K26,18,CIRCLES,training,45,17,True,10,-,-,-,0.2841875000158325,-
PB017K26,19,CIRCLES,training,45,17,True,10,-,-,-,0.3179253999842331,-
PB017K26,20,CIRCLES,training,45,17,True,10,-,-,-,0.03468769998289645,-
PB017K26,1,CIRCLES,exp,45,17,True,10,0,0,0,0.5012540000025183,-
PB017K26,2,CIRCLES,exp,45,17,True,10,1,0,-,0.4167771000065841,-
PB017K26,3,CIRCLES,exp,45,17,True,9,1,0,-,0.40025739997508936,-
PB017K26,4,CIRCLES,exp,45,17,True,9,1,0,-,0.4340284999925643,-
PB017K26,5,CIRCLES,exp,45,17,True,8,1,0,-,0.28394359999219887,-
PB017K26,6,CIRCLES,exp,45,17,True,8,1,0,-,0.35086420000880025,-
PB017K26,7,CIRCLES,exp,45,17,True,7,1,0,-,0.3840482000086922,-
PB017K26,8,CIRCLES,exp,45,17,True,7,1,0,-,0.35079029999906197,-
PB017K26,9,CIRCLES,exp,45,17,True,6,1,0,-,0.35071190001326613,-
PB017K26,10,CIRCLES,exp,45,17,True,6,1,0,-,0.33443529999931343,-
PB017K26,11,CIRCLES,exp,45,17,True,5,1,0,-,0.33389599999645725,-
PB017K26,12,CIRCLES,exp,45,17,True,5,1,0,-,0.35114270000485703,-
PB017K26,13,CIRCLES,exp,45,17,True,4,1,0,-,0.30071650000172667,-
PB017K26,14,CIRCLES,exp,45,17,True,4,1,0,-,0.36746160002076067,-
PB017K26,15,CIRCLES,exp,45,17,True,3,1,0,-,0.28399440000066534,-
PB017K26,16,CIRCLES,exp,45,17,True,3,1,0,-,0.30120529999840073,-
PB017K26,17,CIRCLES,exp,45,17,True,2,1,0,-,0.31757730001118034,-
PB017K26,18,CIRCLES,exp,45,17,True,2,1,0,-,0.21741440001642331,-
PB017K26,19,CIRCLES,exp,45,17,True,1,1,0,-,0.284003600012511,-
PB017K26,20,CIRCLES,exp,45,17,False,1,-1,1,1,0.2510797000140883,-
PB017K26,21,CIRCLES,exp,45,17,False,2,-1,0,-,0.6172375000023749,-
PB017K26,22,CIRCLES,exp,45,17,True,3,-1,0,-,0.21744810001109727,-
PB017K26,23,CIRCLES,exp,45,17,True,3,1,1,2,0.3007291000103578,-
PB017K26,24,CIRCLES,exp,45,17,True,2,1,0,-,0.35150900000007823,-
PB017K26,25,CIRCLES,exp,45,17,False,2,-1,1,3,0.384674000000814,-
PB017K26,26,CIRCLES,exp,45,17,True,3,-1,0,-,0.15089389999047853,-
PB017K26,27,CIRCLES,exp,45,17,True,3,1,1,4,0.2503191000141669,-
PB017K26,28,CIRCLES,exp,45,17,True,2,1,0,-,0.31749079999281093,-
PB017K26,29,CIRCLES,exp,45,17,False,2,-1,1,5,0.2507675999950152,-
PB017K26,30,CIRCLES,exp,45,17,True,3,-1,0,-,0.16761269999551587,-
PB017K26,31,CIRCLES,exp,45,17,True,3,1,1,6,0.16740649999701418,-
PB017K26,32,CIRCLES,exp,45,17,True,2,1,0,-,0.2005368000245653,-
PB017K26,33,CIRCLES,exp,45,17,False,2,-1,1,7,0.2174949999898672,-
PB017K26,34,CIRCLES,exp,45,17,True,3,-1,0,-,0.2174152000225149,-
PB017K26,35,CIRCLES,exp,45,17,True,3,1,1,8,0.11739010000019334,-
PB017K26,36,CIRCLES,exp,45,17,False,2,-1,1,9,0.30095589999109507,-
PB017K26,37,CIRCLES,exp,45,17,True,3,-1,0,-,0.15084329998353496,-
PB017K26,38,CIRCLES,exp,45,17,True,3,1,1,10,0.20038819999899715,-
