PART_ID,Trial,Stimuli,Training,FIXTIME,MTIME,Correct,SOA,Level,Reversal,Reversal_count,Latency,Rating
096M27,1,SQUARES,training,45,17,True,12,-,-,-,0.633491499999991,-
096M27,2,SQUARES,training,45,17,True,12,-,-,-,0.0504671999999573,-
096M27,3,SQUARES,training,45,17,True,12,-,-,-,1.3173155999998016,-
096M27,4,SQUARES,training,45,17,True,12,-,-,-,0.0005539999999655265,-
096M27,5,SQUARES,training,45,17,True,12,-,-,-,0.0006583000001683104,-
096M27,6,SQUARES,training,45,17,True,12,-,-,-,0.9507356999999956,-
096M27,7,SQUARES,training,45,17,True,12,-,-,-,0.01734289999990324,-
096M27,8,SQUARES,training,45,17,True,12,-,-,-,0.7008118999999624,-
096M27,9,SQUARES,training,45,17,True,12,-,-,-,0.5340335999999297,-
096M27,10,SQUARES,training,45,17,True,12,-,-,-,0.0005444000000807137,-
096M27,11,SQUARES,training,45,17,True,6,-,-,-,0.3037529999999151,-
096M27,12,SQUARES,training,45,17,True,6,-,-,-,0.417451999999912,-
096M27,13,SQUARES,training,45,17,True,6,-,-,-,0.21728880000000572,-
096M27,14,SQUARES,training,45,17,True,6,-,-,-,0.15054209999993873,-
096M27,15,SQUARES,training,45,17,True,6,-,-,-,0.03399149999995643,-
096M27,16,SQUARES,training,45,17,True,6,-,-,-,0.01688630000012381,-
096M27,17,SQUARES,training,45,17,True,6,-,-,-,0.15072630000008758,-
096M27,18,SQUARES,training,45,17,True,6,-,-,-,0.06717849999995451,-
096M27,19,SQUARES,training,45,17,True,6,-,-,-,0.0008187999999336171,-
096M27,20,SQUARES,training,45,17,True,6,-,-,-,0.017381600000135222,-
096M27,1,SQUARES,exp,45,17,True,6,0,0,0,0.0009242000000995176,-
096M27,2,SQUARES,exp,45,17,True,6,1,0,-,0.0006424000000606611,-
096M27,3,SQUARES,exp,45,17,True,5,1,0,-,0.6004805000000033,-
096M27,4,SQUARES,exp,45,17,True,5,1,0,-,0.5005859000000328,-
096M27,5,SQUARES,exp,45,17,True,4,1,0,-,0.08384730000011587,-
096M27,6,SQUARES,exp,45,17,True,4,1,0,-,0.03380960000004052,-
096M27,7,SQUARES,exp,45,17,True,3,1,0,-,0.06730949999996483,-
096M27,8,SQUARES,exp,45,17,True,3,1,0,-,0.06719060000000354,-
096M27,9,SQUARES,exp,45,17,True,2,1,0,-,0.13391359999991437,-
096M27,10,SQUARES,exp,45,17,True,2,1,0,-,0.15071339999985867,-
096M27,11,SQUARES,exp,45,17,False,1,-1,1,1,0.1335689000000002,-
096M27,12,SQUARES,exp,45,17,True,2,-1,0,-,0.10068010000009053,-
096M27,13,SQUARES,exp,45,17,False,2,-1,0,-,0.28405580000003283,-
096M27,14,SQUARES,exp,45,17,True,3,-1,0,-,0.23374600000011014,-
096M27,15,SQUARES,exp,45,17,True,3,1,1,2,0.06731749999994463,-
096M27,16,SQUARES,exp,45,17,True,2,1,0,-,0.10071500000003653,-
096M27,17,SQUARES,exp,45,17,False,2,-1,1,3,0.2843956000001526,-
096M27,18,SQUARES,exp,45,17,True,3,-1,0,-,0.25005620000001727,-
096M27,19,SQUARES,exp,45,17,True,3,1,1,4,0.1334526000000551,-
096M27,20,SQUARES,exp,45,17,True,2,1,0,-,0.13365270000008422,-
096M27,21,SQUARES,exp,45,17,True,2,1,0,-,0.03414929999985361,-
096M27,22,SQUARES,exp,45,17,False,1,-1,1,5,0.250424300000077,-
096M27,23,SQUARES,exp,45,17,False,2,-1,0,-,0.08386110000014924,-
096M27,24,SQUARES,exp,45,17,True,3,-1,0,-,0.11715290000006462,-
096M27,25,SQUARES,exp,45,17,True,3,1,1,6,0.01720759999989241,-
096M27,26,SQUARES,exp,45,17,True,2,1,0,-,0.0006207999999787717,-
096M27,27,SQUARES,exp,45,17,True,2,1,0,-,1.0505765000000338,-
096M27,28,SQUARES,exp,45,17,False,1,-1,1,7,0.30064900000002126,-
096M27,29,SQUARES,exp,45,17,True,2,-1,0,-,0.11718289999998888,-
096M27,30,SQUARES,exp,45,17,True,2,1,1,8,0.08384720000003654,-
096M27,31,SQUARES,exp,45,17,True,1,1,0,-,0.016929500000060216,-
096M27,32,SQUARES,exp,45,17,False,1,-1,1,9,0.050439200000027995,-
096M27,33,SQUARES,exp,45,17,True,2,-1,0,-,0.5674495000000661,-
096M27,34,SQUARES,exp,45,17,False,2,-1,0,-,0.45038469999985864,-
096M27,35,SQUARES,exp,45,17,True,3,-1,0,-,0.21736570000007305,-
096M27,36,SQUARES,exp,45,17,True,3,1,1,10,0.08396259999994982,-
096M27,1,CIRCLES,training,45,17,True,20,-,-,-,0.05057229999988522,-
096M27,2,CIRCLES,training,45,17,True,20,-,-,-,0.6007471000000351,-
096M27,3,CIRCLES,training,45,17,True,20,-,-,-,0.16725769999993645,-
096M27,4,CIRCLES,training,45,17,True,20,-,-,-,0.46734300000002804,-
096M27,5,CIRCLES,training,45,17,True,20,-,-,-,0.35078199999998105,-
096M27,6,CIRCLES,training,45,17,True,20,-,-,-,0.23396539999998822,-
096M27,7,CIRCLES,training,45,17,True,20,-,-,-,0.2504846000001635,-
096M27,8,CIRCLES,training,45,17,True,20,-,-,-,0.25002870000002986,-
096M27,9,CIRCLES,training,45,17,True,20,-,-,-,0.2003560999999081,-
096M27,10,CIRCLES,training,45,17,True,20,-,-,-,0.1835198000001128,-
096M27,11,CIRCLES,training,45,17,True,10,-,-,-,0.10063270000000557,-
096M27,12,CIRCLES,training,45,17,True,10,-,-,-,0.26724460000014005,-
096M27,13,CIRCLES,training,45,17,True,10,-,-,-,0.21746429999984684,-
096M27,14,CIRCLES,training,45,17,True,10,-,-,-,0.23397030000000996,-
096M27,15,CIRCLES,training,45,17,True,10,-,-,-,0.28387930000008055,-
096M27,16,CIRCLES,training,45,17,True,10,-,-,-,0.3340648999999303,-
096M27,17,CIRCLES,training,45,17,True,10,-,-,-,0.25050659999988056,-
096M27,18,CIRCLES,training,45,17,True,10,-,-,-,0.21722900000031586,-
096M27,19,CIRCLES,training,45,17,True,10,-,-,-,0.21726370000033057,-
096M27,20,CIRCLES,training,45,17,True,10,-,-,-,0.11729399999967427,-
096M27,1,CIRCLES,exp,45,17,True,10,0,0,0,0.650572700000339,-
096M27,2,CIRCLES,exp,45,17,True,10,1,0,-,0.3836952999999994,-
096M27,3,CIRCLES,exp,45,17,True,9,1,0,-,0.2670290999999452,-
096M27,4,CIRCLES,exp,45,17,True,9,1,0,-,0.20039900000028865,-
096M27,5,CIRCLES,exp,45,17,True,8,1,0,-,0.2339655999999195,-
096M27,6,CIRCLES,exp,45,17,True,8,1,0,-,0.2505163000000721,-
096M27,7,CIRCLES,exp,45,17,True,7,1,0,-,0.11721289999968576,-
096M27,8,CIRCLES,exp,45,17,True,7,1,0,-,0.23353279999992083,-
096M27,9,CIRCLES,exp,45,17,True,6,1,0,-,0.2506745000000592,-
096M27,10,CIRCLES,exp,45,17,True,6,1,0,-,0.11703320000015083,-
096M27,11,CIRCLES,exp,45,17,True,5,1,0,-,0.05061440000008588,-
096M27,12,CIRCLES,exp,45,17,True,5,1,0,-,0.2171771000002991,-
096M27,13,CIRCLES,exp,45,17,True,4,1,0,-,0.2006893999996464,-
096M27,14,CIRCLES,exp,45,17,True,4,1,0,-,0.2666420999998991,-
096M27,15,CIRCLES,exp,45,17,True,3,1,0,-,0.23400760000004084,-
096M27,16,CIRCLES,exp,45,17,True,3,1,0,-,0.2838323000000855,-
096M27,17,CIRCLES,exp,45,17,True,2,1,0,-,0.250473200000215,-
096M27,18,CIRCLES,exp,45,17,False,2,-1,1,1,0.10048190000043178,-
096M27,19,CIRCLES,exp,45,17,True,3,-1,0,-,0.20073409999986325,-
096M27,20,CIRCLES,exp,45,17,True,3,1,1,2,0.2006239000002097,-
096M27,21,CIRCLES,exp,45,17,True,2,1,0,-,0.2672888000001876,-
096M27,22,CIRCLES,exp,45,17,True,2,1,0,-,0.2503931000001103,-
096M27,23,CIRCLES,exp,45,17,True,1,1,0,-,0.13388560000021243,-
096M27,24,CIRCLES,exp,45,17,False,1,-1,1,3,0.050904300000183866,-
096M27,25,CIRCLES,exp,45,17,True,2,-1,0,-,0.10060790000034103,-
096M27,26,CIRCLES,exp,45,17,True,2,1,1,4,0.050509600000168575,-
096M27,27,CIRCLES,exp,45,17,False,1,-1,1,5,0.05038590000003751,-
096M27,28,CIRCLES,exp,45,17,True,2,-1,0,-,0.033947299999908864,-
096M27,29,CIRCLES,exp,45,17,True,2,1,1,6,1.067338099999688,-
096M27,30,CIRCLES,exp,45,17,True,1,1,0,-,0.15050190000010844,-
096M27,31,CIRCLES,exp,45,17,False,1,-1,1,7,1.4838878999998997,-
096M27,32,CIRCLES,exp,45,17,True,2,-1,0,-,0.2172101000001021,-
096M27,33,CIRCLES,exp,45,17,True,2,1,1,8,0.3172762999997758,-
096M27,34,CIRCLES,exp,45,17,False,1,-1,1,9,0.134081800000331,-
096M27,35,CIRCLES,exp,45,17,True,2,-1,0,-,2.017393600000105,-
096M27,36,CIRCLES,exp,45,17,False,2,-1,0,-,0.3506526000001031,-
096M27,37,CIRCLES,exp,45,17,False,3,-1,0,-,1.3007197000001725,-
096M27,38,CIRCLES,exp,45,17,True,4,-1,0,-,0.10048179999967033,-
096M27,39,CIRCLES,exp,45,17,True,4,1,1,10,0.5006425999999919,-
