PART_ID,Trial,Stimuli,Training,FIXTIME,MTIME,Correct,SOA,Level,Reversal,Reversal_count,Latency,Rating
119K24,1,SQUARES,training,45,17,False,12,-,-,-,-1.0,-
119K24,2,SQUARES,training,45,17,True,12,-,-,-,1.3162811999209225,-
119K24,3,SQUARES,training,45,17,True,12,-,-,-,0.20036769984290004,-
119K24,4,SQUARES,training,45,17,True,12,-,-,-,0.08400820009410381,-
119K24,5,SQUARES,training,45,17,False,12,-,-,-,-1.0,-
119K24,6,SQUARES,training,45,17,True,12,-,-,-,0.05072239995934069,-
119K24,7,SQUARES,training,45,17,True,12,-,-,-,0.03386510000564158,-
119K24,8,SQUARES,training,45,17,True,12,-,-,-,2.4675493000540882,-
119K24,9,SQUARES,training,45,17,True,12,-,-,-,0.0005765999667346478,-
119K24,10,SQUARES,training,45,17,False,12,-,-,-,-1.0,-
119K24,11,SQUARES,training,45,17,True,6,-,-,-,0.36713999998755753,-
119K24,12,SQUARES,training,45,17,False,6,-,-,-,0.250176299829036,-
119K24,13,SQUARES,training,45,17,True,6,-,-,-,0.2006887998431921,-
119K24,14,SQUARES,training,45,17,True,6,-,-,-,0.10066560003906488,-
119K24,15,SQUARES,training,45,17,True,6,-,-,-,0.0339389001019299,-
119K24,16,SQUARES,training,45,17,True,6,-,-,-,0.40060939989052713,-
119K24,17,SQUARES,training,45,17,True,6,-,-,-,0.13401219993829727,-
119K24,18,SQUARES,training,45,17,True,6,-,-,-,0.050655300030484796,-
119K24,19,SQUARES,training,45,17,True,6,-,-,-,0.11731580016203225,-
119K24,20,SQUARES,training,45,17,True,6,-,-,-,0.0840102001093328,-
119K24,1,SQUARES,exp,45,17,True,6,0,0,0,0.41699060006067157,-
119K24,2,SQUARES,exp,45,17,True,6,1,0,-,0.08397009992040694,-
119K24,3,SQUARES,exp,45,17,True,5,1,0,-,0.36746959993615746,-
119K24,4,SQUARES,exp,45,17,True,5,1,0,-,0.7006602000910789,-
119K24,5,SQUARES,exp,45,17,True,4,1,0,-,0.43391559994779527,-
119K24,6,SQUARES,exp,45,17,False,4,-1,1,1,0.36732239997945726,-
119K24,7,SQUARES,exp,45,17,True,5,-1,0,-,0.500533499987796,-
119K24,8,SQUARES,exp,45,17,True,5,1,1,2,1.23397529986687,-
119K24,9,SQUARES,exp,45,17,True,4,1,0,-,0.4832828000653535,-
119K24,10,SQUARES,exp,45,17,True,4,1,0,-,0.4168845999520272,-
119K24,11,SQUARES,exp,45,17,True,3,1,0,-,0.36671780003234744,-
119K24,12,SQUARES,exp,45,17,False,3,-1,1,3,0.6506382001098245,-
119K24,13,SQUARES,exp,45,17,True,4,-1,0,-,0.41756380000151694,-
119K24,14,SQUARES,exp,45,17,False,4,-1,0,-,1.7839537998661399,-
119K24,15,SQUARES,exp,45,17,False,5,-1,0,-,0.7007767998147756,-
119K24,16,SQUARES,exp,45,17,True,6,-1,0,-,0.23381290002726018,-
119K24,17,SQUARES,exp,45,17,False,6,-1,0,-,0.5006292001344264,-
119K24,18,SQUARES,exp,45,17,True,7,-1,0,-,0.667313699843362,-
119K24,19,SQUARES,exp,45,17,True,7,1,1,4,0.3673006999306381,-
119K24,20,SQUARES,exp,45,17,True,6,1,0,-,0.36732150008901954,-
119K24,21,SQUARES,exp,45,17,True,6,1,0,-,0.2172209001146257,-
119K24,22,SQUARES,exp,45,17,True,5,1,0,-,0.30069039994850755,-
119K24,23,SQUARES,exp,45,17,True,5,1,0,-,0.8170330000575632,-
119K24,24,SQUARES,exp,45,17,False,4,-1,1,5,1.0673563999589533,-
119K24,25,SQUARES,exp,45,17,True,5,-1,0,-,1.4002425000071526,-
119K24,26,SQUARES,exp,45,17,True,5,1,1,6,0.333913299953565,-
119K24,27,SQUARES,exp,45,17,True,4,1,0,-,0.45087620010599494,-
119K24,28,SQUARES,exp,45,17,False,4,-1,1,7,0.4173323998693377,-
119K24,29,SQUARES,exp,45,17,False,5,-1,0,-,0.5006119001191109,-
119K24,30,SQUARES,exp,45,17,True,6,-1,0,-,0.5173564001452178,-
119K24,31,SQUARES,exp,45,17,False,6,-1,0,-,0.4673156999051571,-
119K24,32,SQUARES,exp,45,17,True,7,-1,0,-,0.30057300021871924,-
119K24,33,SQUARES,exp,45,17,True,7,1,1,8,0.466756499838084,-
119K24,34,SQUARES,exp,45,17,True,6,1,0,-,0.3339253000449389,-
119K24,35,SQUARES,exp,45,17,True,6,1,0,-,0.6173013001680374,-
119K24,36,SQUARES,exp,45,17,True,5,1,0,-,0.5841200000140816,-
119K24,37,SQUARES,exp,45,17,True,5,1,0,-,0.3505099001340568,-
119K24,38,SQUARES,exp,45,17,True,4,1,0,-,0.4674339999910444,-
119K24,39,SQUARES,exp,45,17,True,4,1,0,-,0.3502639001235366,-
119K24,40,SQUARES,exp,45,17,False,3,-1,1,9,0.6506068999879062,-
119K24,41,SQUARES,exp,45,17,True,4,-1,0,-,0.3173694000579417,-
119K24,42,SQUARES,exp,45,17,True,4,1,1,10,0.3169216001406312,-
119K24,1,CIRCLES,training,45,17,False,20,-,-,-,2.1340312000829726,-
119K24,2,CIRCLES,training,45,17,True,20,-,-,-,0.8839160001371056,-
119K24,3,CIRCLES,training,45,17,False,20,-,-,-,-1.0,-
119K24,4,CIRCLES,training,45,17,True,20,-,-,-,0.10034430003724992,-
119K24,5,CIRCLES,training,45,17,False,20,-,-,-,-1.0,-
119K24,6,CIRCLES,training,45,17,True,20,-,-,-,0.9006886000279337,-
119K24,7,CIRCLES,training,45,17,True,20,-,-,-,0.48384779994376004,-
119K24,8,CIRCLES,training,45,17,True,20,-,-,-,1.067422900116071,-
119K24,9,CIRCLES,training,45,17,True,20,-,-,-,0.15066160005517304,-
119K24,10,CIRCLES,training,45,17,True,20,-,-,-,0.06721200002357364,-
119K24,11,CIRCLES,training,45,17,True,10,-,-,-,0.017293700017035007,-
119K24,12,CIRCLES,training,45,17,True,10,-,-,-,0.2006751000881195,-
119K24,13,CIRCLES,training,45,17,True,10,-,-,-,0.1671965999994427,-
119K24,14,CIRCLES,training,45,17,True,10,-,-,-,0.05068399989977479,-
119K24,15,CIRCLES,training,45,17,True,10,-,-,-,0.18387519987300038,-
119K24,16,CIRCLES,training,45,17,True,10,-,-,-,0.017424599966034293,-
119K24,17,CIRCLES,training,45,17,True,10,-,-,-,0.2508373998571187,-
119K24,18,CIRCLES,training,45,17,True,10,-,-,-,0.16731270006857812,-
119K24,19,CIRCLES,training,45,17,True,10,-,-,-,0.16689260001294315,-
119K24,20,CIRCLES,training,45,17,True,10,-,-,-,0.16712719993665814,-
119K24,1,CIRCLES,exp,45,17,True,10,0,0,0,0.08390869991853833,-
119K24,2,CIRCLES,exp,45,17,True,10,1,0,-,0.4838644000701606,-
119K24,3,CIRCLES,exp,45,17,True,9,1,0,-,0.050755799980834126,-
119K24,4,CIRCLES,exp,45,17,True,9,1,0,-,0.6520277999807149,-
119K24,5,CIRCLES,exp,45,17,True,8,1,0,-,0.10048560006543994,-
119K24,6,CIRCLES,exp,45,17,True,8,1,0,-,0.017394700087606907,-
119K24,7,CIRCLES,exp,45,17,True,7,1,0,-,0.0506122000515461,-
119K24,8,CIRCLES,exp,45,17,True,7,1,0,-,0.03417009999975562,-
119K24,9,CIRCLES,exp,45,17,True,6,1,0,-,0.0506118000485003,-
119K24,10,CIRCLES,exp,45,17,True,6,1,0,-,0.050458400044590235,-
119K24,11,CIRCLES,exp,45,17,True,5,1,0,-,0.30014639999717474,-
119K24,12,CIRCLES,exp,45,17,True,5,1,0,-,0.06721769995056093,-
119K24,13,CIRCLES,exp,45,17,True,4,1,0,-,0.1006060999352485,-
119K24,14,CIRCLES,exp,45,17,True,4,1,0,-,0.41729589994065464,-
119K24,15,CIRCLES,exp,45,17,True,3,1,0,-,0.31747590005397797,-
119K24,16,CIRCLES,exp,45,17,True,3,1,0,-,0.1673640999943018,-
119K24,17,CIRCLES,exp,45,17,True,2,1,0,-,0.6672410001046956,-
119K24,18,CIRCLES,exp,45,17,True,2,1,0,-,0.46723120007663965,-
119K24,19,CIRCLES,exp,45,17,False,1,-1,1,1,0.15070959995500743,-
119K24,20,CIRCLES,exp,45,17,False,2,-1,0,-,0.28388700005598366,-
119K24,21,CIRCLES,exp,45,17,True,3,-1,0,-,0.4503403000999242,-
119K24,22,CIRCLES,exp,45,17,True,3,1,1,2,1.233716000104323,-
119K24,23,CIRCLES,exp,45,17,False,2,-1,1,3,0.6171661000698805,-
119K24,24,CIRCLES,exp,45,17,True,3,-1,0,-,0.03396030003204942,-
119K24,25,CIRCLES,exp,45,17,True,3,1,1,4,0.3173446001019329,-
119K24,26,CIRCLES,exp,45,17,False,2,-1,1,5,0.400665300199762,-
119K24,27,CIRCLES,exp,45,17,False,3,-1,0,-,0.28385939984582365,-
119K24,28,CIRCLES,exp,45,17,True,4,-1,0,-,0.5673680000472814,-
119K24,29,CIRCLES,exp,45,17,True,4,1,1,6,0.31731409998610616,-
119K24,30,CIRCLES,exp,45,17,True,3,1,0,-,0.7171710000839084,-
119K24,31,CIRCLES,exp,45,17,True,3,1,0,-,0.48352099978365004,-
119K24,32,CIRCLES,exp,45,17,False,2,-1,1,7,0.417242499999702,-
119K24,33,CIRCLES,exp,45,17,True,3,-1,0,-,0.767298299819231,-
119K24,34,CIRCLES,exp,45,17,True,3,1,1,8,0.35053219995461404,-
119K24,35,CIRCLES,exp,45,17,True,2,1,0,-,0.1505485000088811,-
119K24,36,CIRCLES,exp,45,17,False,2,-1,1,9,0.5172961999196559,-
119K24,37,CIRCLES,exp,45,17,False,3,-1,0,-,0.25064409989863634,-
119K24,38,CIRCLES,exp,45,17,False,4,-1,0,-,0.5340970999095589,-
119K24,39,CIRCLES,exp,45,17,True,5,-1,0,-,0.7174615999683738,-
119K24,40,CIRCLES,exp,45,17,True,5,1,1,10,1.0337952999398112,-
