PART_ID,Trial,Stimuli,Training,FIXTIME,MTIME,Correct,SOA,Level,Reversal,Reversal_count,Latency,Rating
PB009K20,1,SQUARES,training,45,17,True,12,-,-,-,0.20012819999828935,-
PB009K20,2,SQUARES,training,45,17,True,12,-,-,-,1.0005769999988843,-
PB009K20,3,SQUARES,training,45,17,True,12,-,-,-,0.6170847000030335,-
PB009K20,4,SQUARES,training,45,17,True,12,-,-,-,0.0005688000237569213,-
PB009K20,5,SQUARES,training,45,17,True,12,-,-,-,0.16730699999607168,-
PB009K20,6,SQUARES,training,45,17,True,12,-,-,-,0.08387999999104068,-
PB009K20,7,SQUARES,training,45,17,False,12,-,-,-,2.950840600009542,-
PB009K20,8,SQUARES,training,45,17,True,12,-,-,-,0.03396020000218414,-
PB009K20,9,SQUARES,training,45,17,True,12,-,-,-,0.08390660001896322,-
PB009K20,10,SQUARES,training,45,17,True,12,-,-,-,0.15078680001897737,-
PB009K20,11,SQUARES,training,45,17,True,6,-,-,-,0.01709330000448972,-
PB009K20,12,SQUARES,training,45,17,True,6,-,-,-,0.08398130000568926,-
PB009K20,13,SQUARES,training,45,17,True,6,-,-,-,0.10060920001706108,-
PB009K20,14,SQUARES,training,45,17,True,6,-,-,-,0.9669207999831997,-
PB009K20,15,SQUARES,training,45,17,True,6,-,-,-,0.23350459997891448,-
PB009K20,16,SQUARES,training,45,17,False,6,-,-,-,0.16707610001321882,-
PB009K20,17,SQUARES,training,45,17,True,6,-,-,-,0.5670954000088386,-
PB009K20,18,SQUARES,training,45,17,True,6,-,-,-,0.13391240002238192,-
PB009K20,19,SQUARES,training,45,17,True,6,-,-,-,0.20025249998434447,-
PB009K20,20,SQUARES,training,45,17,True,6,-,-,-,0.26732000001356937,-
PB009K20,1,SQUARES,exp,45,17,True,6,0,0,0,0.3174738999805413,-
PB009K20,2,SQUARES,exp,45,17,True,6,1,0,-,0.18391940000583418,-
PB009K20,3,SQUARES,exp,45,17,True,5,1,0,-,0.33390460000373423,-
PB009K20,4,SQUARES,exp,45,17,True,5,1,0,-,0.03386160000809468,-
PB009K20,5,SQUARES,exp,45,17,True,4,1,0,-,0.38397019999683835,-
PB009K20,6,SQUARES,exp,45,17,True,4,1,0,-,0.1005699000088498,-
PB009K20,7,SQUARES,exp,45,17,False,3,-1,1,1,0.2670976000081282,-
PB009K20,8,SQUARES,exp,45,17,True,4,-1,0,-,0.06762280000839382,-
PB009K20,9,SQUARES,exp,45,17,True,4,1,1,2,0.10058709999429993,-
PB009K20,10,SQUARES,exp,45,17,True,3,1,0,-,0.13330079999286681,-
PB009K20,11,SQUARES,exp,45,17,False,3,-1,1,3,1.1668006000109017,-
PB009K20,12,SQUARES,exp,45,17,True,4,-1,0,-,0.21678289998089895,-
PB009K20,13,SQUARES,exp,45,17,True,4,1,1,4,0.16733680001925677,-
PB009K20,14,SQUARES,exp,45,17,True,3,1,0,-,0.10074580000946298,-
PB009K20,15,SQUARES,exp,45,17,True,3,1,0,-,0.13379610000993125,-
PB009K20,16,SQUARES,exp,45,17,True,2,1,0,-,0.2839819999935571,-
PB009K20,17,SQUARES,exp,45,17,True,2,1,0,-,0.15063370001735166,-
PB009K20,18,SQUARES,exp,45,17,False,1,-1,1,5,0.3339902000152506,-
PB009K20,19,SQUARES,exp,45,17,False,2,-1,0,-,0.36727869999594986,-
PB009K20,20,SQUARES,exp,45,17,False,3,-1,0,-,0.21723480001674034,-
PB009K20,21,SQUARES,exp,45,17,True,4,-1,0,-,0.050735299999359995,-
PB009K20,22,SQUARES,exp,45,17,False,4,-1,0,-,1.1006942999956664,-
PB009K20,23,SQUARES,exp,45,17,True,5,-1,0,-,0.4505381000053603,-
PB009K20,24,SQUARES,exp,45,17,True,5,1,1,6,0.15057850000448525,-
PB009K20,25,SQUARES,exp,45,17,True,4,1,0,-,0.15048000001115724,-
PB009K20,26,SQUARES,exp,45,17,True,4,1,0,-,0.20066050000605173,-
PB009K20,27,SQUARES,exp,45,17,True,3,1,0,-,0.9672722000104841,-
PB009K20,28,SQUARES,exp,45,17,True,3,1,0,-,0.21720450001885183,-
PB009K20,29,SQUARES,exp,45,17,True,2,1,0,-,0.33403899997938424,-
PB009K20,30,SQUARES,exp,45,17,True,2,1,0,-,0.583916900010081,-
PB009K20,31,SQUARES,exp,45,17,True,1,1,0,-,0.15061089998926036,-
PB009K20,32,SQUARES,exp,45,17,True,1,1,0,-,0.3341284999914933,-
PB009K20,33,SQUARES,exp,45,17,True,0,1,0,-,0.933545799984131,-
PB009K20,34,SQUARES,exp,45,17,False,0,-1,1,7,0.2839440999960061,-
PB009K20,35,SQUARES,exp,45,17,False,1,-1,0,-,0.11677140000392683,-
PB009K20,36,SQUARES,exp,45,17,False,2,-1,0,-,0.150678500009235,-
PB009K20,37,SQUARES,exp,45,17,True,3,-1,0,-,0.30072940001264215,-
PB009K20,38,SQUARES,exp,45,17,False,3,-1,0,-,0.11734910000814125,-
PB009K20,39,SQUARES,exp,45,17,True,4,-1,0,-,3.0668737000087276,-
PB009K20,40,SQUARES,exp,45,17,False,4,-1,0,-,0.567117500002496,-
PB009K20,41,SQUARES,exp,45,17,False,5,-1,0,-,0.2840407000039704,-
PB009K20,42,SQUARES,exp,45,17,False,6,-1,0,-,3.033902000024682,-
PB009K20,43,SQUARES,exp,45,17,True,7,-1,0,-,0.11740809999173507,-
PB009K20,44,SQUARES,exp,45,17,False,7,-1,0,-,0.0504056999925524,-
PB009K20,45,SQUARES,exp,45,17,True,8,-1,0,-,0.3671835999994073,-
PB009K20,46,SQUARES,exp,45,17,True,8,1,1,8,0.3845017999992706,-
PB009K20,47,SQUARES,exp,45,17,True,7,1,0,-,0.13382239997736178,-
PB009K20,48,SQUARES,exp,45,17,True,7,1,0,-,0.10042260002228431,-
PB009K20,49,SQUARES,exp,45,17,True,6,1,0,-,0.23389549998682924,-
PB009K20,50,SQUARES,exp,45,17,True,6,1,0,-,0.21710879998863675,-
PB009K20,51,SQUARES,exp,45,17,True,5,1,0,-,0.2504788000078406,-
PB009K20,52,SQUARES,exp,45,17,True,5,1,0,-,0.4839827000105288,-
PB009K20,53,SQUARES,exp,45,17,True,4,1,0,-,0.25059879999025725,-
PB009K20,54,SQUARES,exp,45,17,True,4,1,0,-,0.3172912999871187,-
PB009K20,55,SQUARES,exp,45,17,False,3,-1,1,9,0.6340179999824613,-
PB009K20,56,SQUARES,exp,45,17,True,4,-1,0,-,0.16757950000464916,-
PB009K20,57,SQUARES,exp,45,17,False,4,-1,0,-,0.38402850000420585,-
PB009K20,58,SQUARES,exp,45,17,True,5,-1,0,-,0.11736720000044443,-
PB009K20,59,SQUARES,exp,45,17,True,5,1,1,10,0.2008672999800183,-
PB009K20,1,CIRCLES,training,45,17,True,20,-,-,-,0.333936300012283,-
PB009K20,2,CIRCLES,training,45,17,True,20,-,-,-,0.8839599000057206,-
PB009K20,3,CIRCLES,training,45,17,True,20,-,-,-,0.4006511000043247,-
PB009K20,4,CIRCLES,training,45,17,True,20,-,-,-,0.8006477000017185,-
PB009K20,5,CIRCLES,training,45,17,True,20,-,-,-,0.01740280000376515,-
PB009K20,6,CIRCLES,training,45,17,True,20,-,-,-,0.3839461999887135,-
PB009K20,7,CIRCLES,training,45,17,True,20,-,-,-,0.3172776999999769,-
PB009K20,8,CIRCLES,training,45,17,True,20,-,-,-,0.11719560000346974,-
PB009K20,9,CIRCLES,training,45,17,True,20,-,-,-,0.1505691000202205,-
PB009K20,10,CIRCLES,training,45,17,True,20,-,-,-,0.41734919999726117,-
PB009K20,11,CIRCLES,training,45,17,True,10,-,-,-,0.017147700011264533,-
PB009K20,12,CIRCLES,training,45,17,True,10,-,-,-,0.11714290000963956,-
PB009K20,13,CIRCLES,training,45,17,True,10,-,-,-,0.11721789999864995,-
PB009K20,14,CIRCLES,training,45,17,True,10,-,-,-,0.0006388999754562974,-
PB009K20,15,CIRCLES,training,45,17,True,10,-,-,-,0.11724729998968542,-
PB009K20,16,CIRCLES,training,45,17,True,10,-,-,-,0.4002901999920141,-
PB009K20,17,CIRCLES,training,45,17,True,10,-,-,-,0.0006335999933071434,-
PB009K20,18,CIRCLES,training,45,17,True,10,-,-,-,0.5001378000015393,-
PB009K20,19,CIRCLES,training,45,17,True,10,-,-,-,0.283737400022801,-
PB009K20,20,CIRCLES,training,45,17,True,10,-,-,-,0.26738669999758713,-
PB009K20,1,CIRCLES,exp,45,17,True,10,0,0,0,0.5005221999890637,-
PB009K20,2,CIRCLES,exp,45,17,True,10,1,0,-,0.2174984999874141,-
PB009K20,3,CIRCLES,exp,45,17,True,9,1,0,-,0.0005861999816261232,-
PB009K20,4,CIRCLES,exp,45,17,True,9,1,0,-,0.016639300010865554,-
PB009K20,5,CIRCLES,exp,45,17,True,8,1,0,-,0.01738039997871965,-
PB009K20,6,CIRCLES,exp,45,17,True,8,1,0,-,0.16836209999746643,-
PB009K20,7,CIRCLES,exp,45,17,True,7,1,0,-,0.10050699999555945,-
PB009K20,8,CIRCLES,exp,45,17,True,7,1,0,-,0.05052459999569692,-
PB009K20,9,CIRCLES,exp,45,17,True,6,1,0,-,0.1336934000137262,-
PB009K20,10,CIRCLES,exp,45,17,True,6,1,0,-,0.01718830000027083,-
PB009K20,11,CIRCLES,exp,45,17,True,5,1,0,-,0.0005492999916896224,-
PB009K20,12,CIRCLES,exp,45,17,True,5,1,0,-,0.18395710000186227,-
PB009K20,13,CIRCLES,exp,45,17,True,4,1,0,-,0.016947399999480695,-
PB009K20,14,CIRCLES,exp,45,17,True,4,1,0,-,0.03390560002299026,-
PB009K20,15,CIRCLES,exp,45,17,True,3,1,0,-,0.017297199985478073,-
PB009K20,16,CIRCLES,exp,45,17,True,3,1,0,-,0.1340345999924466,-
PB009K20,17,CIRCLES,exp,45,17,False,2,-1,1,1,0.28405210000346415,-
PB009K20,18,CIRCLES,exp,45,17,True,3,-1,0,-,0.3833845999906771,-
PB009K20,19,CIRCLES,exp,45,17,True,3,1,1,2,0.10028229997260496,-
PB009K20,20,CIRCLES,exp,45,17,False,2,-1,1,3,0.3172036999894772,-
PB009K20,21,CIRCLES,exp,45,17,True,3,-1,0,-,0.25062479998450726,-
PB009K20,22,CIRCLES,exp,45,17,True,3,1,1,4,0.05078170000342652,-
PB009K20,23,CIRCLES,exp,45,17,True,2,1,0,-,0.08372419999795966,-
PB009K20,24,CIRCLES,exp,45,17,False,2,-1,1,5,0.11721440000110306,-
PB009K20,25,CIRCLES,exp,45,17,True,3,-1,0,-,0.1839266999741085,-
PB009K20,26,CIRCLES,exp,45,17,True,3,1,1,6,0.15046479998272844,-
PB009K20,27,CIRCLES,exp,45,17,False,2,-1,1,7,0.1168187000148464,-
PB009K20,28,CIRCLES,exp,45,17,False,3,-1,0,-,0.08399369998369366,-
PB009K20,29,CIRCLES,exp,45,17,True,4,-1,0,-,0.01726829999824986,-
PB009K20,30,CIRCLES,exp,45,17,True,4,1,1,8,0.10047939998912625,-
PB009K20,31,CIRCLES,exp,45,17,True,3,1,0,-,0.35020270000677556,-
PB009K20,32,CIRCLES,exp,45,17,False,3,-1,1,9,0.06743029999779537,-
PB009K20,33,CIRCLES,exp,45,17,False,4,-1,0,-,0.017104200000176206,-
PB009K20,34,CIRCLES,exp,45,17,True,5,-1,0,-,0.06716410000808537,-
PB009K20,35,CIRCLES,exp,45,17,False,5,-1,0,-,1.1172043999831658,-
PB009K20,36,CIRCLES,exp,45,17,True,6,-1,0,-,0.0005438000080175698,-
PB009K20,37,CIRCLES,exp,45,17,True,6,1,1,10,0.01723420000053011,-
