PART_ID,Trial,Stimuli,Training,FIXTIME,MTIME,Correct,SOA,Level,Reversal,Reversal_count,Latency,Rating
PB023K27,1,SQUARES,training,45,17,True,12,-,-,-,1.0841293999983463,-
PB023K27,2,SQUARES,training,45,17,True,12,-,-,-,0.3668675000080839,-
PB023K27,3,SQUARES,training,45,17,True,12,-,-,-,0.25067999999737367,-
PB023K27,4,SQUARES,training,45,17,True,12,-,-,-,0.16744540000217967,-
PB023K27,5,SQUARES,training,45,17,True,12,-,-,-,0.08411600001272745,-
PB023K27,6,SQUARES,training,45,17,True,12,-,-,-,0.06727639999007806,-
PB023K27,7,SQUARES,training,45,17,True,12,-,-,-,0.033988799987128004,-
PB023K27,8,SQUARES,training,45,17,True,12,-,-,-,1.7507360000163317,-
PB023K27,9,SQUARES,training,45,17,True,12,-,-,-,0.4671877999790013,-
PB023K27,10,SQUARES,training,45,17,True,12,-,-,-,0.01721449999604374,-
PB023K27,11,SQUARES,training,45,17,True,6,-,-,-,0.08392179998918436,-
PB023K27,12,SQUARES,training,45,17,True,6,-,-,-,0.10056299998541363,-
PB023K27,13,SQUARES,training,45,17,True,6,-,-,-,0.0672099000075832,-
PB023K27,14,SQUARES,training,45,17,True,6,-,-,-,0.017357700009597465,-
PB023K27,15,SQUARES,training,45,17,True,6,-,-,-,0.05039959997520782,-
PB023K27,16,SQUARES,training,45,17,True,6,-,-,-,0.05052079999586567,-
PB023K27,17,SQUARES,training,45,17,True,6,-,-,-,0.0006905999907758087,-
PB023K27,18,SQUARES,training,45,17,True,6,-,-,-,0.06726569999591447,-
PB023K27,19,SQUARES,training,45,17,True,6,-,-,-,0.16716479999013245,-
PB023K27,20,SQUARES,training,45,17,True,6,-,-,-,0.10059919999912381,-
PB023K27,1,SQUARES,exp,45,17,True,6,0,0,0,0.41723549997550435,-
PB023K27,2,SQUARES,exp,45,17,True,6,1,0,-,0.13421499999822117,-
PB023K27,3,SQUARES,exp,45,17,True,5,1,0,-,0.20046920000459068,-
PB023K27,4,SQUARES,exp,45,17,True,5,1,0,-,0.08410229999572039,-
PB023K27,5,SQUARES,exp,45,17,True,4,1,0,-,0.18406619998859242,-
PB023K27,6,SQUARES,exp,45,17,True,4,1,0,-,0.13396070001181215,-
PB023K27,7,SQUARES,exp,45,17,True,3,1,0,-,0.1840158999839332,-
PB023K27,8,SQUARES,exp,45,17,True,3,1,0,-,0.2341761999996379,-
PB023K27,9,SQUARES,exp,45,17,True,2,1,0,-,0.28402819999610074,-
PB023K27,10,SQUARES,exp,45,17,True,2,1,0,-,0.2839852000179235,-
PB023K27,11,SQUARES,exp,45,17,False,1,-1,1,1,1.2339518000080716,-
PB023K27,12,SQUARES,exp,45,17,True,2,-1,0,-,0.48362929999711923,-
PB023K27,13,SQUARES,exp,45,17,True,2,1,1,2,0.4837841000116896,-
PB023K27,14,SQUARES,exp,45,17,True,1,1,0,-,0.6340885999961756,-
PB023K27,15,SQUARES,exp,45,17,True,1,1,0,-,2.350262299994938,-
PB023K27,16,SQUARES,exp,45,17,False,0,-1,1,3,2.5506369000067934,-
PB023K27,17,SQUARES,exp,45,17,True,1,-1,0,-,0.5673458999954164,-
PB023K27,18,SQUARES,exp,45,17,True,1,1,1,4,0.6006030999997165,-
PB023K27,19,SQUARES,exp,45,17,False,0,-1,1,5,1.5339039000100456,-
PB023K27,20,SQUARES,exp,45,17,True,1,-1,0,-,0.9338773000054061,-
PB023K27,21,SQUARES,exp,45,17,False,1,-1,0,-,0.700648199999705,-
PB023K27,22,SQUARES,exp,45,17,False,2,-1,0,-,0.5671733999915887,-
PB023K27,23,SQUARES,exp,45,17,True,3,-1,0,-,0.7172066000057384,-
PB023K27,24,SQUARES,exp,45,17,False,3,-1,0,-,1.2840559000032954,-
PB023K27,25,SQUARES,exp,45,17,True,4,-1,0,-,0.5338668000185862,-
PB023K27,26,SQUARES,exp,45,17,False,4,-1,0,-,0.35064060002332553,-
PB023K27,27,SQUARES,exp,45,17,True,5,-1,0,-,0.5172919000033289,-
PB023K27,28,SQUARES,exp,45,17,True,5,1,1,6,0.3674262999847997,-
PB023K27,29,SQUARES,exp,45,17,True,4,1,0,-,0.41698290000203997,-
PB023K27,30,SQUARES,exp,45,17,False,4,-1,1,7,1.833848099980969,-
PB023K27,31,SQUARES,exp,45,17,True,5,-1,0,-,2.117404599994188,-
PB023K27,32,SQUARES,exp,45,17,False,5,-1,0,-,0.7505590000073425,-
PB023K27,33,SQUARES,exp,45,17,True,6,-1,0,-,0.4506227000092622,-
PB023K27,34,SQUARES,exp,45,17,True,6,1,1,8,0.4840278000046965,-
PB023K27,35,SQUARES,exp,45,17,True,5,1,0,-,0.26738219999242574,-
PB023K27,36,SQUARES,exp,45,17,True,5,1,0,-,1.0507002999947872,-
PB023K27,37,SQUARES,exp,45,17,True,4,1,0,-,0.550777399999788,-
PB023K27,38,SQUARES,exp,45,17,True,4,1,0,-,0.6340052999730688,-
PB023K27,39,SQUARES,exp,45,17,True,3,1,0,-,0.3339088999782689,-
PB023K27,40,SQUARES,exp,45,17,True,3,1,0,-,0.46716130001004785,-
PB023K27,41,SQUARES,exp,45,17,True,2,1,0,-,0.7839626000204589,-
PB023K27,42,SQUARES,exp,45,17,True,2,1,0,-,1.550714799988782,-
PB023K27,43,SQUARES,exp,45,17,False,1,-1,1,9,0.4672474999970291,-
PB023K27,44,SQUARES,exp,45,17,True,2,-1,0,-,0.45058370000333525,-
PB023K27,45,SQUARES,exp,45,17,False,2,-1,0,-,0.5174178000015672,-
PB023K27,46,SQUARES,exp,45,17,True,3,-1,0,-,0.5499286999984179,-
PB023K27,47,SQUARES,exp,45,17,True,3,1,1,10,0.45070709998253733,-
PB023K27,1,CIRCLES,training,45,17,True,20,-,-,-,0.1338885000150185,-
PB023K27,2,CIRCLES,training,45,17,True,20,-,-,-,2.8673089999938384,-
PB023K27,3,CIRCLES,training,45,17,True,20,-,-,-,0.017009500006679446,-
PB023K27,4,CIRCLES,training,45,17,True,20,-,-,-,0.9338107999938074,-
PB023K27,5,CIRCLES,training,45,17,True,20,-,-,-,0.8838351999875158,-
PB023K27,6,CIRCLES,training,45,17,True,20,-,-,-,0.5338383000053,-
PB023K27,7,CIRCLES,training,45,17,True,20,-,-,-,0.11707139998907223,-
PB023K27,8,CIRCLES,training,45,17,True,20,-,-,-,0.0006530999962706119,-
PB023K27,9,CIRCLES,training,45,17,True,20,-,-,-,0.5006124999781605,-
PB023K27,10,CIRCLES,training,45,17,True,20,-,-,-,1.2005950000020675,-
PB023K27,11,CIRCLES,training,45,17,True,10,-,-,-,0.13393169999471866,-
PB023K27,12,CIRCLES,training,45,17,True,10,-,-,-,0.1500405000115279,-
PB023K27,13,CIRCLES,training,45,17,True,10,-,-,-,0.13403449999168515,-
PB023K27,14,CIRCLES,training,45,17,True,10,-,-,-,0.18385679999482818,-
PB023K27,15,CIRCLES,training,45,17,True,10,-,-,-,0.11724940000567585,-
PB023K27,16,CIRCLES,training,45,17,True,10,-,-,-,0.15052660001674667,-
PB023K27,17,CIRCLES,training,45,17,True,10,-,-,-,0.6338557999988552,-
PB023K27,18,CIRCLES,training,45,17,True,10,-,-,-,0.10055120001197793,-
PB023K27,19,CIRCLES,training,45,17,True,10,-,-,-,0.9007282999809831,-
PB023K27,20,CIRCLES,training,45,17,True,10,-,-,-,2.66719710000325,-
PB023K27,1,CIRCLES,exp,45,17,True,10,0,0,0,0.2839440999960061,-
PB023K27,2,CIRCLES,exp,45,17,True,10,1,0,-,0.05058340000687167,-
PB023K27,3,CIRCLES,exp,45,17,True,9,1,0,-,0.11723220002022572,-
PB023K27,4,CIRCLES,exp,45,17,True,9,1,0,-,0.2339264999900479,-
PB023K27,5,CIRCLES,exp,45,17,True,8,1,0,-,0.11708950001047924,-
PB023K27,6,CIRCLES,exp,45,17,True,8,1,0,-,0.05053599999519065,-
PB023K27,7,CIRCLES,exp,45,17,True,7,1,0,-,0.0006677999917883426,-
PB023K27,8,CIRCLES,exp,45,17,True,7,1,0,-,0.13408429999253713,-
PB023K27,9,CIRCLES,exp,45,17,True,6,1,0,-,0.1507090000086464,-
PB023K27,10,CIRCLES,exp,45,17,True,6,1,0,-,0.5675053000159096,-
PB023K27,11,CIRCLES,exp,45,17,False,5,-1,1,1,0.4005946999823209,-
PB023K27,12,CIRCLES,exp,45,17,True,6,-1,0,-,0.11684299999615178,-
PB023K27,13,CIRCLES,exp,45,17,True,6,1,1,2,0.150657099991804,-
PB023K27,14,CIRCLES,exp,45,17,True,5,1,0,-,0.25057649999507703,-
PB023K27,15,CIRCLES,exp,45,17,True,5,1,0,-,0.08391980000305921,-
PB023K27,16,CIRCLES,exp,45,17,True,4,1,0,-,0.31722210001316853,-
PB023K27,17,CIRCLES,exp,45,17,True,4,1,0,-,0.25066690001403913,-
PB023K27,18,CIRCLES,exp,45,17,True,3,1,0,-,0.38396790000842884,-
PB023K27,19,CIRCLES,exp,45,17,True,3,1,0,-,0.7339208000048529,-
PB023K27,20,CIRCLES,exp,45,17,False,2,-1,1,3,0.2505721000197809,-
PB023K27,21,CIRCLES,exp,45,17,True,3,-1,0,-,0.1837641000165604,-
PB023K27,22,CIRCLES,exp,45,17,True,3,1,1,4,0.2841049999988172,-
PB023K27,23,CIRCLES,exp,45,17,False,2,-1,1,5,0.1672786000126507,-
PB023K27,24,CIRCLES,exp,45,17,True,3,-1,0,-,0.050445100001525134,-
PB023K27,25,CIRCLES,exp,45,17,False,3,-1,0,-,0.08397100001457147,-
PB023K27,26,CIRCLES,exp,45,17,True,4,-1,0,-,0.8840998999949079,-
PB023K27,27,CIRCLES,exp,45,17,True,4,1,1,6,0.11717740001040511,-
PB023K27,28,CIRCLES,exp,45,17,True,3,1,0,-,0.30071110001881607,-
PB023K27,29,CIRCLES,exp,45,17,False,3,-1,1,7,0.3007422999944538,-
PB023K27,30,CIRCLES,exp,45,17,True,4,-1,0,-,0.00016149997827596962,-
PB023K27,31,CIRCLES,exp,45,17,False,4,-1,0,-,0.16697230000863783,-
PB023K27,32,CIRCLES,exp,45,17,True,5,-1,0,-,0.40054510001209565,-
PB023K27,33,CIRCLES,exp,45,17,True,5,1,1,8,0.30054689999087714,-
PB023K27,34,CIRCLES,exp,45,17,True,4,1,0,-,0.4006253000115976,-
PB023K27,35,CIRCLES,exp,45,17,False,4,-1,1,9,0.3169822000199929,-
PB023K27,36,CIRCLES,exp,45,17,True,5,-1,0,-,0.26723840000340715,-
PB023K27,37,CIRCLES,exp,45,17,True,5,1,1,10,0.21684259999892674,-
