PART_ID,Trial_no,Trial_type,PDI,Stim_letter,Key_pressed,letter_choose,Rt,Corr,Stimulus Time
26K30,1,training,10,↑,no_key,no_letter,-1.0,False,30
26K30,2,training,10,→,right,→,1.8914815000025555,True,30
26K30,3,training,10,→,right,→,1.869709699996747,True,30
26K30,4,training,10,←,right,→,1.6331926000129897,False,30
26K30,5,training,10,←,left,←,1.5618264000222553,True,30
26K30,6,training,10,↑,up,↑,0.9675909000216052,True,30
26K30,7,training,10,↓,left,←,1.8026478000101633,False,30
26K30,8,training,10,←,left,←,1.0507568000175525,True,30
26K30,9,training,10,↓,down,↓,1.4217850000131875,True,30
26K30,10,training,10,←,left,←,1.2811753999849316,True,30
26K30,11,training,10,↓,down,↓,1.0422961000003852,True,30
26K30,12,training,10,↑,left,←,1.0305801999929827,False,30
26K30,13,training,10,↓,down,↓,1.081710700003896,True,30
26K30,14,training,10,←,left,←,0.8567920999776106,True,30
26K30,15,training,10,↓,down,↓,0.708267900015926,True,30
26K30,16,training,10,↓,down,↓,0.7642532000027131,True,30
26K30,17,training,10,←,left,←,0.8094669999845792,True,30
26K30,18,training,10,↓,down,↓,1.1644384000101127,True,30
26K30,19,training,10,←,left,←,0.7019451000087429,True,30
26K30,20,training,10,↓,left,←,1.387875200016424,False,30
26K30,21,training,10,↑,right,→,1.3795201000175439,False,18
26K30,22,training,10,↑,up,↑,1.1776739000051748,True,18
26K30,23,training,10,↓,down,↓,1.0131399999954738,True,18
26K30,24,training,10,↑,left,←,0.9409036999859381,False,18
26K30,25,training,10,↑,up,↑,1.250417799979914,True,18
26K30,26,training,10,→,right,→,1.647811200004071,True,18
26K30,27,training,10,→,right,→,0.8452140000008512,True,18
26K30,28,training,10,←,right,→,0.803870999981882,False,18
26K30,29,training,10,→,right,→,1.0453095000120811,True,18
26K30,30,training,10,↑,up,↑,1.3876502999919467,True,18
26K30,31,training,48,→,no_key,no_letter,-1.0,False,15
26K30,32,training,48,↓,right,→,0.9029582999937702,False,15
26K30,33,training,180,←,left,←,1.3176718000031542,True,15
26K30,34,experiment,120,→,left,←,0.7333158999972511,False,15
26K30,35,experiment,24,↓,left,←,1.022313599998597,False,15
26K30,36,experiment,156,→,right,→,0.859201999992365,True,15
26K30,37,experiment,96,←,up,↑,1.0063864999974612,False,15
26K30,38,experiment,156,↑,up,↑,0.9108127999934368,True,15
26K30,39,experiment,96,←,left,←,0.8393556000082754,True,15
26K30,40,experiment,120,→,left,←,1.4710564999841154,False,15
26K30,41,experiment,180,←,up,↑,0.8060929999919608,False,15
26K30,42,experiment,72,↑,up,↑,1.040302800014615,True,15
26K30,43,experiment,180,↑,up,↑,0.6851721999992151,True,15
26K30,44,experiment,36,↓,down,↓,0.9867585000174586,True,15
26K30,45,experiment,144,←,right,→,1.3115188999800012,False,15
26K30,46,experiment,132,←,left,←,0.8917469999869354,True,15
26K30,47,experiment,48,→,left,←,0.8832917000108864,False,15
26K30,48,experiment,84,→,up,↑,0.7525252999912482,False,15
26K30,49,experiment,12,↓,up,↑,0.9484454999910668,False,15
26K30,50,experiment,120,←,up,↑,0.9242043000122067,False,15
26K30,51,experiment,24,↑,right,→,0.7421277999819722,False,15
26K30,52,experiment,108,←,left,←,0.7745316000073217,True,15
26K30,53,experiment,168,←,up,↑,0.584130000002915,False,15
26K30,54,experiment,12,→,left,←,1.6453243999858387,False,15
26K30,55,experiment,36,←,up,↑,1.0148735999828205,False,15
26K30,56,experiment,108,→,left,←,1.1319429999857675,False,15
26K30,57,experiment,72,↓,up,↑,1.1882012999849394,False,15
26K30,58,experiment,36,↑,up,↑,0.8082728000008501,True,15
26K30,59,experiment,168,↓,up,↑,0.7097907999996096,False,15
26K30,60,experiment,132,↓,up,↑,0.8189852999930736,False,15
26K30,61,experiment,96,↑,up,↑,1.0993251000181772,True,15
26K30,62,experiment,84,↑,up,↑,1.3824181000236422,True,15
26K30,63,experiment,156,↓,up,↑,0.8476532000058796,False,15
26K30,64,experiment,48,→,up,↑,1.3455114999960642,False,15
26K30,65,experiment,12,↑,up,↑,1.1812264999898616,True,15
26K30,66,experiment,180,←,up,↑,1.4846705999807455,False,15
26K30,67,experiment,168,→,left,←,0.9813195000169799,False,15
26K30,68,experiment,12,←,left,←,0.7893475000164472,True,15
26K30,69,experiment,60,→,right,→,1.0858011999807786,True,15
26K30,70,experiment,180,→,right,→,0.7776302999991458,True,15
26K30,71,experiment,48,↓,down,↓,1.1058920999930706,True,15
26K30,72,experiment,96,←,left,←,0.6681689000106417,True,15
26K30,73,experiment,156,↑,left,←,1.1283756000048015,False,15
26K30,74,experiment,168,→,left,←,0.9836716999998316,False,15
26K30,75,experiment,132,↑,up,↑,1.6305209000129253,True,15
26K30,76,experiment,108,←,left,←,0.6645212000003085,True,15
26K30,77,experiment,84,→,left,←,0.6417120999831241,False,15
26K30,78,experiment,120,←,left,←,0.7931029000028502,True,15
26K30,79,experiment,72,↑,left,←,1.1065124000015203,False,15
26K30,80,experiment,72,↓,no_key,no_letter,-1.0,False,15
26K30,81,experiment,48,←,no_key,no_letter,-1.0,False,15
26K30,82,experiment,144,→,up,↑,1.5085725000244565,False,15
26K30,83,experiment,144,→,right,→,0.8653835000004619,True,15
26K30,84,experiment,60,↑,left,←,0.9717490999901202,False,15
26K30,85,experiment,132,↓,left,←,1.0641963000234682,False,15
26K30,86,experiment,60,←,right,→,0.8129835000145249,False,15
26K30,87,experiment,84,→,left,←,0.6785872000036761,False,15
26K30,88,experiment,144,↑,left,←,0.7702203999797348,False,15
26K30,89,experiment,108,→,left,←,0.7957632000034209,False,15
26K30,90,experiment,60,↓,right,→,0.8873441000177991,False,15
26K30,91,experiment,24,→,left,←,0.9738277999858838,False,15
26K30,92,experiment,24,↓,right,→,0.7845152999798302,False,15
26K30,93,experiment,36,←,left,←,1.0330914999940433,True,15
26K30,94,training,120,→,left,←,0.6842316999973264,False,16
26K30,95,training,60,←,right,→,0.6682818999979645,False,16
26K30,96,training,132,↓,down,↓,1.2787003999983426,True,16
26K30,97,experiment,168,→,no_key,no_letter,-1.0,False,16
26K30,98,experiment,180,↑,up,↑,1.6503425000119023,True,16
26K30,99,experiment,108,←,left,←,0.676380999997491,True,16
26K30,100,experiment,24,→,right,→,0.7771748999948613,True,16
26K30,101,experiment,96,←,left,←,0.47178469999926165,True,16
26K30,102,experiment,120,↑,right,→,1.6877963000151794,False,16
26K30,103,experiment,96,←,right,→,0.8539598000061233,False,16
26K30,104,experiment,72,→,left,←,0.552064400020754,False,16
26K30,105,experiment,12,→,right,→,0.8683471000113059,True,16
26K30,106,experiment,168,←,up,↑,1.6997593000123743,False,16
26K30,107,experiment,144,↓,left,←,0.9118965000088792,False,16
26K30,108,experiment,156,↑,up,↑,0.7109271999797784,True,16
26K30,109,experiment,72,↓,down,↓,1.1150185000151396,True,16
26K30,110,experiment,108,↑,up,↑,1.0911024999804795,True,16
26K30,111,experiment,60,→,right,→,0.7059803000011016,True,16
26K30,112,experiment,180,←,right,→,0.9472460999968462,False,16
26K30,113,experiment,48,→,no_key,no_letter,-1.0,False,16
26K30,114,experiment,84,←,left,←,0.8074859000043944,True,16
26K30,115,experiment,24,→,right,→,0.7313168999971822,True,16
26K30,116,experiment,156,↑,up,↑,0.5135162999795284,True,16
26K30,117,experiment,36,↑,down,↓,0.8600460999878123,False,16
26K30,118,experiment,60,↓,down,↓,1.1667823000170756,True,16
26K30,119,experiment,132,↑,up,↑,0.8927109999931417,True,16
26K30,120,experiment,132,↓,down,↓,0.7671999000012875,True,16
26K30,121,experiment,168,←,left,←,1.6932754000008572,True,16
26K30,122,experiment,156,←,down,↓,0.8531522999983281,False,16
26K30,123,experiment,84,→,up,↑,1.0619337999960408,False,16
26K30,124,experiment,108,←,up,↑,1.0474802000098862,False,16
26K30,125,experiment,84,←,right,→,1.1433841999969445,False,16
26K30,126,experiment,12,→,left,←,0.9420096000249032,False,16
26K30,127,experiment,144,→,up,↑,0.9573312999855261,False,16
26K30,128,experiment,180,↓,up,↑,0.7875608999747783,False,16
26K30,129,experiment,72,←,up,↑,0.7810081000206992,False,16
26K30,130,experiment,96,↑,up,↑,1.004613099998096,True,16
26K30,131,experiment,48,←,left,←,1.0020806000102311,True,16
26K30,132,experiment,156,↑,up,↑,1.4892704999947455,True,16
26K30,133,experiment,24,←,left,←,0.9793243999883998,True,16
26K30,134,experiment,120,↓,down,↓,0.8644479000067804,True,16
26K30,135,experiment,84,→,down,↓,1.1488756999897305,False,16
26K30,136,experiment,12,↓,left,←,1.1759464000060689,False,16
26K30,137,experiment,96,←,right,→,1.0626085000112653,False,16
26K30,138,experiment,36,→,left,←,0.6482992000237573,False,16
26K30,139,experiment,132,↑,down,↓,1.0306740000087302,False,16
26K30,140,experiment,60,←,left,←,0.9858403000107501,True,16
26K30,141,experiment,36,←,left,←,1.596486200025538,True,16
26K30,142,experiment,48,←,right,→,0.8428898999991361,False,16
26K30,143,experiment,120,↑,right,→,0.8723029000102542,False,16
26K30,144,experiment,36,↑,left,←,0.966869099996984,False,16
26K30,145,experiment,132,→,left,←,1.590154400008032,False,16
26K30,146,experiment,12,↓,down,↓,0.8479388999985531,True,16
26K30,147,experiment,168,↓,left,←,0.6983670000045095,False,16
26K30,148,experiment,60,↓,down,↓,0.8472918999905232,True,16
26K30,149,experiment,24,↑,up,↑,0.6421114000258967,True,16
26K30,150,experiment,48,↑,right,→,1.0040688999870326,False,16
26K30,151,experiment,180,↑,down,↓,0.8917288999946322,False,16
26K30,152,experiment,144,→,left,←,0.9843827000004239,False,16
26K30,153,experiment,144,←,left,←,1.6373096000170335,True,16
26K30,154,experiment,72,←,left,←,1.1129863999958616,True,16
26K30,155,experiment,120,←,right,→,1.289752500015311,False,16
26K30,156,experiment,108,→,left,←,1.096987299999455,False,16
26K30,157,training,132,←,right,→,0.7630037000053562,False,17
26K30,158,training,180,→,left,←,0.6326225999800954,False,17
26K30,159,training,132,←,right,→,0.7587385000078939,False,17
26K30,160,experiment,156,→,left,←,1.074840800021775,False,17
26K30,161,experiment,180,←,left,←,0.620323000010103,True,17
26K30,162,experiment,168,↑,up,↑,1.0038436999893747,True,17
26K30,163,experiment,132,←,left,←,1.4385656999947969,True,17
26K30,164,experiment,84,↓,down,↓,0.8350976999790873,True,17
26K30,165,experiment,132,↑,left,←,1.1903657999937423,False,17
26K30,166,experiment,12,→,down,↓,0.8644626000022981,False,17
26K30,167,experiment,96,↓,down,↓,0.9446454000135418,True,17
26K30,168,experiment,48,↓,down,↓,0.7950459999847226,True,17
26K30,169,experiment,108,↑,right,→,0.6741256000241265,False,17
26K30,170,experiment,72,↑,down,↓,1.0520912999927532,False,17
26K30,171,experiment,12,↑,left,←,1.7865655999921728,False,17
26K30,172,experiment,36,←,left,←,0.930801300011808,True,17
26K30,173,experiment,132,↓,down,↓,0.6944074000057299,True,17
26K30,174,experiment,36,←,left,←,0.6773287999967579,True,17
26K30,175,experiment,108,→,right,→,0.6037165999878198,True,17
26K30,176,experiment,12,→,right,→,0.7834971999982372,True,17
26K30,177,experiment,72,↑,down,↓,0.9463360999943689,False,17
26K30,178,experiment,72,↑,down,↓,0.5592482000065502,False,17
26K30,179,experiment,60,↑,up,↑,0.6853697999904398,True,17
26K30,180,experiment,84,←,left,←,0.8874534000060521,True,17
26K30,181,experiment,48,↑,up,↑,0.694073999999091,True,17
26K30,182,experiment,108,←,left,←,1.011771499994211,True,17
26K30,183,experiment,72,↑,up,↑,0.8606033999822102,True,17
26K30,184,experiment,96,→,left,←,0.5177902999857906,False,17
26K30,185,experiment,84,←,up,↑,1.0131524999742396,False,17
26K30,186,experiment,120,→,left,←,1.2079895999922883,False,17
26K30,187,experiment,48,↓,left,←,1.0119763999828137,False,17
26K30,188,experiment,168,↓,left,←,0.7050398000283167,False,17
26K30,189,experiment,120,↑,up,↑,0.5917528000136372,True,17
26K30,190,experiment,84,→,right,→,0.8625298000115436,True,17
26K30,191,experiment,60,←,up,↑,0.8534755999862682,False,17
26K30,192,experiment,60,→,right,→,0.7966021999891382,True,17
26K30,193,experiment,36,←,left,←,0.9367491999873891,True,17
26K30,194,experiment,144,↑,up,↑,0.7600394999899436,True,17
26K30,195,experiment,120,↓,up,↑,0.7188734999799635,False,17
26K30,196,experiment,24,↑,up,↑,0.5984008999948855,True,17
26K30,197,experiment,156,↑,up,↑,0.6652680000115652,True,17
26K30,198,experiment,60,↓,up,↑,0.7379857999912929,False,17
26K30,199,experiment,156,→,left,←,0.7746104999969248,False,17
26K30,200,experiment,156,→,up,↑,0.872339199995622,False,17
26K30,201,experiment,108,→,left,←,0.8414195000077598,False,17
26K30,202,experiment,144,←,left,←,0.7255185999965761,True,17
26K30,203,experiment,96,→,up,↑,0.6913586000155192,False,17
26K30,204,experiment,120,↓,up,↑,0.6120599999849219,False,17
26K30,205,experiment,180,↓,left,←,1.1279153000214137,False,17
26K30,206,experiment,36,←,up,↑,0.7658063999842852,False,17
26K30,207,experiment,168,←,no_key,no_letter,-1.0,False,17
26K30,208,experiment,96,↓,right,→,1.1408900000096764,False,17
26K30,209,experiment,168,↓,down,↓,0.9946080000081565,True,17
26K30,210,experiment,48,←,left,←,0.6249117999977898,True,17
26K30,211,experiment,144,→,right,→,0.7052256999886595,True,17
26K30,212,experiment,180,↑,up,↑,1.5206352999957744,True,17
26K30,213,experiment,180,→,right,→,0.7939534000179265,True,17
26K30,214,experiment,12,←,left,←,0.7288989000080619,True,17
26K30,215,experiment,144,←,right,→,1.0562158999964595,False,17
26K30,216,experiment,24,←,left,←,0.8787233999755699,True,17
26K30,217,experiment,24,→,right,→,0.6648319000087213,True,17
26K30,218,experiment,132,→,right,→,1.2037731000164058,True,17
26K30,219,experiment,24,←,left,←,0.8612713000038639,True,17
26K30,220,training,12,↑,down,↓,1.495229099993594,False,18
26K30,221,training,132,←,left,←,0.6016764999949373,True,18
26K30,222,training,156,↓,down,↓,0.9620998000027612,True,18
26K30,223,experiment,156,↑,down,↓,1.304286200000206,False,18
26K30,224,experiment,60,←,left,←,0.9555216000007931,True,18
26K30,225,experiment,144,←,left,←,0.7245916999818292,True,18
26K30,226,experiment,120,↓,down,↓,0.769528500008164,True,18
26K30,227,experiment,168,←,left,←,0.7801207000156865,True,18
26K30,228,experiment,84,↑,down,↓,0.8817908000200987,False,18
26K30,229,experiment,96,↓,down,↓,0.9020016999857035,True,18
26K30,230,experiment,48,←,right,→,1.480352100013988,False,18
26K30,231,experiment,72,↑,down,↓,1.0992060000135098,False,18
26K30,232,experiment,156,→,down,↓,0.875431300024502,False,18
26K30,233,experiment,12,←,left,←,0.939156299980823,True,18
26K30,234,experiment,36,↓,left,←,1.2316824999870732,False,18
26K30,235,experiment,24,↓,down,↓,0.9151180000044405,True,18
26K30,236,experiment,36,↓,down,↓,0.7055668999964837,True,18
26K30,237,experiment,12,←,right,→,0.8191606999898795,False,18
26K30,238,experiment,180,↓,down,↓,0.8749864999845158,True,18
26K30,239,experiment,48,←,left,←,0.9502754000131972,True,18
26K30,240,experiment,156,↓,left,←,0.62260940001579,False,18
26K30,241,experiment,180,→,right,→,0.7447623000189196,True,18
26K30,242,experiment,72,↓,down,↓,0.9099305999989156,True,18
26K30,243,experiment,24,→,right,→,0.7571633000043221,True,18
26K30,244,experiment,156,→,right,→,0.7503405000024941,True,18
26K30,245,experiment,144,↑,right,→,0.603738500009058,False,18
26K30,246,experiment,60,→,right,→,0.8793960000039078,True,18
26K30,247,experiment,180,↑,up,↑,1.1575685999996495,True,18
26K30,248,experiment,24,↑,up,↑,1.1389934000035282,True,18
26K30,249,experiment,48,↑,up,↑,0.597461099998327,True,18
26K30,250,experiment,180,→,right,→,0.6475412000145297,True,18
26K30,251,experiment,108,←,right,→,0.6423234000103548,False,18
26K30,252,experiment,96,↑,up,↑,0.7065856999834068,True,18
26K30,253,experiment,108,↑,up,↑,0.6853383999841753,True,18
26K30,254,experiment,168,↑,no_key,no_letter,-1.0,False,18
26K30,255,experiment,132,→,right,→,0.6007921999844257,True,18
26K30,256,experiment,144,←,right,→,1.1053283000073861,False,18
26K30,257,experiment,168,↓,down,↓,1.2129729999869596,True,18
26K30,258,experiment,120,→,right,→,0.6184987000015099,True,18
26K30,259,experiment,24,←,right,→,1.2496532999794,False,18
26K30,260,experiment,84,←,left,←,0.8311159999866504,True,18
26K30,261,experiment,144,←,right,→,0.8171107999805827,False,18
26K30,262,experiment,108,←,right,→,0.5642819000058807,False,18
26K30,263,experiment,132,↓,right,→,0.6136343999824021,False,18
26K30,264,experiment,60,↓,down,↓,0.841194100008579,True,18
26K30,265,experiment,72,→,right,→,0.5896967999869958,True,18
26K30,266,experiment,120,→,right,→,0.855523699981859,True,18
26K30,267,experiment,60,←,left,←,0.8320433999761008,True,18
26K30,268,experiment,132,→,right,→,1.1073044999793638,True,18
26K30,269,experiment,120,←,right,→,0.5681123999820556,False,18
26K30,270,experiment,36,←,left,←,0.7016106999944896,True,18
26K30,271,experiment,84,↓,right,→,0.48760029999539256,False,18
26K30,272,experiment,132,↑,down,↓,0.7190230000123847,False,18
26K30,273,experiment,96,↓,right,→,1.190468899992993,False,18
26K30,274,experiment,72,↓,down,↓,0.9092697000014596,True,18
26K30,275,experiment,168,↓,down,↓,0.8140995999856386,True,18
26K30,276,experiment,108,→,right,→,0.6065714000142179,True,18
26K30,277,experiment,36,↓,right,→,1.4065704999957234,False,18
26K30,278,experiment,96,←,left,←,0.8377077000041027,True,18
26K30,279,experiment,12,←,right,→,0.8463922000082675,False,18
26K30,280,experiment,12,↓,down,↓,0.8179349999991246,True,18
26K30,281,experiment,48,→,left,←,0.7667027999996208,False,18
26K30,282,experiment,84,↓,down,↓,0.7673329999961425,True,18
26K30,283,training,24,↓,left,←,0.6386098999937531,False,18
26K30,284,training,84,↓,down,↓,0.8474451000220142,True,18
26K30,285,training,60,↓,down,↓,0.9762335999985225,True,18
26K30,286,experiment,132,←,right,→,0.7155840000195894,False,18
26K30,287,experiment,84,←,left,←,0.7487982000166085,True,18
26K30,288,experiment,36,↓,left,←,1.1016126000031363,False,18
26K30,289,experiment,36,↓,right,→,0.7875657999829855,False,18
26K30,290,experiment,48,↓,down,↓,0.718108899978688,True,18
26K30,291,experiment,144,↓,right,→,0.6876197000092361,False,18
26K30,292,experiment,156,←,right,→,0.7107519000128377,False,18
26K30,293,experiment,180,←,right,→,0.5252602999971714,False,18
26K30,294,experiment,120,←,left,←,0.608413300011307,True,18
26K30,295,experiment,12,←,right,→,0.6173373000056017,False,18
26K30,296,experiment,156,→,left,←,0.5920055000169668,False,18
26K30,297,experiment,96,↓,right,→,0.9180268000054639,False,18
26K30,298,experiment,120,↑,left,←,0.7576582000183407,False,18
26K30,299,experiment,108,↑,right,→,0.7630787999951281,False,18
26K30,300,experiment,120,↓,down,↓,1.1738475000020117,True,18
26K30,301,experiment,144,→,right,→,0.9551147999882232,True,18
26K30,302,experiment,96,←,right,→,1.0340824000013527,False,18
26K30,303,experiment,108,←,right,→,0.9568265000125393,False,18
26K30,304,experiment,84,↓,right,→,0.7637426000146661,False,18
26K30,305,experiment,60,→,right,→,0.5710394000052474,True,18
26K30,306,experiment,60,→,right,→,0.5695203999930527,True,18
26K30,307,experiment,96,↑,right,→,0.8885378999984823,False,18
26K30,308,experiment,120,←,left,←,0.5683562000049278,True,18
26K30,309,experiment,48,↑,right,→,1.225093500019284,False,18
26K30,310,experiment,24,→,right,→,0.5057719000033103,True,18
26K30,311,experiment,12,↓,down,↓,0.9241067999973893,True,18
26K30,312,experiment,144,←,left,←,0.807826300006127,True,18
26K30,313,experiment,36,←,left,←,0.647736500017345,True,18
26K30,314,experiment,132,→,right,→,0.7137723000196274,True,18
26K30,315,experiment,168,↑,up,↑,0.7733810000063386,True,18
26K30,316,experiment,24,↑,no_key,no_letter,-1.0,False,18
26K30,317,experiment,36,↓,down,↓,0.8145252999966033,True,18
26K30,318,experiment,180,↓,down,↓,0.864809199993033,True,18
26K30,319,experiment,108,←,left,←,1.0270229000016116,True,18
26K30,320,experiment,180,←,left,←,0.8159152999869548,True,18
26K30,321,experiment,168,↓,down,↓,0.8911242999893147,True,18
26K30,322,experiment,84,←,right,→,1.0721475999744143,False,18
26K30,323,experiment,72,↑,up,↑,0.9864515000081155,True,18
26K30,324,experiment,72,→,right,→,0.9896759999974165,True,18
26K30,325,experiment,48,↓,down,↓,1.22011319999001,True,18
26K30,326,experiment,24,↓,down,↓,0.8195621000195388,True,18
26K30,327,experiment,132,↓,down,↓,0.8383941999927629,True,18
26K30,328,experiment,144,→,right,→,0.7265642000129446,True,18
26K30,329,experiment,96,↓,down,↓,0.8267382999765687,True,18
26K30,330,experiment,60,↓,down,↓,0.7692774999886751,True,18
26K30,331,experiment,12,→,right,→,1.0467549999884795,True,18
26K30,332,experiment,156,←,left,←,0.71914800000377,True,18
26K30,333,experiment,168,↓,right,→,0.704509400005918,False,18
26K30,334,experiment,180,↑,up,↑,0.6626366999989841,True,18
26K30,335,experiment,72,↓,down,↓,1.1838589999824762,True,18
26K30,336,experiment,84,↑,right,→,0.5060426999989431,False,18
26K30,337,experiment,60,↓,up,↑,0.8604862999927718,False,18
26K30,338,experiment,48,←,left,←,0.8141135000041686,True,18
26K30,339,experiment,108,↑,up,↑,0.9512404999986757,True,18
26K30,340,experiment,12,↓,no_key,no_letter,-1.0,False,18
26K30,341,experiment,132,↑,down,↓,0.9847132999857422,False,18
26K30,342,experiment,24,→,down,↓,0.9045004999788944,False,18
26K30,343,experiment,72,↓,down,↓,0.9480245999875478,True,18
26K30,344,experiment,168,←,down,↓,1.1700652999861632,False,18
26K30,345,experiment,156,→,right,→,0.8063465000013821,True,18
26K30,346,training,156,←,left,←,1.1931659000110812,True,18
26K30,347,training,24,↓,down,↓,0.7731724999903236,True,18
26K30,348,training,96,↑,down,↓,0.7788528999953996,False,18
26K30,349,experiment,48,↑,up,↑,0.6684164000034798,True,18
26K30,350,experiment,84,↓,down,↓,0.7746221999987029,True,18
26K30,351,experiment,24,→,right,→,0.5778559999889694,True,18
26K30,352,experiment,156,↑,down,↓,0.8603369999909773,False,18
26K30,353,experiment,108,↓,down,↓,0.8000489999831188,True,18
26K30,354,experiment,24,↓,down,↓,0.9675886000040919,True,18
26K30,355,experiment,84,←,left,←,0.8914555000083055,True,18
26K30,356,experiment,180,↑,down,↓,0.8556656000146177,False,18
26K30,357,experiment,36,↓,left,←,1.0842063000018243,False,18
26K30,358,experiment,48,↓,up,↑,0.960183799994411,False,18
26K30,359,experiment,84,→,right,→,0.6742143000010401,True,18
26K30,360,experiment,72,↓,down,↓,0.7560337999893818,True,18
26K30,361,experiment,60,↑,up,↑,0.976011999999173,True,18
26K30,362,experiment,156,↑,up,↑,0.7618914000049699,True,18
26K30,363,experiment,96,→,left,←,0.8311831000028178,False,18
26K30,364,experiment,168,↑,up,↑,0.7150956999976188,True,18
26K30,365,experiment,180,→,right,→,0.7671098000137135,True,18
26K30,366,experiment,168,↓,up,↑,0.8514743999985512,False,18
26K30,367,experiment,120,→,right,→,0.8701730000029784,True,18
26K30,368,experiment,12,→,right,→,0.8483569999807514,True,18
26K30,369,experiment,60,→,right,→,0.8846850999980234,True,18
26K30,370,experiment,156,↓,up,↑,0.9418926000071224,False,18
26K30,371,experiment,12,←,right,→,0.7128399999928661,False,18
26K30,372,experiment,180,←,up,↑,0.8927848000021186,False,18
26K30,373,experiment,108,↓,down,↓,0.8304819000186399,True,18
26K30,374,experiment,72,←,left,←,1.478129800001625,True,18
26K30,375,experiment,120,→,left,←,0.5672802999906708,False,18
26K30,376,experiment,120,←,left,←,0.899838000012096,True,18
26K30,377,experiment,96,←,left,←,0.7185846000211313,True,18
26K30,378,experiment,72,↓,down,↓,0.8368704000022262,True,18
26K30,379,experiment,60,←,left,←,0.8017911999777425,True,18
26K30,380,experiment,24,←,no_key,no_letter,-1.0,False,18
26K30,381,experiment,120,↓,down,↓,0.809691100002965,True,18
26K30,382,experiment,96,→,right,→,0.8179224999912549,True,18
26K30,383,experiment,12,↓,left,←,0.981469799997285,False,18
26K30,384,experiment,156,↑,up,↑,1.0753090000071097,True,18
26K30,385,experiment,132,↓,right,→,0.925232599984156,False,18
26K30,386,experiment,36,←,left,←,0.8505191000003833,True,18
26K30,387,experiment,132,↑,left,←,0.7244043000100646,False,18
26K30,388,experiment,48,→,right,→,0.9817831999971531,True,18
26K30,389,experiment,36,←,left,←,1.0211167999950703,True,18
26K30,390,experiment,24,↑,left,←,0.8084671999968123,False,18
26K30,391,experiment,96,←,right,→,1.0204603000020143,False,18
26K30,392,experiment,144,↓,up,↑,0.848181499983184,False,18
26K30,393,experiment,168,↑,up,↑,1.03175639998517,True,18
26K30,394,experiment,144,→,right,→,0.9122327999793924,True,18
26K30,395,experiment,48,↑,up,↑,1.2009074999950826,True,18
26K30,396,experiment,132,↑,up,↑,1.8659171999897808,True,18
26K30,397,experiment,168,←,up,↑,1.1761329000000842,False,18
26K30,398,experiment,84,→,right,→,0.943128600018099,True,18
26K30,399,experiment,60,↑,right,→,0.8112175000132993,False,18
26K30,400,experiment,144,↑,right,→,0.8114479999931064,False,18
26K30,401,experiment,72,↑,left,←,1.7722588000178803,False,18
26K30,402,experiment,12,↑,left,←,1.4373457000183407,False,18
26K30,403,experiment,132,→,right,→,0.6902702999941539,True,18
26K30,404,experiment,108,→,right,→,1.1674647000036202,True,18
26K30,405,experiment,108,↑,right,→,0.867640600015875,False,18
26K30,406,experiment,36,←,no_key,no_letter,-1.0,False,18
26K30,407,experiment,144,↓,down,↓,1.1939350000175182,True,18
26K30,408,experiment,180,←,left,←,0.7337855999940075,True,18
26K30,409,training,132,←,right,→,0.7353991999989375,False,18
26K30,410,training,156,←,left,←,0.6794108999893069,True,18
26K30,411,training,156,←,left,←,0.6174268999893684,True,18
26K30,412,experiment,144,←,left,←,0.4170899000018835,True,18
26K30,413,experiment,72,→,right,→,0.6855548000021372,True,18
26K30,414,experiment,132,→,right,→,0.71574720001081,True,18
26K30,415,experiment,60,↓,down,↓,0.8936531000072137,True,18
26K30,416,experiment,60,←,left,←,0.9030017000040971,True,18
26K30,417,experiment,144,↑,down,↓,0.8053825999959372,False,18
26K30,418,experiment,60,↓,down,↓,0.7317509999847971,True,18
26K30,419,experiment,120,→,right,→,0.5932505000091624,True,18
26K30,420,experiment,48,→,right,→,0.5338087999843992,True,18
26K30,421,experiment,156,↑,right,→,1.274885999999242,False,18
26K30,422,experiment,84,←,right,→,0.5733073999872431,False,18
26K30,423,experiment,36,↓,down,↓,0.8563109000097029,True,18
26K30,424,experiment,168,→,right,→,0.7329478999890853,True,18
26K30,425,experiment,12,←,right,→,1.315844199998537,False,18
26K30,426,experiment,24,↑,up,↑,0.8120968000148423,True,18
26K30,427,experiment,180,↓,up,↑,1.0508778000075836,False,18
26K30,428,experiment,132,←,left,←,0.8303012000105809,True,18
26K30,429,experiment,180,←,left,←,0.6391869999933988,True,18
26K30,430,experiment,96,↓,down,↓,1.0846423000039067,True,18
26K30,431,experiment,168,←,left,←,0.8387844999961089,True,18
26K30,432,experiment,156,→,right,→,0.6050694999867119,True,18
26K30,433,experiment,36,←,left,←,1.0193970999971498,True,18
26K30,434,experiment,48,↓,no_key,no_letter,-1.0,False,18
26K30,435,experiment,96,↑,up,↑,0.7943807000119705,True,18
26K30,436,experiment,36,↓,down,↓,0.7492933000030462,True,18
26K30,437,experiment,144,↓,down,↓,0.7286103999940678,True,18
26K30,438,experiment,144,↓,down,↓,0.8564684000157285,True,18
26K30,439,experiment,156,←,left,←,0.8844834000046831,True,18
26K30,440,experiment,48,↓,left,←,0.9284084000100847,False,18
26K30,441,experiment,108,←,left,←,0.8587651000125334,True,18
26K30,442,experiment,24,→,left,←,0.9340889000159223,False,18
26K30,443,experiment,156,→,right,→,0.7350345000158995,True,18
26K30,444,experiment,72,↓,down,↓,1.4734212000039406,True,18
26K30,445,experiment,108,↑,down,↓,0.9376302000018768,False,18
26K30,446,experiment,60,→,right,→,0.5642248999793082,True,18
26K30,447,experiment,132,←,right,→,0.778921100019943,False,18
26K30,448,experiment,72,←,left,←,1.0048573999956716,True,18
26K30,449,experiment,24,→,right,→,0.8792622000037227,True,18
26K30,450,experiment,72,←,left,←,0.5899188999901526,True,18
26K30,451,experiment,168,↑,right,→,0.6635822000098415,False,18
26K30,452,experiment,168,←,right,→,0.6242370999825653,False,18
26K30,453,experiment,12,↑,right,→,0.6079237000085413,False,18
26K30,454,experiment,120,↑,right,→,0.811088699992979,False,18
26K30,455,experiment,84,←,no_key,no_letter,-1.0,False,18
26K30,456,experiment,84,←,left,←,0.8264724000182468,True,18
26K30,457,experiment,120,←,left,←,0.6166917000082321,True,18
26K30,458,experiment,36,↓,left,←,0.9793720000016037,False,18
26K30,459,experiment,48,→,right,→,1.0844789999828208,True,18
26K30,460,experiment,96,←,left,←,0.7862590000149794,True,18
26K30,461,experiment,120,↓,left,←,0.9301486999902409,False,18
26K30,462,experiment,108,↓,down,↓,0.734211500006495,True,18
26K30,463,experiment,96,↑,right,→,0.9895521000144072,False,18
26K30,464,experiment,24,←,left,←,0.7390687000006437,True,18
26K30,465,experiment,12,↑,up,↑,0.7155901999794878,True,18
26K30,466,experiment,180,→,left,←,0.7203112000133842,False,18
26K30,467,experiment,12,↑,left,←,1.0300509999797214,False,18
26K30,468,experiment,180,→,right,→,0.7629776000103448,True,18
26K30,469,experiment,132,↓,right,→,0.6779328999982681,False,18
26K30,470,experiment,108,←,left,←,0.6844080000009853,True,18
26K30,471,experiment,84,↓,up,↑,0.8192462000006344,False,18
26K30,472,training,24,↓,no_key,no_letter,-1.0,False,18
26K30,473,training,72,→,right,→,0.8005971999955364,True,18
26K30,474,training,36,↑,up,↑,0.7449843999929726,True,18
26K30,475,experiment,132,↑,up,↑,0.64823979997891,True,18
26K30,476,experiment,144,↑,up,↑,0.5722646999929566,True,18
26K30,477,experiment,12,↑,right,→,1.0994950000022072,False,18
26K30,478,experiment,108,←,up,↑,0.9614832000224851,False,18
26K30,479,experiment,96,↓,down,↓,0.8710126999940258,True,18
26K30,480,experiment,96,↑,up,↑,0.6850983999902382,True,18
26K30,481,experiment,144,←,right,→,0.7853569999861065,False,18
26K30,482,experiment,180,↓,no_key,no_letter,-1.0,False,18
26K30,483,experiment,60,↑,up,↑,0.6091568999981973,True,18
26K30,484,experiment,48,←,left,←,0.8858073999872431,True,18
26K30,485,experiment,84,↑,up,↑,0.7817331999831367,True,18
26K30,486,experiment,132,↑,up,↑,0.5351476999931037,True,18
26K30,487,experiment,120,←,left,←,0.6857454999990296,True,18
26K30,488,experiment,120,→,left,←,0.7987780999974348,False,18
26K30,489,experiment,24,↓,up,↑,1.4884595999901649,False,18
26K30,490,experiment,132,→,left,←,0.7614429000241216,False,18
26K30,491,experiment,180,↓,down,↓,1.0841174999950454,True,18
26K30,492,experiment,144,←,left,←,0.6770216999866534,True,18
26K30,493,experiment,12,↓,right,→,1.339081099984469,False,18
26K30,494,experiment,12,→,left,←,0.48216660000616685,False,18
26K30,495,experiment,84,↓,left,←,1.4915228999743704,False,18
26K30,496,experiment,156,→,right,→,0.7620766999898478,True,18
26K30,497,experiment,72,↑,up,↑,0.8092756999831181,True,18
26K30,498,experiment,24,↑,up,↑,0.8608712000132073,True,18
26K30,499,experiment,84,↓,down,↓,0.6845512000145391,True,18
26K30,500,experiment,96,↓,down,↓,0.864516299974639,True,18
26K30,501,experiment,60,→,right,→,0.726431599992793,True,18
26K30,502,experiment,96,→,right,→,0.6403934999834746,True,18
26K30,503,experiment,120,←,left,←,0.7365091999818105,True,18
26K30,504,experiment,180,↓,down,↓,0.7569042999821249,True,18
26K30,505,experiment,156,→,right,→,0.6939708999998402,True,18
26K30,506,experiment,36,↑,right,→,0.9118600999936461,False,18
26K30,507,experiment,72,←,left,←,1.6734276000061072,True,18
26K30,508,experiment,144,←,left,←,0.8069235000002664,True,18
26K30,509,experiment,108,→,right,→,0.6877786000259221,True,18
26K30,510,experiment,132,↓,down,↓,0.8786465000011958,True,18
26K30,511,experiment,36,↓,down,↓,0.6820832999947015,True,18
26K30,512,experiment,36,←,left,←,0.7776441000169143,True,18
26K30,513,experiment,48,←,left,←,0.8988162000023294,True,18
26K30,514,experiment,48,↓,left,←,1.1435781999898609,False,18
26K30,515,experiment,156,←,left,←,0.8071924000105355,True,18
26K30,516,experiment,12,←,left,←,0.9897540000092704,True,18
26K30,517,experiment,108,←,left,←,0.603831899992656,True,18
26K30,518,experiment,168,↑,up,↑,0.8902288999815937,True,18
26K30,519,experiment,60,↑,up,↑,0.8020151000237092,True,18
26K30,520,experiment,156,→,up,↑,0.5959080999891739,False,18
26K30,521,experiment,24,←,left,←,0.7197317000245675,True,18
26K30,522,experiment,168,←,left,←,1.3017353999894112,True,18
26K30,523,experiment,120,←,left,←,0.561333999998169,True,18
26K30,524,experiment,84,→,right,→,0.8091702999954578,True,18
26K30,525,experiment,72,←,right,→,0.901496499980567,False,18
26K30,526,experiment,168,↓,left,←,0.9371830999734811,False,18
26K30,527,experiment,60,↑,left,←,1.1436410000023898,False,18
26K30,528,experiment,48,→,right,→,0.7957545000244863,True,18
26K30,529,experiment,180,↓,right,→,1.0752493999898434,False,18
26K30,530,experiment,72,←,left,←,0.7002607999893371,True,18
26K30,531,experiment,168,↓,down,↓,1.1756592000019737,True,18
26K30,532,experiment,24,↓,down,↓,1.1341001999971922,True,18
26K30,533,experiment,108,←,right,→,0.9365740999928676,False,18
26K30,534,experiment,36,→,right,→,1.478312499995809,True,18
26K30,535,training,12,→,left,←,0.7510280999995302,False,18
26K30,536,training,180,←,left,←,0.6018918000045232,True,18
26K30,537,training,60,↓,down,↓,0.6932962000137195,True,18
26K30,538,experiment,84,↑,down,↓,0.7905488999967929,False,18
26K30,539,experiment,72,↓,down,↓,0.7911462000047322,True,18
26K30,540,experiment,12,→,right,→,0.5902342000044882,True,18
26K30,541,experiment,96,→,up,↑,0.6412917999841738,False,18
26K30,542,experiment,108,↑,right,→,0.9184773000015412,False,18
26K30,543,experiment,180,↓,down,↓,0.8364499000017531,True,18
26K30,544,experiment,144,↓,down,↓,0.6779095999954734,True,18
26K30,545,experiment,120,←,left,←,0.7997821999888401,True,18
26K30,546,experiment,132,←,left,←,0.5450194000150077,True,18
26K30,547,experiment,180,→,right,→,0.7798834999848623,True,18
26K30,548,experiment,180,↑,right,→,1.133430199988652,False,18
26K30,549,experiment,156,←,right,→,0.7488925000070594,False,18
26K30,550,experiment,48,←,right,→,0.6282264000037685,False,18
26K30,551,experiment,60,↑,left,←,0.9570626999775413,False,18
26K30,552,experiment,156,↓,right,→,1.0833666999824345,False,18
26K30,553,experiment,108,←,left,←,0.6921447000058834,True,18
26K30,554,experiment,12,←,left,←,0.8021794999949634,True,18
26K30,555,experiment,24,↑,left,←,0.8311071000061929,False,18
26K30,556,experiment,108,←,left,←,0.5492009999870788,True,18
26K30,557,experiment,36,↑,up,↑,0.7649459000094794,True,18
26K30,558,experiment,120,→,right,→,0.6391805000021122,True,18
26K30,559,experiment,72,←,right,→,0.5403537999955006,False,18
26K30,560,experiment,168,→,left,←,0.7638050999958068,False,18
26K30,561,experiment,60,↓,left,←,0.9680622000014409,False,18
26K30,562,experiment,96,↓,down,↓,0.9321959000080824,True,18
26K30,563,experiment,96,↓,up,↑,1.1655678999959491,False,18
26K30,564,experiment,12,↓,down,↓,0.7255606999970041,True,18
26K30,565,experiment,132,↑,no_key,no_letter,-1.0,False,18
26K30,566,experiment,156,←,up,↑,1.470723000005819,False,18
26K30,567,experiment,168,↑,no_key,no_letter,-1.0,False,18
26K30,568,experiment,108,←,left,←,1.815300299989758,True,18
26K30,569,experiment,84,↓,left,←,1.7474480000091717,False,18
26K30,570,experiment,48,↓,down,↓,0.9060380000155419,True,18
26K30,571,experiment,144,↑,down,↓,0.9922565000015311,False,18
26K30,572,experiment,156,↓,right,→,1.2146812999853864,False,18
26K30,573,experiment,120,↑,left,←,1.311626900016563,False,18
26K30,574,experiment,60,→,right,→,0.7736382999864873,True,18
26K30,575,experiment,132,→,right,→,0.5678050999995321,True,18
26K30,576,experiment,180,→,right,→,0.6339016999991145,True,18
26K30,577,experiment,60,↓,down,↓,0.8561694000090938,True,18
26K30,578,experiment,144,→,right,→,0.7597604000184219,True,18
26K30,579,experiment,168,→,right,→,0.9513502000190783,True,18
26K30,580,experiment,120,↓,down,↓,0.6778461000067182,True,18
26K30,581,experiment,48,→,right,→,0.6849504999991041,True,18
26K30,582,experiment,36,↑,up,↑,0.9950572999950964,True,18
26K30,583,experiment,36,↓,up,↑,0.8253932000079658,False,18
26K30,584,experiment,36,→,right,→,0.7719418999913614,True,18
26K30,585,experiment,72,↓,down,↓,0.7103129999886733,True,18
26K30,586,experiment,48,↓,up,↑,0.7958350999979302,False,18
26K30,587,experiment,84,↓,down,↓,1.0109182999876793,True,18
26K30,588,experiment,144,←,left,←,0.7809758000075817,True,18
26K30,589,experiment,132,←,left,←,0.7108675000199582,True,18
26K30,590,experiment,12,→,right,→,0.5666389999969397,True,18
26K30,591,experiment,72,←,left,←,0.6495783999853302,True,18
26K30,592,experiment,24,→,left,←,1.0507897000061348,False,18
26K30,593,experiment,24,←,left,←,0.8691515999962576,True,18
26K30,594,experiment,168,←,left,←,0.575598399998853,True,18
26K30,595,experiment,96,→,right,→,0.6138529000163544,True,18
26K30,596,experiment,84,↑,up,↑,0.6444030999846291,True,18
26K30,597,experiment,24,→,right,→,0.7445874000259209,True,18
26K30,598,training,48,↑,up,↑,1.4377609999792185,True,18
26K30,599,training,96,↑,up,↑,0.7248947999905795,True,18
26K30,600,training,108,↓,up,↑,0.8631575999897905,False,18
26K30,601,experiment,120,→,right,→,0.8396403999940958,True,18
26K30,602,experiment,132,→,right,→,0.5414797000121325,True,18
26K30,603,experiment,108,↑,up,↑,1.1098816999874543,True,18
26K30,604,experiment,144,↑,up,↑,0.652348500007065,True,18
26K30,605,experiment,168,↑,up,↑,0.6683869000116829,True,18
26K30,606,experiment,156,↑,up,↑,1.0524173000012524,True,18
26K30,607,experiment,24,↓,down,↓,0.8812547999841627,True,18
26K30,608,experiment,12,→,right,→,1.0101893999963067,True,18
26K30,609,experiment,24,←,right,→,0.9761188999982551,False,18
26K30,610,experiment,156,→,right,→,0.7564905000035651,True,18
26K30,611,experiment,132,↑,up,↑,0.6873054000025149,True,18
26K30,612,experiment,180,↑,up,↑,0.7630527000001166,True,18
26K30,613,experiment,60,→,right,→,0.6973883000027854,True,18
26K30,614,experiment,84,↓,down,↓,0.8757867999956943,True,18
26K30,615,experiment,168,←,right,→,0.8308649999962654,False,18
26K30,616,experiment,108,↑,down,↓,1.2345290999801364,False,18
26K30,617,experiment,60,↓,down,↓,1.0770011999993585,True,18
26K30,618,experiment,48,←,left,←,0.7324048999871593,True,18
26K30,619,experiment,36,→,right,→,0.7003423999994993,True,18
26K30,620,experiment,84,←,left,←,0.7423025000025518,True,18
26K30,621,experiment,60,↑,up,↑,0.6924588000110816,True,18
26K30,622,experiment,180,←,left,←,0.6580615999992006,True,18
26K30,623,experiment,108,↑,up,↑,0.6404523999954108,True,18
26K30,624,experiment,156,↓,up,↑,0.9110095000069123,False,18
26K30,625,experiment,120,↑,up,↑,0.6215720000036526,True,18
26K30,626,experiment,180,←,left,←,0.7119142999872565,True,18
26K30,627,experiment,48,↑,up,↑,0.6823802999861073,True,18
26K30,628,experiment,96,↓,down,↓,0.7706992999883369,True,18
26K30,629,experiment,168,↓,down,↓,0.844767700007651,True,18
26K30,630,experiment,108,↑,down,↓,0.8998921999882441,False,18
26K30,631,experiment,72,↓,down,↓,0.6923893000057433,True,18
26K30,632,experiment,84,↓,down,↓,0.7366128000139724,True,18
26K30,633,experiment,96,→,right,→,0.642464700009441,True,18
26K30,634,experiment,24,↑,up,↑,0.5738710000005085,True,18
26K30,635,experiment,12,→,right,→,0.6625026999972761,True,18
26K30,636,experiment,48,↑,right,→,1.276354999979958,False,18
26K30,637,experiment,72,↓,down,↓,1.0816512999881525,True,18
26K30,638,experiment,120,←,left,←,0.6969518999976572,True,18
26K30,639,experiment,132,↓,up,↑,1.1221001999801956,False,18
26K30,640,experiment,12,→,right,→,0.8186222000222187,True,18
26K30,641,experiment,72,↓,down,↓,1.1587900999875274,True,18
26K30,642,experiment,180,↑,up,↑,0.8607593000051565,True,18
26K30,643,experiment,144,↓,up,↑,1.1663256000028923,False,18
26K30,644,experiment,120,↓,up,↑,0.9070437999907881,False,18
26K30,645,experiment,96,←,right,→,1.172394199995324,False,18
26K30,646,experiment,144,←,left,←,0.8777589999954216,True,18
26K30,647,experiment,84,↓,up,↑,0.8804222000180744,False,18
26K30,648,experiment,168,←,right,→,0.9587460999900941,False,18
26K30,649,experiment,132,↑,up,↑,0.7211253000132274,True,18
26K30,650,experiment,60,→,up,↑,0.6020451999793295,False,18
26K30,651,experiment,36,↓,down,↓,0.8169521999952849,True,18
26K30,652,experiment,72,←,left,←,0.687395800021477,True,18
26K30,653,experiment,12,↑,no_key,no_letter,-1.0,False,18
26K30,654,experiment,48,→,up,↑,0.858189599995967,False,18
26K30,655,experiment,36,↑,up,↑,0.5826374000171199,True,18
26K30,656,experiment,144,←,up,↑,0.6279275999986567,False,18
26K30,657,experiment,36,←,right,→,0.6589297000027727,False,18
26K30,658,experiment,96,←,left,←,0.8115638000017498,True,18
26K30,659,experiment,24,↓,left,←,0.9306552000052761,False,18
26K30,660,experiment,156,↑,up,↑,0.4968747000093572,True,18
26K30,661,training,108,←,left,←,0.8776841000071727,True,18
26K30,662,training,132,←,right,→,0.6734745999856386,False,18
26K30,663,training,132,↑,right,→,1.2130711000063457,False,18
26K30,664,experiment,168,→,right,→,0.8931122999929357,True,18
26K30,665,experiment,180,↓,right,→,0.5446274999994785,False,18
26K30,666,experiment,132,→,right,→,0.5684338000137359,True,18
26K30,667,experiment,60,→,left,←,0.589867900009267,False,18
26K30,668,experiment,132,↑,down,↓,1.325428500014823,False,18
26K30,669,experiment,180,→,right,→,0.7512834999943152,True,18
26K30,670,experiment,108,↑,up,↑,1.0444392999925185,True,18
26K30,671,experiment,36,↑,up,↑,0.9384572000126354,True,18
26K30,672,experiment,72,↑,up,↑,0.6040975000069011,True,18
26K30,673,experiment,144,↓,up,↑,0.5995118000137154,False,18
26K30,674,experiment,144,←,left,←,0.7051376999879722,True,18
26K30,675,experiment,12,↓,left,←,0.8806961000082083,False,18
26K30,676,experiment,60,↓,left,←,0.625514999992447,False,18
26K30,677,experiment,144,↓,down,↓,1.3814861999999266,True,18
26K30,678,experiment,12,→,right,→,0.8069559000141453,True,18
26K30,679,experiment,180,→,right,→,0.5242207999981474,True,18
26K30,680,experiment,108,←,left,←,0.8408272000087891,True,18
26K30,681,experiment,48,→,right,→,0.9656692999997176,True,18
26K30,682,experiment,84,←,right,→,1.2111476999998558,False,18
26K30,683,experiment,144,↑,up,↑,0.6332007000164595,True,18
26K30,684,experiment,24,→,right,→,1.1101729999936651,True,18
26K30,685,experiment,72,↑,right,→,0.9469863999984227,False,18
26K30,686,experiment,60,↑,up,↑,0.6379480000177864,True,18
26K30,687,experiment,132,→,right,→,0.6225310000008903,True,18
26K30,688,experiment,156,↑,up,↑,0.6196909999998752,True,18
26K30,689,experiment,168,←,up,↑,0.9455584999814164,False,18
26K30,690,experiment,48,←,left,←,0.7706508999981452,True,18
26K30,691,experiment,120,↓,up,↑,0.9254211000225041,False,18
26K30,692,experiment,156,↑,up,↑,0.6238713999919128,True,18
26K30,693,experiment,120,↑,up,↑,0.5558889000094496,True,18
26K30,694,experiment,72,↑,up,↑,0.5720082999905571,True,18
26K30,695,experiment,96,←,left,←,0.594102600007318,True,18
26K30,696,experiment,24,→,right,→,0.7351501000230201,True,18
26K30,697,experiment,156,←,right,→,0.9917183000070509,False,18
26K30,698,experiment,168,↑,up,↑,0.6032219000044279,True,18
26K30,699,experiment,96,→,right,→,0.7988949000136927,True,18
26K30,700,experiment,12,↓,down,↓,1.1046128000016324,True,18
26K30,701,experiment,36,←,left,←,0.8603735000069719,True,18
26K30,702,experiment,12,→,right,→,0.8514301000104751,True,18
26K30,703,experiment,24,←,left,←,0.6724482000281569,True,18
26K30,704,experiment,168,↑,right,→,1.0541159999847878,False,18
26K30,705,experiment,48,↑,up,↑,0.7380438000254799,True,18
26K30,706,experiment,132,↑,up,↑,0.7155228999909014,True,18
26K30,707,experiment,108,↑,up,↑,0.6877158999850508,True,18
26K30,708,experiment,84,↓,up,↑,0.7487091000075452,False,18
26K30,709,experiment,60,↑,up,↑,1.4158488999819383,True,18
26K30,710,experiment,72,←,left,←,0.6747370999946725,True,18
26K30,711,experiment,84,←,left,←,0.47402839999995194,True,18
26K30,712,experiment,84,→,right,→,0.4939531999989413,True,18
26K30,713,experiment,156,↓,down,↓,0.9594161999993958,True,18
26K30,714,experiment,36,↓,down,↓,0.9403821999731008,True,18
26K30,715,experiment,36,←,left,←,0.6929819000069983,True,18
26K30,716,experiment,96,↑,down,↓,0.8164359999937005,False,18
26K30,717,experiment,48,↓,down,↓,0.6998552999866661,True,18
26K30,718,experiment,24,←,left,←,0.8886222000000998,True,18
26K30,719,experiment,108,→,left,←,0.723940700001549,False,18
26K30,720,experiment,120,↑,up,↑,0.8642720000061672,True,18
26K30,721,experiment,96,↑,down,↓,1.0724402999912854,False,18
26K30,722,experiment,180,↑,up,↑,0.7751186999958009,True,18
26K30,723,experiment,120,↓,up,↑,1.166404199990211,False,18
26K30,724,training,132,→,left,←,0.5847831999999471,False,18
26K30,725,training,60,↑,up,↑,0.6328043999965303,True,18
26K30,726,training,120,→,right,→,0.6149576000170782,True,18
26K30,727,experiment,24,↑,up,↑,0.6924637000192888,True,18
26K30,728,experiment,60,→,right,→,0.6720258999848738,True,18
26K30,729,experiment,132,←,right,→,0.49344099999871105,False,18
26K30,730,experiment,120,→,right,→,1.146302699984517,True,18
26K30,731,experiment,72,→,right,→,0.6948527000204194,True,18
26K30,732,experiment,24,→,right,→,0.6051259000087157,True,18
26K30,733,experiment,168,→,right,→,0.7797257000056561,True,18
26K30,734,experiment,36,↓,right,→,1.0805358000216074,False,18
26K30,735,experiment,180,↑,right,→,0.975871599977836,False,18
26K30,736,experiment,48,←,right,→,1.1739479999814648,False,18
26K30,737,experiment,120,→,right,→,1.226022999995621,True,18
26K30,738,experiment,96,↑,up,↑,0.4977876999764703,True,18
26K30,739,experiment,84,←,left,←,0.8628645999997389,True,18
26K30,740,experiment,108,→,left,←,1.033211100002518,False,18
26K30,741,experiment,60,↓,down,↓,0.8406438000092749,True,18
26K30,742,experiment,84,←,left,←,0.6979147000238299,True,18
26K30,743,experiment,120,←,left,←,0.5670081999851391,True,18
26K30,744,experiment,144,↓,left,←,0.7446367999946233,False,18
26K30,745,experiment,180,←,left,←,0.6861552000045776,True,18
26K30,746,experiment,12,↑,no_key,no_letter,-1.0,False,18
26K30,747,experiment,168,←,left,←,0.0174620000179857,True,18
26K30,748,experiment,36,↑,no_key,no_letter,-1.0,False,18
26K30,749,experiment,108,↑,up,↑,1.024761100008618,True,18
26K30,750,experiment,12,→,no_key,no_letter,-1.0,False,18
26K30,751,experiment,144,←,left,←,0.6955589999852236,True,18
26K30,752,experiment,36,→,right,→,0.6726101000094786,True,18
26K30,753,experiment,96,↓,down,↓,1.0578459999815095,True,18
26K30,754,experiment,72,→,right,→,1.2323866999940947,True,18
26K30,755,experiment,132,↑,up,↑,0.6520057000161614,True,18
26K30,756,experiment,108,↑,right,→,1.1037416000035591,False,18
26K30,757,experiment,180,←,right,→,1.4145833999791648,False,18
26K30,758,experiment,144,→,right,→,0.9555213999992702,True,18
26K30,759,experiment,132,↑,down,↓,0.9672158999892417,False,18
26K30,760,experiment,84,→,right,→,0.522166799986735,True,18
26K30,761,experiment,12,↑,up,↑,0.7348969999875408,True,18
26K30,762,experiment,168,←,right,→,0.7690403000160586,False,18
26K30,763,experiment,108,←,right,→,0.9279390999872703,False,18
26K30,764,experiment,36,→,left,←,0.856379900011234,False,18
26K30,765,experiment,168,↓,down,↓,1.3254752999928314,True,18
26K30,766,experiment,156,←,left,←,0.4895953999948688,True,18
26K30,767,experiment,96,↑,up,↑,0.6599486999912187,True,18
26K30,768,experiment,156,↓,right,→,0.9009605000028387,False,18
26K30,769,experiment,12,↓,right,→,0.9850988000107463,False,18
26K30,770,experiment,156,→,right,→,0.7932148999825586,True,18
26K30,771,experiment,72,→,right,→,0.6866328000032809,True,18
26K30,772,experiment,120,→,right,→,0.6785008999868296,True,18
26K30,773,experiment,180,→,right,→,0.7304741000116337,True,18
26K30,774,experiment,48,↓,right,→,0.5455592000216711,False,18
26K30,775,experiment,24,→,right,→,0.6462834000121802,True,18
26K30,776,experiment,72,←,right,→,0.7091218999994453,False,18
26K30,777,experiment,144,↓,no_key,no_letter,-1.0,False,18
26K30,778,experiment,84,↓,no_key,no_letter,-1.0,False,18
26K30,779,experiment,60,↓,right,→,1.0889707999886014,False,18
26K30,780,experiment,48,↑,right,→,0.9046016999927815,False,18
26K30,781,experiment,132,→,right,→,1.4078162999940105,True,18
26K30,782,experiment,156,→,right,→,0.5621245999936946,True,18
26K30,783,experiment,96,↑,right,→,0.9873543999856338,False,18
26K30,784,experiment,24,↑,left,←,0.8727233999816235,False,18
26K30,785,experiment,48,↓,right,→,0.9276677999878302,False,18
26K30,786,experiment,60,←,left,←,0.49557800000184216,True,18
26K30,787,training,48,←,left,←,1.4147509999747854,True,18
26K30,788,training,12,↓,down,↓,0.7904896000109147,True,18
26K30,789,training,132,→,right,→,0.6141205999883823,True,18
26K30,790,experiment,72,↑,up,↑,0.6195698000083212,True,18
26K30,791,experiment,60,←,right,→,0.5972765999904368,False,18
26K30,792,experiment,12,→,right,→,0.7908127999980934,True,18
26K30,793,experiment,48,↓,down,↓,0.9241668999893591,True,18
26K30,794,experiment,156,←,right,→,1.2621198999986518,False,18
26K30,795,experiment,156,←,left,←,0.6257367999933194,True,18
26K30,796,experiment,120,↑,right,→,1.0226994000258856,False,18
26K30,797,experiment,24,↓,right,→,0.9792912999982946,False,18
26K30,798,experiment,132,↑,up,↑,0.7480178000114392,True,18
26K30,799,experiment,144,→,right,→,0.6390297999896575,True,18
26K30,800,experiment,132,↑,right,→,0.5281571999948937,False,18
26K30,801,experiment,180,←,no_key,no_letter,-1.0,False,18
26K30,802,experiment,180,←,left,←,0.6443320999969728,True,18
26K30,803,experiment,36,↑,up,↑,0.6717076000059023,True,18
26K30,804,experiment,108,↓,down,↓,0.8061186000122689,True,18
26K30,805,experiment,84,←,right,→,1.0023733999987599,False,18
26K30,806,experiment,168,←,left,←,0.5698972000100184,True,18
26K30,807,experiment,24,↑,up,↑,0.6678735000023153,True,18
26K30,808,experiment,168,↑,up,↑,0.5231824000074994,True,18
26K30,809,experiment,60,↑,right,→,0.757954200002132,False,18
26K30,810,experiment,12,→,right,→,0.8962671000044793,True,18
26K30,811,experiment,36,↑,up,↑,0.4991503000201192,True,18
26K30,812,experiment,48,↑,no_key,no_letter,-1.0,False,18
26K30,813,experiment,48,←,no_key,no_letter,-1.0,False,18
26K30,814,experiment,72,←,right,→,1.0246786000207067,False,18
26K30,815,experiment,120,↑,no_key,no_letter,-1.0,False,18
26K30,816,experiment,72,←,left,←,0.5547273999836762,True,18
26K30,817,experiment,108,↑,up,↑,0.6135022999951616,True,18
26K30,818,experiment,156,→,up,↑,0.5143104000017047,False,18
26K30,819,experiment,36,→,right,→,0.6137639999797102,True,18
26K30,820,experiment,108,→,left,←,0.6807736000046134,False,18
26K30,821,experiment,84,→,right,→,0.5734063000127207,True,18
26K30,822,experiment,168,→,right,→,0.4755056999856606,True,18
26K30,823,experiment,96,↓,right,→,0.5852660999807995,False,18
26K30,824,experiment,132,↓,right,→,0.5487298000080045,False,18
26K30,825,experiment,96,↓,down,↓,0.8549016999895684,True,18
26K30,826,experiment,24,↓,down,↓,0.4861048999882769,True,18
26K30,827,experiment,180,↑,down,↓,1.297259800019674,False,18
26K30,828,experiment,12,→,right,→,0.5422606999927666,True,18
26K30,829,experiment,120,↓,down,↓,0.8198800999962259,True,18
26K30,830,experiment,108,→,right,→,0.41735050000716,True,18
26K30,831,experiment,144,↓,down,↓,0.7437069000152405,True,18
26K30,832,experiment,132,→,right,→,0.5727675000089221,True,18
26K30,833,experiment,72,←,right,→,0.8072817999927793,False,18
26K30,834,experiment,12,↑,right,→,0.5021784999989904,False,18
26K30,835,experiment,120,→,right,→,0.7404434999916703,True,18
26K30,836,experiment,84,→,right,→,0.7202171999961138,True,18
26K30,837,experiment,144,↓,down,↓,0.8124675999861211,True,18
26K30,838,experiment,144,↓,down,↓,0.8019721000164282,True,18
26K30,839,experiment,24,→,down,↓,0.9917739999946207,False,18
26K30,840,experiment,96,↓,no_key,no_letter,-1.0,False,18
26K30,841,experiment,168,↓,down,↓,1.2965126000053715,True,18
26K30,842,experiment,60,↑,up,↑,1.0506209999730345,True,18
26K30,843,experiment,96,→,right,→,0.6049577999801841,True,18
26K30,844,experiment,180,→,right,→,0.7316483999893535,True,18
26K30,845,experiment,156,←,left,←,0.62620609998703,True,18
26K30,846,experiment,36,↑,up,↑,0.7882608000072651,True,18
26K30,847,experiment,60,↑,up,↑,0.7633981000108179,True,18
26K30,848,experiment,84,↓,up,↑,0.9391577999922447,False,18
26K30,849,experiment,48,←,left,←,0.7807588999858126,True,18
