PART_ID,Trial_no,Trial_type,PDI,Stim_letter,Key_pressed,letter_choose,Rt,Corr,Stimulus Time
5M29,1,training,10,↑,up,↑,1.9634291999973357,True,30
5M29,2,training,10,↓,down,↓,1.21508920006454,True,30
5M29,3,training,10,→,right,→,0.9383910000324249,True,30
5M29,4,training,10,↑,up,↑,1.113797300029546,True,30
5M29,5,training,10,→,right,→,0.9941326002590358,True,30
5M29,6,training,10,↓,down,↓,0.9961307002231479,True,30
5M29,7,training,10,↑,up,↑,0.9203216996975243,True,30
5M29,8,training,10,←,left,←,2.099630900193006,True,30
5M29,9,training,10,↑,up,↑,0.9502472998574376,True,30
5M29,10,training,10,→,right,→,1.0875230999663472,True,30
5M29,11,training,10,↑,up,↑,1.2064046002924442,True,30
5M29,12,training,10,←,left,←,0.9251312999986112,True,30
5M29,13,training,10,→,right,→,0.9593496001325548,True,30
5M29,14,training,10,←,left,←,1.100739300251007,True,30
5M29,15,training,10,↑,up,↑,0.9190015001222491,True,30
5M29,16,training,10,↑,up,↑,0.9750148998573422,True,30
5M29,17,training,10,→,right,→,0.9119800003245473,True,30
5M29,18,training,10,↓,down,↓,1.074588700197637,True,30
5M29,19,training,10,↑,up,↑,0.9830706999637187,True,30
5M29,20,training,10,→,right,→,0.8549215998500586,True,30
5M29,21,training,10,↓,down,↓,0.7569924001581967,True,18
5M29,22,training,10,↓,down,↓,0.7856777003034949,True,18
5M29,23,training,10,↑,up,↑,0.8957043997943401,True,18
5M29,24,training,10,↓,left,←,1.3191519998945296,False,18
5M29,25,training,10,↓,down,↓,0.7493630000390112,True,18
5M29,26,training,10,↓,down,↓,1.0509084998629987,True,18
5M29,27,training,10,←,up,↑,1.4115357999689877,False,18
5M29,28,training,10,←,down,↓,0.9838938000611961,False,18
5M29,29,training,10,→,right,→,0.7162010003812611,True,18
5M29,30,training,10,↑,down,↓,1.0730548999272287,False,18
5M29,31,training,60,↑,up,↑,1.9133795001544058,True,15
5M29,32,training,120,↓,no_key,no_letter,-1.0,False,15
5M29,33,training,72,→,left,←,1.1605158001184464,False,15
5M29,34,experiment,144,↑,up,↑,0.7795957997441292,True,15
5M29,35,experiment,72,←,left,←,0.691274399869144,True,15
5M29,36,experiment,168,←,left,←,0.6759015000425279,True,15
5M29,37,experiment,24,↓,right,→,1.6665515000931919,False,15
5M29,38,experiment,48,↓,left,←,1.9025798002257943,False,15
5M29,39,experiment,156,→,right,→,0.7857837001793087,True,15
5M29,40,experiment,96,→,left,←,1.4970002002082765,False,15
5M29,41,experiment,36,↓,up,↑,1.6466470998711884,False,15
5M29,42,experiment,108,←,left,←,0.8715077000670135,True,15
5M29,43,experiment,168,←,left,←,0.6922229002229869,True,15
5M29,44,experiment,144,↑,up,↑,1.8197586997412145,True,15
5M29,45,experiment,60,→,left,←,0.7699772999621928,False,15
5M29,46,experiment,168,↓,no_key,no_letter,-1.0,False,15
5M29,47,experiment,120,←,no_key,no_letter,-1.0,False,15
5M29,48,experiment,72,↓,left,←,1.2952862996608019,False,15
5M29,49,experiment,120,↑,right,→,1.1317929001525044,False,15
5M29,50,experiment,48,←,left,←,1.0407615001313388,True,15
5M29,51,experiment,84,←,right,→,1.2429992998950183,False,15
5M29,52,experiment,36,↓,up,↑,1.4004057999700308,False,15
5M29,53,experiment,180,→,left,←,0.6874329997226596,False,15
5M29,54,experiment,120,↓,down,↓,0.8068939000368118,True,15
5M29,55,experiment,60,↑,down,↓,0.704409500118345,False,15
5M29,56,experiment,132,↓,down,↓,1.1557795000262558,True,15
5M29,57,experiment,108,↓,up,↑,1.3962344001047313,False,15
5M29,58,experiment,132,→,right,→,0.7405265998095274,True,15
5M29,59,experiment,84,↓,left,←,1.3916629999876022,False,15
5M29,60,experiment,180,↑,right,→,1.3861483000218868,False,15
5M29,61,experiment,48,↑,down,↓,0.9557280000299215,False,15
5M29,62,experiment,24,←,left,←,0.7056770999915898,True,15
5M29,63,experiment,156,←,left,←,0.6045117997564375,True,15
5M29,64,experiment,24,→,left,←,0.7656025001779199,False,15
5M29,65,experiment,96,←,left,←,1.4061281001195312,True,15
5M29,66,experiment,168,→,left,←,0.6996054998598993,False,15
5M29,67,experiment,156,↓,down,↓,0.7423692997545004,True,15
5M29,68,experiment,84,→,right,→,0.649909199681133,True,15
5M29,69,experiment,96,→,right,→,0.8319508000276983,True,15
5M29,70,experiment,12,→,right,→,0.6974422996863723,True,15
5M29,71,experiment,72,←,left,←,1.6819642996415496,True,15
5M29,72,experiment,144,→,right,→,0.7479046997614205,True,15
5M29,73,experiment,156,→,right,→,0.7100721998140216,True,15
5M29,74,experiment,12,←,left,←,1.1748576001264155,True,15
5M29,75,experiment,12,←,right,→,1.2855951003730297,False,15
5M29,76,experiment,108,→,no_key,no_letter,-1.0,False,15
5M29,77,experiment,96,←,left,←,1.252021700143814,True,15
5M29,78,experiment,132,↓,left,←,0.7447615996934474,False,15
5M29,79,experiment,60,←,right,→,1.664276999887079,False,15
5M29,80,experiment,108,←,right,→,0.803099200129509,False,15
5M29,81,experiment,72,→,right,→,0.6528901997953653,True,15
5M29,82,experiment,120,←,left,←,0.6002302998676896,True,15
5M29,83,experiment,36,↓,down,↓,0.8532771999016404,True,15
5M29,84,experiment,132,→,right,→,0.6872094999998808,True,15
5M29,85,experiment,36,←,left,←,0.594178699888289,True,15
5M29,86,experiment,180,↑,down,↓,0.9356022998690605,False,15
5M29,87,experiment,12,←,right,→,0.6473938999697566,False,15
5M29,88,experiment,60,←,left,←,0.7584056998603046,True,15
5M29,89,experiment,84,→,right,→,0.6453106999397278,True,15
5M29,90,experiment,144,↑,left,←,1.151490899734199,False,15
5M29,91,experiment,24,↑,up,↑,0.9835689002647996,True,15
5M29,92,experiment,48,↓,down,↓,1.641669999808073,True,15
5M29,93,experiment,180,←,left,←,0.6851551001891494,True,15
5M29,94,training,108,→,left,←,1.0682504000142217,False,16
5M29,95,training,168,←,left,←,0.8569491999223828,True,16
5M29,96,training,180,↑,down,↓,0.8894462999887764,False,16
5M29,97,experiment,168,→,right,→,0.796186899766326,True,16
5M29,98,experiment,120,←,left,←,0.5881950003094971,True,16
5M29,99,experiment,168,↑,down,↓,0.9101896998472512,False,16
5M29,100,experiment,60,↓,down,↓,0.9160372000187635,True,16
5M29,101,experiment,144,↑,up,↑,0.7181904003955424,True,16
5M29,102,experiment,84,←,left,←,0.6251219999976456,True,16
5M29,103,experiment,144,→,right,→,0.6431632000021636,True,16
5M29,104,experiment,48,←,down,↓,0.9571460001170635,False,16
5M29,105,experiment,120,↓,left,←,1.6097663999535143,False,16
5M29,106,experiment,168,→,right,→,0.5949356001801789,True,16
5M29,107,experiment,96,←,left,←,0.5626083998940885,True,16
5M29,108,experiment,156,→,left,←,0.6002116999588907,False,16
5M29,109,experiment,36,←,left,←,0.5978656001389027,True,16
5M29,110,experiment,84,↓,down,↓,0.7304398999549448,True,16
5M29,111,experiment,84,↑,down,↓,0.8397776000201702,False,16
5M29,112,experiment,120,↓,right,→,1.2636545998975635,False,16
5M29,113,experiment,144,←,left,←,0.5896704997867346,True,16
5M29,114,experiment,180,←,left,←,0.6376257999800146,True,16
5M29,115,experiment,48,↓,down,↓,0.9217353002168238,True,16
5M29,116,experiment,96,→,right,→,0.583570699673146,True,16
5M29,117,experiment,108,→,right,→,0.6543339998461306,True,16
5M29,118,experiment,12,→,left,←,0.6327707003802061,False,16
5M29,119,experiment,84,↑,down,↓,0.7833630000241101,False,16
5M29,120,experiment,132,↑,up,↑,1.1647789999842644,True,16
5M29,121,experiment,132,↓,down,↓,0.7092714998871088,True,16
5M29,122,experiment,60,←,right,→,0.7018995000980794,False,16
5M29,123,experiment,48,↓,down,↓,0.6793297999538481,True,16
5M29,124,experiment,24,→,right,→,0.5580458003096282,True,16
5M29,125,experiment,12,←,left,←,0.5110237002372742,True,16
5M29,126,experiment,36,→,up,↑,1.3578142998740077,False,16
5M29,127,experiment,180,→,left,←,0.6614166996441782,False,16
5M29,128,experiment,72,←,left,←,0.5826753997243941,True,16
5M29,129,experiment,24,↓,right,→,1.1736898999661207,False,16
5M29,130,experiment,96,↓,down,↓,0.7326545999385417,True,16
5M29,131,experiment,108,→,right,→,0.6309965001419187,True,16
5M29,132,experiment,24,↓,down,↓,0.5998676996678114,True,16
5M29,133,experiment,72,→,left,←,0.668888300191611,False,16
5M29,134,experiment,72,↑,up,↑,0.8091794000938535,True,16
5M29,135,experiment,48,↓,down,↓,0.6775674000382423,True,16
5M29,136,experiment,24,↓,up,↑,1.2389551997184753,False,16
5M29,137,experiment,132,↑,up,↑,0.7422822997905314,True,16
5M29,138,experiment,132,←,left,←,0.5924114002846181,True,16
5M29,139,experiment,108,↑,up,↑,0.9388549998402596,True,16
5M29,140,experiment,168,↓,up,↑,0.879242000170052,False,16
5M29,141,experiment,12,↑,up,↑,0.9931740001775324,True,16
5M29,142,experiment,12,→,right,→,0.6950210998766124,True,16
5M29,143,experiment,156,←,right,→,0.8375073000788689,False,16
5M29,144,experiment,120,→,right,→,0.7132549998350441,True,16
5M29,145,experiment,60,↑,up,↑,0.8842985997907817,True,16
5M29,146,experiment,180,↑,up,↑,0.674518599640578,True,16
5M29,147,experiment,156,←,left,←,0.7499279002659023,True,16
5M29,148,experiment,36,→,right,→,0.6588096995837986,True,16
5M29,149,experiment,60,↓,down,↓,0.7001780001446605,True,16
5M29,150,experiment,144,→,left,←,0.7432921999134123,False,16
5M29,151,experiment,156,↑,up,↑,0.8810838996432722,True,16
5M29,152,experiment,108,↓,up,↑,0.7930927001871169,False,16
5M29,153,experiment,72,←,left,←,0.666183200199157,True,16
5M29,154,experiment,180,↓,up,↑,0.929441399872303,False,16
5M29,155,experiment,96,←,left,←,1.0630882000550628,True,16
5M29,156,experiment,36,↑,up,↑,0.8447822001762688,True,16
5M29,157,training,108,→,right,→,1.2104155998677015,True,16
5M29,158,training,156,↑,up,↑,0.7098153000697494,True,16
5M29,159,training,84,←,left,←,0.6863714000210166,True,16
5M29,160,experiment,132,←,left,←,0.7461159997619689,True,16
5M29,161,experiment,96,↓,right,→,1.4268276002258062,False,16
5M29,162,experiment,60,→,right,→,0.6607053996995091,True,16
5M29,163,experiment,144,↓,down,↓,0.838162500411272,True,16
5M29,164,experiment,48,↑,up,↑,0.6066622999496758,True,16
5M29,165,experiment,72,↓,down,↓,0.6590379001572728,True,16
5M29,166,experiment,60,↑,up,↑,0.7138767000287771,True,16
5M29,167,experiment,156,↑,up,↑,0.9318770002573729,True,16
5M29,168,experiment,12,→,right,→,0.7412038003094494,True,16
5M29,169,experiment,96,↑,up,↑,0.6696294001303613,True,16
5M29,170,experiment,108,→,left,←,0.8193649002350867,False,16
5M29,171,experiment,180,↓,down,↓,0.7756378999911249,True,16
5M29,172,experiment,108,↑,right,→,1.351697000209242,False,16
5M29,173,experiment,144,→,right,→,1.455409100279212,True,16
5M29,174,experiment,84,←,left,←,0.9209428001195192,True,16
5M29,175,experiment,156,↑,up,↑,0.9448981997556984,True,16
5M29,176,experiment,108,↓,down,↓,0.8982991999946535,True,16
5M29,177,experiment,132,↓,down,↓,0.7395275002345443,True,16
5M29,178,experiment,132,←,right,→,0.6790700000710785,False,16
5M29,179,experiment,168,↓,down,↓,0.7683140002191067,True,16
5M29,180,experiment,72,↑,no_key,no_letter,-1.0,False,16
5M29,181,experiment,60,↑,down,↓,1.1762534002773464,False,16
5M29,182,experiment,120,↓,down,↓,0.7614120999351144,True,16
5M29,183,experiment,180,←,left,←,0.7177575998939574,True,16
5M29,184,experiment,24,→,no_key,no_letter,-1.0,False,16
5M29,185,experiment,156,↓,down,↓,0.9531228998675942,True,16
5M29,186,experiment,12,←,right,→,1.7194934003055096,False,16
5M29,187,experiment,24,←,right,→,0.9804614000022411,False,16
5M29,188,experiment,72,→,left,←,1.01268110005185,False,16
5M29,189,experiment,84,←,left,←,0.9111530003137887,True,16
5M29,190,experiment,84,→,right,→,0.7020971002057195,True,16
5M29,191,experiment,24,↑,up,↑,0.8063569995574653,True,16
5M29,192,experiment,36,↓,down,↓,0.6243802001699805,True,16
5M29,193,experiment,48,↓,down,↓,0.8369167000055313,True,16
5M29,194,experiment,180,→,left,←,0.7760883001610637,False,16
5M29,195,experiment,48,→,right,→,0.6399655998684466,True,16
5M29,196,experiment,96,→,left,←,0.8436429998837411,False,16
5M29,197,experiment,168,←,left,←,0.6253426000475883,True,16
5M29,198,experiment,168,↓,down,↓,0.8040581000968814,True,16
5M29,199,experiment,36,↑,down,↓,0.9437434002757072,False,16
5M29,200,experiment,48,→,left,←,0.8283036998473108,False,16
5M29,201,experiment,144,→,left,←,0.7970451000146568,False,16
5M29,202,experiment,60,↑,right,→,0.7681509000249207,False,16
5M29,203,experiment,144,←,right,→,0.6709933001548052,False,16
5M29,204,experiment,96,→,right,→,0.5148575003258884,True,16
5M29,205,experiment,72,←,right,→,0.6428125002421439,False,16
5M29,206,experiment,132,←,left,←,0.6082047000527382,True,16
5M29,207,experiment,108,↓,down,↓,0.7233703997917473,True,16
5M29,208,experiment,120,←,left,←,0.6757988999597728,True,16
5M29,209,experiment,36,↓,down,↓,0.7624357002787292,True,16
5M29,210,experiment,24,←,left,←,0.5863332999870181,True,16
5M29,211,experiment,36,↓,left,←,1.2392266001552343,False,16
5M29,212,experiment,12,→,up,↑,1.3136936002410948,False,16
5M29,213,experiment,120,↑,down,↓,0.7246190998703241,False,16
5M29,214,experiment,168,→,right,→,0.864767000079155,True,16
5M29,215,experiment,120,↑,left,←,0.7566319000907242,False,16
5M29,216,experiment,156,↑,up,↑,1.6227527996525168,True,16
5M29,217,experiment,180,→,right,→,0.648078499827534,True,16
5M29,218,experiment,84,→,right,→,0.5718378997407854,True,16
5M29,219,experiment,12,↑,down,↓,0.6508825998753309,False,16
5M29,220,training,36,↑,up,↑,0.769823900423944,True,16
5M29,221,training,108,→,right,→,0.625789999961853,True,16
5M29,222,training,12,↓,down,↓,1.022915200330317,True,16
5M29,223,experiment,168,←,right,→,1.1467081001028419,False,16
5M29,224,experiment,48,→,right,→,0.665329699870199,True,16
5M29,225,experiment,120,→,left,←,0.6773700998164713,False,16
5M29,226,experiment,12,↑,left,←,1.019742399919778,False,16
5M29,227,experiment,24,↑,up,↑,0.6669465000741184,True,16
5M29,228,experiment,168,→,left,←,0.5709804999642074,False,16
5M29,229,experiment,72,→,left,←,0.553823399823159,False,16
5M29,230,experiment,132,↓,down,↓,0.9958802000619471,True,16
5M29,231,experiment,24,←,left,←,0.599785900209099,True,16
5M29,232,experiment,132,↑,up,↑,0.5895775002427399,True,16
5M29,233,experiment,180,←,left,←,0.6201569000259042,True,16
5M29,234,experiment,12,↓,right,→,0.5943919001147151,False,16
5M29,235,experiment,144,←,left,←,0.6291406000964344,True,16
5M29,236,experiment,144,↓,down,↓,0.9564248998649418,True,16
5M29,237,experiment,12,↑,up,↑,0.8619865998625755,True,16
5M29,238,experiment,168,↑,down,↓,0.8304890999570489,False,16
5M29,239,experiment,60,↑,up,↑,0.6415760000236332,True,16
5M29,240,experiment,60,↓,down,↓,0.7810682998970151,True,16
5M29,241,experiment,84,↑,up,↑,0.8498356998898089,True,16
5M29,242,experiment,36,←,left,←,0.5919896000996232,True,16
5M29,243,experiment,84,←,left,←,0.6330842999741435,True,16
5M29,244,experiment,180,↑,down,↓,1.0205284003168344,False,16
5M29,245,experiment,48,↑,up,↑,0.709183800034225,True,16
5M29,246,experiment,72,↓,down,↓,0.7767483997158706,True,16
5M29,247,experiment,120,←,left,←,0.645717500243336,True,16
5M29,248,experiment,180,↓,down,↓,0.7014569998718798,True,16
5M29,249,experiment,24,→,down,↓,0.8378619998693466,False,16
5M29,250,experiment,168,→,left,←,0.7829597997479141,False,16
5M29,251,experiment,24,←,left,←,0.5496449000202119,True,16
5M29,252,experiment,144,↓,down,↓,0.7193557000719011,True,16
5M29,253,experiment,96,←,right,→,1.2116732001304626,False,16
5M29,254,experiment,180,←,left,←,0.6636556000448763,True,16
5M29,255,experiment,12,↓,down,↓,0.7324673002585769,True,16
5M29,256,experiment,120,→,left,←,0.7919218000024557,False,16
5M29,257,experiment,72,→,right,→,0.5602386998943985,True,16
5M29,258,experiment,36,↓,down,↓,0.7957725999876857,True,16
5M29,259,experiment,108,←,left,←,1.0593326999805868,True,16
5M29,260,experiment,60,↑,up,↑,0.723753800150007,True,16
5M29,261,experiment,84,→,right,→,0.5289682000875473,True,16
5M29,262,experiment,36,←,right,→,0.5942386998794973,False,16
5M29,263,experiment,96,←,left,←,0.5429420997388661,True,16
5M29,264,experiment,132,↑,up,↑,0.6904207998886704,True,16
5M29,265,experiment,132,→,right,→,0.5820837998762727,True,16
5M29,266,experiment,108,→,right,→,0.7963450998067856,True,16
5M29,267,experiment,48,→,right,→,0.621539100073278,True,16
5M29,268,experiment,156,→,right,→,0.6679332000203431,True,16
5M29,269,experiment,108,↑,up,↑,0.7416641996242106,True,16
5M29,270,experiment,156,↓,up,↑,0.6822986998595297,False,16
5M29,271,experiment,144,↑,up,↑,0.6234838999807835,True,16
5M29,272,experiment,108,↑,up,↑,0.592623199801892,True,16
5M29,273,experiment,96,↓,up,↑,0.7110089999623597,False,16
5M29,274,experiment,96,↓,up,↑,0.7667554998770356,False,16
5M29,275,experiment,72,↑,up,↑,0.5802642996422946,True,16
5M29,276,experiment,120,→,right,→,0.9373633000068367,True,16
5M29,277,experiment,60,→,right,→,0.6222663000226021,True,16
5M29,278,experiment,48,→,right,→,0.7722347001545131,True,16
5M29,279,experiment,36,↑,up,↑,0.6743572000414133,True,16
5M29,280,experiment,84,←,right,→,0.8052542000077665,False,16
5M29,281,experiment,156,→,left,←,0.6186811001971364,False,16
5M29,282,experiment,156,↓,down,↓,0.7856518998742104,True,16
5M29,283,training,36,→,right,→,0.6058530998416245,True,16
5M29,284,training,72,→,right,→,0.5517363999970257,True,16
5M29,285,training,24,→,right,→,0.5757904001511633,True,16
5M29,286,experiment,36,↑,up,↑,0.7621248997747898,True,16
5M29,287,experiment,168,→,right,→,0.5386691000312567,True,16
5M29,288,experiment,180,→,right,→,0.8073247000575066,True,16
5M29,289,experiment,12,↓,right,→,1.1406515999697149,False,16
5M29,290,experiment,120,→,right,→,0.9814467001706362,True,16
5M29,291,experiment,60,←,right,→,0.5885585998184979,False,16
5M29,292,experiment,60,↓,down,↓,1.1147040002979338,True,16
5M29,293,experiment,48,→,left,←,0.9415255999192595,False,16
5M29,294,experiment,24,↑,left,←,1.200946600176394,False,16
5M29,295,experiment,156,↑,down,↓,0.6916600996628404,False,16
5M29,296,experiment,36,←,right,→,0.5955856000073254,False,16
5M29,297,experiment,36,↑,up,↑,0.8183562997728586,True,16
5M29,298,experiment,24,→,right,→,0.5467750998213887,True,16
5M29,299,experiment,12,→,right,→,0.5228475001640618,True,16
5M29,300,experiment,96,↓,up,↑,0.9688308998011053,False,16
5M29,301,experiment,72,←,right,→,0.6286430000327528,False,16
5M29,302,experiment,96,↑,up,↑,0.6459762002341449,True,16
5M29,303,experiment,132,→,left,←,1.1996077001094818,False,16
5M29,304,experiment,180,→,left,←,0.7819282999262214,False,16
5M29,305,experiment,24,←,right,→,0.8014277000911534,False,16
5M29,306,experiment,96,↓,down,↓,0.7575139999389648,True,16
5M29,307,experiment,132,→,down,↓,0.7705071996897459,False,16
5M29,308,experiment,168,↑,up,↑,0.9496758002787828,True,16
5M29,309,experiment,84,→,right,→,0.5845983000472188,True,16
5M29,310,experiment,36,↓,down,↓,1.214210799895227,True,16
5M29,311,experiment,108,↓,down,↓,0.6690604002214968,True,16
5M29,312,experiment,48,←,left,←,0.6345029999502003,True,16
5M29,313,experiment,12,↓,down,↓,0.8263749000616372,True,16
5M29,314,experiment,168,→,right,→,0.641253599897027,True,16
5M29,315,experiment,132,↓,down,↓,0.7240663999691606,True,16
5M29,316,experiment,72,→,right,→,0.8897178000770509,True,16
5M29,317,experiment,12,←,left,←,0.6028912998735905,True,16
5M29,318,experiment,84,←,up,↑,1.6950825001113117,False,16
5M29,319,experiment,108,↓,down,↓,0.8033143999055028,True,16
5M29,320,experiment,24,←,left,←,0.6202560001984239,True,16
5M29,321,experiment,156,↑,down,↓,0.8127780999056995,False,16
5M29,322,experiment,120,↓,down,↓,0.6944094002246857,True,16
5M29,323,experiment,180,→,left,←,0.544992099981755,False,16
5M29,324,experiment,48,→,left,←,0.5372767997905612,False,16
5M29,325,experiment,144,→,left,←,0.6944683999754488,False,16
5M29,326,experiment,180,↓,down,↓,0.6784104998223484,True,16
5M29,327,experiment,168,←,down,↓,0.883097100071609,False,16
5M29,328,experiment,144,↑,down,↓,0.6690984000451863,False,16
5M29,329,experiment,108,←,left,←,0.5334109999239445,True,16
5M29,330,experiment,144,↑,down,↓,0.8295999001711607,False,16
5M29,331,experiment,72,→,left,←,0.5662171998992562,False,16
5M29,332,experiment,132,→,right,→,0.7271984000690281,True,16
5M29,333,experiment,108,←,left,←,0.5889198002405465,True,16
5M29,334,experiment,120,←,right,→,0.6358513999730349,False,16
5M29,335,experiment,120,→,right,→,0.6486098999157548,True,16
5M29,336,experiment,156,↑,up,↑,0.8192807002924383,True,16
5M29,337,experiment,72,→,right,→,0.632020799908787,True,16
5M29,338,experiment,60,↓,up,↑,0.8966819001361728,False,16
5M29,339,experiment,60,↑,up,↑,0.559876499697566,True,16
5M29,340,experiment,96,↑,down,↓,0.7624903996475041,False,16
5M29,341,experiment,156,↑,up,↑,0.8444348000921309,True,16
5M29,342,experiment,84,→,right,→,0.571563099976629,True,16
5M29,343,experiment,144,→,left,←,0.525686000008136,False,16
5M29,344,experiment,48,→,right,→,0.6635424001142383,True,16
5M29,345,experiment,84,→,right,→,0.44347789976745844,True,16
5M29,346,training,120,←,left,←,0.6582718999125063,True,17
5M29,347,training,12,↑,left,←,1.02692830003798,False,17
5M29,348,training,108,←,left,←,0.5897323996759951,True,17
5M29,349,experiment,108,→,left,←,0.5521668000146747,False,17
5M29,350,experiment,180,→,right,→,0.756606100127101,True,17
5M29,351,experiment,96,←,left,←,0.586474200244993,True,17
5M29,352,experiment,72,→,right,→,0.45238549960777164,True,17
5M29,353,experiment,12,←,right,→,0.8740384997799993,False,17
5M29,354,experiment,84,←,left,←,0.6869513997808099,True,17
5M29,355,experiment,24,↑,up,↑,1.5026159998960793,True,17
5M29,356,experiment,60,↑,right,→,1.1691970000974834,False,17
5M29,357,experiment,24,↓,up,↑,0.8584106997586787,False,17
5M29,358,experiment,144,→,right,→,0.7330560004338622,True,17
5M29,359,experiment,60,↑,right,→,1.370872300118208,False,17
5M29,360,experiment,156,→,right,→,0.6713574999012053,True,17
5M29,361,experiment,156,↑,up,↑,0.6532829999923706,True,17
5M29,362,experiment,120,→,right,→,0.6769840000197291,True,17
5M29,363,experiment,72,↑,up,↑,0.8217664998956025,True,17
5M29,364,experiment,168,←,left,←,0.7710760002955794,True,17
5M29,365,experiment,72,←,left,←,0.5745846000500023,True,17
5M29,366,experiment,120,↑,right,→,1.4828074001707137,False,17
5M29,367,experiment,168,←,left,←,0.788415300194174,True,17
5M29,368,experiment,12,↓,right,→,1.0263934000395238,False,17
5M29,369,experiment,96,→,right,→,0.685204700101167,True,17
5M29,370,experiment,180,→,left,←,0.6598492003977299,False,17
5M29,371,experiment,84,→,down,↓,0.8752545001916587,False,17
5M29,372,experiment,36,↓,down,↓,0.9981904001906514,True,17
5M29,373,experiment,132,→,left,←,1.080398099962622,False,17
5M29,374,experiment,108,←,right,→,0.5946688000112772,False,17
5M29,375,experiment,180,→,right,→,0.7279861001297832,True,17
5M29,376,experiment,48,→,right,→,0.9294525999575853,True,17
5M29,377,experiment,156,↑,up,↑,0.8878755001351237,True,17
5M29,378,experiment,96,↑,up,↑,0.7871588999405503,True,17
5M29,379,experiment,48,↓,down,↓,0.9667117004282773,True,17
5M29,380,experiment,84,↑,up,↑,0.743924300186336,True,17
5M29,381,experiment,180,↓,down,↓,0.7979116998612881,True,17
5M29,382,experiment,72,↓,down,↓,0.5588044999167323,True,17
5M29,383,experiment,96,↑,down,↓,0.9290955001488328,False,17
5M29,384,experiment,132,↑,down,↓,0.8415675000287592,False,17
5M29,385,experiment,108,↓,down,↓,0.7679744004271924,True,17
5M29,386,experiment,84,↓,down,↓,0.7587872999720275,True,17
5M29,387,experiment,144,←,left,←,0.6869025002233684,True,17
5M29,388,experiment,144,↓,down,↓,0.6980074001476169,True,17
5M29,389,experiment,48,→,left,←,0.8923809002153575,False,17
5M29,390,experiment,24,→,right,→,0.6962335002608597,True,17
5M29,391,experiment,12,↓,down,↓,0.5483507001772523,True,17
5M29,392,experiment,168,→,right,→,0.8620830997824669,True,17
5M29,393,experiment,132,↓,down,↓,0.6242089997977018,True,17
5M29,394,experiment,36,←,left,←,0.5409047002904117,True,17
5M29,395,experiment,60,↓,down,↓,0.5651115998625755,True,17
5M29,396,experiment,108,←,down,↓,1.2451826999895275,False,17
5M29,397,experiment,144,←,left,←,0.6471413997933269,True,17
5M29,398,experiment,24,↑,down,↓,0.6077320999465883,False,17
5M29,399,experiment,168,↑,up,↑,0.7907902002334595,True,17
5M29,400,experiment,36,↑,left,←,0.8743804995901883,False,17
5M29,401,experiment,132,←,right,→,0.8146838997490704,False,17
5M29,402,experiment,36,↑,up,↑,1.0422799000516534,True,17
5M29,403,experiment,60,→,right,→,0.6823014002293348,True,17
5M29,404,experiment,12,→,right,→,0.6129177999682724,True,17
5M29,405,experiment,120,↑,up,↑,0.7970154997892678,True,17
5M29,406,experiment,120,→,right,→,0.6221086997538805,True,17
5M29,407,experiment,156,→,right,→,0.619624599814415,True,17
5M29,408,experiment,48,←,right,→,0.8184080002829432,False,17
5M29,409,training,24,←,left,←,0.609590099658817,True,17
5M29,410,training,36,→,right,→,0.7310291999019682,True,17
5M29,411,training,120,→,right,→,0.6213997001759708,True,17
5M29,412,experiment,108,↓,down,↓,0.7073866999708116,True,17
5M29,413,experiment,168,↓,down,↓,0.717659099958837,True,17
5M29,414,experiment,180,←,left,←,0.7171327001415193,True,17
5M29,415,experiment,96,↑,up,↑,0.8059603995643556,True,17
5M29,416,experiment,72,→,right,→,0.7719440003857017,True,17
5M29,417,experiment,108,←,left,←,0.6112961997278035,True,17
5M29,418,experiment,168,←,left,←,0.7160799000412226,True,17
5M29,419,experiment,144,←,left,←,0.5564899002201855,True,17
5M29,420,experiment,168,←,left,←,0.482948400080204,True,17
5M29,421,experiment,24,↓,left,←,1.239540799986571,False,17
5M29,422,experiment,60,↑,up,↑,0.6875867997296154,True,17
5M29,423,experiment,180,←,up,↑,0.8677540002390742,False,17
5M29,424,experiment,36,→,right,→,0.6220861002802849,True,17
5M29,425,experiment,180,→,right,→,0.784963299985975,True,17
5M29,426,experiment,156,↑,up,↑,0.8408868000842631,True,17
5M29,427,experiment,12,↑,left,←,0.8087261002510786,False,17
5M29,428,experiment,60,←,left,←,0.6191469999030232,True,17
5M29,429,experiment,48,↓,down,↓,0.9628662001341581,True,17
5M29,430,experiment,120,→,down,↓,0.993451299611479,False,17
5M29,431,experiment,120,↑,down,↓,0.7168521997518837,False,17
5M29,432,experiment,168,↓,down,↓,0.6106388000771403,True,17
5M29,433,experiment,132,→,down,↓,0.8522839997895062,False,17
5M29,434,experiment,84,←,down,↓,0.9201305001042783,False,17
5M29,435,experiment,144,↑,up,↑,0.6492993999272585,True,17
5M29,436,experiment,72,↓,down,↓,0.689279000274837,True,17
5M29,437,experiment,48,←,left,←,0.6803914997726679,True,17
5M29,438,experiment,84,↓,down,↓,0.9664423000067472,True,17
5M29,439,experiment,108,↑,down,↓,0.6120867999270558,False,17
5M29,440,experiment,60,→,down,↓,0.7827072995714843,False,17
5M29,441,experiment,72,↑,up,↑,0.8266718997620046,True,17
5M29,442,experiment,96,↑,up,↑,1.0694801998324692,True,17
5M29,443,experiment,132,←,left,←,0.6068969997577369,True,17
5M29,444,experiment,24,↑,left,←,0.6579999001696706,False,17
5M29,445,experiment,144,↑,left,←,0.6460382998920977,False,17
5M29,446,experiment,180,←,up,↑,1.0409121001139283,False,17
5M29,447,experiment,12,←,right,→,0.5811115000396967,False,17
5M29,448,experiment,132,↓,down,↓,0.7126623997464776,True,17
5M29,449,experiment,36,↑,left,←,0.8825539997778833,False,17
5M29,450,experiment,144,↓,down,↓,0.7161814998835325,True,17
5M29,451,experiment,120,↑,up,↑,0.6985061001032591,True,17
5M29,452,experiment,12,→,right,→,0.6405792003497481,True,17
5M29,453,experiment,108,↑,up,↑,0.5526943001896143,True,17
5M29,454,experiment,24,←,left,←,0.6407380998134613,True,17
5M29,455,experiment,36,←,left,←,0.49003420025110245,True,17
5M29,456,experiment,120,←,left,←,0.5712581998668611,True,17
5M29,457,experiment,24,↑,up,↑,0.6016628001816571,True,17
5M29,458,experiment,96,→,left,←,0.5510368999093771,False,17
5M29,459,experiment,84,←,left,←,0.5540226004086435,True,17
5M29,460,experiment,156,↓,down,↓,0.7500376999378204,True,17
5M29,461,experiment,72,→,right,→,0.9105890998616815,True,17
5M29,462,experiment,48,↑,down,↓,0.8425666997209191,False,17
5M29,463,experiment,96,↓,down,↓,0.7410860997624695,True,17
5M29,464,experiment,12,↑,up,↑,0.5910148001275957,True,17
5M29,465,experiment,156,→,right,→,0.6873854002915323,True,17
5M29,466,experiment,132,←,left,←,0.5973753002472222,True,17
5M29,467,experiment,48,→,right,→,0.6333150002174079,True,17
5M29,468,experiment,156,↓,down,↓,0.6967647997662425,True,17
5M29,469,experiment,84,↓,down,↓,0.6345667997375131,True,17
5M29,470,experiment,60,↑,down,↓,0.6879227999597788,False,17
5M29,471,experiment,36,↑,right,→,0.9554018001072109,False,17
5M29,472,training,84,↑,up,↑,1.6884017996490002,True,17
5M29,473,training,48,←,left,←,0.6897384999319911,True,17
5M29,474,training,168,↓,down,↓,0.7585835000500083,True,17
5M29,475,experiment,60,↓,down,↓,0.6932446002028883,True,17
5M29,476,experiment,168,↑,up,↑,0.8840889995917678,True,17
5M29,477,experiment,156,↓,up,↑,0.9547468996606767,False,17
5M29,478,experiment,84,→,down,↓,0.7034089998342097,False,17
5M29,479,experiment,24,↑,up,↑,0.5380007000640035,True,17
5M29,480,experiment,60,←,down,↓,0.8944382001645863,False,17
5M29,481,experiment,168,↓,down,↓,0.8973642997443676,True,17
5M29,482,experiment,156,←,left,←,0.5525326998904347,True,17
5M29,483,experiment,144,↓,down,↓,0.6886006998829544,True,17
5M29,484,experiment,12,→,left,←,0.5871623000130057,False,17
5M29,485,experiment,132,↓,left,←,0.5449979999102652,False,17
5M29,486,experiment,60,↓,down,↓,0.7329907999373972,True,17
5M29,487,experiment,36,←,right,→,0.8282075999304652,False,17
5M29,488,experiment,24,↓,down,↓,0.8094937996938825,True,17
5M29,489,experiment,60,↑,up,↑,0.71808149991557,True,17
5M29,490,experiment,180,→,right,→,0.5270674000494182,True,17
5M29,491,experiment,180,←,left,←,0.6558869001455605,True,17
5M29,492,experiment,108,←,left,←,0.7047693999484181,True,17
5M29,493,experiment,108,↑,up,↑,0.6872333995997906,True,17
5M29,494,experiment,96,→,left,←,0.6040660999715328,False,17
5M29,495,experiment,48,↑,up,↑,0.7982701002620161,True,17
5M29,496,experiment,36,↑,down,↓,1.0390204000286758,False,17
5M29,497,experiment,36,←,left,←,0.5336893000639975,True,17
5M29,498,experiment,168,←,left,←,0.7260413998737931,True,17
5M29,499,experiment,48,↑,up,↑,0.5929863001219928,True,17
5M29,500,experiment,180,↑,up,↑,0.6373773999512196,True,17
5M29,501,experiment,24,←,left,←,0.6650410001166165,True,17
5M29,502,experiment,48,→,right,→,0.9037090996280313,True,17
5M29,503,experiment,96,→,right,→,0.7940961001440883,True,17
5M29,504,experiment,36,↑,up,↑,0.6167709999717772,True,17
5M29,505,experiment,132,←,left,←,0.5185918002389371,True,17
5M29,506,experiment,12,←,left,←,0.8980841999873519,True,17
5M29,507,experiment,180,→,right,→,0.6037617004476488,True,17
5M29,508,experiment,96,↑,up,↑,0.5573185998946428,True,17
5M29,509,experiment,108,←,left,←,0.6973404996097088,True,17
5M29,510,experiment,156,→,right,→,0.632609199732542,True,17
5M29,511,experiment,144,↓,left,←,0.604683100245893,False,17
5M29,512,experiment,120,↓,up,↑,0.5299383997917175,False,17
5M29,513,experiment,84,←,left,←,0.849223299883306,True,17
5M29,514,experiment,72,→,right,→,0.8273950996808708,True,17
5M29,515,experiment,132,↓,down,↓,0.6477030999958515,True,17
5M29,516,experiment,96,↓,down,↓,0.7874301001429558,True,17
5M29,517,experiment,120,↑,up,↑,0.7869024001993239,True,17
5M29,518,experiment,72,↓,down,↓,0.6468914998695254,True,17
5M29,519,experiment,84,↓,down,↓,0.6063188002444804,True,17
5M29,520,experiment,144,→,right,→,0.7724884003400803,True,17
5M29,521,experiment,132,←,left,←,0.6984268999658525,True,17
5M29,522,experiment,168,→,right,→,0.8469889997504652,True,17
5M29,523,experiment,156,↑,up,↑,0.638302500359714,True,17
5M29,524,experiment,12,↑,right,→,1.382435199804604,False,17
5M29,525,experiment,120,→,right,→,0.7159253000281751,True,17
5M29,526,experiment,24,→,right,→,0.5736778997816145,True,17
5M29,527,experiment,84,←,left,←,0.6840003002434969,True,17
5M29,528,experiment,48,→,right,→,0.7847471004351974,True,17
5M29,529,experiment,72,→,right,→,0.6869474002160132,True,17
5M29,530,experiment,72,←,left,←,0.6703658001497388,True,17
5M29,531,experiment,144,↓,down,↓,0.9259851998649538,True,17
5M29,532,experiment,12,↓,down,↓,0.8039669999852777,True,17
5M29,533,experiment,120,←,left,←,0.563428399618715,True,17
5M29,534,experiment,108,↑,right,→,0.7084691999480128,False,17
5M29,535,training,180,←,left,←,0.6205102000385523,True,17
5M29,536,training,24,↓,right,→,0.7282087001949549,False,17
5M29,537,training,180,↓,down,↓,0.7358065000735223,True,17
5M29,538,experiment,156,←,left,←,0.5892624002881348,True,17
5M29,539,experiment,108,↑,up,↑,1.1505682999268174,True,17
5M29,540,experiment,144,←,left,←,0.5481942999176681,True,17
5M29,541,experiment,84,↓,down,↓,0.6607328997924924,True,17
5M29,542,experiment,156,↓,down,↓,0.5914126001298428,True,17
5M29,543,experiment,180,↑,up,↑,0.6929870001040399,True,17
5M29,544,experiment,84,→,down,↓,0.9919986999593675,False,17
5M29,545,experiment,108,→,down,↓,0.799651499837637,False,17
5M29,546,experiment,96,↓,down,↓,0.6834407998248935,True,17
5M29,547,experiment,180,↑,up,↑,0.6121942000463605,True,17
5M29,548,experiment,12,↑,up,↑,0.9168485002592206,True,17
5M29,549,experiment,48,←,left,←,0.6252033999189734,True,17
5M29,550,experiment,168,→,right,→,0.5829384000971913,True,17
5M29,551,experiment,36,→,left,←,0.5624604001641273,False,17
5M29,552,experiment,156,↑,up,↑,0.622250999789685,True,17
5M29,553,experiment,72,↑,up,↑,0.6506332997232676,True,17
5M29,554,experiment,96,→,left,←,0.9490670999512076,False,17
5M29,555,experiment,108,↓,down,↓,0.751645099837333,True,17
5M29,556,experiment,144,←,left,←,0.6876996997743845,True,17
5M29,557,experiment,24,←,left,←,0.6022982001304626,True,17
5M29,558,experiment,132,→,down,↓,0.7234967998228967,False,17
5M29,559,experiment,120,←,left,←,0.4889365998096764,True,17
5M29,560,experiment,144,←,left,←,0.5686506000347435,True,17
5M29,561,experiment,60,←,left,←,0.628575099632144,True,17
5M29,562,experiment,12,→,right,→,0.6003037998452783,True,17
5M29,563,experiment,132,↑,up,↑,0.7893215999938548,True,17
5M29,564,experiment,60,↑,up,↑,0.6922288998030126,True,17
5M29,565,experiment,72,←,left,←,0.7664309996180236,True,17
5M29,566,experiment,84,↑,up,↑,0.6174368001520634,True,17
5M29,567,experiment,12,↑,up,↑,0.6863393997773528,True,17
5M29,568,experiment,168,↑,up,↑,0.8904083999805152,True,17
5M29,569,experiment,96,↓,down,↓,0.6739294999279082,True,17
5M29,570,experiment,72,→,right,→,1.0668726000003517,True,17
5M29,571,experiment,48,→,right,→,0.6642318996600807,True,17
5M29,572,experiment,48,↑,left,←,0.8409095001406968,False,17
5M29,573,experiment,120,→,left,←,0.6004556003026664,False,17
5M29,574,experiment,24,↓,right,→,1.5003464999608696,False,17
5M29,575,experiment,156,↓,left,←,1.1787530998699367,False,17
5M29,576,experiment,120,↑,right,→,1.0726995998993516,False,17
5M29,577,experiment,180,↑,up,↑,0.9669836000539362,True,17
5M29,578,experiment,48,↓,down,↓,0.7018862999975681,True,17
5M29,579,experiment,60,→,right,→,0.6688325996510684,True,17
5M29,580,experiment,24,←,right,→,1.4824632001109421,False,17
5M29,581,experiment,60,→,right,→,0.6205402002669871,True,17
5M29,582,experiment,132,↑,down,↓,0.8373161996714771,False,17
5M29,583,experiment,168,↓,down,↓,0.7234320999123156,True,17
5M29,584,experiment,36,↓,down,↓,0.804178399965167,True,17
5M29,585,experiment,96,→,right,→,0.8817716999910772,True,17
5M29,586,experiment,84,→,right,→,0.5883085001260042,True,17
5M29,587,experiment,120,→,right,→,0.5764557002112269,True,17
5M29,588,experiment,36,↓,down,↓,0.7191959000192583,True,17
5M29,589,experiment,144,↓,down,↓,0.6933324998244643,True,17
5M29,590,experiment,132,↑,down,↓,0.7930223997682333,False,17
5M29,591,experiment,108,←,left,←,0.6631799996830523,True,17
5M29,592,experiment,72,↓,down,↓,0.6346537997014821,True,17
5M29,593,experiment,12,↑,down,↓,0.748662699945271,False,17
5M29,594,experiment,180,←,left,←,0.8258369001559913,True,17
5M29,595,experiment,36,↑,down,↓,0.691425799857825,False,17
5M29,596,experiment,24,→,left,←,0.5409839004278183,False,17
5M29,597,experiment,168,↑,down,↓,0.5643712999299169,False,17
5M29,598,training,48,↑,up,↑,0.770291400142014,True,17
5M29,599,training,96,←,left,←,0.6658091996796429,True,17
5M29,600,training,24,→,right,→,0.6590953003615141,True,17
5M29,601,experiment,180,→,right,→,0.8058378002606332,True,17
5M29,602,experiment,84,↑,up,↑,0.7189827999100089,True,17
5M29,603,experiment,96,←,left,←,0.6063069002702832,True,17
5M29,604,experiment,168,←,left,←,0.7016146001406014,True,17
5M29,605,experiment,132,→,right,→,0.7475768001750112,True,17
5M29,606,experiment,144,→,left,←,0.7876792997121811,False,17
5M29,607,experiment,12,↑,right,→,1.1617251001298428,False,17
5M29,608,experiment,168,↑,up,↑,0.6867395997978747,True,17
5M29,609,experiment,36,↓,right,→,0.800082900095731,False,17
5M29,610,experiment,96,↑,up,↑,0.6840404998511076,True,17
5M29,611,experiment,84,↑,up,↑,0.6063290000893176,True,17
5M29,612,experiment,144,←,left,←,0.6178739001043141,True,17
5M29,613,experiment,108,←,left,←,0.5722812996245921,True,17
5M29,614,experiment,144,↑,up,↑,1.305606100242585,True,17
5M29,615,experiment,24,→,left,←,0.6994981002062559,False,17
5M29,616,experiment,48,→,right,→,0.6271213996224105,True,17
5M29,617,experiment,180,↓,up,↑,0.8313512997701764,False,17
5M29,618,experiment,24,↑,up,↑,0.6756599000655115,True,17
5M29,619,experiment,120,↓,down,↓,0.733875600155443,True,17
5M29,620,experiment,84,↓,down,↓,0.7011911002919078,True,17
5M29,621,experiment,156,↑,up,↑,0.9996633999980986,True,17
5M29,622,experiment,24,↓,down,↓,0.8345671999268234,True,17
5M29,623,experiment,72,←,left,←,0.5906551997177303,True,17
5M29,624,experiment,60,→,right,→,0.7136522000655532,True,17
5M29,625,experiment,36,↓,down,↓,0.7495591999031603,True,17
5M29,626,experiment,156,←,left,←,0.6498366999439895,True,17
5M29,627,experiment,108,↑,down,↓,0.7199460999108851,False,17
5M29,628,experiment,156,↑,up,↑,0.9723936999216676,True,17
5M29,629,experiment,132,←,down,↓,0.8997393003664911,False,17
5M29,630,experiment,168,←,left,←,0.8014783998951316,True,17
5M29,631,experiment,132,←,right,→,0.9150217003189027,False,17
5M29,632,experiment,144,↑,up,↑,0.6702431002631783,True,17
5M29,633,experiment,12,←,down,↓,0.9871094999834895,False,17
5M29,634,experiment,60,←,left,←,0.5197570999152958,True,17
5M29,635,experiment,12,↑,right,→,0.7846067999489605,False,17
5M29,636,experiment,120,↑,up,↑,0.5818719998933375,True,17
5M29,637,experiment,120,↑,down,↓,0.9595484999008477,False,17
5M29,638,experiment,72,↓,right,→,1.0804996001534164,False,17
5M29,639,experiment,120,→,right,→,0.6915980000048876,True,17
5M29,640,experiment,180,←,left,←,1.0203013001009822,True,17
5M29,641,experiment,108,→,right,→,0.580914500169456,True,17
5M29,642,experiment,72,↓,down,↓,0.7114888997748494,True,17
5M29,643,experiment,60,↓,down,↓,0.6664032000117004,True,17
5M29,644,experiment,180,←,left,←,0.8817931995727122,True,17
5M29,645,experiment,168,←,left,←,0.6682547000236809,True,17
5M29,646,experiment,60,←,left,←,1.107453000266105,True,17
5M29,647,experiment,24,↑,down,↓,0.9995840000919998,False,17
5M29,648,experiment,48,←,left,←,0.7776967999525368,True,17
5M29,649,experiment,48,→,left,←,1.0620984002016485,False,17
5M29,650,experiment,132,→,right,→,0.6500122998841107,True,17
5M29,651,experiment,12,→,right,→,0.9001743998378515,True,17
5M29,652,experiment,72,↑,up,↑,0.7882265001535416,True,17
5M29,653,experiment,96,↑,up,↑,0.6336640999652445,True,17
5M29,654,experiment,156,↓,down,↓,0.8908383999951184,True,17
5M29,655,experiment,36,↑,down,↓,0.7572313998825848,False,17
5M29,656,experiment,36,↓,down,↓,0.9472312000580132,True,17
5M29,657,experiment,48,↑,left,←,1.0121265999041498,False,17
5M29,658,experiment,108,→,right,→,0.5419274000450969,True,17
5M29,659,experiment,84,↑,down,↓,0.7733517000451684,False,17
5M29,660,experiment,96,→,right,→,0.6489965002983809,True,17
5M29,661,training,120,←,left,←,0.6156477998010814,True,17
5M29,662,training,48,→,left,←,1.0161998998373747,False,17
5M29,663,training,120,↓,down,↓,0.7236808999441564,True,17
5M29,664,experiment,72,↓,down,↓,0.5945705003105104,True,17
5M29,665,experiment,180,→,right,→,0.6737478002905846,True,17
5M29,666,experiment,156,↓,down,↓,0.8148872000165284,True,17
5M29,667,experiment,120,←,left,←,0.6490585999563336,True,17
5M29,668,experiment,12,↓,down,↓,0.8028323003090918,True,17
5M29,669,experiment,168,↑,up,↑,0.7668853001669049,True,17
5M29,670,experiment,72,↑,up,↑,0.9686320000328124,True,17
5M29,671,experiment,168,→,right,→,0.8329873001202941,True,17
5M29,672,experiment,12,↓,right,→,0.7372124004177749,False,17
5M29,673,experiment,168,←,left,←,0.7957170996814966,True,17
5M29,674,experiment,180,↓,down,↓,0.8782766000367701,True,17
5M29,675,experiment,48,↓,right,→,0.7709572999738157,False,17
5M29,676,experiment,60,→,left,←,0.8950780001468956,False,17
5M29,677,experiment,84,←,left,←,0.6318035000003874,True,17
5M29,678,experiment,108,↑,down,↓,0.9388554999604821,False,17
5M29,679,experiment,84,↑,up,↑,0.7392139001749456,True,17
5M29,680,experiment,12,→,left,←,0.9607561999000609,False,17
5M29,681,experiment,96,→,right,→,0.7796080997213721,True,17
5M29,682,experiment,12,↑,up,↑,0.8514307998120785,True,17
5M29,683,experiment,156,→,right,→,0.7711489000357687,True,17
5M29,684,experiment,132,↑,up,↑,0.6273122001439333,True,17
5M29,685,experiment,60,→,right,→,0.6731584002263844,True,17
5M29,686,experiment,156,↓,down,↓,0.8828537999652326,True,17
5M29,687,experiment,24,↓,down,↓,0.8143986999057233,True,17
5M29,688,experiment,60,→,right,→,0.7333212001249194,True,17
5M29,689,experiment,108,→,right,→,0.6344055999070406,True,17
5M29,690,experiment,156,←,left,←,0.7627959996461868,True,17
5M29,691,experiment,36,→,right,→,0.7034605997614563,True,17
5M29,692,experiment,36,↓,down,↓,0.6987673998810351,True,17
5M29,693,experiment,24,→,right,→,0.5654393001459539,True,17
5M29,694,experiment,144,↑,up,↑,0.7866001003421843,True,17
5M29,695,experiment,96,↑,up,↑,0.47079019993543625,True,17
5M29,696,experiment,132,→,right,→,0.4809915996156633,True,17
5M29,697,experiment,132,←,left,←,0.7235269001685083,True,17
5M29,698,experiment,48,→,right,→,0.48792019998654723,True,17
5M29,699,experiment,144,←,left,←,0.5710863997228444,True,17
5M29,700,experiment,144,↑,up,↑,0.9853115999139845,True,17
5M29,701,experiment,48,↓,right,→,1.1187171000055969,False,17
5M29,702,experiment,48,↓,left,←,0.7312741000205278,False,17
5M29,703,experiment,120,↓,down,↓,0.7168900999240577,True,17
5M29,704,experiment,96,→,right,→,0.6789436000399292,True,17
5M29,705,experiment,24,←,left,←,0.5062934001907706,True,17
5M29,706,experiment,36,↓,down,↓,0.6076148999854922,True,17
5M29,707,experiment,24,←,right,→,1.0177772999741137,False,17
5M29,708,experiment,168,←,left,←,0.5234783999621868,True,17
5M29,709,experiment,72,↓,down,↓,0.5686584003269672,True,17
5M29,710,experiment,120,←,left,←,0.5571349998936057,True,17
5M29,711,experiment,108,↑,up,↑,0.6843869998119771,True,17
5M29,712,experiment,60,↑,up,↑,0.5201546996831894,True,17
5M29,713,experiment,72,→,right,→,0.7702584001235664,True,17
5M29,714,experiment,96,↑,down,↓,1.0464308997616172,False,17
5M29,715,experiment,120,←,left,←,0.6191064999438822,True,17
5M29,716,experiment,84,↓,down,↓,0.7140813004225492,True,17
5M29,717,experiment,180,←,left,←,0.7968112002126873,True,17
5M29,718,experiment,84,↓,down,↓,0.830203799996525,True,17
5M29,719,experiment,108,→,right,→,0.6607097997330129,True,17
5M29,720,experiment,180,→,right,→,0.6834865999408066,True,17
5M29,721,experiment,144,←,left,←,0.6754592000506818,True,17
5M29,722,experiment,36,→,right,→,0.8593061999417841,True,17
5M29,723,experiment,132,↓,left,←,0.7544259997084737,False,17
5M29,724,training,180,→,right,→,0.6028760997578502,True,17
5M29,725,training,132,↑,up,↑,0.7631736998446286,True,17
5M29,726,training,60,←,left,←,0.6621669000014663,True,17
5M29,727,experiment,48,↓,down,↓,0.8246851000003517,True,17
5M29,728,experiment,12,↓,down,↓,0.70728819957003,True,17
5M29,729,experiment,180,→,right,→,0.766867300029844,True,17
5M29,730,experiment,24,→,right,→,0.5825172001495957,True,17
5M29,731,experiment,84,↑,down,↓,0.6773210996761918,False,17
5M29,732,experiment,180,↓,down,↓,1.35265940008685,True,17
5M29,733,experiment,108,↓,down,↓,0.7366225002333522,True,17
5M29,734,experiment,36,←,left,←,0.6388757000677288,True,17
5M29,735,experiment,36,←,left,←,1.1507580000907183,True,17
5M29,736,experiment,108,→,right,→,0.6410984001122415,True,17
5M29,737,experiment,132,→,up,↑,1.2974813003093004,False,17
5M29,738,experiment,48,←,left,←,0.6547036003321409,True,17
5M29,739,experiment,108,↑,up,↑,0.7212528996169567,True,17
5M29,740,experiment,156,←,left,←,0.5727895000018179,True,17
5M29,741,experiment,120,↓,down,↓,0.8017949997447431,True,17
5M29,742,experiment,156,→,right,→,0.6164063001051545,True,17
5M29,743,experiment,12,←,left,←,0.7389696999453008,True,17
5M29,744,experiment,60,←,no_key,no_letter,-1.0,False,17
5M29,745,experiment,12,↓,down,↓,0.7830536998808384,True,17
5M29,746,experiment,96,←,left,←,0.5653030998073518,True,17
5M29,747,experiment,168,↑,down,↓,0.6862961002625525,False,17
5M29,748,experiment,12,↑,down,↓,0.7080271001905203,False,17
5M29,749,experiment,84,→,right,→,0.618278699927032,True,17
5M29,750,experiment,180,→,right,→,0.5133857997134328,True,17
5M29,751,experiment,96,↑,up,↑,0.6819868995808065,True,17
5M29,752,experiment,120,↓,down,↓,0.6965721999295056,True,17
5M29,753,experiment,48,→,right,→,0.5846410999074578,True,17
5M29,754,experiment,24,←,right,→,0.7177635002881289,False,17
5M29,755,experiment,72,↑,up,↑,0.6235028998926282,True,17
5M29,756,experiment,96,→,right,→,0.5624040002003312,True,17
5M29,757,experiment,84,↓,down,↓,0.736446900293231,True,17
5M29,758,experiment,60,↑,down,↓,0.517558999825269,False,17
5M29,759,experiment,84,←,right,→,0.47935150004923344,False,17
5M29,760,experiment,72,↑,right,→,1.1735221999697387,False,17
5M29,761,experiment,132,→,right,→,0.6416270998306572,True,17
5M29,762,experiment,36,↑,up,↑,0.8977243998087943,True,17
5M29,763,experiment,168,←,left,←,0.77920540003106,True,17
5M29,764,experiment,72,↓,right,→,1.4492595996707678,False,17
5M29,765,experiment,72,↑,up,↑,0.5991279999725521,True,17
5M29,766,experiment,132,→,right,→,0.6949332999065518,True,17
5M29,767,experiment,144,→,right,→,0.6501159998588264,True,17
5M29,768,experiment,36,→,right,→,0.6623616996221244,True,17
5M29,769,experiment,144,↑,up,↑,1.5967079000547528,True,17
5M29,770,experiment,168,←,left,←,0.6291724001057446,True,17
5M29,771,experiment,24,↑,up,↑,0.772551900241524,True,17
5M29,772,experiment,96,↑,up,↑,0.6846630000509322,True,17
5M29,773,experiment,168,→,right,→,0.6503762002103031,True,17
5M29,774,experiment,180,→,right,→,0.6458525001071393,True,17
5M29,775,experiment,48,↑,up,↑,0.668738900218159,True,17
5M29,776,experiment,132,↓,down,↓,0.8993265996687114,True,17
5M29,777,experiment,120,↓,down,↓,0.7725218003615737,True,17
5M29,778,experiment,156,→,right,→,0.9887753999792039,True,17
5M29,779,experiment,108,↓,down,↓,1.045567600056529,True,17
5M29,780,experiment,120,↑,up,↑,0.929606500081718,True,17
5M29,781,experiment,156,←,down,↓,0.87978530023247,False,17
5M29,782,experiment,144,→,left,←,0.8950612000189722,False,17
5M29,783,experiment,60,↓,right,→,0.7374494997784495,False,17
5M29,784,experiment,24,→,right,→,0.6720075001940131,True,17
5M29,785,experiment,144,←,left,←,0.5939090996980667,True,17
5M29,786,experiment,60,↑,right,→,0.6365282000042498,False,17
5M29,787,training,96,↑,down,↓,1.362070200033486,False,17
5M29,788,training,60,↑,down,↓,0.6984358998015523,False,17
5M29,789,training,60,←,left,←,0.6894690999761224,True,17
5M29,790,experiment,144,↑,up,↑,0.5380707997828722,True,17
5M29,791,experiment,24,↓,down,↓,0.8593741999939084,True,17
5M29,792,experiment,72,↓,down,↓,0.6256631999276578,True,17
5M29,793,experiment,96,→,left,←,0.548685799818486,False,17
5M29,794,experiment,48,↑,up,↑,0.9347194996662438,True,17
5M29,795,experiment,72,←,up,↑,0.9083130997605622,False,17
5M29,796,experiment,84,←,left,←,0.6591886002570391,True,17
5M29,797,experiment,24,↓,down,↓,0.7388899000361562,True,17
5M29,798,experiment,132,↓,down,↓,0.6740426998585463,True,17
5M29,799,experiment,108,←,left,←,0.6725054001435637,True,17
5M29,800,experiment,12,→,left,←,1.018764200154692,False,17
5M29,801,experiment,120,↑,up,↑,0.7932485002093017,True,17
5M29,802,experiment,132,↓,down,↓,0.6807817998342216,True,17
5M29,803,experiment,132,↓,down,↓,0.6755356001667678,True,17
5M29,804,experiment,180,↑,up,↑,0.9370336001738906,True,17
5M29,805,experiment,48,←,left,←,0.6748399003408849,True,17
5M29,806,experiment,120,↓,down,↓,1.3703180002048612,True,17
5M29,807,experiment,156,↓,down,↓,0.8352037002332509,True,17
5M29,808,experiment,132,↓,down,↓,0.48105330020189285,True,17
5M29,809,experiment,156,←,left,←,0.8062322000041604,True,17
5M29,810,experiment,12,→,right,→,0.6792127001099288,True,17
5M29,811,experiment,24,→,left,←,0.5162720996886492,False,17
5M29,812,experiment,156,↑,down,↓,1.1833954001776874,False,17
5M29,813,experiment,48,↑,up,↑,0.8325420999899507,True,17
5M29,814,experiment,60,←,left,←,0.691308599896729,True,17
5M29,815,experiment,156,←,left,←,0.6326989000663161,True,17
5M29,816,experiment,144,↑,up,↑,0.7210471001453698,True,17
5M29,817,experiment,60,→,right,→,0.8611775999888778,True,17
5M29,818,experiment,72,↑,up,↑,0.6108125001192093,True,17
5M29,819,experiment,180,→,right,→,0.585447299759835,True,17
5M29,820,experiment,60,↓,up,↑,0.8615692998282611,False,17
5M29,821,experiment,96,↓,down,↓,1.0632340000011027,True,17
5M29,822,experiment,12,↑,up,↑,0.6135672000236809,True,17
5M29,823,experiment,120,→,right,→,0.5804527001455426,True,17
5M29,824,experiment,108,→,right,→,0.5367574002593756,True,17
5M29,825,experiment,180,←,left,←,0.706538500264287,True,17
5M29,826,experiment,60,←,left,←,0.5640477002598345,True,17
5M29,827,experiment,168,↑,right,→,1.0277986996807158,False,17
5M29,828,experiment,36,↓,left,←,0.9722498999908566,False,17
5M29,829,experiment,168,↓,down,↓,0.6946513000875711,True,17
5M29,830,experiment,36,↑,down,↓,0.7400797000154853,False,17
5M29,831,experiment,72,↑,up,↑,0.8577955001965165,True,17
5M29,832,experiment,96,←,left,←,0.5626409002579749,True,17
5M29,833,experiment,108,↑,left,←,1.027107700239867,False,17
5M29,834,experiment,48,←,left,←,0.5418937997892499,True,17
5M29,835,experiment,24,→,left,←,0.8186343996785581,False,17
5M29,836,experiment,36,↑,up,↑,0.5439050002023578,True,17
5M29,837,experiment,120,←,left,←,0.5583274997770786,True,17
5M29,838,experiment,168,↓,down,↓,0.6705363001674414,True,17
5M29,839,experiment,84,↓,down,↓,0.5398702998645604,True,17
5M29,840,experiment,168,↓,down,↓,0.8627283996902406,True,17
5M29,841,experiment,96,↓,down,↓,0.5598267000168562,True,17
5M29,842,experiment,144,↑,up,↑,0.6225467002950609,True,17
5M29,843,experiment,36,↑,up,↑,0.5589304999448359,True,17
5M29,844,experiment,180,↑,up,↑,0.5341229001060128,True,17
5M29,845,experiment,84,↑,up,↑,0.8199044996872544,True,17
5M29,846,experiment,144,↓,down,↓,0.8801949000917375,True,17
5M29,847,experiment,12,→,right,→,0.6955027999356389,True,17
5M29,848,experiment,108,↓,down,↓,0.8379777004010975,True,17
5M29,849,experiment,84,←,left,←,0.7369091999717057,True,17
