PART_ID,Trial_no,Trial_type,PDI,Stim_letter,Key_pressed,letter_choose,Rt,Corr,Stimulus Time
testM20,1,training,10,↓,right,→,1.1779432003386319,False,30
testM20,2,training,10,→,right,→,1.2961573000065982,True,30
testM20,3,training,10,→,right,→,0.7204128000885248,True,30
testM20,4,training,10,↓,right,→,0.4687959998846054,False,30
testM20,5,training,10,←,right,→,0.2359032998792827,False,30
testM20,6,training,10,↓,right,→,0.4338559000752866,False,30
testM20,7,training,10,→,left,←,0.2504672002978623,False,30
testM20,8,training,10,→,right,→,0.6004595002159476,True,30
testM20,9,training,10,↑,right,→,0.23355400003492832,False,30
testM20,10,training,10,↓,right,→,0.4671190003864467,False,30
testM20,11,training,10,←,right,→,0.4173512998968363,False,30
testM20,12,training,10,↓,down,↓,0.5506311999633908,True,30
testM20,13,training,10,→,no_key,no_letter,-1.0,False,30
testM20,14,training,10,↓,down,↓,0.5672030998393893,True,30
testM20,15,training,10,←,left,←,0.7180041996762156,True,30
testM20,16,training,10,→,right,→,0.6013450003229082,True,30
testM20,17,training,10,→,right,→,0.6169402999803424,True,30
testM20,18,training,10,↓,down,↓,0.5837996997870505,True,30
testM20,19,training,10,→,right,→,0.48386659985408187,True,30
testM20,20,training,10,↑,up,↑,0.7727850000374019,True,30
testM20,21,training,10,↓,up,↑,0.5357932997867465,False,18
testM20,22,training,10,←,down,↓,0.7807926000095904,False,18
testM20,23,training,10,→,right,→,0.5302861002273858,True,18
testM20,24,training,10,→,right,→,0.5723823001608253,True,18
testM20,25,training,10,↓,down,↓,0.49894059961661696,True,18
testM20,26,training,10,→,right,→,0.6333381999284029,True,18
testM20,27,training,10,↑,up,↑,0.5267582000233233,True,18
testM20,28,training,10,→,right,→,0.5021898997947574,True,18
testM20,29,training,10,←,left,←,0.7752787000499666,True,18
testM20,30,training,10,→,right,→,0.7349419998936355,True,18
testM20,31,training,180,→,right,→,0.4808612000197172,True,15
testM20,32,training,156,↓,right,→,0.7085967999882996,False,15
testM20,33,training,180,↓,right,→,0.6888772998936474,False,15
testM20,34,experiment,108,←,right,→,0.9135500998236239,False,15
testM20,35,experiment,72,↑,right,→,0.49393050000071526,False,15
testM20,36,experiment,144,↑,right,→,1.7602760000154376,False,15
testM20,37,experiment,168,→,left,←,0.8532758001238108,False,15
testM20,38,experiment,24,←,right,→,0.8536263001151383,False,15
testM20,39,experiment,156,↑,right,→,0.7298081000335515,False,15
testM20,40,experiment,180,←,right,→,0.44918439956381917,False,15
testM20,41,experiment,36,↓,right,→,0.7398361000232399,False,15
testM20,42,experiment,48,←,right,→,0.6902314000762999,False,15
testM20,43,experiment,108,↑,right,→,0.6342094000428915,False,15
testM20,44,experiment,60,↑,right,→,0.5038800002075732,False,15
testM20,45,experiment,120,→,right,→,1.0082116997800767,True,15
testM20,46,experiment,12,↑,right,→,1.287481200415641,False,15
testM20,47,experiment,144,→,right,→,0.6486943000927567,True,15
testM20,48,experiment,48,↓,right,→,0.9035028000362217,False,15
testM20,49,experiment,168,←,right,→,0.8347757002338767,False,15
testM20,50,experiment,84,↑,right,→,0.7925530998036265,False,15
testM20,51,experiment,96,↓,right,→,0.38399240002036095,False,15
testM20,52,experiment,96,↑,right,→,0.817983899731189,False,15
testM20,53,experiment,144,→,right,→,0.4500460997223854,True,15
testM20,54,experiment,156,←,right,→,0.3339290004223585,False,15
testM20,55,experiment,108,↑,right,→,0.42743089981377125,False,15
testM20,56,experiment,36,↓,right,→,0.5735427001491189,False,15
testM20,57,experiment,72,↑,right,→,0.7156524998135865,False,15
testM20,58,experiment,180,←,up,↑,0.33396479999646544,False,15
testM20,59,experiment,24,→,right,→,0.6007976997643709,True,15
testM20,60,experiment,144,↑,right,→,0.017141299787908792,False,15
testM20,61,experiment,12,↑,right,→,0.5721430000849068,False,15
testM20,62,experiment,156,→,right,→,0.6975362999364734,True,15
testM20,63,experiment,36,→,right,→,0.6091053998097777,True,15
testM20,64,experiment,108,←,right,→,0.5464000003412366,False,15
testM20,65,experiment,156,↓,down,↓,0.6445475001819432,True,15
testM20,66,experiment,24,←,right,→,0.8142992998473346,False,15
testM20,67,experiment,84,←,left,←,0.6189206000417471,True,15
testM20,68,experiment,168,←,right,→,0.7003707000985742,False,15
testM20,69,experiment,132,↑,left,←,0.762888400349766,False,15
testM20,70,experiment,96,←,right,→,1.1897478997707367,False,15
testM20,71,experiment,132,→,right,→,0.5876487996429205,True,15
testM20,72,experiment,180,←,no_key,no_letter,-1.0,False,15
testM20,73,experiment,60,←,right,→,1.5503978002816439,False,15
testM20,74,experiment,12,→,no_key,no_letter,-1.0,False,15
testM20,75,experiment,84,←,no_key,no_letter,-1.0,False,15
testM20,76,experiment,24,→,no_key,no_letter,-1.0,False,15
testM20,77,experiment,180,↓,no_key,no_letter,-1.0,False,15
testM20,78,experiment,120,↓,right,→,0.0003746999427676201,False,15
testM20,79,experiment,132,←,right,→,0.4257467999123037,False,15
testM20,80,experiment,84,←,no_key,no_letter,-1.0,False,15
testM20,81,experiment,48,↑,no_key,no_letter,-1.0,False,15
testM20,82,experiment,120,↑,right,→,1.2481386996805668,False,15
testM20,83,experiment,168,→,right,→,1.3867335999384522,True,15
testM20,84,experiment,60,←,no_key,no_letter,-1.0,False,15
testM20,85,experiment,72,↑,no_key,no_letter,-1.0,False,15
testM20,86,experiment,96,↑,no_key,no_letter,-1.0,False,15
testM20,87,experiment,36,←,no_key,no_letter,-1.0,False,15
testM20,88,experiment,120,→,right,→,0.8343551000580192,True,15
testM20,89,experiment,48,↓,right,→,1.8345575002022088,False,15
testM20,90,experiment,60,→,no_key,no_letter,-1.0,False,15
testM20,91,experiment,132,←,left,←,1.5943847000598907,True,15
testM20,92,experiment,12,↑,no_key,no_letter,-1.0,False,15
testM20,93,experiment,72,↓,right,→,0.625365300104022,False,15
testM20,94,training,144,↓,right,→,0.18382819974794984,False,16
testM20,95,training,108,↓,down,↓,0.13371399976313114,True,16
testM20,96,training,96,→,right,→,1.4400693997740746,True,16
testM20,97,experiment,108,↓,right,→,0.20071580028161407,False,16
testM20,98,experiment,132,↓,up,↑,0.16662680031731725,False,16
testM20,99,experiment,84,↓,down,↓,1.0086023001931608,True,16
testM20,100,experiment,168,↑,right,→,0.5113801998086274,False,16
testM20,101,experiment,168,↑,up,↑,0.9154392001219094,True,16
testM20,102,experiment,132,↓,right,→,1.3856778996996582,False,16
testM20,103,experiment,96,→,right,→,1.629865700379014,True,16
testM20,104,experiment,156,←,right,→,0.18382429983466864,False,16
testM20,105,experiment,12,↓,no_key,no_letter,-1.0,False,16
testM20,106,experiment,96,→,no_key,no_letter,-1.0,False,16
testM20,107,experiment,24,→,no_key,no_letter,-1.0,False,16
testM20,108,experiment,48,→,right,→,0.3172714998945594,True,16
testM20,109,experiment,12,↑,no_key,no_letter,-1.0,False,16
testM20,110,experiment,72,↑,down,↓,0.1004151999950409,False,16
testM20,111,experiment,60,↑,no_key,no_letter,-1.0,False,16
testM20,112,experiment,132,↓,no_key,no_letter,-1.0,False,16
testM20,113,experiment,36,←,right,→,1.4867989998310804,False,16
testM20,114,experiment,108,↑,no_key,no_letter,-1.0,False,16
testM20,115,experiment,168,↓,no_key,no_letter,-1.0,False,16
testM20,116,experiment,180,↓,right,→,0.9706513001583517,False,16
testM20,117,experiment,144,↑,no_key,no_letter,-1.0,False,16
testM20,118,experiment,24,→,right,→,0.017139799892902374,True,16
testM20,119,experiment,120,→,right,→,0.050451400224119425,True,16
testM20,120,experiment,168,↓,down,↓,1.7413897998631,True,16
testM20,121,experiment,120,↓,right,→,0.5282612997107208,False,16
testM20,122,experiment,132,↓,right,→,1.8790790997445583,False,16
testM20,123,experiment,120,←,right,→,0.16733819991350174,False,16
testM20,124,experiment,156,↑,right,→,0.20020580012351274,False,16
testM20,125,experiment,144,←,right,→,0.9004344996064901,False,16
testM20,126,experiment,120,→,no_key,no_letter,-1.0,False,16
testM20,127,experiment,24,↑,no_key,no_letter,-1.0,False,16
testM20,128,experiment,72,→,right,→,0.13453530007973313,True,16
testM20,129,experiment,84,←,right,→,0.7396646998822689,False,16
testM20,130,experiment,84,↑,no_key,no_letter,-1.0,False,16
testM20,131,experiment,156,↓,right,→,1.3756429003551602,False,16
testM20,132,experiment,96,→,up,↑,0.18370850011706352,False,16
testM20,133,experiment,144,↑,no_key,no_letter,-1.0,False,16
testM20,134,experiment,144,↓,right,→,0.6348480000160635,False,16
testM20,135,experiment,108,↓,right,→,0.7446516999043524,False,16
testM20,136,experiment,60,↑,right,→,1.3453492000699043,False,16
testM20,137,experiment,84,↑,up,↑,0.10012750001624227,True,16
testM20,138,experiment,180,↑,no_key,no_letter,-1.0,False,16
testM20,139,experiment,48,↑,right,→,0.11707140039652586,False,16
testM20,140,experiment,156,←,right,→,0.36714600026607513,False,16
testM20,141,experiment,36,→,up,↑,0.0003125998191535473,False,16
testM20,142,experiment,96,→,up,↑,0.7191522000357509,False,16
testM20,143,experiment,72,↑,right,→,0.08366450015455484,False,16
testM20,144,experiment,12,→,right,→,0.10094039980322123,True,16
testM20,145,experiment,60,↓,right,→,0.08393390011042356,False,16
testM20,146,experiment,180,←,no_key,no_letter,-1.0,False,16
testM20,147,experiment,108,↓,no_key,no_letter,-1.0,False,16
testM20,148,experiment,72,→,no_key,no_letter,-1.0,False,16
testM20,149,experiment,60,↓,no_key,no_letter,-1.0,False,16
testM20,150,experiment,12,→,no_key,no_letter,-1.0,False,16
testM20,151,experiment,36,→,no_key,no_letter,-1.0,False,16
testM20,152,experiment,24,→,no_key,no_letter,-1.0,False,16
testM20,153,experiment,180,←,no_key,no_letter,-1.0,False,16
testM20,154,experiment,36,←,no_key,no_letter,-1.0,False,16
testM20,155,experiment,48,←,no_key,no_letter,-1.0,False,16
testM20,156,experiment,48,←,no_key,no_letter,-1.0,False,16
