PART_ID,Trial_no,Trial_type,CSI,Stim_letter,Key_pressed,letter_choose,Rt,Corr,Stimulus Time
2A-JW1605K24,1,training,10,↓,down,↓,0.7670242999993206,True,63
2A-JW1605K24,2,training,10,→,right,→,0.7505975999993098,True,63
2A-JW1605K24,3,training,10,↑,left,←,0.6173196999989159,False,63
2A-JW1605K24,4,training,10,←,left,←,0.7000615000015387,True,63
2A-JW1605K24,5,training,10,←,left,←,0.4837619999998424,True,63
2A-JW1605K24,6,training,10,↓,down,↓,0.7671420000006037,True,63
2A-JW1605K24,7,training,10,→,right,→,0.7505568999986281,True,63
2A-JW1605K24,8,training,10,←,no_key,no_letter,-1.0,False,63
2A-JW1605K24,9,experiment,20,↑,up,↑,0.683961000000636,True,63
2A-JW1605K24,10,experiment,23,↓,no_key,no_letter,-1.0,False,63
2A-JW1605K24,11,experiment,24,↑,up,↑,0.7338280000003579,True,63
2A-JW1605K24,12,experiment,17,→,right,→,0.7672208000003593,True,63
2A-JW1605K24,13,experiment,27,↓,down,↓,0.8191117999995186,True,63
2A-JW1605K24,14,experiment,22,←,left,←,0.4171984999993583,True,63
2A-JW1605K24,15,experiment,18,→,left,←,0.41718260000016016,False,63
2A-JW1605K24,16,experiment,29,↑,up,↑,0.6337648999997327,True,63
2A-JW1605K24,17,experiment,28,←,left,←,0.7671410000002652,True,63
2A-JW1605K24,18,experiment,19,→,right,→,0.5672153000014077,True,63
2A-JW1605K24,19,experiment,26,→,right,→,0.6839089000004606,True,63
2A-JW1605K24,20,experiment,21,→,right,→,0.6337823999983812,True,63
2A-JW1605K24,21,experiment,31,↑,up,↑,0.6338591000003362,True,63
2A-JW1605K24,22,experiment,30,↓,down,↓,0.767228000000614,True,63
2A-JW1605K24,23,experiment,14,↑,up,↑,0.7002077000015561,True,63
2A-JW1605K24,24,experiment,25,↑,up,↑,0.6505185999994865,True,63
2A-JW1605K24,25,experiment,16,→,right,→,0.7505734000005759,True,63
2A-JW1605K24,26,experiment,15,↓,down,↓,0.8170444999996107,True,63
2A-JW1605K24,27,experiment,13,→,right,→,0.8171445999996649,True,63
2A-JW1605K24,28,experiment,25,←,right,→,0.5004635999994207,False,58
2A-JW1605K24,29,experiment,29,→,right,→,0.699932199999239,True,58
2A-JW1605K24,30,experiment,31,↑,up,↑,0.7007797999995091,True,58
2A-JW1605K24,31,experiment,21,↑,up,↑,0.7170686999997997,True,58
2A-JW1605K24,32,experiment,16,←,left,←,0.6354888000005303,True,58
2A-JW1605K24,33,experiment,19,↑,up,↑,0.8005268000015349,True,58
2A-JW1605K24,34,experiment,18,←,left,←,0.6506746000013663,True,58
2A-JW1605K24,35,experiment,28,←,left,←,0.6671274999989691,True,58
2A-JW1605K24,36,experiment,17,↓,down,↓,0.7337109000000055,True,58
2A-JW1605K24,37,experiment,22,←,left,←,0.6171254000000772,True,58
2A-JW1605K24,38,experiment,24,→,right,→,0.7337475000003906,True,58
2A-JW1605K24,39,experiment,20,→,left,←,0.4669682000003377,False,58
2A-JW1605K24,40,experiment,14,→,right,→,0.7172547000009217,True,58
2A-JW1605K24,41,experiment,26,↑,up,↑,0.7006953000000067,True,58
2A-JW1605K24,42,experiment,15,→,right,→,0.7506298000007519,True,58
2A-JW1605K24,43,experiment,27,→,right,→,0.700694699999076,True,58
2A-JW1605K24,44,experiment,23,↓,down,↓,0.6670466999985365,True,58
2A-JW1605K24,45,experiment,30,→,right,→,0.6506220999999641,True,58
2A-JW1605K24,46,experiment,13,↓,no_key,no_letter,-1.0,False,58
2A-JW1605K24,47,experiment,19,↓,down,↓,0.617023099999642,True,53
2A-JW1605K24,48,experiment,22,↓,down,↓,0.4505208999999013,True,53
2A-JW1605K24,49,experiment,14,↑,up,↑,0.5339251999994303,True,53
2A-JW1605K24,50,experiment,26,→,right,→,0.68385280000075,True,53
2A-JW1605K24,51,experiment,20,→,right,→,0.6003096000004007,True,53
2A-JW1605K24,52,experiment,27,→,right,→,0.6170581999995193,True,53
2A-JW1605K24,53,experiment,31,↓,down,↓,0.733920600001511,True,53
2A-JW1605K24,54,experiment,17,↓,down,↓,0.6346340999989479,True,53
2A-JW1605K24,55,experiment,23,←,left,←,0.6169998000004853,True,53
2A-JW1605K24,56,experiment,28,→,right,→,0.5670964999990247,True,53
2A-JW1605K24,57,experiment,25,↓,down,↓,0.8336897999997746,True,53
2A-JW1605K24,58,experiment,13,→,right,→,0.5835876000001008,True,53
2A-JW1605K24,59,experiment,18,↑,up,↑,0.617274099999122,True,53
2A-JW1605K24,60,experiment,21,↓,down,↓,0.6837028999998438,True,53
2A-JW1605K24,61,experiment,24,→,left,←,0.5503461999996944,False,53
2A-JW1605K24,62,experiment,30,←,left,←,0.5341404999999213,True,53
2A-JW1605K24,63,experiment,15,↑,up,↑,0.7337456999994174,True,53
2A-JW1605K24,64,experiment,29,→,right,→,0.5836565999998129,True,53
2A-JW1605K24,65,experiment,16,→,no_key,no_letter,-1.0,False,53
2A-JW1605K24,66,experiment,22,↑,up,↑,0.7005576999999903,True,48
2A-JW1605K24,67,experiment,30,↓,down,↓,0.6837074000013672,True,48
2A-JW1605K24,68,experiment,13,←,left,←,0.6836359000008088,True,48
2A-JW1605K24,69,experiment,14,→,right,→,0.51699969999936,True,48
2A-JW1605K24,70,experiment,31,↑,up,↑,0.7337380000008125,True,48
2A-JW1605K24,71,experiment,26,←,left,←,0.700484700000743,True,48
2A-JW1605K24,72,experiment,16,↑,up,↑,0.6838934000006702,True,48
2A-JW1605K24,73,experiment,17,↓,down,↓,0.5833970000003319,True,48
2A-JW1605K24,74,experiment,29,←,no_key,no_letter,-1.0,False,48
2A-JW1605K24,75,experiment,27,←,left,←,0.4339287000002514,True,48
2A-JW1605K24,76,experiment,28,↓,right,→,0.533974699999817,False,48
2A-JW1605K24,77,experiment,19,↑,up,↑,0.5836314000007405,True,48
2A-JW1605K24,78,experiment,24,↑,up,↑,0.617121600000246,True,48
2A-JW1605K24,79,experiment,23,→,right,→,0.7337700999996741,True,48
2A-JW1605K24,80,experiment,15,↓,down,↓,0.46683889999985695,True,48
2A-JW1605K24,81,experiment,21,↓,down,↓,0.6837374999995518,True,48
2A-JW1605K24,82,experiment,25,↓,down,↓,0.4339550999993662,True,48
2A-JW1605K24,83,experiment,18,↓,down,↓,0.5838377000000037,True,48
2A-JW1605K24,84,experiment,20,↓,down,↓,0.6337614999993093,True,48
2A-JW1605K24,85,experiment,15,↓,down,↓,0.6173646000006556,True,43
2A-JW1605K24,86,experiment,14,←,no_key,no_letter,-1.0,False,43
2A-JW1605K24,87,experiment,28,↓,down,↓,0.6672553999997035,True,43
2A-JW1605K24,88,experiment,23,↓,down,↓,0.5006133999995654,True,43
2A-JW1605K24,89,experiment,29,→,right,→,0.6167265000003681,True,43
2A-JW1605K24,90,experiment,25,↑,up,↑,0.6338473999985581,True,43
2A-JW1605K24,91,experiment,18,↑,up,↑,0.4836992000000464,True,43
2A-JW1605K24,92,experiment,30,↑,up,↑,0.3838904000003822,True,43
2A-JW1605K24,93,experiment,16,↑,up,↑,0.3672162999991997,True,43
2A-JW1605K24,94,experiment,26,↓,no_key,no_letter,-1.0,False,43
2A-JW1605K24,95,experiment,20,←,left,←,0.45010630000069796,True,43
2A-JW1605K24,96,experiment,22,↓,down,↓,0.5003116999996564,True,43
2A-JW1605K24,97,experiment,27,↑,up,↑,0.5003094999992754,True,43
2A-JW1605K24,98,experiment,17,←,no_key,no_letter,-1.0,False,43
2A-JW1605K24,99,experiment,13,→,right,→,0.5836947000007058,True,43
2A-JW1605K24,100,experiment,21,→,right,→,0.5166489000002912,True,43
2A-JW1605K24,101,experiment,31,↑,up,↑,0.6501738000006299,True,43
2A-JW1605K24,102,experiment,24,←,left,←,0.6003763999997318,True,43
2A-JW1605K24,103,experiment,19,←,left,←,0.6670255999997607,True,43
2A-JW1605K24,104,experiment,31,↓,no_key,no_letter,-1.0,False,38
2A-JW1605K24,105,experiment,21,↑,no_key,no_letter,-1.0,False,38
2A-JW1605K24,106,experiment,30,↓,down,↓,0.4999828999989404,True,38
2A-JW1605K24,107,experiment,16,→,down,↓,0.5003668999997899,False,38
2A-JW1605K24,108,experiment,29,→,no_key,no_letter,-1.0,False,38
2A-JW1605K24,109,experiment,23,→,right,→,0.41830710000067484,True,38
2A-JW1605K24,110,experiment,14,→,no_key,no_letter,-1.0,False,38
2A-JW1605K24,111,experiment,15,↑,no_key,no_letter,-1.0,False,38
2A-JW1605K24,112,experiment,22,↑,no_key,no_letter,-1.0,False,38
2A-JW1605K24,113,experiment,28,→,right,→,0.3668621999986499,True,38
2A-JW1605K24,114,experiment,26,←,left,←,0.5338735000004817,True,38
2A-JW1605K24,115,experiment,24,←,no_key,no_letter,-1.0,False,38
2A-JW1605K24,116,experiment,25,↑,no_key,no_letter,-1.0,False,38
2A-JW1605K24,117,experiment,20,↓,left,←,0.5168503999993845,False,38
2A-JW1605K24,118,experiment,17,→,down,↓,0.1835136000008788,False,38
2A-JW1605K24,119,experiment,27,←,left,←,0.36722550000013143,True,38
2A-JW1605K24,120,experiment,19,↑,up,↑,0.48382820000006177,True,38
2A-JW1605K24,121,experiment,18,→,up,↑,0.3503513000014209,False,38
2A-JW1605K24,122,experiment,13,↑,left,←,0.4169918999996298,False,38
2A-JW1605K24,123,experiment,16,→,right,→,0.4671639000007417,True,54
2A-JW1605K24,124,experiment,17,←,up,↑,0.4834612000013294,False,54
2A-JW1605K24,125,experiment,23,←,right,→,0.3503259999997681,False,54
2A-JW1605K24,126,experiment,21,→,left,←,0.2504432000005181,False,54
2A-JW1605K24,127,experiment,25,←,left,←,0.6004319999992731,True,54
2A-JW1605K24,128,experiment,31,←,no_key,no_letter,-1.0,False,54
2A-JW1605K24,129,experiment,13,→,right,→,0.5173106999991433,True,54
2A-JW1605K24,130,experiment,20,←,right,→,0.5169671000003291,False,54
2A-JW1605K24,131,experiment,26,←,left,←,0.38409909999973024,True,54
2A-JW1605K24,132,experiment,18,←,right,→,0.40070470000136993,False,54
2A-JW1605K24,133,experiment,30,←,left,←,0.5339930999998614,True,54
2A-JW1605K24,134,experiment,29,←,left,←,0.6337024000004021,True,54
2A-JW1605K24,135,experiment,15,↓,left,←,0.43384450000121433,False,54
2A-JW1605K24,136,experiment,28,→,down,↓,0.3003766000001633,False,54
2A-JW1605K24,137,experiment,14,↑,up,↑,0.5005519000005734,True,54
2A-JW1605K24,138,experiment,22,↓,down,↓,0.8172915000013745,True,54
2A-JW1605K24,139,experiment,27,→,left,←,0.48375319999831845,False,54
2A-JW1605K24,140,experiment,19,↓,down,↓,0.6002304000012373,True,54
2A-JW1605K24,141,experiment,24,↑,up,↑,0.5335902000006172,True,54
2A-JW1605K24,142,experiment,14,←,left,←,0.6171320000012201,True,59
2A-JW1605K24,143,experiment,13,↑,right,→,0.38368699999955425,False,59
2A-JW1605K24,144,experiment,30,→,up,↑,0.41719649999868125,False,59
2A-JW1605K24,145,experiment,22,↓,down,↓,0.8672189999997499,True,59
2A-JW1605K24,146,experiment,20,→,down,↓,0.5671579999998357,False,59
2A-JW1605K24,147,experiment,25,↑,left,←,0.3503646999997727,False,59
2A-JW1605K24,148,experiment,16,←,left,←,0.5522553999999218,True,59
2A-JW1605K24,149,experiment,26,↑,up,↑,0.750487699999212,True,59
2A-JW1605K24,150,experiment,28,←,left,←,0.4501796000004106,True,59
2A-JW1605K24,151,experiment,29,↓,down,↓,0.8003487000005407,True,59
2A-JW1605K24,152,experiment,23,↓,right,→,0.48365040000135195,False,59
2A-JW1605K24,153,experiment,21,→,left,←,0.5688592999995308,False,59
2A-JW1605K24,154,experiment,19,↓,down,↓,0.5171664999998029,True,59
2A-JW1605K24,155,experiment,31,↓,down,↓,0.6169300000001385,True,59
2A-JW1605K24,156,experiment,24,↑,no_key,no_letter,-1.0,False,59
2A-JW1605K24,157,experiment,18,←,up,↑,0.4504462999993848,False,59
2A-JW1605K24,158,experiment,27,←,right,→,0.5339123000012478,False,59
2A-JW1605K24,159,experiment,17,↑,up,↑,0.6172115999997914,True,59
2A-JW1605K24,160,experiment,15,↓,down,↓,0.5671547999991162,True,59
2A-JW1605K24,161,experiment,20,↑,left,←,0.48375080000005255,False,64
2A-JW1605K24,162,experiment,26,←,left,←,0.48362940000151866,True,64
2A-JW1605K24,163,experiment,19,←,left,←,0.4171747000000323,True,64
2A-JW1605K24,164,experiment,15,↓,left,←,0.3354975000002014,False,64
2A-JW1605K24,165,experiment,21,↑,no_key,no_letter,-1.0,False,64
2A-JW1605K24,166,experiment,29,→,right,→,0.5337272999986453,True,64
2A-JW1605K24,167,experiment,22,→,down,↓,0.5337119999985589,False,64
2A-JW1605K24,168,experiment,17,↓,down,↓,0.7504175999984,True,64
2A-JW1605K24,169,experiment,18,↓,down,↓,0.5171439000005194,True,64
2A-JW1605K24,170,experiment,25,→,right,→,0.46711560000039754,True,64
2A-JW1605K24,171,experiment,24,→,right,→,0.5171437000008154,True,64
2A-JW1605K24,172,experiment,13,↓,down,↓,0.46706170000106795,True,64
2A-JW1605K24,173,experiment,23,→,right,→,0.38570179999987886,True,64
2A-JW1605K24,174,experiment,31,→,right,→,0.6005841000005603,True,64
2A-JW1605K24,175,experiment,27,→,down,↓,0.4672037000000273,False,64
2A-JW1605K24,176,experiment,14,↓,down,↓,0.36717920000046433,True,64
2A-JW1605K24,177,experiment,16,↓,down,↓,0.5004736000009871,True,64
2A-JW1605K24,178,experiment,30,↑,up,↑,0.4508518999991793,True,64
2A-JW1605K24,179,experiment,28,→,right,→,0.5505571999983658,True,64
2A-JW1605K24,180,experiment,14,↓,no_key,no_letter,-1.0,False,69
2A-JW1605K24,181,experiment,21,↑,up,↑,0.7004082000003109,True,69
2A-JW1605K24,182,experiment,25,↓,down,↓,0.4337274999998044,True,69
2A-JW1605K24,183,experiment,16,↑,up,↑,0.4172395999994478,True,69
2A-JW1605K24,184,experiment,31,↑,up,↑,0.6186636000002181,True,69
2A-JW1605K24,185,experiment,23,↓,down,↓,0.7668752999998105,True,69
2A-JW1605K24,186,experiment,20,↓,down,↓,0.46712570000090636,True,69
2A-JW1605K24,187,experiment,17,↓,down,↓,0.5685518999998749,True,69
2A-JW1605K24,188,experiment,24,←,left,←,0.50052340000002,True,69
2A-JW1605K24,189,experiment,27,↓,down,↓,0.617297700000563,True,69
2A-JW1605K24,190,experiment,22,↑,up,↑,0.7670436999997037,True,69
2A-JW1605K24,191,experiment,28,←,left,←,0.36725470000055793,True,69
2A-JW1605K24,192,experiment,15,↑,up,↑,0.6838293000000704,True,69
2A-JW1605K24,193,experiment,30,↑,up,↑,0.4007201999993413,True,69
2A-JW1605K24,194,experiment,26,←,left,←,0.6506031000008079,True,69
2A-JW1605K24,195,experiment,18,→,right,→,0.6172193000002153,True,69
2A-JW1605K24,196,experiment,19,←,left,←,0.36713550000058603,True,69
2A-JW1605K24,197,experiment,29,↑,left,←,0.6171360000007553,False,69
2A-JW1605K24,198,experiment,13,→,right,→,0.5505293000005622,True,69
2A-JW1605K24,199,experiment,30,←,left,←,0.8505054000015662,True,67
2A-JW1605K24,200,experiment,14,↓,up,↑,0.4687008999990212,False,67
2A-JW1605K24,201,experiment,21,→,right,→,0.6852715000004537,True,67
2A-JW1605K24,202,experiment,22,←,left,←,0.48534380000091915,True,67
2A-JW1605K24,203,experiment,27,→,right,→,0.65217660000053,True,67
2A-JW1605K24,204,experiment,29,↓,down,↓,0.43391239999982645,True,67
2A-JW1605K24,205,experiment,17,↓,down,↓,0.7840223999992304,True,67
2A-JW1605K24,206,experiment,24,↓,down,↓,0.5004996999996365,True,67
2A-JW1605K24,207,experiment,23,↓,down,↓,0.5005805999990116,True,67
2A-JW1605K24,208,experiment,25,↑,up,↑,0.7006235000008019,True,67
2A-JW1605K24,209,experiment,31,↓,down,↓,0.600589099998615,True,67
2A-JW1605K24,210,experiment,19,↓,down,↓,0.700537799999438,True,67
2A-JW1605K24,211,experiment,16,←,left,←,0.6191736000000674,True,67
2A-JW1605K24,212,experiment,15,↓,down,↓,0.7353887999997823,True,67
2A-JW1605K24,213,experiment,18,↑,up,↑,0.8340014000004885,True,67
2A-JW1605K24,214,experiment,28,↓,left,←,0.5504256999993231,False,67
2A-JW1605K24,215,experiment,20,←,left,←,0.6173664999987523,True,67
2A-JW1605K24,216,experiment,13,↑,up,↑,0.7837870999992447,True,67
2A-JW1605K24,217,experiment,26,↓,down,↓,0.5839424999994662,True,67
2A-JW1605K24,218,experiment,23,→,left,←,0.5189290999987861,False,65
2A-JW1605K24,219,experiment,18,↓,down,↓,0.8172517000002699,True,65
2A-JW1605K24,220,experiment,16,←,left,←,0.5671316999996634,True,65
2A-JW1605K24,221,experiment,24,↑,up,↑,0.667190500000288,True,65
2A-JW1605K24,222,experiment,25,→,right,→,0.6504483000007895,True,65
2A-JW1605K24,223,experiment,31,↓,down,↓,0.8170953999997437,True,65
2A-JW1605K24,224,experiment,29,↓,down,↓,0.5172333999998955,True,65
2A-JW1605K24,225,experiment,14,↓,down,↓,0.5520101999991311,True,65
2A-JW1605K24,226,experiment,27,←,left,←,0.6337108999996417,True,65
2A-JW1605K24,227,experiment,19,↑,up,↑,0.6504956000007951,True,65
2A-JW1605K24,228,experiment,13,←,left,←,0.8006135999985418,True,65
2A-JW1605K24,229,experiment,15,↓,down,↓,0.767231099998753,True,65
2A-JW1605K24,230,experiment,22,↑,up,↑,0.7173854000011488,True,65
2A-JW1605K24,231,experiment,17,↓,down,↓,0.6171333999991475,True,65
2A-JW1605K24,232,experiment,20,↑,left,←,0.6671072999997705,False,65
2A-JW1605K24,233,experiment,21,←,left,←,0.8002254999992147,True,65
2A-JW1605K24,234,experiment,26,↓,down,↓,0.7691615000003367,True,65
2A-JW1605K24,235,experiment,30,↑,up,↑,0.6503229999998439,True,65
2A-JW1605K24,236,experiment,28,→,right,→,0.8004326999998739,True,65
2A-JW1605K24,237,experiment,18,↓,down,↓,0.7505237999994279,True,63
2A-JW1605K24,238,experiment,31,↓,down,↓,0.7505928999999014,True,63
2A-JW1605K24,239,experiment,23,←,left,←,0.6672035999999935,True,63
2A-JW1605K24,240,experiment,28,→,right,→,0.5338904000000184,True,63
2A-JW1605K24,241,experiment,25,←,left,←,0.6019943000010244,True,63
2A-JW1605K24,242,experiment,16,←,left,←,0.7004375000014988,True,63
2A-JW1605K24,243,experiment,14,↓,down,↓,0.43379149999964284,True,63
2A-JW1605K24,244,experiment,30,←,left,←,0.7019890000010491,True,63
2A-JW1605K24,245,experiment,20,→,right,→,0.700719399999798,True,63
2A-JW1605K24,246,experiment,13,↑,up,↑,0.7020923000000039,True,63
2A-JW1605K24,247,experiment,22,↑,up,↑,0.7672488999996858,True,63
2A-JW1605K24,248,experiment,26,↓,down,↓,0.8339594999997644,True,63
2A-JW1605K24,249,experiment,24,←,left,←,0.8006386000015482,True,63
2A-JW1605K24,250,experiment,15,↓,down,↓,0.8169948000013392,True,63
2A-JW1605K24,251,experiment,17,→,right,→,0.7171843000014633,True,63
2A-JW1605K24,252,experiment,19,→,left,←,0.5839103999987856,False,63
2A-JW1605K24,253,experiment,29,↓,down,↓,0.6671393000015087,True,63
2A-JW1605K24,254,experiment,27,←,left,←,0.7003289999993285,True,63
2A-JW1605K24,255,experiment,21,↑,up,↑,0.6188038000000233,True,63
2A-JW1605K24,256,experiment,28,←,left,←,0.8006602999994357,True,61
2A-JW1605K24,257,experiment,16,←,left,←,0.5504365000015241,True,61
2A-JW1605K24,258,experiment,30,←,left,←,0.7837780999998358,True,61
2A-JW1605K24,259,experiment,27,↓,down,↓,0.7839523000002373,True,61
2A-JW1605K24,260,experiment,18,→,left,←,0.4855105000006006,False,61
2A-JW1605K24,261,experiment,13,→,right,→,0.5003565999995772,True,61
2A-JW1605K24,262,experiment,25,→,right,→,0.45036329999857116,True,61
2A-JW1605K24,263,experiment,26,↑,up,↑,0.46721809999871766,True,61
2A-JW1605K24,264,experiment,20,←,left,←,0.8672106000012718,True,61
2A-JW1605K24,265,experiment,29,↓,down,↓,0.8671217999999499,True,61
2A-JW1605K24,266,experiment,17,↑,up,↑,0.6338574000001245,True,61
2A-JW1605K24,267,experiment,19,→,left,←,0.5838057999990269,False,61
2A-JW1605K24,268,experiment,14,→,right,→,0.7857134000005317,True,61
2A-JW1605K24,269,experiment,22,↓,down,↓,0.7523091999992175,True,61
2A-JW1605K24,270,experiment,15,↑,up,↑,0.7498933999995643,True,61
2A-JW1605K24,271,experiment,31,↑,up,↑,0.5173095999998623,True,61
2A-JW1605K24,272,experiment,21,↓,no_key,no_letter,-1.0,False,61
2A-JW1605K24,273,experiment,23,↑,up,↑,0.7004952999996021,True,61
2A-JW1605K24,274,experiment,24,→,right,→,0.6174052999995183,True,61
2A-JW1605K24,275,experiment,27,↑,up,↑,0.48384790000091016,True,59
2A-JW1605K24,276,experiment,31,↓,down,↓,0.7838133000004746,True,59
2A-JW1605K24,277,experiment,20,↓,down,↓,0.733813699998791,True,59
2A-JW1605K24,278,experiment,13,←,left,←,0.6007511000007071,True,59
2A-JW1605K24,279,experiment,15,↑,up,↑,0.7504798999998457,True,59
2A-JW1605K24,280,experiment,21,←,left,←,0.7504461999997147,True,59
2A-JW1605K24,281,experiment,22,↑,up,↑,0.7170843000003515,True,59
2A-JW1605K24,282,experiment,24,→,right,→,0.7671699000002263,True,59
2A-JW1605K24,283,experiment,17,←,left,←,0.6840618999995058,True,59
2A-JW1605K24,284,experiment,16,←,left,←,0.500582000000577,True,59
2A-JW1605K24,285,experiment,28,↑,up,↑,0.7338077999993402,True,59
2A-JW1605K24,286,experiment,25,↓,down,↓,0.8504490000013902,True,59
2A-JW1605K24,287,experiment,23,→,right,→,0.7504754999990837,True,59
2A-JW1605K24,288,experiment,30,→,right,→,0.8505537000000913,True,59
2A-JW1605K24,289,experiment,29,←,left,←,0.8672649000000092,True,59
2A-JW1605K24,290,experiment,18,↓,down,↓,0.6194175000000541,True,59
2A-JW1605K24,291,experiment,14,↓,down,↓,0.5005006000010326,True,59
2A-JW1605K24,292,experiment,26,↓,down,↓,0.6505160000015167,True,59
2A-JW1605K24,293,experiment,19,↓,down,↓,0.6504322999990109,True,59
2A-JW1605K24,294,experiment,28,↓,down,↓,0.9006539000001794,True,57
2A-JW1605K24,295,experiment,14,↑,up,↑,0.7172639999989769,True,57
2A-JW1605K24,296,experiment,27,→,right,→,0.6671330999997735,True,57
2A-JW1605K24,297,experiment,25,→,left,←,0.5171788000006927,False,57
2A-JW1605K24,298,experiment,23,↓,down,↓,0.6504494000000705,True,57
2A-JW1605K24,299,experiment,22,↓,down,↓,0.8004505000008066,True,57
2A-JW1605K24,300,experiment,17,←,left,←,0.7671714000007341,True,57
2A-JW1605K24,301,experiment,31,↑,up,↑,0.600687599999219,True,57
2A-JW1605K24,302,experiment,19,←,left,←,0.7837994000001345,True,57
2A-JW1605K24,303,experiment,21,→,right,→,0.7002124000009644,True,57
2A-JW1605K24,304,experiment,13,→,right,→,0.8503681000001961,True,57
2A-JW1605K24,305,experiment,16,↓,down,↓,0.7686193999998068,True,57
2A-JW1605K24,306,experiment,15,←,left,←,0.6839591000007204,True,57
2A-JW1605K24,307,experiment,30,↓,down,↓,0.8332527000002301,True,57
2A-JW1605K24,308,experiment,26,←,left,←,0.7672978999999032,True,57
2A-JW1605K24,309,experiment,18,↓,down,↓,0.600799999998344,True,57
2A-JW1605K24,310,experiment,24,→,right,→,0.8667257999986759,True,57
2A-JW1605K24,311,experiment,29,→,right,→,0.8352689000003011,True,57
2A-JW1605K24,312,experiment,20,↑,up,↑,0.5505397999986599,True,57
2A-JW1605K24,313,experiment,15,↑,no_key,no_letter,-1.0,False,55
2A-JW1605K24,314,experiment,30,→,right,→,0.6838345999985904,True,55
2A-JW1605K24,315,experiment,28,↑,up,↑,0.46701949999987846,True,55
2A-JW1605K24,316,experiment,13,←,left,←,0.6004539999994449,True,55
2A-JW1605K24,317,experiment,20,→,right,→,0.4669811000003392,True,55
2A-JW1605K24,318,experiment,24,→,left,←,0.5834807999999612,False,55
2A-JW1605K24,319,experiment,23,←,left,←,0.7838216999989527,True,55
2A-JW1605K24,320,experiment,27,←,left,←,0.6004640999999538,True,55
2A-JW1605K24,321,experiment,31,←,left,←,0.5838059999987308,True,55
2A-JW1605K24,322,experiment,22,←,left,←,0.4504089000001841,True,55
2A-JW1605K24,323,experiment,29,→,right,→,0.6172365999991598,True,55
2A-JW1605K24,324,experiment,19,↓,down,↓,0.5671289000001707,True,55
2A-JW1605K24,325,experiment,18,←,left,←,0.6006180999993376,True,55
2A-JW1605K24,326,experiment,17,←,left,←,0.5339620000013383,True,55
2A-JW1605K24,327,experiment,16,←,left,←,0.5670711000002484,True,55
2A-JW1605K24,328,experiment,21,←,left,←,0.5339203999992606,True,55
2A-JW1605K24,329,experiment,14,↑,up,↑,0.6838705999998638,True,55
2A-JW1605K24,330,experiment,26,↓,down,↓,0.46862009999858856,True,55
2A-JW1605K24,331,experiment,25,↑,up,↑,0.750377500000468,True,55
2A-JW1605K24,332,experiment,30,→,right,→,0.633886599998732,True,53
2A-JW1605K24,333,experiment,26,←,left,←,0.7839355000014621,True,53
2A-JW1605K24,334,experiment,29,←,left,←,0.8339240000004793,True,53
2A-JW1605K24,335,experiment,19,↓,down,↓,0.6838124999994761,True,53
2A-JW1605K24,336,experiment,23,→,right,→,0.750448900000265,True,53
2A-JW1605K24,337,experiment,16,←,left,←,0.7333904999995866,True,53
2A-JW1605K24,338,experiment,27,↑,up,↑,0.8174342000002071,True,53
2A-JW1605K24,339,experiment,31,→,left,←,0.5172247999998945,False,53
2A-JW1605K24,340,experiment,24,→,right,→,0.6672323999991931,True,53
2A-JW1605K24,341,experiment,21,←,left,←,0.650193000001309,True,53
2A-JW1605K24,342,experiment,22,↑,up,↑,0.6840491999992082,True,53
2A-JW1605K24,343,experiment,14,↓,down,↓,0.7171581999991758,True,53
2A-JW1605K24,344,experiment,15,↓,down,↓,0.7840190999995684,True,53
2A-JW1605K24,345,experiment,25,←,left,←,0.6337591999999859,True,53
2A-JW1605K24,346,experiment,13,↑,up,↑,0.8171798999992461,True,53
2A-JW1605K24,347,experiment,17,←,left,←,0.5672305000007327,True,53
2A-JW1605K24,348,experiment,18,→,right,→,0.7670393999997032,True,53
2A-JW1605K24,349,experiment,20,↓,down,↓,0.5500793999999587,True,53
2A-JW1605K24,350,experiment,28,↓,down,↓,0.8503616999987571,True,53
