PART_ID,Trial_no,Trial_type,CSI,Stim_letter,Key_pressed,letter_choose,Rt,Corr,Stimulus Time
2A-KS1102K24,1,training,10,↓,down,↓,0.6507756999926642,True,63
2A-KS1102K24,2,training,10,←,left,←,0.6018544000107795,True,63
2A-KS1102K24,3,training,10,↓,down,↓,0.6676417999551632,True,63
2A-KS1102K24,4,training,10,←,left,←,0.6169624000322074,True,63
2A-KS1102K24,5,training,10,↓,down,↓,0.6004102000151761,True,63
2A-KS1102K24,6,training,10,←,left,←,0.5504420000361279,True,63
2A-KS1102K24,7,training,10,←,left,←,0.8004829999990761,True,63
2A-KS1102K24,8,training,10,↓,down,↓,0.6521821999922395,True,63
2A-KS1102K24,9,experiment,20,↓,no_key,no_letter,-1.0,False,63
2A-KS1102K24,10,experiment,17,↓,down,↓,0.450434900005348,True,63
2A-KS1102K24,11,experiment,28,↑,down,↓,0.6002729999599978,False,63
2A-KS1102K24,12,experiment,21,↑,left,←,0.5339593999669887,False,63
2A-KS1102K24,13,experiment,30,←,left,←,0.8004101000260562,True,63
2A-KS1102K24,14,experiment,14,↓,up,↑,0.5524808000191115,False,63
2A-KS1102K24,15,experiment,16,↑,up,↑,0.7505539999692701,True,63
2A-KS1102K24,16,experiment,13,↓,down,↓,0.6338318000198342,True,63
2A-KS1102K24,17,experiment,26,←,left,←,0.6005322000128217,True,63
2A-KS1102K24,18,experiment,27,↓,down,↓,0.5837836999562569,True,63
2A-KS1102K24,19,experiment,18,↓,down,↓,0.6172169000492431,True,63
2A-KS1102K24,20,experiment,29,→,right,→,0.633786299964413,True,63
2A-KS1102K24,21,experiment,24,←,left,←,0.5505399000248872,True,63
2A-KS1102K24,22,experiment,25,→,right,→,0.6353639000444673,True,63
2A-KS1102K24,23,experiment,19,↑,up,↑,0.7505662000039592,True,63
2A-KS1102K24,24,experiment,31,→,right,→,0.5340732000186108,True,63
2A-KS1102K24,25,experiment,22,→,right,→,0.5674016000120901,True,63
2A-KS1102K24,26,experiment,23,→,right,→,0.5338710999931209,True,63
2A-KS1102K24,27,experiment,15,↓,down,↓,0.7504996999632567,True,63
2A-KS1102K24,28,experiment,14,→,right,→,0.5670558999991044,True,79
2A-KS1102K24,29,experiment,31,↓,down,↓,0.6855830999556929,True,79
2A-KS1102K24,30,experiment,26,→,right,→,0.6004792000167072,True,79
2A-KS1102K24,31,experiment,27,←,left,←,0.7337748999707401,True,79
2A-KS1102K24,32,experiment,20,→,right,→,0.7337835000362247,True,79
2A-KS1102K24,33,experiment,28,↑,up,↑,0.8669696000288241,True,79
2A-KS1102K24,34,experiment,16,↓,down,↓,0.6687956000096165,True,79
2A-KS1102K24,35,experiment,25,↑,up,↑,0.5504842000082135,True,79
2A-KS1102K24,36,experiment,15,↑,up,↑,0.6005727999727242,True,79
2A-KS1102K24,37,experiment,19,→,right,→,0.4506604000343941,True,79
2A-KS1102K24,38,experiment,23,↓,down,↓,0.8838603000040166,True,79
2A-KS1102K24,39,experiment,29,↓,down,↓,0.9005418000160716,True,79
2A-KS1102K24,40,experiment,21,←,left,←,0.7005225999746472,True,79
2A-KS1102K24,41,experiment,13,↑,up,↑,0.5005605000187643,True,79
2A-KS1102K24,42,experiment,17,↑,up,↑,0.43380250001791865,True,79
2A-KS1102K24,43,experiment,18,→,right,→,0.5337822000146843,True,79
2A-KS1102K24,44,experiment,22,↓,down,↓,0.7187324000406079,True,79
2A-KS1102K24,45,experiment,30,→,right,→,0.5507994000217877,True,79
2A-KS1102K24,46,experiment,24,↑,left,←,0.5338896000175737,False,79
2A-KS1102K24,47,experiment,16,→,right,→,0.5838109999895096,True,74
2A-KS1102K24,48,experiment,18,↑,up,↑,0.5338817999581806,True,74
2A-KS1102K24,49,experiment,21,↓,down,↓,0.6839516999898478,True,74
2A-KS1102K24,50,experiment,27,↑,up,↑,0.46706180000910535,True,74
2A-KS1102K24,51,experiment,24,↓,down,↓,0.7837336999946274,True,74
2A-KS1102K24,52,experiment,20,→,right,→,0.6671122999978252,True,74
2A-KS1102K24,53,experiment,28,↓,down,↓,0.8172843999927863,True,74
2A-KS1102K24,54,experiment,25,↓,down,↓,0.5671347000170499,True,74
2A-KS1102K24,55,experiment,29,→,right,→,0.5170543999993242,True,74
2A-KS1102K24,56,experiment,30,↓,down,↓,0.6837756999884732,True,74
2A-KS1102K24,57,experiment,31,←,left,←,0.5505382000119425,True,74
2A-KS1102K24,58,experiment,13,↓,down,↓,0.9338422000291757,True,74
2A-KS1102K24,59,experiment,15,←,no_key,no_letter,-1.0,False,74
2A-KS1102K24,60,experiment,14,↑,up,↑,0.7837784999865107,True,74
2A-KS1102K24,61,experiment,26,→,right,→,0.8005099999718368,True,74
2A-KS1102K24,62,experiment,19,←,left,←,0.6004886000300758,True,74
2A-KS1102K24,63,experiment,23,↑,up,↑,0.5339835000340827,True,74
2A-KS1102K24,64,experiment,17,←,left,←,0.6004795000189915,True,74
2A-KS1102K24,65,experiment,22,↓,down,↓,0.7505458999658003,True,74
2A-KS1102K24,66,experiment,19,→,right,→,0.7504043999942951,True,69
2A-KS1102K24,67,experiment,29,→,right,→,0.6837722999625839,True,69
2A-KS1102K24,68,experiment,14,↑,right,→,0.46718740003416315,False,69
2A-KS1102K24,69,experiment,30,↑,up,↑,0.5840206000139005,True,69
2A-KS1102K24,70,experiment,23,↓,down,↓,0.7173332999809645,True,69
2A-KS1102K24,71,experiment,20,→,right,→,0.6338106999755837,True,69
2A-KS1102K24,72,experiment,21,↑,up,↑,0.5670489000040106,True,69
2A-KS1102K24,73,experiment,16,←,left,←,0.6005016000126489,True,69
2A-KS1102K24,74,experiment,15,→,right,→,0.5002583999885246,True,69
2A-KS1102K24,75,experiment,18,→,right,→,0.5839803999988362,True,69
2A-KS1102K24,76,experiment,24,↑,up,↑,0.5171719000209123,True,69
2A-KS1102K24,77,experiment,22,→,right,→,0.550442700041458,True,69
2A-KS1102K24,78,experiment,28,←,left,←,0.6336620000074618,True,69
2A-KS1102K24,79,experiment,27,↑,up,↑,0.5505317999632098,True,69
2A-KS1102K24,80,experiment,25,↓,down,↓,0.6353388000279665,True,69
2A-KS1102K24,81,experiment,31,↓,down,↓,0.7338636999484152,True,69
2A-KS1102K24,82,experiment,26,→,right,→,0.5505021000280976,True,69
2A-KS1102K24,83,experiment,13,↑,up,↑,0.600705300050322,True,69
2A-KS1102K24,84,experiment,17,↓,down,↓,0.8005134999984875,True,69
2A-KS1102K24,85,experiment,17,↓,up,↑,0.5005629999795929,False,64
2A-KS1102K24,86,experiment,22,←,left,←,0.5169060000334866,True,64
2A-KS1102K24,87,experiment,23,→,right,→,0.6170074000256136,True,64
2A-KS1102K24,88,experiment,26,←,left,←,0.5671346999588422,True,64
2A-KS1102K24,89,experiment,25,→,right,→,0.9671987999463454,True,64
2A-KS1102K24,90,experiment,15,←,left,←,0.5670864999992773,True,64
2A-KS1102K24,91,experiment,24,←,left,←,0.5999956000014208,True,64
2A-KS1102K24,92,experiment,21,←,left,←,0.48375950002809986,True,64
2A-KS1102K24,93,experiment,18,↓,down,↓,0.7172835000092164,True,64
2A-KS1102K24,94,experiment,14,↓,down,↓,0.6172549999901094,True,64
2A-KS1102K24,95,experiment,27,↓,down,↓,0.7354068999993615,True,64
2A-KS1102K24,96,experiment,29,↑,up,↑,0.7504087999695912,True,64
2A-KS1102K24,97,experiment,13,↑,up,↑,0.5838643999886699,True,64
2A-KS1102K24,98,experiment,31,↑,up,↑,0.6004468000028282,True,64
2A-KS1102K24,99,experiment,19,←,left,←,0.5339116000104696,True,64
2A-KS1102K24,100,experiment,20,↓,down,↓,0.8172681999858469,True,64
2A-KS1102K24,101,experiment,16,→,right,→,0.567318300018087,True,64
2A-KS1102K24,102,experiment,28,←,left,←,0.5171732000308111,True,64
2A-KS1102K24,103,experiment,30,←,left,←,0.5020651000086218,True,64
2A-KS1102K24,104,experiment,16,↑,up,↑,0.5687802999746054,True,59
2A-KS1102K24,105,experiment,26,↑,up,↑,0.5024943000171334,True,59
2A-KS1102K24,106,experiment,25,↓,down,↓,0.6506136999814771,True,59
2A-KS1102K24,107,experiment,17,↓,down,↓,0.6675625999923795,True,59
2A-KS1102K24,108,experiment,21,→,right,→,0.5336660000029951,True,59
2A-KS1102K24,109,experiment,15,↑,up,↑,0.7003817000077106,True,59
2A-KS1102K24,110,experiment,30,←,left,←,0.7671623000060208,True,59
2A-KS1102K24,111,experiment,23,↓,down,↓,0.9172794999903999,True,59
2A-KS1102K24,112,experiment,18,↑,up,↑,0.5004534000181593,True,59
2A-KS1102K24,113,experiment,13,→,right,→,0.5517710999702103,True,59
2A-KS1102K24,114,experiment,28,↓,down,↓,0.5836498999851756,True,59
2A-KS1102K24,115,experiment,22,←,left,←,0.6504370999755338,True,59
2A-KS1102K24,116,experiment,27,↑,up,↑,0.4337930000037886,True,59
2A-KS1102K24,117,experiment,31,↓,down,↓,0.783962200046517,True,59
2A-KS1102K24,118,experiment,20,←,left,←,0.7005045000114478,True,59
2A-KS1102K24,119,experiment,19,→,left,←,0.4670468000113033,False,59
2A-KS1102K24,120,experiment,24,→,right,→,0.5172779000131413,True,59
2A-KS1102K24,121,experiment,14,←,left,←,0.6338248000247404,True,59
2A-KS1102K24,122,experiment,29,→,right,→,0.6005786000168882,True,59
2A-KS1102K24,123,experiment,24,↑,no_key,no_letter,-1.0,False,54
2A-KS1102K24,124,experiment,16,→,right,→,0.7671070999931544,True,54
2A-KS1102K24,125,experiment,13,↑,up,↑,0.6172453000326641,True,54
2A-KS1102K24,126,experiment,25,↓,up,↑,0.5353361999732442,False,54
2A-KS1102K24,127,experiment,29,→,right,→,0.5172332999645732,True,54
2A-KS1102K24,128,experiment,31,←,left,←,0.5339000000385568,True,54
2A-KS1102K24,129,experiment,22,↓,down,↓,0.6838338000234216,True,54
2A-KS1102K24,130,experiment,21,→,right,→,0.6006367999943905,True,54
2A-KS1102K24,131,experiment,14,→,up,↑,0.5503661999828182,False,54
2A-KS1102K24,132,experiment,27,←,right,→,0.5837701000273228,False,54
2A-KS1102K24,133,experiment,20,↑,up,↑,0.6361406999640167,True,54
2A-KS1102K24,134,experiment,26,↑,up,↑,0.850575199990999,True,54
2A-KS1102K24,135,experiment,17,←,left,←,0.5839622000348754,True,54
2A-KS1102K24,136,experiment,23,↑,up,↑,0.6504973000264727,True,54
2A-KS1102K24,137,experiment,15,→,right,→,0.6003334000124596,True,54
2A-KS1102K24,138,experiment,19,←,left,←,0.6171139000216499,True,54
2A-KS1102K24,139,experiment,28,↑,up,↑,0.5337037999997847,True,54
2A-KS1102K24,140,experiment,30,←,left,←,0.5855609000427648,True,54
2A-KS1102K24,141,experiment,18,↑,up,↑,0.5338619999820367,True,54
2A-KS1102K24,142,experiment,29,←,left,←,0.6005588000407442,True,59
2A-KS1102K24,143,experiment,23,↓,right,→,0.5169648000155576,False,59
2A-KS1102K24,144,experiment,21,→,right,→,0.5338655000086874,True,59
2A-KS1102K24,145,experiment,18,→,left,←,0.5338230000343174,False,59
2A-KS1102K24,146,experiment,24,→,right,→,0.5835875999764539,True,59
2A-KS1102K24,147,experiment,13,↑,up,↑,0.8672398999915458,True,59
2A-KS1102K24,148,experiment,31,↓,down,↓,0.7166636000038125,True,59
2A-KS1102K24,149,experiment,17,→,right,→,0.6005064000491984,True,59
2A-KS1102K24,150,experiment,14,←,right,→,0.5004483999800868,False,59
2A-KS1102K24,151,experiment,25,←,left,←,0.6006392000126652,True,59
2A-KS1102K24,152,experiment,30,↑,up,↑,0.8840441000065766,True,59
2A-KS1102K24,153,experiment,16,←,left,←,0.8670150999678299,True,59
2A-KS1102K24,154,experiment,15,↑,up,↑,0.8170645000063814,True,59
2A-KS1102K24,155,experiment,26,↓,down,↓,0.7505421999958344,True,59
2A-KS1102K24,156,experiment,28,←,left,←,0.5838256000424735,True,59
2A-KS1102K24,157,experiment,27,←,left,←,0.7506588000105694,True,59
2A-KS1102K24,158,experiment,22,←,left,←,0.5337157000321895,True,59
2A-KS1102K24,159,experiment,20,↑,up,↑,0.5512597999768332,True,59
2A-KS1102K24,160,experiment,19,→,right,→,0.6169533999636769,True,59
2A-KS1102K24,161,experiment,14,→,right,→,0.4675602999632247,True,57
2A-KS1102K24,162,experiment,27,↑,up,↑,0.5839178999885917,True,57
2A-KS1102K24,163,experiment,13,↓,down,↓,0.7172937999712303,True,57
2A-KS1102K24,164,experiment,20,↓,no_key,no_letter,-1.0,False,57
2A-KS1102K24,165,experiment,22,←,left,←,0.5672863000072539,True,57
2A-KS1102K24,166,experiment,21,←,left,←,0.6172791999997571,True,57
2A-KS1102K24,167,experiment,16,→,right,→,0.6171214999631047,True,57
2A-KS1102K24,168,experiment,25,↑,up,↑,0.7004288000171073,True,57
2A-KS1102K24,169,experiment,15,←,left,←,0.550423700013198,True,57
2A-KS1102K24,170,experiment,19,←,left,←,0.5671429000212811,True,57
2A-KS1102K24,171,experiment,24,↓,down,↓,0.6673502000048757,True,57
2A-KS1102K24,172,experiment,30,→,right,→,0.4671145999454893,True,57
2A-KS1102K24,173,experiment,23,←,left,←,0.650484999991022,True,57
2A-KS1102K24,174,experiment,31,←,left,←,0.46716270002070814,True,57
2A-KS1102K24,175,experiment,17,↓,down,↓,0.7838163999840617,True,57
2A-KS1102K24,176,experiment,26,→,right,→,0.7838303999742493,True,57
2A-KS1102K24,177,experiment,18,←,left,←,0.5852565999957733,True,57
2A-KS1102K24,178,experiment,28,←,left,←,0.5838572999928147,True,57
2A-KS1102K24,179,experiment,29,↓,down,↓,0.8838354999898002,True,57
2A-KS1102K24,180,experiment,31,←,left,←,0.6504447999759577,True,55
2A-KS1102K24,181,experiment,17,→,right,→,0.5505118999863043,True,55
2A-KS1102K24,182,experiment,15,→,right,→,0.5337075000279583,True,55
2A-KS1102K24,183,experiment,21,→,right,→,0.617136099957861,True,55
2A-KS1102K24,184,experiment,19,↓,down,↓,0.6171716999961063,True,55
2A-KS1102K24,185,experiment,23,↑,no_key,no_letter,-1.0,False,55
2A-KS1102K24,186,experiment,25,↓,down,↓,0.6504699000506662,True,55
2A-KS1102K24,187,experiment,28,↓,down,↓,0.7003321000374854,True,55
2A-KS1102K24,188,experiment,30,↓,down,↓,0.583733499981463,True,55
2A-KS1102K24,189,experiment,18,→,right,→,0.533710699994117,True,55
2A-KS1102K24,190,experiment,20,↑,up,↑,0.5837227000156417,True,55
2A-KS1102K24,191,experiment,26,↑,up,↑,0.6671530999592505,True,55
2A-KS1102K24,192,experiment,13,←,left,←,0.5673237000009976,True,55
2A-KS1102K24,193,experiment,27,←,left,←,0.7005316999857314,True,55
2A-KS1102K24,194,experiment,29,↓,down,↓,0.7504143000114709,True,55
2A-KS1102K24,195,experiment,16,↑,up,↑,0.518522700003814,True,55
2A-KS1102K24,196,experiment,24,↑,up,↑,0.8672734000138007,True,55
2A-KS1102K24,197,experiment,22,←,left,←,0.6836926999967545,True,55
2A-KS1102K24,198,experiment,14,↑,left,←,0.6504990000394173,False,55
2A-KS1102K24,199,experiment,30,↓,down,↓,0.8171836000401527,True,53
2A-KS1102K24,200,experiment,21,←,left,←,0.45049940003082156,True,53
2A-KS1102K24,201,experiment,28,←,left,←,0.617232899996452,True,53
2A-KS1102K24,202,experiment,29,→,right,→,0.466918500023894,True,53
2A-KS1102K24,203,experiment,13,↓,down,↓,0.5670767000410706,True,53
2A-KS1102K24,204,experiment,20,←,left,←,0.5504025000263937,True,53
2A-KS1102K24,205,experiment,24,←,left,←,0.6338936000247486,True,53
2A-KS1102K24,206,experiment,23,↓,down,↓,0.7838438000180759,True,53
2A-KS1102K24,207,experiment,17,←,left,←,0.5352752000326291,True,53
2A-KS1102K24,208,experiment,19,←,left,←,0.4838358999695629,True,53
2A-KS1102K24,209,experiment,18,→,left,←,0.5170169999473728,False,53
2A-KS1102K24,210,experiment,16,→,right,→,0.717035899986513,True,53
2A-KS1102K24,211,experiment,22,←,left,←,0.6338507999898866,True,53
2A-KS1102K24,212,experiment,25,↓,down,↓,0.8004208999918774,True,53
2A-KS1102K24,213,experiment,26,↓,down,↓,0.7670359999756329,True,53
2A-KS1102K24,214,experiment,14,→,right,→,0.6340858000330627,True,53
2A-KS1102K24,215,experiment,27,→,right,→,0.5837629000307061,True,53
2A-KS1102K24,216,experiment,15,↑,up,↑,0.7338283000281081,True,53
2A-KS1102K24,217,experiment,31,↑,up,↑,0.7172783999703825,True,53
2A-KS1102K24,218,experiment,17,↑,up,↑,0.500513700011652,True,51
2A-KS1102K24,219,experiment,19,←,left,←,0.6505135000334121,True,51
2A-KS1102K24,220,experiment,22,↑,up,↑,0.5669197000097483,True,51
2A-KS1102K24,221,experiment,30,↑,up,↑,0.48370470001827925,True,51
2A-KS1102K24,222,experiment,25,←,left,←,0.5671167999971658,True,51
2A-KS1102K24,223,experiment,13,↓,down,↓,0.783790500019677,True,51
2A-KS1102K24,224,experiment,23,←,left,←,0.6003872000146657,True,51
2A-KS1102K24,225,experiment,31,↓,down,↓,0.6670638999785297,True,51
2A-KS1102K24,226,experiment,26,←,left,←,0.6837015000055544,True,51
2A-KS1102K24,227,experiment,24,←,left,←,0.5188902000081725,True,51
2A-KS1102K24,228,experiment,15,→,left,←,0.5005642999894917,False,51
2A-KS1102K24,229,experiment,14,→,right,→,0.4839588000322692,True,51
2A-KS1102K24,230,experiment,18,→,right,→,0.6519339000224136,True,51
2A-KS1102K24,231,experiment,20,↑,up,↑,0.7339669999782927,True,51
2A-KS1102K24,232,experiment,29,←,left,←,0.5504155000089668,True,51
2A-KS1102K24,233,experiment,21,←,left,←,0.5504177000257187,True,51
2A-KS1102K24,234,experiment,27,↑,up,↑,0.4837050000205636,True,51
2A-KS1102K24,235,experiment,16,↓,down,↓,0.6339652999886312,True,51
2A-KS1102K24,236,experiment,28,→,right,→,0.567185599997174,True,51
2A-KS1102K24,237,experiment,28,←,left,←,0.6840235000126995,True,49
2A-KS1102K24,238,experiment,20,→,right,→,0.5337424000026658,True,49
2A-KS1102K24,239,experiment,30,↑,up,↑,0.6005386000033468,True,49
2A-KS1102K24,240,experiment,13,↓,down,↓,0.6837523999856785,True,49
2A-KS1102K24,241,experiment,19,↓,down,↓,0.735461000003852,True,49
2A-KS1102K24,242,experiment,31,→,right,→,0.6669305000104941,True,49
2A-KS1102K24,243,experiment,18,↓,down,↓,0.5672837999882177,True,49
2A-KS1102K24,244,experiment,16,→,right,→,0.4842847000109032,True,49
2A-KS1102K24,245,experiment,17,←,left,←,0.4837628999957815,True,49
2A-KS1102K24,246,experiment,23,↓,down,↓,0.6171584999538027,True,49
2A-KS1102K24,247,experiment,29,→,right,→,0.583860199956689,True,49
2A-KS1102K24,248,experiment,27,→,right,→,0.5338685999740846,True,49
2A-KS1102K24,249,experiment,24,→,right,→,0.5672806000220589,True,49
2A-KS1102K24,250,experiment,22,←,right,→,0.4504100999911316,False,49
2A-KS1102K24,251,experiment,26,←,left,←,0.5171070999931544,True,49
2A-KS1102K24,252,experiment,14,↑,up,↑,0.7338338000117801,True,49
2A-KS1102K24,253,experiment,15,↑,up,↑,0.6171649000025354,True,49
2A-KS1102K24,254,experiment,25,↑,up,↑,0.4672376000089571,True,49
2A-KS1102K24,255,experiment,21,←,no_key,no_letter,-1.0,False,49
2A-KS1102K24,256,experiment,15,→,right,→,0.6671517000067979,True,47
2A-KS1102K24,257,experiment,14,↓,no_key,no_letter,-1.0,False,47
2A-KS1102K24,258,experiment,13,↓,no_key,no_letter,-1.0,False,47
2A-KS1102K24,259,experiment,16,→,right,→,0.717301300028339,True,47
2A-KS1102K24,260,experiment,17,→,right,→,0.5338748999638483,True,47
2A-KS1102K24,261,experiment,24,↓,down,↓,0.5171848000027239,True,47
2A-KS1102K24,262,experiment,31,↑,up,↑,0.5671973999706097,True,47
2A-KS1102K24,263,experiment,18,↑,up,↑,0.5838458000216633,True,47
2A-KS1102K24,264,experiment,25,←,left,←,0.6004251000122167,True,47
2A-KS1102K24,265,experiment,27,→,up,↑,0.5506425999919884,False,47
2A-KS1102K24,266,experiment,21,←,right,→,0.5171469000051729,False,47
2A-KS1102K24,267,experiment,22,←,left,←,0.6171980999642983,True,47
2A-KS1102K24,268,experiment,30,←,left,←,0.5003681000089273,True,47
2A-KS1102K24,269,experiment,19,↑,up,↑,0.5672361000324599,True,47
2A-KS1102K24,270,experiment,29,↑,up,↑,0.4171640999848023,True,47
2A-KS1102K24,271,experiment,28,←,left,←,0.5506890999968164,True,47
2A-KS1102K24,272,experiment,23,→,left,←,0.4838027999503538,False,47
2A-KS1102K24,273,experiment,20,←,left,←,0.6336835999973118,True,47
2A-KS1102K24,274,experiment,26,←,left,←,0.5337929999805056,True,47
2A-KS1102K24,275,experiment,31,↑,up,↑,0.6671979999518953,True,52
2A-KS1102K24,276,experiment,17,↑,up,↑,0.46710449998499826,True,52
2A-KS1102K24,277,experiment,24,↑,up,↑,0.6170867999899201,True,52
2A-KS1102K24,278,experiment,29,←,left,←,0.5338591000181623,True,52
2A-KS1102K24,279,experiment,19,→,right,→,0.7338280000258237,True,52
2A-KS1102K24,280,experiment,23,←,left,←,0.6170423999428749,True,52
2A-KS1102K24,281,experiment,26,↑,up,↑,0.6671003999654204,True,52
2A-KS1102K24,282,experiment,30,→,right,→,0.7672310999478213,True,52
2A-KS1102K24,283,experiment,28,↓,no_key,no_letter,-1.0,False,52
2A-KS1102K24,284,experiment,21,←,left,←,0.6671755999559537,True,52
2A-KS1102K24,285,experiment,16,↓,down,↓,0.6504907999769785,True,52
2A-KS1102K24,286,experiment,18,↓,down,↓,0.7339130999753252,True,52
2A-KS1102K24,287,experiment,14,↓,down,↓,0.8006112000439316,True,52
2A-KS1102K24,288,experiment,13,↓,no_key,no_letter,-1.0,False,52
2A-KS1102K24,289,experiment,20,→,right,→,0.7356634000316262,True,52
2A-KS1102K24,290,experiment,15,←,left,←,0.617059399955906,True,52
2A-KS1102K24,291,experiment,27,→,right,→,0.6005517999874428,True,52
2A-KS1102K24,292,experiment,22,↑,up,↑,0.8005831000045873,True,52
2A-KS1102K24,293,experiment,25,→,right,→,0.583740999980364,True,52
2A-KS1102K24,294,experiment,28,↓,no_key,no_letter,-1.0,False,50
2A-KS1102K24,295,experiment,21,→,right,→,0.5671708000008948,True,50
2A-KS1102K24,296,experiment,30,↓,down,↓,0.7169633999583311,True,50
2A-KS1102K24,297,experiment,18,→,right,→,0.5854666999657638,True,50
2A-KS1102K24,298,experiment,22,↑,up,↑,0.6670784000307322,True,50
2A-KS1102K24,299,experiment,24,←,right,→,0.5505249999696389,False,50
2A-KS1102K24,300,experiment,19,←,right,→,0.5004567000432871,False,50
2A-KS1102K24,301,experiment,26,↓,no_key,no_letter,-1.0,False,50
2A-KS1102K24,302,experiment,14,↑,up,↑,0.7839012000476941,True,50
2A-KS1102K24,303,experiment,27,→,right,→,0.5511300999787636,True,50
2A-KS1102K24,304,experiment,17,↑,up,↑,0.5855371000361629,True,50
2A-KS1102K24,305,experiment,31,→,right,→,0.5670958000118844,True,50
2A-KS1102K24,306,experiment,25,←,left,←,0.5504198999842629,True,50
2A-KS1102K24,307,experiment,23,↓,down,↓,0.6006711000227369,True,50
2A-KS1102K24,308,experiment,20,↓,down,↓,0.6172106000012718,True,50
2A-KS1102K24,309,experiment,15,↓,down,↓,0.6003273999667726,True,50
2A-KS1102K24,310,experiment,13,→,right,→,0.5690469999681227,True,50
2A-KS1102K24,311,experiment,29,↑,up,↑,0.6839442999917082,True,50
2A-KS1102K24,312,experiment,16,↓,down,↓,0.6019414999755099,True,50
2A-KS1102K24,313,experiment,20,→,right,→,0.5671781999990344,True,55
2A-KS1102K24,314,experiment,24,→,right,→,0.5669929999858141,True,55
2A-KS1102K24,315,experiment,30,←,left,←,0.6171181999961846,True,55
2A-KS1102K24,316,experiment,25,→,right,→,0.5503886000369675,True,55
2A-KS1102K24,317,experiment,29,↑,up,↑,0.6672666000085883,True,55
2A-KS1102K24,318,experiment,15,←,left,←,0.6671936000348069,True,55
2A-KS1102K24,319,experiment,16,←,left,←,0.6004136000410654,True,55
2A-KS1102K24,320,experiment,23,←,left,←,0.583762000023853,True,55
2A-KS1102K24,321,experiment,13,↑,up,↑,0.5670760999782942,True,55
2A-KS1102K24,322,experiment,19,→,right,→,0.467128699994646,True,55
2A-KS1102K24,323,experiment,21,←,left,←,0.46715630003018305,True,55
2A-KS1102K24,324,experiment,28,→,left,←,0.6172170000500046,False,55
2A-KS1102K24,325,experiment,17,←,right,→,0.650450799963437,False,55
2A-KS1102K24,326,experiment,14,↓,no_key,no_letter,-1.0,False,55
2A-KS1102K24,327,experiment,26,→,right,→,0.7505196999991313,True,55
2A-KS1102K24,328,experiment,22,↓,down,↓,0.7009414999629371,True,55
2A-KS1102K24,329,experiment,18,→,right,→,0.5504989000037313,True,55
2A-KS1102K24,330,experiment,31,←,left,←,0.7506106999935582,True,55
2A-KS1102K24,331,experiment,27,←,right,→,0.5337537999730557,False,55
2A-KS1102K24,332,experiment,22,↑,left,←,0.5856043999665417,False,60
2A-KS1102K24,333,experiment,29,→,right,→,0.5839688999694772,True,60
2A-KS1102K24,334,experiment,21,↑,up,↑,0.5339352999581024,True,60
2A-KS1102K24,335,experiment,18,→,right,→,0.5506923000211827,True,60
2A-KS1102K24,336,experiment,17,←,left,←,0.5338508999557234,True,60
2A-KS1102K24,337,experiment,28,←,left,←,0.4838338000117801,True,60
2A-KS1102K24,338,experiment,19,←,up,↑,0.5502809000317939,False,60
2A-KS1102K24,339,experiment,23,↑,up,↑,0.5672066999832168,True,60
2A-KS1102K24,340,experiment,13,←,right,→,0.5521735000074841,False,60
2A-KS1102K24,341,experiment,16,→,right,→,0.5339575000107288,True,60
2A-KS1102K24,342,experiment,24,↑,up,↑,0.5170101000112481,True,60
2A-KS1102K24,343,experiment,30,↓,down,↓,0.7005088999867439,True,60
2A-KS1102K24,344,experiment,31,↑,up,↑,0.6837593999807723,True,60
2A-KS1102K24,345,experiment,20,←,left,←,0.6504185000085272,True,60
2A-KS1102K24,346,experiment,25,←,left,←,0.6172286999644712,True,60
2A-KS1102K24,347,experiment,14,←,left,←,0.48389110004063696,True,60
2A-KS1102K24,348,experiment,26,↑,up,↑,0.5338423000066541,True,60
2A-KS1102K24,349,experiment,27,←,left,←,0.6004016000078991,True,60
2A-KS1102K24,350,experiment,15,↑,up,↑,0.5337878999998793,True,60
