PART_ID,Block_no,Trial_no,Block_type,Trial_type,CSI,Stim_letter,Key_pressed,letter_choose,Rt,Corr,Stimulus Time,Level,Reversal,Revs_count
103K25,1,1,PS,train,38,←,down,↓,1.4829319000000396,False,30,-,-,-
103K25,1,2,PS,train,37,→,right,→,1.2602631999998266,True,30,-,-,-
103K25,1,3,PS,train,27,↑,up,↑,1.0585126000005403,True,30,-,-,-
103K25,1,4,PS,train,27,→,right,→,0.8922674999994342,True,30,-,-,-
103K25,1,5,PS,train,40,↑,up,↑,0.8646189999999478,True,30,-,-,-
103K25,1,6,PS,train,40,↓,down,↓,0.7514580999995815,True,30,-,-,-
103K25,1,7,PS,train,36,↑,up,↑,0.7914067000001523,True,30,-,-,-
103K25,1,8,PS,train,34,→,right,→,0.5505076999997982,True,30,-,-,-
103K25,1,9,PS,train,29,↓,no_key,no_letter,-1.0,False,30,-,-,-
103K25,1,10,PS,train,28,↑,no_key,no_letter,-1.0,False,30,-,-,-
103K25,2,11,AS,train,49,↓,no_key,no_letter,-1.0,False,45,-,-,-
103K25,2,12,AS,train,50,↑,up,↑,1.1204543000003468,True,45,-,-,-
103K25,2,13,AS,train,34,↓,left,←,1.861313400000654,False,45,-,-,-
103K25,2,14,AS,train,38,↑,up,↑,0.7338672000005317,True,45,-,-,-
103K25,2,15,AS,train,43,→,right,→,1.770497700001215,True,45,-,-,-
103K25,2,16,AS,train,27,↓,down,↓,1.4398694999999861,True,45,-,-,-
103K25,2,17,AS,train,44,↑,up,↑,0.7337195000000065,True,45,-,-,-
103K25,2,18,AS,train,39,↓,down,↓,0.7838157999995019,True,45,-,-,-
103K25,2,19,AS,train,34,↑,up,↑,1.0063193000005413,True,45,-,-,-
103K25,2,20,AS,train,31,↓,down,↓,0.7338007999987894,True,45,-,-,-
103K25,-,21,PS,adaptive,31,↑,right,→,1.4258390000013605,False,10,-1,0,0
103K25,-,22,PS,adaptive,43,→,right,→,0.9462442000003648,True,11,-1,0,0
103K25,-,23,PS,adaptive,48,←,left,←,0.5465217000000848,True,11,1,1,1
103K25,-,24,PS,adaptive,37,↓,right,→,1.1908972000001086,False,10,-1,1,2
103K25,-,25,PS,adaptive,40,↑,up,↑,1.1212838999999803,True,11,-1,0,2
103K25,-,26,PS,adaptive,27,→,right,→,0.5493507999999565,True,11,1,1,3
103K25,-,27,PS,adaptive,50,↑,up,↑,0.7334179999998014,True,10,1,0,3
103K25,-,28,PS,adaptive,32,↓,down,↓,0.8876555000006192,True,10,1,0,3
103K25,-,29,PS,adaptive,37,→,up,↑,1.1090180999999575,False,9,-1,1,4
103K25,-,30,AS,adaptive,29,↑,up,↑,0.7465709000007337,True,20,0,0,0
103K25,-,31,AS,adaptive,25,↓,down,↓,0.7054621000006591,True,20,1,0,0
103K25,-,32,AS,adaptive,33,↑,up,↑,0.6774609999993118,True,19,1,0,0
103K25,-,33,AS,adaptive,32,→,right,→,0.6827680999995209,True,19,1,0,0
103K25,-,34,AS,adaptive,42,←,right,→,0.7546222999990277,False,18,-1,1,1
103K25,-,35,AS,adaptive,36,↑,up,↑,0.8015981000007741,True,19,-1,0,1
103K25,-,36,AS,adaptive,32,→,right,→,0.6315726000011637,True,19,1,1,2
103K25,-,37,AS,adaptive,33,↓,down,↓,0.8442931999998109,True,18,1,0,2
103K25,-,38,AS,adaptive,50,←,left,←,0.7457792000004702,True,18,1,0,2
103K25,-,39,AS,adaptive,36,↓,up,↑,1.074316700000054,False,17,-1,1,3
103K25,-,40,AS,adaptive,28,←,left,←,0.7529251999985718,True,18,-1,0,3
103K25,-,41,AS,adaptive,50,↑,right,→,0.9902055000002292,False,18,-1,0,3
103K25,-,42,AS,adaptive,47,↓,down,↓,1.019232099999499,True,19,-1,0,3
103K25,-,43,AS,adaptive,35,←,left,←,1.1272160000007716,True,19,1,1,4
103K25,1,44,AS,intra_train,37,→,right,→,0.6467309999989084,True,27,-,-,-
103K25,1,45,AS,intra_train,27,↑,up,↑,0.6946232999998756,True,27,-,-,-
103K25,1,46,AS,intra_train,40,↓,down,↓,0.7144576000009693,True,27,-,-,-
103K25,1,47,AS,intra_train,36,→,no_key,no_letter,-1.0,False,27,-,-,-
103K25,1,48,AS,intra_train,32,↓,down,↓,0.8805300000003626,True,27,-,-,-
103K25,1,49,AS,exp,47,→,left,←,1.0080874999985099,False,18,-1,0,0
103K25,1,50,AS,exp,38,←,right,→,1.440738200000851,False,19,-1,0,0
103K25,1,51,AS,exp,50,→,left,←,1.2221582000001945,False,20,-1,0,0
103K25,1,52,AS,exp,31,↑,up,↑,1.0529728000001342,True,21,-1,0,0
103K25,1,53,AS,exp,32,↓,down,↓,0.8858359999994718,True,21,1,1,1
103K25,1,54,AS,exp,50,←,left,←,0.5525877000000037,True,20,1,0,1
103K25,1,55,AS,exp,50,↑,up,↑,0.7535716999991564,True,20,1,0,1
103K25,1,56,AS,exp,46,←,left,←,0.6393898999995145,True,19,1,0,1
103K25,1,57,AS,exp,50,→,right,→,0.6327132000005804,True,19,1,0,1
103K25,1,58,AS,exp,28,↓,up,↑,1.261587499999223,False,18,-1,1,2
103K25,1,59,AS,exp,46,←,right,→,0.6327416000003723,False,19,-1,0,2
103K25,1,60,AS,exp,34,↑,up,↑,1.1665634000000864,True,20,-1,0,2
103K25,1,61,AS,exp,45,↓,down,↓,0.814411299999847,True,20,1,1,3
103K25,1,62,AS,exp,36,←,left,←,0.5165465000009135,True,19,1,0,3
103K25,1,63,AS,exp,31,→,right,→,0.6804627999990771,True,19,1,0,3
103K25,1,64,AS,exp,40,←,left,←,0.9750354000007064,True,18,1,0,3
103K25,1,65,AS,exp,25,↑,up,↑,0.5949811000009504,True,18,1,0,3
103K25,1,66,AS,exp,35,↓,up,↑,0.8259152000009635,False,17,-1,1,4
103K25,1,67,AS,exp,50,↑,up,↑,0.69742590000169,True,18,-1,0,4
103K25,1,68,AS,exp,38,↓,left,←,0.6831425999989733,False,18,-1,0,4
103K25,1,69,AS,exp,38,→,right,→,0.5637067000006937,True,19,-1,0,4
103K25,1,70,AS,exp,29,↑,up,↑,1.0458963999990374,True,19,1,1,5
103K25,1,71,AS,exp,35,→,left,←,0.6966768000002048,False,18,-1,1,6
103K25,1,72,AS,exp,35,↑,up,↑,0.5307689000001119,True,19,-1,0,6
103K25,1,73,AS,exp,31,→,left,←,0.7669329000000289,False,19,-1,0,6
103K25,1,74,AS,exp,38,↓,down,↓,0.7005499999995664,True,20,-1,0,6
103K25,1,75,AS,exp,45,↑,down,↓,1.1819438000002265,False,20,-1,0,6
103K25,1,76,AS,exp,42,→,no_key,no_letter,-1.0,False,21,-1,0,6
103K25,1,77,AS,exp,27,←,no_key,no_letter,-1.0,False,22,-1,0,6
103K25,1,78,AS,exp,47,↓,right,→,0.6417222000000038,False,23,-1,0,6
103K25,1,79,AS,exp,40,↑,down,↓,1.1875987999992503,False,24,-1,0,6
103K25,1,80,AS,exp,28,↓,down,↓,0.8198093999999401,True,25,-1,0,6
103K25,1,81,AS,exp,42,→,right,→,0.7945882000003621,True,25,1,1,7
103K25,1,82,AS,exp,47,↑,up,↑,0.8098924999994779,True,24,1,0,7
103K25,1,83,AS,exp,41,→,up,↑,1.4554504999996425,False,24,-1,1,8
103K25,1,84,AS,exp,43,↓,down,↓,0.596274399998947,True,25,-1,0,8
103K25,1,85,AS,exp,48,↑,up,↑,0.9229334999999992,True,25,1,1,9
103K25,1,86,AS,exp,38,←,left,←,0.517351200000121,True,24,1,0,9
103K25,1,87,AS,exp,45,→,right,→,0.8594661000006454,True,24,1,0,9
103K25,1,88,AS,exp,49,↓,down,↓,0.6484768999998778,True,23,1,0,9
103K25,1,89,AS,exp,46,→,right,→,0.8830328000003647,True,23,1,0,9
103K25,1,90,AS,exp,40,↑,up,↑,0.929903899999772,True,22,1,0,9
103K25,1,91,AS,exp,42,→,no_key,no_letter,-1.0,False,22,-1,1,10
103K25,1,92,AS,exp,34,←,left,←,0.9951971000009507,True,23,-1,0,10
103K25,1,93,AS,exp,44,↓,right,→,1.0491899999997258,False,23,-1,0,10
103K25,1,94,AS,exp,45,→,right,→,0.6839245999999548,True,24,-1,0,10
103K25,1,95,AS,exp,43,↓,left,←,1.2015040999995108,False,24,-1,0,10
103K25,1,96,AS,exp,47,↑,left,←,1.837198699999135,False,25,-1,0,10
103K25,1,97,AS,exp,39,→,right,→,0.8008193000005122,True,26,-1,0,10
103K25,1,98,AS,exp,29,↑,right,→,0.9808632000003854,False,26,-1,0,10
103K25,1,99,AS,exp,34,←,left,←,0.5171962000003987,True,27,-1,0,10
103K25,1,100,AS,exp,31,→,no_key,no_letter,-1.0,False,27,-1,0,10
103K25,1,101,AS,exp,34,↑,up,↑,0.7981278000006569,True,28,-1,0,10
103K25,1,102,AS,exp,45,→,right,→,0.7664755999994668,True,28,1,1,11
103K25,1,103,AS,exp,41,↑,up,↑,0.753501299999698,True,27,1,0,11
103K25,1,104,AS,exp,44,←,no_key,no_letter,-1.0,False,27,-1,1,12
103K25,1,105,AS,exp,50,→,right,→,0.566936799999894,True,28,-1,0,12
103K25,1,106,AS,exp,30,←,left,←,0.6589026999990892,True,28,1,1,13
103K25,1,107,AS,exp,29,↑,up,↑,1.1440220000004047,True,27,1,0,13
103K25,1,108,AS,exp,49,↓,left,←,1.0073371999988012,False,27,-1,1,14
103K25,2,109,PS,intra_train,31,→,right,→,0.5110960999991221,True,15,-,-,-
103K25,2,110,PS,intra_train,47,↑,up,↑,0.6126563999987411,True,15,-,-,-
103K25,2,111,PS,intra_train,27,←,left,←,0.5027427999993961,True,15,-,-,-
103K25,2,112,PS,intra_train,30,→,right,→,0.5075191000014456,True,15,-,-,-
103K25,2,113,PS,intra_train,28,↑,up,↑,0.6381913000004715,True,15,-,-,-
103K25,2,114,PS,exp,33,←,left,←,1.0252260999986902,True,10,0,0,0
103K25,2,115,PS,exp,42,↓,left,←,0.7891902000010305,False,10,-1,0,0
103K25,2,116,PS,exp,36,↑,right,→,1.6750834999984363,False,11,-1,0,0
103K25,2,117,PS,exp,46,↓,up,↑,0.9341112000001885,False,12,-1,0,0
103K25,2,118,PS,exp,26,←,left,←,0.6168233999997028,True,13,-1,0,0
103K25,2,119,PS,exp,36,↑,up,↑,0.5648884000001999,True,13,1,1,1
103K25,2,120,PS,exp,33,←,left,←,0.5975156000004063,True,12,1,0,1
103K25,2,121,PS,exp,40,→,right,→,0.5250742000007449,True,12,1,0,1
103K25,2,122,PS,exp,35,←,left,←,0.567952299999888,True,11,1,0,1
103K25,2,123,PS,exp,33,↑,down,↓,0.8306348000005528,False,11,-1,1,2
103K25,2,124,PS,exp,37,→,right,→,0.6320492000013473,True,12,-1,0,2
103K25,2,125,PS,exp,27,↑,left,←,1.1891964999995253,False,12,-1,0,2
103K25,2,126,PS,exp,44,→,right,→,0.4985687999997026,True,13,-1,0,2
103K25,2,127,PS,exp,39,←,left,←,0.785740799999985,True,13,1,1,3
103K25,2,128,PS,exp,37,↑,up,↑,0.8709330000001501,True,12,1,0,3
103K25,2,129,PS,exp,31,↓,down,↓,0.5637661000000662,True,12,1,0,3
103K25,2,130,PS,exp,48,→,down,↓,0.9133834000003844,False,11,-1,1,4
103K25,2,131,PS,exp,30,↑,up,↑,0.6529941000007966,True,12,-1,0,4
103K25,2,132,PS,exp,42,←,left,←,0.47964520000095945,True,12,1,1,5
103K25,2,133,PS,exp,43,↑,left,←,0.8454469000007521,False,11,-1,1,6
103K25,2,134,PS,exp,29,↓,up,↑,0.8726575999990018,False,12,-1,0,6
103K25,2,135,PS,exp,38,←,left,←,0.6906042999999045,True,13,-1,0,6
103K25,2,136,PS,exp,28,↓,down,↓,0.6863474000001588,True,13,1,1,7
103K25,2,137,PS,exp,31,↑,up,↑,0.7292219000009936,True,12,1,0,7
103K25,2,138,PS,exp,37,←,left,←,0.4369087999984913,True,12,1,0,7
103K25,2,139,PS,exp,26,↑,up,↑,0.7369940999997198,True,11,1,0,7
103K25,2,140,PS,exp,28,←,left,←,0.8999110000004293,True,11,1,0,7
103K25,2,141,PS,exp,30,↑,left,←,0.9942504999999073,False,10,-1,1,8
103K25,2,142,PS,exp,47,↓,down,↓,0.5826199999992241,True,11,-1,0,8
103K25,2,143,PS,exp,39,←,left,←,0.7358669999994163,True,11,1,1,9
103K25,2,144,PS,exp,48,↑,up,↑,0.6380097999990539,True,10,1,0,9
103K25,2,145,PS,exp,38,→,left,←,0.9271735999991506,False,10,-1,1,10
103K25,2,146,PS,exp,27,←,right,→,1.198521599999367,False,11,-1,0,10
103K25,2,147,PS,exp,48,→,right,→,0.6416238000001613,True,12,-1,0,10
103K25,2,148,PS,exp,35,↑,left,←,0.9888123000000633,False,12,-1,0,10
103K25,2,149,PS,exp,30,→,right,→,0.5343422000005376,True,13,-1,0,10
103K25,2,150,PS,exp,30,↑,up,↑,0.5666185999998561,True,13,1,1,11
103K25,2,151,PS,exp,25,→,right,→,0.5713950999997905,True,12,1,0,11
103K25,2,152,PS,exp,46,←,left,←,0.49082219999945664,True,12,1,0,11
103K25,2,153,PS,exp,46,→,right,→,0.6824843999984296,True,11,1,0,11
103K25,2,154,PS,exp,28,↑,up,↑,0.5183173000004899,True,11,1,0,11
103K25,2,155,PS,exp,45,↓,down,↓,0.7485670999994909,True,10,1,0,11
103K25,2,156,PS,exp,27,→,right,→,0.4987115999992966,True,10,1,0,11
103K25,2,157,PS,exp,50,↓,right,→,1.2428287000002456,False,9,-1,1,12
103K25,2,158,PS,exp,25,↑,up,↑,0.5545297999997274,True,10,-1,0,12
103K25,2,159,PS,exp,38,→,right,→,0.5550957000014023,True,10,1,1,13
103K25,2,160,PS,exp,36,↑,right,→,0.9518251000008604,False,9,-1,1,14
103K25,3,161,PS,intra_train,36,←,left,←,0.8630501000006916,True,15,-,-,-
103K25,3,162,PS,intra_train,40,→,right,→,0.47070259999964037,True,15,-,-,-
103K25,3,163,PS,intra_train,44,↓,down,↓,0.6978964999998425,True,15,-,-,-
103K25,3,164,PS,intra_train,47,→,right,→,0.5634802999993553,True,15,-,-,-
103K25,3,165,PS,intra_train,29,↓,down,↓,0.7160282000004372,True,15,-,-,-
103K25,3,166,PS,exp,46,→,left,←,0.8125403999983973,False,10,-1,0,0
103K25,3,167,PS,exp,47,↓,down,↓,0.6682308999988891,True,11,-1,0,0
103K25,3,168,PS,exp,26,←,right,→,0.7283275999998295,False,11,-1,0,0
103K25,3,169,PS,exp,25,↓,right,→,1.0620493999995233,False,12,-1,0,0
103K25,3,170,PS,exp,47,→,right,→,0.6980476000007911,True,13,-1,0,0
103K25,3,171,PS,exp,44,←,left,←,0.5420006999993348,True,13,1,1,1
103K25,3,172,PS,exp,39,↑,up,↑,0.5000488000005134,True,12,1,0,1
103K25,3,173,PS,exp,39,→,right,→,0.5997207999989769,True,12,1,0,1
103K25,3,174,PS,exp,36,←,left,←,0.43556929999977,True,11,1,0,1
103K25,3,175,PS,exp,48,↓,down,↓,0.8167738999982248,True,11,1,0,1
103K25,3,176,PS,exp,38,→,right,→,0.7628394999992452,True,10,1,0,1
103K25,3,177,PS,exp,31,←,left,←,0.7605597999991005,True,10,1,0,1
103K25,3,178,PS,exp,28,↓,left,←,0.9401644999998098,False,9,-1,1,2
103K25,3,179,PS,exp,29,↑,up,↑,0.590796100001171,True,10,-1,0,2
103K25,3,180,PS,exp,32,→,right,→,0.6285026999994443,True,10,1,1,3
103K25,3,181,PS,exp,32,↓,down,↓,0.8410230000008596,True,9,1,0,3
103K25,3,182,PS,exp,26,↑,left,←,0.9214673999995284,False,9,-1,1,4
103K25,3,183,PS,exp,37,→,right,→,0.8174633999988146,True,10,-1,0,4
103K25,3,184,PS,exp,33,↑,up,↑,0.8408423999990191,True,10,1,1,5
103K25,3,185,PS,exp,41,→,right,→,0.5926665999995748,True,9,1,0,5
103K25,3,186,PS,exp,47,←,right,→,0.7207964999997785,False,9,-1,1,6
103K25,3,187,PS,exp,45,↓,down,↓,0.79125810000005,True,10,-1,0,6
103K25,3,188,PS,exp,25,↑,up,↑,0.4578046999995422,True,10,1,1,7
103K25,3,189,PS,exp,45,↓,down,↓,0.6939568000016152,True,9,1,0,7
103K25,3,190,PS,exp,26,→,right,→,0.7391637000000628,True,9,1,0,7
103K25,3,191,PS,exp,30,↑,up,↑,0.5288183000011486,True,8,1,0,7
103K25,3,192,PS,exp,45,→,right,→,0.523467699998946,True,8,1,0,7
103K25,3,193,PS,exp,30,←,left,←,0.8919949000010092,True,7,1,0,7
103K25,3,194,PS,exp,42,→,right,→,0.6618775000006281,True,7,1,0,7
103K25,3,195,PS,exp,26,←,left,←,0.5277113000011013,True,6,1,0,7
103K25,3,196,PS,exp,34,↑,left,←,1.1834453999999823,False,6,-1,1,8
103K25,3,197,PS,exp,40,→,right,→,0.606501100000969,True,7,-1,0,8
103K25,3,198,PS,exp,42,↑,up,↑,0.8241629000003741,True,7,1,1,9
103K25,3,199,PS,exp,45,→,left,←,1.073456800000713,False,6,-1,1,10
103K25,3,200,PS,exp,27,↓,down,↓,1.3626827000007324,True,7,-1,0,10
103K25,3,201,PS,exp,44,↑,left,←,1.1130172000011953,False,7,-1,0,10
103K25,3,202,PS,exp,38,→,right,→,1.1158058000000892,True,8,-1,0,10
103K25,3,203,PS,exp,32,↑,up,↑,0.9390062000002217,True,8,1,1,11
103K25,3,204,PS,exp,35,↓,left,←,0.8926900000005844,False,7,-1,1,12
103K25,3,205,PS,exp,49,→,right,→,0.7290993000005983,True,8,-1,0,12
103K25,3,206,PS,exp,35,←,right,→,0.7193430000006629,False,8,-1,0,12
103K25,3,207,PS,exp,37,↑,left,←,0.5825256000007357,False,9,-1,0,12
103K25,3,208,PS,exp,34,←,left,←,0.5135069999996631,True,10,-1,0,12
103K25,3,209,PS,exp,38,→,right,→,0.8173203000005742,True,10,1,1,13
103K25,3,210,PS,exp,40,↓,down,↓,0.6162514999996347,True,9,1,0,13
103K25,3,211,PS,exp,29,→,right,→,0.7804050000013376,True,9,1,0,13
103K25,3,212,PS,exp,36,←,left,←,0.633184500000425,True,8,1,0,13
103K25,3,213,PS,exp,36,→,down,↓,0.8549336999985826,False,8,-1,1,14
103K25,4,214,AS,intra_train,50,↑,up,↑,0.6878059999999095,True,27,-,-,-
103K25,4,215,AS,intra_train,28,←,left,←,0.7762963999994099,True,27,-,-,-
103K25,4,216,AS,intra_train,36,↓,down,↓,0.6441999999988184,True,27,-,-,-
103K25,4,217,AS,intra_train,43,←,no_key,no_letter,-1.0,False,27,-,-,-
103K25,4,218,AS,intra_train,49,→,right,→,0.6651228999999148,True,27,-,-,-
103K25,4,219,AS,exp,25,↑,up,↑,0.5944259999996575,True,18,0,0,0
103K25,4,220,AS,exp,42,→,right,→,0.5822542000005342,True,18,1,0,0
103K25,4,221,AS,exp,26,↓,down,↓,0.715379600000233,True,17,1,0,0
103K25,4,222,AS,exp,28,←,left,←,0.49873849999858066,True,17,1,0,0
103K25,4,223,AS,exp,42,↓,down,↓,0.7288246999996773,True,16,1,0,0
103K25,4,224,AS,exp,38,←,right,→,0.6022238999994443,False,16,-1,1,1
103K25,4,225,AS,exp,38,→,right,→,0.5843060000006517,True,17,-1,0,1
103K25,4,226,AS,exp,35,↑,right,→,1.0997629999983474,False,17,-1,0,1
103K25,4,227,AS,exp,28,↓,left,←,1.1622760999998718,False,18,-1,0,1
103K25,4,228,AS,exp,36,↑,up,↑,0.740709900001093,True,19,-1,0,1
103K25,4,229,AS,exp,32,←,right,→,0.7675243000012415,False,19,-1,0,1
103K25,4,230,AS,exp,42,↑,up,↑,0.6092313999997714,True,20,-1,0,1
103K25,4,231,AS,exp,46,↓,left,←,0.9217097999990074,False,20,-1,0,1
103K25,4,232,AS,exp,36,←,left,←,0.7792353000004368,True,21,-1,0,1
103K25,4,233,AS,exp,36,↓,up,↑,0.9483447000002343,False,21,-1,0,1
103K25,4,234,AS,exp,37,←,left,←,0.5902857999990374,True,22,-1,0,1
103K25,4,235,AS,exp,26,↑,up,↑,0.7019194000004063,True,22,1,1,2
103K25,4,236,AS,exp,28,↓,down,↓,0.5526026999996247,True,21,1,0,2
103K25,4,237,AS,exp,49,→,right,→,0.6518522999995184,True,21,1,0,2
103K25,4,238,AS,exp,30,↑,up,↑,0.7463394999995216,True,20,1,0,2
103K25,4,239,AS,exp,44,→,right,→,0.5576102999984869,True,20,1,0,2
103K25,4,240,AS,exp,48,↑,up,↑,0.5770957000004273,True,19,1,0,2
103K25,4,241,AS,exp,30,←,left,←,0.7981359999994311,True,19,1,0,2
103K25,4,242,AS,exp,33,↓,up,↑,0.6792769000003318,False,18,-1,1,3
103K25,4,243,AS,exp,42,←,left,←,0.48956010000074457,True,19,-1,0,3
103K25,4,244,AS,exp,46,↓,down,↓,0.8333464999996067,True,19,1,1,4
103K25,4,245,AS,exp,44,↑,up,↑,0.9011852000003273,True,18,1,0,4
103K25,4,246,AS,exp,48,↓,down,↓,0.8074948000012228,True,18,1,0,4
103K25,4,247,AS,exp,45,↑,up,↑,0.6185328999999911,True,17,1,0,4
103K25,4,248,AS,exp,38,↓,down,↓,0.6471036999992066,True,17,1,0,4
103K25,4,249,AS,exp,50,→,right,→,0.517368599999827,True,16,1,0,4
103K25,4,250,AS,exp,48,↓,up,↑,0.7944017000008898,False,16,-1,1,5
103K25,4,251,AS,exp,33,↑,up,↑,0.5797336999985419,True,17,-1,0,5
103K25,4,252,AS,exp,46,↓,down,↓,0.6201914000012039,True,17,1,1,6
103K25,4,253,AS,exp,49,→,right,→,0.5821416999988287,True,16,1,0,6
103K25,4,254,AS,exp,38,↑,up,↑,1.0584139000002324,True,16,1,0,6
103K25,4,255,AS,exp,27,←,left,←,0.5083388000002742,True,15,1,0,6
103K25,4,256,AS,exp,25,↑,left,←,0.9502897999991546,False,15,-1,1,7
103K25,4,257,AS,exp,47,←,left,←,0.47982430000047316,True,16,-1,0,7
103K25,4,258,AS,exp,36,↑,up,↑,0.5636282000014035,True,16,1,1,8
103K25,4,259,AS,exp,45,→,right,→,0.5045220000010886,True,15,1,0,8
103K25,4,260,AS,exp,44,↑,left,←,1.2070755999993708,False,15,-1,1,9
103K25,4,261,AS,exp,28,↓,no_key,no_letter,-1.0,False,16,-1,0,9
103K25,4,262,AS,exp,30,→,right,→,0.72669230000065,True,17,-1,0,9
103K25,4,263,AS,exp,36,↓,down,↓,0.6849046000006638,True,17,1,1,10
103K25,4,264,AS,exp,48,→,right,→,0.7686976000004506,True,16,1,0,10
103K25,4,265,AS,exp,45,↑,up,↑,0.6370186000003741,True,16,1,0,10
103K25,4,266,AS,exp,26,←,left,←,0.5662548000000243,True,15,1,0,10
103K25,4,267,AS,exp,30,↑,up,↑,0.5189255000004778,True,15,1,0,10
103K25,4,268,AS,exp,26,↓,right,→,0.7467262999998638,False,14,-1,1,11
103K25,4,269,AS,exp,46,↑,up,↑,0.5981419999989157,True,15,-1,0,11
103K25,4,270,AS,exp,48,↓,down,↓,0.622642199999973,True,15,1,1,12
103K25,4,271,AS,exp,45,→,right,→,0.43374319999929867,True,14,1,0,12
103K25,4,272,AS,exp,47,↑,left,←,0.8702491000003647,False,14,-1,1,13
103K25,4,273,AS,exp,39,↓,down,↓,0.7390451999999641,True,15,-1,0,13
103K25,4,274,AS,exp,44,↑,up,↑,0.5743251999992935,True,15,1,1,14
103K25,5,275,AS,intra_train,40,→,right,→,0.6809057999998913,True,27,-,-,-
103K25,5,276,AS,intra_train,46,↑,up,↑,0.7339248999996926,True,27,-,-,-
103K25,5,277,AS,intra_train,34,→,right,→,1.7035235000003013,True,27,-,-,-
103K25,5,278,AS,intra_train,47,←,left,←,0.6255173000008654,True,27,-,-,-
103K25,5,279,AS,intra_train,26,→,left,←,0.5504395999996632,False,27,-,-,-
103K25,5,280,AS,exp,50,↑,up,↑,0.5519535000003088,True,18,0,0,0
103K25,5,281,AS,exp,45,↓,down,↓,0.6247048000004725,True,18,1,0,0
103K25,5,282,AS,exp,31,←,left,←,0.8468109000004915,True,17,1,0,0
103K25,5,283,AS,exp,48,↓,down,↓,0.5665289999997185,True,17,1,0,0
103K25,5,284,AS,exp,32,→,right,→,0.6078648000002431,True,16,1,0,0
103K25,5,285,AS,exp,47,↑,right,→,0.5408098000007158,False,16,-1,1,1
103K25,5,286,AS,exp,43,↓,down,↓,0.5028524999997899,True,17,-1,0,1
103K25,5,287,AS,exp,25,←,left,←,0.7306758999984595,True,17,1,1,2
103K25,5,288,AS,exp,42,↑,up,↑,0.567463499999576,True,16,1,0,2
103K25,5,289,AS,exp,29,↓,down,↓,0.5778532000003906,True,16,1,0,2
103K25,5,290,AS,exp,27,←,right,→,0.8380761000007624,False,15,-1,1,3
103K25,5,291,AS,exp,44,→,left,←,0.6717731999997341,False,16,-1,0,3
103K25,5,292,AS,exp,47,↑,up,↑,0.6499963000005664,True,17,-1,0,3
103K25,5,293,AS,exp,48,→,right,→,0.5499586000005365,True,17,1,1,4
103K25,5,294,AS,exp,35,↓,up,↑,0.6066179999997985,False,16,-1,1,5
103K25,5,295,AS,exp,39,←,left,←,0.47540440000011586,True,17,-1,0,5
103K25,5,296,AS,exp,29,→,right,→,0.47772149999946123,True,17,1,1,6
103K25,5,297,AS,exp,33,←,right,→,0.4756652000014583,False,16,-1,1,7
103K25,5,298,AS,exp,43,↓,down,↓,0.5512103000000934,True,17,-1,0,7
103K25,5,299,AS,exp,46,↑,up,↑,0.6629416000014317,True,17,1,1,8
103K25,5,300,AS,exp,36,←,left,←,0.6604831999993621,True,16,1,0,8
103K25,5,301,AS,exp,42,→,right,→,0.4739054000001488,True,16,1,0,8
103K25,5,302,AS,exp,28,↑,down,↓,0.767370799998389,False,15,-1,1,9
103K25,5,303,AS,exp,31,←,left,←,0.6763103000012052,True,16,-1,0,9
103K25,5,304,AS,exp,27,↑,down,↓,0.8490299999994022,False,16,-1,0,9
103K25,5,305,AS,exp,25,↓,left,←,0.6687713999999687,False,17,-1,0,9
103K25,5,306,AS,exp,32,↑,up,↑,0.604885300001115,True,18,-1,0,9
103K25,5,307,AS,exp,45,→,right,→,0.5947022999989713,True,18,1,1,10
103K25,5,308,AS,exp,34,↓,down,↓,0.5380244000007224,True,17,1,0,10
103K25,5,309,AS,exp,34,→,right,→,0.4887737000008201,True,17,1,0,10
103K25,5,310,AS,exp,41,↑,up,↑,0.8991322000001674,True,16,1,0,10
103K25,5,311,AS,exp,28,←,right,→,0.6404930999997305,False,16,-1,1,11
103K25,5,312,AS,exp,39,→,right,→,0.40050890000020445,True,17,-1,0,11
103K25,5,313,AS,exp,46,↓,up,↑,0.771862699999474,False,17,-1,0,11
103K25,5,314,AS,exp,43,←,left,←,0.6338046000000759,True,18,-1,0,11
103K25,5,315,AS,exp,38,→,right,→,0.636794000000009,True,18,1,1,12
103K25,5,316,AS,exp,29,←,left,←,0.7590923000007024,True,17,1,0,12
103K25,5,317,AS,exp,39,↓,down,↓,0.8690738000004785,True,17,1,0,12
103K25,5,318,AS,exp,45,→,right,→,0.5355589000009786,True,16,1,0,12
103K25,5,319,AS,exp,37,←,left,←,0.9245783000005758,True,16,1,0,12
103K25,5,320,AS,exp,30,↑,left,←,1.1543360999985453,False,15,-1,1,13
103K25,5,321,AS,exp,26,↓,down,↓,0.5070133999997779,True,16,-1,0,13
103K25,5,322,AS,exp,45,↑,up,↑,0.6650430999998207,True,16,1,1,14
103K25,6,323,PS,intra_train,25,↓,down,↓,0.6769957999986218,True,15,-,-,-
103K25,6,324,PS,intra_train,44,←,left,←,0.5765985000016371,True,15,-,-,-
103K25,6,325,PS,intra_train,44,↓,left,←,0.9790763000000879,False,15,-,-,-
103K25,6,326,PS,intra_train,32,↑,up,↑,0.5912954999985232,True,15,-,-,-
103K25,6,327,PS,intra_train,48,↓,down,↓,0.582822500000475,True,15,-,-,-
103K25,6,328,PS,exp,25,↑,left,←,0.9273181999997178,False,10,-1,0,0
103K25,6,329,PS,exp,30,↓,left,←,0.7998993000001065,False,11,-1,0,0
103K25,6,330,PS,exp,25,↑,up,↑,0.5446492999999464,True,12,-1,0,0
103K25,6,331,PS,exp,31,→,right,→,0.5229264999998122,True,12,1,1,1
103K25,6,332,PS,exp,38,↓,down,↓,0.6735998999993171,True,11,1,0,1
103K25,6,333,PS,exp,47,→,right,→,0.5258248999998614,True,11,1,0,1
103K25,6,334,PS,exp,40,←,right,→,0.6462516999999934,False,10,-1,1,2
103K25,6,335,PS,exp,42,↓,no_key,no_letter,-1.0,False,11,-1,0,2
103K25,6,336,PS,exp,45,↑,left,←,0.9017923999999766,False,12,-1,0,2
103K25,6,337,PS,exp,35,↓,left,←,1.4076666000000841,False,13,-1,0,2
103K25,6,338,PS,exp,43,→,right,→,0.6142390000004525,True,14,-1,0,2
103K25,6,339,PS,exp,46,←,left,←,0.607648799999879,True,14,1,1,3
103K25,6,340,PS,exp,38,↑,up,↑,0.5918643000004522,True,13,1,0,3
103K25,6,341,PS,exp,35,←,left,←,0.6783784999988711,True,13,1,0,3
103K25,6,342,PS,exp,50,↑,up,↑,0.45848079999996116,True,12,1,0,3
103K25,6,343,PS,exp,28,→,right,→,0.6114471999990201,True,12,1,0,3
103K25,6,344,PS,exp,45,↓,right,→,0.7664382000002661,False,11,-1,1,4
103K25,6,345,PS,exp,37,→,right,→,0.9896360999991884,True,12,-1,0,4
103K25,6,346,PS,exp,29,↓,down,↓,0.6237333999997645,True,12,1,1,5
103K25,6,347,PS,exp,49,←,left,←,0.9652335999999195,True,11,1,0,5
103K25,6,348,PS,exp,45,↓,down,↓,0.6252379000015935,True,11,1,0,5
103K25,6,349,PS,exp,45,←,left,←,0.9393968000003952,True,10,1,0,5
103K25,6,350,PS,exp,34,→,right,→,0.46174359999895387,True,10,1,0,5
103K25,6,351,PS,exp,35,↓,right,→,0.922205999999278,False,9,-1,1,6
103K25,6,352,PS,exp,28,←,left,←,0.5005036000002292,True,10,-1,0,6
103K25,6,353,PS,exp,49,→,right,→,0.49216770000020915,True,10,1,1,7
103K25,6,354,PS,exp,26,←,right,→,0.9786222000002454,False,9,-1,1,8
103K25,6,355,PS,exp,44,→,right,→,0.7675481000005675,True,10,-1,0,8
103K25,6,356,PS,exp,39,←,left,←,1.1010169999990467,True,10,1,1,9
103K25,6,357,PS,exp,35,↑,up,↑,0.5703154999991966,True,9,1,0,9
103K25,6,358,PS,exp,40,↓,down,↓,0.7941405000001396,True,9,1,0,9
103K25,6,359,PS,exp,36,→,right,→,0.6426320999999007,True,8,1,0,9
103K25,6,360,PS,exp,26,↑,left,←,1.2170051000011881,False,8,-1,1,10
103K25,6,361,PS,exp,25,→,right,→,0.4906572999989294,True,9,-1,0,10
103K25,6,362,PS,exp,34,↑,left,←,0.9695401999997557,False,9,-1,0,10
103K25,6,363,PS,exp,50,←,left,←,0.7800133000000642,True,10,-1,0,10
103K25,6,364,PS,exp,32,→,right,→,0.5036479999998846,True,10,1,1,11
103K25,6,365,PS,exp,27,↑,left,←,0.7925747999997839,False,9,-1,1,12
103K25,6,366,PS,exp,39,←,down,↓,1.3827406000000337,False,10,-1,0,12
103K25,6,367,PS,exp,31,→,left,←,0.6408279000006587,False,11,-1,0,12
103K25,6,368,PS,exp,33,↑,left,←,1.0741821999999956,False,12,-1,0,12
103K25,6,369,PS,exp,48,←,left,←,0.5259953999993741,True,13,-1,0,12
103K25,6,370,PS,exp,28,↓,right,→,1.8736801000013656,False,13,-1,0,12
103K25,6,371,PS,exp,44,→,right,→,0.5677670000004582,True,14,-1,0,12
103K25,6,372,PS,exp,35,←,left,←,0.5613625999994838,True,14,1,1,13
103K25,6,373,PS,exp,43,↓,down,↓,0.5642224000002898,True,13,1,0,13
103K25,6,374,PS,exp,37,↑,up,↑,1.1190999999998894,True,13,1,0,13
103K25,6,375,PS,exp,35,→,right,→,0.6102522000001045,True,12,1,0,13
103K25,6,376,PS,exp,46,↑,left,←,0.8364925999994739,False,12,-1,1,14
103K25,7,377,PS,intra_train,45,↓,down,↓,0.8373823999991146,True,15,-,-,-
103K25,7,378,PS,intra_train,34,→,right,→,0.5831220999989455,True,15,-,-,-
103K25,7,379,PS,intra_train,39,←,left,←,0.45967250000103377,True,15,-,-,-
103K25,7,380,PS,intra_train,44,↓,down,↓,0.655945000000429,True,15,-,-,-
103K25,7,381,PS,intra_train,31,↑,left,←,0.769291599999633,False,15,-,-,-
103K25,7,382,PS,exp,40,↓,down,↓,0.6235173000004579,True,10,0,0,0
103K25,7,383,PS,exp,25,↑,down,↓,0.8826517000015883,False,10,-1,0,0
103K25,7,384,PS,exp,38,↓,down,↓,0.6073720999993384,True,11,-1,0,0
103K25,7,385,PS,exp,39,↑,down,↓,0.8367445000003499,False,11,-1,0,0
103K25,7,386,PS,exp,37,↓,down,↓,0.5452106000011554,True,12,-1,0,0
103K25,7,387,PS,exp,25,↑,up,↑,0.7417352000011306,True,12,1,1,1
103K25,7,388,PS,exp,27,←,left,←,1.520684799999799,True,11,1,0,1
103K25,7,389,PS,exp,46,↓,right,→,0.8646386000000348,False,11,-1,1,2
103K25,7,390,PS,exp,43,←,left,←,0.5152447999989818,True,12,-1,0,2
103K25,7,391,PS,exp,40,↓,down,↓,0.72574159999931,True,12,1,1,3
103K25,7,392,PS,exp,37,←,left,←,0.4932827999982692,True,11,1,0,3
103K25,7,393,PS,exp,28,→,right,→,0.5541272000009485,True,11,1,0,3
103K25,7,394,PS,exp,47,←,left,←,0.4338582000000315,True,10,1,0,3
103K25,7,395,PS,exp,28,↑,left,←,1.260234000001219,False,10,-1,1,4
103K25,7,396,PS,exp,34,↓,down,↓,0.5974759000000631,True,11,-1,0,4
103K25,7,397,PS,exp,36,↑,up,↑,0.5473832999996375,True,11,1,1,5
103K25,7,398,PS,exp,38,→,left,←,0.6747245000005933,False,10,-1,1,6
103K25,7,399,PS,exp,44,←,left,←,0.4164418999989721,True,11,-1,0,6
103K25,7,400,PS,exp,34,↑,left,←,1.1316600000009203,False,11,-1,0,6
103K25,7,401,PS,exp,44,→,right,→,0.5068165000011504,True,12,-1,0,6
103K25,7,402,PS,exp,45,←,right,→,0.815147799999977,False,12,-1,0,6
103K25,7,403,PS,exp,38,↓,down,↓,0.5261871000002429,True,13,-1,0,6
103K25,7,404,PS,exp,34,←,up,↑,0.6925919000004797,False,13,-1,0,6
103K25,7,405,PS,exp,44,→,left,←,0.5574945999996999,False,14,-1,0,6
103K25,7,406,PS,exp,47,←,left,←,0.42962859999897773,True,15,-1,0,6
103K25,7,407,PS,exp,35,↓,down,↓,0.7648412999988068,True,15,1,1,7
103K25,7,408,PS,exp,31,←,left,←,0.5776736999996501,True,14,1,0,7
103K25,7,409,PS,exp,27,↑,up,↑,0.5272038999992219,True,14,1,0,7
103K25,7,410,PS,exp,30,→,right,→,0.7034260000000359,True,13,1,0,7
103K25,7,411,PS,exp,27,↑,up,↑,0.5216171000010945,True,13,1,0,7
103K25,7,412,PS,exp,50,→,left,←,1.7226152000002912,False,12,-1,1,8
103K25,7,413,PS,exp,29,←,left,←,0.7826929000002565,True,13,-1,0,8
103K25,7,414,PS,exp,41,→,right,→,0.5154502000004868,True,13,1,1,9
103K25,7,415,PS,exp,50,↑,up,↑,0.5642898999994941,True,12,1,0,9
103K25,7,416,PS,exp,50,↓,left,←,0.9269327999991219,False,12,-1,1,10
103K25,7,417,PS,exp,42,↑,up,↑,0.5990449999990233,True,13,-1,0,10
103K25,7,418,PS,exp,43,↓,left,←,0.9653106000005209,False,13,-1,0,10
103K25,7,419,PS,exp,32,←,left,←,0.4661102000009123,True,14,-1,0,10
103K25,7,420,PS,exp,45,↑,up,↑,0.5887815999994928,True,14,1,1,11
103K25,7,421,PS,exp,45,↓,down,↓,0.5084379999989324,True,13,1,0,11
103K25,7,422,PS,exp,36,←,left,←,0.43815820000054373,True,13,1,0,11
103K25,7,423,PS,exp,40,↑,left,←,0.9022723000016413,False,12,-1,1,12
103K25,7,424,PS,exp,44,→,right,→,0.982287599999836,True,13,-1,0,12
103K25,7,425,PS,exp,37,↑,up,↑,0.7017873000004329,True,13,1,1,13
103K25,7,426,PS,exp,36,↓,down,↓,0.6338271999993594,True,12,1,0,13
103K25,7,427,PS,exp,46,↑,up,↑,0.47696600000017497,True,12,1,0,13
103K25,7,428,PS,exp,48,↓,down,↓,0.7369644999998854,True,11,1,0,13
103K25,7,429,PS,exp,38,←,left,←,0.5534189000009064,True,11,1,0,13
103K25,7,430,PS,exp,43,→,left,←,0.9704428000004555,False,10,-1,1,14
103K25,8,431,AS,intra_train,25,←,left,←,1.0470062000003963,True,27,-,-,-
103K25,8,432,AS,intra_train,25,→,right,→,0.5498351999995066,True,27,-,-,-
103K25,8,433,AS,intra_train,29,↑,up,↑,0.6999405000005936,True,27,-,-,-
103K25,8,434,AS,intra_train,36,↓,down,↓,0.8398515999997471,True,27,-,-,-
103K25,8,435,AS,intra_train,43,↑,up,↑,0.7279951000000437,True,27,-,-,-
103K25,8,436,AS,exp,37,←,left,←,0.5912057999994431,True,18,0,0,0
103K25,8,437,AS,exp,46,→,right,→,0.6992783999994572,True,18,1,0,0
103K25,8,438,AS,exp,44,↑,left,←,0.6821952999998757,False,17,-1,1,1
103K25,8,439,AS,exp,47,↓,down,↓,0.6211640000001353,True,18,-1,0,1
103K25,8,440,AS,exp,42,→,left,←,1.1157960000000458,False,18,-1,0,1
103K25,8,441,AS,exp,44,↑,up,↑,0.6620741000006092,True,19,-1,0,1
103K25,8,442,AS,exp,49,↓,down,↓,0.7533526000006532,True,19,1,1,2
103K25,8,443,AS,exp,47,↑,up,↑,0.6183633000000555,True,18,1,0,2
103K25,8,444,AS,exp,50,←,right,→,0.7578820000017004,False,18,-1,1,3
103K25,8,445,AS,exp,33,↓,down,↓,1.1177815999999439,True,19,-1,0,3
103K25,8,446,AS,exp,28,↑,up,↑,0.5475148999994417,True,19,1,1,4
103K25,8,447,AS,exp,45,→,left,←,0.6061823999989429,False,18,-1,1,5
103K25,8,448,AS,exp,39,←,left,←,0.6144322999989527,True,19,-1,0,5
103K25,8,449,AS,exp,42,↑,up,↑,0.5770283000001655,True,19,1,1,6
103K25,8,450,AS,exp,40,→,left,←,0.7681455999991158,False,18,-1,1,7
103K25,8,451,AS,exp,25,←,left,←,0.8779767000014544,True,19,-1,0,7
103K25,8,452,AS,exp,32,→,right,→,0.6667598000003636,True,19,1,1,8
103K25,8,453,AS,exp,33,↓,down,↓,0.8459232000004704,True,18,1,0,8
103K25,8,454,AS,exp,44,↑,up,↑,0.6001519000001281,True,18,1,0,8
103K25,8,455,AS,exp,27,→,right,→,0.5881788000006054,True,17,1,0,8
103K25,8,456,AS,exp,31,←,left,←,0.7485665999993216,True,17,1,0,8
103K25,8,457,AS,exp,34,↑,down,↓,0.8628148999996483,False,16,-1,1,9
103K25,8,458,AS,exp,46,→,right,→,0.7678969000007783,True,17,-1,0,9
103K25,8,459,AS,exp,28,←,left,←,0.6078517000005377,True,17,1,1,10
103K25,8,460,AS,exp,47,↓,up,↑,0.6976825000001554,False,16,-1,1,11
103K25,8,461,AS,exp,30,→,right,→,0.7500913999992918,True,17,-1,0,11
103K25,8,462,AS,exp,37,←,right,→,0.7653983000000153,False,17,-1,0,11
103K25,8,463,AS,exp,36,→,right,→,0.6822766000004776,True,18,-1,0,11
103K25,8,464,AS,exp,39,←,left,←,0.6719243999996252,True,18,1,1,12
103K25,8,465,AS,exp,43,↑,up,↑,0.7678123999994568,True,17,1,0,12
103K25,8,466,AS,exp,28,→,right,→,0.5597035999999207,True,17,1,0,12
103K25,8,467,AS,exp,50,←,left,←,0.5498977999995986,True,16,1,0,12
103K25,8,468,AS,exp,31,↑,up,↑,0.745075499999075,True,16,1,0,12
103K25,8,469,AS,exp,38,→,right,→,0.640182699999059,True,15,1,0,12
103K25,8,470,AS,exp,46,←,right,→,0.6378666999989946,False,15,-1,1,13
103K25,8,471,AS,exp,39,→,right,→,0.9049465999996755,True,16,-1,0,13
103K25,8,472,AS,exp,25,↑,down,↓,1.095818899999358,False,16,-1,0,13
103K25,8,473,AS,exp,48,↓,down,↓,0.784937100001116,True,17,-1,0,13
103K25,8,474,AS,exp,36,←,left,←,0.6188304999996035,True,17,1,1,14
