PART_ID,Block_no,Trial_no,Block_type,Trial_type,CSI,Stim_letter,Key_pressed,letter_choose,Rt,Corr,Stimulus Time,Level,Reversal,Revs_count
119K24,1,1,PS,train,47,↓,no_key,no_letter,-1.0,False,30,-,-,-
119K24,1,2,PS,train,35,→,right,→,0.6907357999589294,True,30,-,-,-
119K24,1,3,PS,train,28,↓,left,←,0.8598201998975128,False,30,-,-,-
119K24,1,4,PS,train,45,↑,up,↑,0.7370251000393182,True,30,-,-,-
119K24,1,5,PS,train,45,←,no_key,no_letter,-1.0,False,30,-,-,-
119K24,1,6,PS,train,33,↑,up,↑,0.7204883000813425,True,30,-,-,-
119K24,1,7,PS,train,37,↓,down,↓,0.6171930998098105,True,30,-,-,-
119K24,1,8,PS,train,43,↑,up,↑,0.6339151000138372,True,30,-,-,-
119K24,1,9,PS,train,44,←,left,←,0.5505357999354601,True,30,-,-,-
119K24,1,10,PS,train,35,→,no_key,no_letter,-1.0,False,30,-,-,-
119K24,2,11,AS,train,41,←,left,←,0.684513300191611,True,45,-,-,-
119K24,2,12,AS,train,45,→,right,→,0.7671085998881608,True,45,-,-,-
119K24,2,13,AS,train,49,↓,down,↓,0.9584613998886198,True,45,-,-,-
119K24,2,14,AS,train,48,→,right,→,0.7506503001786768,True,45,-,-,-
119K24,2,15,AS,train,34,↑,up,↑,0.800388100091368,True,45,-,-,-
119K24,2,16,AS,train,37,→,right,→,0.6513360000681132,True,45,-,-,-
119K24,2,17,AS,train,44,←,left,←,0.7503790000919253,True,45,-,-,-
119K24,2,18,AS,train,31,→,right,→,0.6845017999876291,True,45,-,-,-
119K24,2,19,AS,train,32,←,left,←,0.8504959999118,True,45,-,-,-
119K24,2,20,AS,train,43,↑,up,↑,0.8336879999842495,True,45,-,-,-
119K24,-,21,PS,adaptive,45,←,left,←,0.6467734999023378,True,10,0,0,0
119K24,-,22,PS,adaptive,50,→,right,→,0.45868550008162856,True,10,1,0,0
119K24,-,23,PS,adaptive,49,↑,up,↑,0.461315100081265,True,9,1,0,0
119K24,-,24,PS,adaptive,45,←,left,←,0.5413279000204057,True,9,1,0,0
119K24,-,25,PS,adaptive,35,↓,down,↓,1.4074204999487847,True,8,1,0,0
119K24,-,26,PS,adaptive,46,↑,up,↑,0.5883382998872548,True,8,1,0,0
119K24,-,27,PS,adaptive,35,→,right,→,0.5485688999760896,True,7,1,0,0
119K24,-,28,PS,adaptive,47,↑,up,↑,1.0212389999069273,True,7,1,0,0
119K24,-,29,PS,adaptive,26,→,up,↑,0.7950285000260919,False,6,-1,1,1
119K24,-,30,PS,adaptive,46,↑,up,↑,0.5634848000481725,True,7,-1,0,1
119K24,-,31,PS,adaptive,26,→,right,→,1.0134866998996586,True,7,1,1,2
119K24,-,32,PS,adaptive,35,←,left,←,0.6624175999313593,True,6,1,0,2
119K24,-,33,PS,adaptive,27,↑,left,←,0.609076299937442,False,6,-1,1,3
119K24,-,34,PS,adaptive,40,→,up,↑,0.5459446001332253,False,7,-1,0,3
119K24,-,35,PS,adaptive,38,←,left,←,0.618989699985832,True,8,-1,0,3
119K24,-,36,PS,adaptive,31,↑,left,←,0.588085199939087,False,8,-1,0,3
119K24,-,37,PS,adaptive,33,→,right,→,1.2887786000501364,True,9,-1,0,3
119K24,-,38,PS,adaptive,33,↑,right,→,0.7241688999347389,False,9,-1,0,3
119K24,-,39,PS,adaptive,47,←,left,←,0.5073548001237214,True,10,-1,0,3
119K24,-,40,PS,adaptive,28,↓,left,←,0.6684411000460386,False,10,-1,0,3
119K24,-,41,PS,adaptive,39,↑,up,↑,0.46749710012227297,True,11,-1,0,3
119K24,-,42,PS,adaptive,31,→,right,→,0.5638039000332355,True,11,1,1,4
119K24,-,43,AS,adaptive,39,↓,down,↓,0.8341892000753433,True,20,0,0,0
119K24,-,44,AS,adaptive,48,↑,down,↓,0.5566018000245094,False,20,-1,0,0
119K24,-,45,AS,adaptive,37,←,right,→,1.1661994999740273,False,21,-1,0,0
119K24,-,46,AS,adaptive,32,↑,up,↑,0.8727295999415219,True,22,-1,0,0
119K24,-,47,AS,adaptive,47,→,right,→,0.48379029985517263,True,22,1,1,1
119K24,-,48,AS,adaptive,45,↓,down,↓,0.7996980999596417,True,21,1,0,1
119K24,-,49,AS,adaptive,39,→,right,→,0.6188919998239726,True,21,1,0,1
119K24,-,50,AS,adaptive,43,↑,up,↑,0.781476799864322,True,20,1,0,1
119K24,-,51,AS,adaptive,39,↓,down,↓,0.6724153000395745,True,20,1,0,1
119K24,-,52,AS,adaptive,37,→,right,→,0.634715500054881,True,19,1,0,1
119K24,-,53,AS,adaptive,48,↓,up,↑,0.8597323999274522,False,19,-1,1,2
119K24,-,54,AS,adaptive,39,↑,up,↑,0.7864157999865711,True,20,-1,0,2
119K24,-,55,AS,adaptive,48,↓,down,↓,0.5809871000237763,True,20,1,1,3
119K24,-,56,AS,adaptive,39,→,right,→,0.769019200000912,True,19,1,0,3
119K24,-,57,AS,adaptive,49,↓,down,↓,0.6111856999341398,True,19,1,0,3
119K24,-,58,AS,adaptive,45,↑,down,↓,1.058649400016293,False,18,-1,1,4
119K24,1,59,AS,intra_train,36,↓,down,↓,0.7535913998726755,True,28,-,-,-
119K24,1,60,AS,intra_train,29,↑,up,↑,0.710123399971053,True,28,-,-,-
119K24,1,61,AS,intra_train,33,→,right,→,0.6987407000269741,True,28,-,-,-
119K24,1,62,AS,intra_train,43,↑,up,↑,0.6841527000069618,True,28,-,-,-
119K24,1,63,AS,intra_train,47,→,no_key,no_letter,-1.0,False,28,-,-,-
119K24,1,64,AS,exp,50,←,right,→,0.8264593000058085,False,19,-1,0,0
119K24,1,65,AS,exp,36,→,right,→,0.7530180001631379,True,20,-1,0,0
119K24,1,66,AS,exp,41,←,left,←,0.6697591000702232,True,20,1,1,1
119K24,1,67,AS,exp,35,→,right,→,0.6963387001305819,True,19,1,0,1
119K24,1,68,AS,exp,44,↑,up,↑,0.6293867998756468,True,19,1,0,1
119K24,1,69,AS,exp,31,→,right,→,0.6878503002226353,True,18,1,0,1
119K24,1,70,AS,exp,32,←,left,←,0.47254849993623793,True,18,1,0,1
119K24,1,71,AS,exp,32,↑,up,↑,0.6718058998230845,True,17,1,0,1
119K24,1,72,AS,exp,28,↓,down,↓,0.6810059000272304,True,17,1,0,1
119K24,1,73,AS,exp,30,→,right,→,0.48672339995391667,True,16,1,0,1
119K24,1,74,AS,exp,38,←,left,←,0.7995597999542952,True,16,1,0,1
119K24,1,75,AS,exp,31,→,right,→,0.6756600998342037,True,15,1,0,1
119K24,1,76,AS,exp,39,↓,down,↓,0.7041944998782128,True,15,1,0,1
119K24,1,77,AS,exp,47,→,right,→,0.6236435999162495,True,14,1,0,1
119K24,1,78,AS,exp,50,←,left,←,0.7372164998669177,True,14,1,0,1
119K24,1,79,AS,exp,27,↑,up,↑,0.5005547998007387,True,13,1,0,1
119K24,1,80,AS,exp,26,↓,up,↑,1.0829672999680042,False,13,-1,1,2
119K24,1,81,AS,exp,45,→,right,→,0.5177325999829918,True,14,-1,0,2
119K24,1,82,AS,exp,47,↑,up,↑,0.5900187999941409,True,14,1,1,3
119K24,1,83,AS,exp,44,→,right,→,0.8968013999983668,True,13,1,0,3
119K24,1,84,AS,exp,47,↓,up,↑,0.55113589996472,False,13,-1,1,4
119K24,1,85,AS,exp,49,→,right,→,0.7290928999427706,True,14,-1,0,4
119K24,1,86,AS,exp,38,↓,down,↓,0.5280600001569837,True,14,1,1,5
119K24,1,87,AS,exp,25,↑,up,↑,0.8173720999620855,True,13,1,0,5
119K24,1,88,AS,exp,26,→,right,→,0.7043865998275578,True,13,1,0,5
119K24,1,89,AS,exp,46,↑,down,↓,0.6560082999058068,False,12,-1,1,6
119K24,1,90,AS,exp,44,←,left,←,0.8064905998762697,True,13,-1,0,6
119K24,1,91,AS,exp,25,↓,up,↑,0.724125900072977,False,13,-1,0,6
119K24,1,92,AS,exp,28,↑,up,↑,0.641259100055322,True,14,-1,0,6
119K24,1,93,AS,exp,45,→,up,↑,0.7085171998478472,False,14,-1,0,6
119K24,1,94,AS,exp,43,↓,down,↓,0.6744523998349905,True,15,-1,0,6
119K24,1,95,AS,exp,40,→,no_key,no_letter,-1.0,False,15,-1,0,6
119K24,1,96,AS,exp,40,←,left,←,0.7916799001395702,True,16,-1,0,6
119K24,1,97,AS,exp,38,↑,up,↑,0.8892349998932332,True,16,1,1,7
119K24,1,98,AS,exp,41,←,left,←,0.6662028999999166,True,15,1,0,7
119K24,1,99,AS,exp,47,↑,up,↑,0.6093212999403477,True,15,1,0,7
119K24,1,100,AS,exp,44,↓,down,↓,0.669820599956438,True,14,1,0,7
119K24,1,101,AS,exp,28,↑,left,←,1.4091316000558436,False,14,-1,1,8
119K24,1,102,AS,exp,43,←,left,←,1.052149600116536,True,15,-1,0,8
119K24,1,103,AS,exp,36,→,right,→,1.0151374998968095,True,15,1,1,9
119K24,1,104,AS,exp,35,←,left,←,0.5569670000113547,True,14,1,0,9
119K24,1,105,AS,exp,43,↓,no_key,no_letter,-1.0,False,14,-1,1,10
119K24,1,106,AS,exp,42,↑,up,↑,0.5762134999968112,True,15,-1,0,10
119K24,1,107,AS,exp,45,→,left,←,0.713709200033918,False,15,-1,0,10
119K24,1,108,AS,exp,45,↓,up,↑,0.7288922001607716,False,16,-1,0,10
119K24,1,109,AS,exp,50,←,right,→,1.3576199999079108,False,17,-1,0,10
119K24,1,110,AS,exp,43,↓,down,↓,1.0405148998834193,True,18,-1,0,10
119K24,1,111,AS,exp,48,↑,right,→,1.956405600067228,False,18,-1,0,10
119K24,1,112,AS,exp,35,←,left,←,0.7355502999853343,True,19,-1,0,10
119K24,1,113,AS,exp,49,↓,down,↓,0.7941167999524623,True,19,1,1,11
119K24,1,114,AS,exp,47,←,left,←,0.8065152000635862,True,18,1,0,11
119K24,1,115,AS,exp,30,→,right,→,0.7141336998902261,True,18,1,0,11
119K24,1,116,AS,exp,26,↓,no_key,no_letter,-1.0,False,17,-1,1,12
119K24,1,117,AS,exp,37,↑,no_key,no_letter,-1.0,False,18,-1,0,12
119K24,1,118,AS,exp,43,→,right,→,0.7302997000515461,True,19,-1,0,12
119K24,1,119,AS,exp,31,←,right,→,0.9576085000298917,False,19,-1,0,12
119K24,1,120,AS,exp,45,→,right,→,0.8166396000888199,True,20,-1,0,12
119K24,1,121,AS,exp,31,←,no_key,no_letter,-1.0,False,20,-1,0,12
119K24,1,122,AS,exp,34,→,right,→,0.602204900002107,True,21,-1,0,12
119K24,1,123,AS,exp,31,↑,up,↑,0.5563372001051903,True,21,1,1,13
119K24,1,124,AS,exp,49,→,right,→,0.7532414998859167,True,20,1,0,13
119K24,1,125,AS,exp,39,↑,up,↑,0.74209040007554,True,20,1,0,13
119K24,1,126,AS,exp,31,→,right,→,0.619412099942565,True,19,1,0,13
119K24,1,127,AS,exp,38,←,right,→,1.1643532998859882,False,19,-1,1,14
119K24,2,128,PS,intra_train,32,↑,up,↑,1.514952100114897,True,15,-,-,-
119K24,2,129,PS,intra_train,36,→,right,→,0.5827895000111312,True,15,-,-,-
119K24,2,130,PS,intra_train,46,↓,down,↓,0.626616399968043,True,15,-,-,-
119K24,2,131,PS,intra_train,35,→,right,→,0.5943272998556495,True,15,-,-,-
119K24,2,132,PS,intra_train,44,↓,down,↓,0.5579570999834687,True,15,-,-,-
119K24,2,133,PS,exp,46,→,right,→,0.4095242000184953,True,10,0,0,0
119K24,2,134,PS,exp,25,←,right,→,0.6779873999767005,False,10,-1,0,0
119K24,2,135,PS,exp,39,↑,up,↑,0.5972517000045627,True,11,-1,0,0
119K24,2,136,PS,exp,31,←,left,←,0.5369849000126123,True,11,1,1,1
119K24,2,137,PS,exp,28,→,up,↑,1.0966865001246333,False,10,-1,1,2
119K24,2,138,PS,exp,47,↑,up,↑,0.47089360002428293,True,11,-1,0,2
119K24,2,139,PS,exp,47,→,right,→,0.612682799808681,True,11,1,1,3
119K24,2,140,PS,exp,31,↑,left,←,1.4070016001351178,False,10,-1,1,4
119K24,2,141,PS,exp,32,↓,right,→,1.3112064998131245,False,11,-1,0,4
119K24,2,142,PS,exp,41,←,left,←,0.7009531001094729,True,12,-1,0,4
119K24,2,143,PS,exp,25,↑,up,↑,0.5964858001098037,True,12,1,1,5
119K24,2,144,PS,exp,42,→,right,→,0.5034630999434739,True,11,1,0,5
119K24,2,145,PS,exp,38,←,right,→,0.8835481000132859,False,11,-1,1,6
119K24,2,146,PS,exp,38,↑,up,↑,0.554133600089699,True,12,-1,0,6
119K24,2,147,PS,exp,31,↓,right,→,0.8170024999417365,False,12,-1,0,6
119K24,2,148,PS,exp,43,→,right,→,0.4931675000116229,True,13,-1,0,6
119K24,2,149,PS,exp,47,↓,left,←,1.166218299884349,False,13,-1,0,6
119K24,2,150,PS,exp,35,↑,up,↑,0.495048200013116,True,14,-1,0,6
119K24,2,151,PS,exp,36,←,left,←,0.5412920999806374,True,14,1,1,7
119K24,2,152,PS,exp,43,↑,up,↑,0.6025218998547643,True,13,1,0,7
119K24,2,153,PS,exp,31,←,left,←,0.5025750000495464,True,13,1,0,7
119K24,2,154,PS,exp,49,→,right,→,0.6319079999811947,True,12,1,0,7
119K24,2,155,PS,exp,32,←,right,→,0.7941074999980628,False,12,-1,1,8
119K24,2,156,PS,exp,26,↓,up,↑,0.9577341999392956,False,13,-1,0,8
119K24,2,157,PS,exp,44,→,right,→,0.5211298998910934,True,14,-1,0,8
119K24,2,158,PS,exp,27,↑,no_key,no_letter,-1.0,False,14,-1,0,8
119K24,2,159,PS,exp,26,↓,up,↑,0.6887523999903351,False,15,-1,0,8
119K24,2,160,PS,exp,31,↑,right,→,0.9675151000265032,False,16,-1,0,8
119K24,2,161,PS,exp,34,↓,down,↓,0.8221211999189109,True,17,-1,0,8
119K24,2,162,PS,exp,35,→,right,→,0.5071364999748766,True,17,1,1,9
119K24,2,163,PS,exp,28,←,left,←,0.4962682998739183,True,16,1,0,9
119K24,2,164,PS,exp,36,↑,right,→,1.0416820999234915,False,16,-1,1,10
119K24,2,165,PS,exp,25,←,left,←,0.5329360000323504,True,17,-1,0,10
119K24,2,166,PS,exp,31,→,right,→,0.4829620998352766,True,17,1,1,11
119K24,2,167,PS,exp,42,←,left,←,0.5444661001674831,True,16,1,0,11
119K24,2,168,PS,exp,36,↓,down,↓,0.6778748000506312,True,16,1,0,11
119K24,2,169,PS,exp,45,←,down,↓,0.6530410998966545,False,15,-1,1,12
119K24,2,170,PS,exp,49,↑,up,↑,0.5629620000254363,True,16,-1,0,12
119K24,2,171,PS,exp,33,←,right,→,1.1366270000580698,False,16,-1,0,12
119K24,2,172,PS,exp,46,→,left,←,0.7497406001202762,False,17,-1,0,12
119K24,2,173,PS,exp,25,←,right,→,1.6355733000673354,False,18,-1,0,12
119K24,2,174,PS,exp,46,↓,down,↓,0.8550543999299407,True,19,-1,0,12
119K24,2,175,PS,exp,37,→,right,→,0.8463081000372767,True,19,1,1,13
119K24,2,176,PS,exp,27,↓,down,↓,0.6341159001458436,True,18,1,0,13
119K24,2,177,PS,exp,32,←,left,←,0.9846812000032514,True,18,1,0,13
119K24,2,178,PS,exp,46,→,right,→,1.933988899923861,True,17,1,0,13
119K24,2,179,PS,exp,49,↑,up,↑,0.5938044001813978,True,17,1,0,13
119K24,2,180,PS,exp,44,↓,down,↓,0.47557300003245473,True,16,1,0,13
119K24,2,181,PS,exp,29,→,right,→,0.7922366000711918,True,16,1,0,13
119K24,2,182,PS,exp,25,↑,up,↑,0.934477600036189,True,15,1,0,13
119K24,2,183,PS,exp,30,↓,down,↓,0.5697420001961291,True,15,1,0,13
119K24,2,184,PS,exp,27,←,left,←,0.7558883999008685,True,14,1,0,13
119K24,2,185,PS,exp,48,→,right,→,0.5910595001187176,True,14,1,0,13
119K24,2,186,PS,exp,33,↓,down,↓,0.5258971999865025,True,13,1,0,13
119K24,2,187,PS,exp,33,←,left,←,0.47041949979029596,True,13,1,0,13
119K24,2,188,PS,exp,40,↑,right,→,1.393920100061223,False,12,-1,1,14
119K24,3,189,PS,intra_train,26,←,left,←,0.5821652999147773,True,15,-,-,-
119K24,3,190,PS,intra_train,40,↑,up,↑,0.5878522000275552,True,15,-,-,-
119K24,3,191,PS,intra_train,38,↓,down,↓,0.5486245001666248,True,15,-,-,-
119K24,3,192,PS,intra_train,41,→,right,→,0.5102329000364989,True,15,-,-,-
119K24,3,193,PS,intra_train,37,←,left,←,0.598392799962312,True,15,-,-,-
119K24,3,194,PS,exp,25,↑,up,↑,0.5491863000206649,True,10,0,0,0
119K24,3,195,PS,exp,46,↓,left,←,0.7674129998777062,False,10,-1,0,0
119K24,3,196,PS,exp,44,↑,up,↑,0.5191850999835879,True,11,-1,0,0
119K24,3,197,PS,exp,44,↓,down,↓,0.579611600143835,True,11,1,1,1
119K24,3,198,PS,exp,40,↑,up,↑,1.4726188001222908,True,10,1,0,1
119K24,3,199,PS,exp,28,↓,down,↓,0.555679100099951,True,10,1,0,1
119K24,3,200,PS,exp,42,↑,left,←,1.053765800083056,False,9,-1,1,2
119K24,3,201,PS,exp,42,→,right,→,0.5594734000042081,True,10,-1,0,2
119K24,3,202,PS,exp,33,↑,up,↑,0.5807014999445528,True,10,1,1,3
119K24,3,203,PS,exp,45,←,down,↓,0.9571006000041962,False,9,-1,1,4
119K24,3,204,PS,exp,40,↓,down,↓,0.567649899981916,True,10,-1,0,4
119K24,3,205,PS,exp,46,↑,up,↑,0.52430639998056,True,10,1,1,5
119K24,3,206,PS,exp,37,↓,right,→,0.9708461998961866,False,9,-1,1,6
119K24,3,207,PS,exp,45,←,right,→,0.8219974001403898,False,10,-1,0,6
119K24,3,208,PS,exp,47,↓,down,↓,0.8145973000209779,True,11,-1,0,6
119K24,3,209,PS,exp,44,←,left,←,0.5149530000053346,True,11,1,1,7
119K24,3,210,PS,exp,32,↓,left,←,1.1743312999606133,False,10,-1,1,8
119K24,3,211,PS,exp,31,←,no_key,no_letter,-1.0,False,11,-1,0,8
119K24,3,212,PS,exp,30,↑,no_key,no_letter,-1.0,False,12,-1,0,8
119K24,3,213,PS,exp,50,→,right,→,0.5728307000827044,True,13,-1,0,8
119K24,3,214,PS,exp,38,←,left,←,0.5495515998918563,True,13,1,1,9
119K24,3,215,PS,exp,27,↑,up,↑,0.5193032000679523,True,12,1,0,9
119K24,3,216,PS,exp,45,←,left,←,0.7034345001447946,True,12,1,0,9
119K24,3,217,PS,exp,39,↑,up,↑,0.4829648998565972,True,11,1,0,9
119K24,3,218,PS,exp,29,↓,left,←,0.6674079999793321,False,11,-1,1,10
119K24,3,219,PS,exp,34,←,right,→,0.9074876999948174,False,12,-1,0,10
119K24,3,220,PS,exp,33,↓,down,↓,1.2521323999390006,True,13,-1,0,10
119K24,3,221,PS,exp,28,↑,no_key,no_letter,-1.0,False,13,-1,0,10
119K24,3,222,PS,exp,34,←,left,←,1.7790665999054909,True,14,-1,0,10
119K24,3,223,PS,exp,44,↓,right,→,1.0241647998336703,False,14,-1,0,10
119K24,3,224,PS,exp,27,←,left,←,0.9858200000599027,True,15,-1,0,10
119K24,3,225,PS,exp,37,↑,up,↑,0.5198103000875562,True,15,1,1,11
119K24,3,226,PS,exp,44,←,no_key,no_letter,-1.0,False,14,-1,1,12
119K24,3,227,PS,exp,27,→,right,→,0.4960763000417501,True,15,-1,0,12
119K24,3,228,PS,exp,29,↑,left,←,0.8349361999426037,False,15,-1,0,12
119K24,3,229,PS,exp,37,↓,down,↓,0.6843701999168843,True,16,-1,0,12
119K24,3,230,PS,exp,33,→,right,→,0.6169624999165535,True,16,1,1,13
119K24,3,231,PS,exp,25,↓,down,↓,0.6109865999314934,True,15,1,0,13
119K24,3,232,PS,exp,26,←,left,←,0.676770200021565,True,15,1,0,13
119K24,3,233,PS,exp,31,↓,down,↓,0.5529110999777913,True,14,1,0,13
119K24,3,234,PS,exp,41,←,left,←,0.5513665999751538,True,14,1,0,13
119K24,3,235,PS,exp,34,→,right,→,0.41948889987543225,True,13,1,0,13
119K24,3,236,PS,exp,29,←,left,←,1.0235594999976456,True,13,1,0,13
119K24,3,237,PS,exp,49,↑,up,↑,0.5333222998306155,True,12,1,0,13
119K24,3,238,PS,exp,43,↓,down,↓,0.770627599908039,True,12,1,0,13
119K24,3,239,PS,exp,28,→,right,→,0.4745819999370724,True,11,1,0,13
119K24,3,240,PS,exp,42,↓,right,→,0.8239066998939961,False,11,-1,1,14
119K24,4,241,AS,intra_train,50,←,up,↑,0.7555764999706298,False,28,-,-,-
119K24,4,242,AS,intra_train,37,↑,up,↑,0.6392687000334263,True,28,-,-,-
119K24,4,243,AS,intra_train,36,→,right,→,0.770778400124982,True,28,-,-,-
119K24,4,244,AS,intra_train,46,↓,down,↓,0.7876100998837501,True,28,-,-,-
119K24,4,245,AS,intra_train,40,←,left,←,0.550531400134787,True,28,-,-,-
119K24,4,246,AS,exp,50,↓,down,↓,0.7966597999911755,True,19,0,0,0
119K24,4,247,AS,exp,46,→,right,→,0.810340799856931,True,19,1,0,0
119K24,4,248,AS,exp,42,←,no_key,no_letter,-1.0,False,18,-1,1,1
119K24,4,249,AS,exp,31,↑,up,↑,0.6952647999860346,True,19,-1,0,1
119K24,4,250,AS,exp,25,→,right,→,0.879470800049603,True,19,1,1,2
119K24,4,251,AS,exp,36,↑,up,↑,0.5766290999017656,True,18,1,0,2
119K24,4,252,AS,exp,31,→,left,←,0.7870988000649959,False,18,-1,1,3
119K24,4,253,AS,exp,31,←,left,←,0.635374299949035,True,19,-1,0,3
119K24,4,254,AS,exp,34,→,right,→,0.9640140000265092,True,19,1,1,4
119K24,4,255,AS,exp,39,↑,up,↑,0.6396813997998834,True,18,1,0,4
119K24,4,256,AS,exp,42,←,left,←,0.8088501999154687,True,18,1,0,4
119K24,4,257,AS,exp,32,↓,down,↓,0.7276963999029249,True,17,1,0,4
119K24,4,258,AS,exp,36,↑,up,↑,0.6347351998556405,True,17,1,0,4
119K24,4,259,AS,exp,29,←,left,←,0.6385647000279278,True,16,1,0,4
119K24,4,260,AS,exp,44,↓,down,↓,0.647399100009352,True,16,1,0,4
119K24,4,261,AS,exp,33,→,right,→,0.589394100010395,True,15,1,0,4
119K24,4,262,AS,exp,38,←,left,←,0.5825187999289483,True,15,1,0,4
119K24,4,263,AS,exp,38,→,right,→,0.7317804999183863,True,14,1,0,4
119K24,4,264,AS,exp,43,↓,down,↓,0.6619456999469548,True,14,1,0,4
119K24,4,265,AS,exp,47,→,right,→,0.575712600024417,True,13,1,0,4
119K24,4,266,AS,exp,35,↑,up,↑,0.671377900056541,True,13,1,0,4
119K24,4,267,AS,exp,40,→,right,→,0.5550539998803288,True,12,1,0,4
119K24,4,268,AS,exp,35,↑,up,↑,0.6269489000551403,True,12,1,0,4
119K24,4,269,AS,exp,46,→,right,→,0.6373253001365811,True,11,1,0,4
119K24,4,270,AS,exp,44,←,right,→,0.8401188000570983,False,11,-1,1,5
119K24,4,271,AS,exp,34,→,right,→,1.2143341000191867,True,12,-1,0,5
119K24,4,272,AS,exp,35,←,right,→,0.7079537999816239,False,12,-1,0,5
119K24,4,273,AS,exp,39,→,right,→,0.6855899000074714,True,13,-1,0,5
119K24,4,274,AS,exp,39,←,left,←,0.7372384001500905,True,13,1,1,6
119K24,4,275,AS,exp,32,↑,up,↑,0.6135764000937343,True,12,1,0,6
119K24,4,276,AS,exp,49,←,left,←,0.6600313999224454,True,12,1,0,6
119K24,4,277,AS,exp,34,↓,up,↑,0.6478018001653254,False,11,-1,1,7
119K24,4,278,AS,exp,25,↑,up,↑,0.6342585000675172,True,12,-1,0,7
119K24,4,279,AS,exp,39,→,right,→,0.6063209001440555,True,12,1,1,8
119K24,4,280,AS,exp,43,←,left,←,0.8166467000264674,True,11,1,0,8
119K24,4,281,AS,exp,25,→,right,→,0.5859896000474691,True,11,1,0,8
119K24,4,282,AS,exp,35,↑,down,↓,1.017035200027749,False,10,-1,1,9
119K24,4,283,AS,exp,44,↓,down,↓,0.6703000999987125,True,11,-1,0,9
119K24,4,284,AS,exp,44,↑,up,↑,0.6658833001274616,True,11,1,1,10
119K24,4,285,AS,exp,43,→,right,→,0.7722185999155045,True,10,1,0,10
119K24,4,286,AS,exp,32,↑,up,↑,1.02328409999609,True,10,1,0,10
119K24,4,287,AS,exp,30,→,right,→,0.6303898999467492,True,9,1,0,10
119K24,4,288,AS,exp,43,↑,left,←,0.8176878998056054,False,9,-1,1,11
119K24,4,289,AS,exp,27,←,up,↑,0.7546750998590142,False,10,-1,0,11
119K24,4,290,AS,exp,32,→,right,→,0.5864997999742627,True,11,-1,0,11
119K24,4,291,AS,exp,43,↓,up,↑,0.6666214999277145,False,11,-1,0,11
119K24,4,292,AS,exp,43,←,left,←,0.6181888000573963,True,12,-1,0,11
119K24,4,293,AS,exp,32,↓,up,↑,0.7160575001034886,False,12,-1,0,11
119K24,4,294,AS,exp,31,↑,up,↑,0.6907860001083463,True,13,-1,0,11
119K24,4,295,AS,exp,32,→,right,→,0.6185488000046462,True,13,1,1,12
119K24,4,296,AS,exp,26,←,left,←,0.6303977998904884,True,12,1,0,12
119K24,4,297,AS,exp,31,↓,down,↓,0.6664356000255793,True,12,1,0,12
119K24,4,298,AS,exp,46,↑,down,↓,0.6348620001226664,False,11,-1,1,13
119K24,4,299,AS,exp,25,→,right,→,0.7674325997941196,True,12,-1,0,13
119K24,4,300,AS,exp,44,↑,down,↓,0.7788537000305951,False,12,-1,0,13
119K24,4,301,AS,exp,34,←,no_key,no_letter,-1.0,False,13,-1,0,13
119K24,4,302,AS,exp,46,↑,left,←,0.5208463999442756,False,14,-1,0,13
119K24,4,303,AS,exp,38,←,left,←,0.7868453999981284,True,15,-1,0,13
119K24,4,304,AS,exp,49,↓,down,↓,0.6022221001330763,True,15,1,1,14
119K24,5,305,AS,intra_train,28,→,right,→,1.376479099970311,True,28,-,-,-
119K24,5,306,AS,intra_train,50,←,left,←,0.6996076998766512,True,28,-,-,-
119K24,5,307,AS,intra_train,27,→,no_key,no_letter,-1.0,False,28,-,-,-
119K24,5,308,AS,intra_train,40,↑,up,↑,1.2440011000726372,True,28,-,-,-
119K24,5,309,AS,intra_train,25,→,right,→,0.7441853999625891,True,28,-,-,-
119K24,5,310,AS,exp,28,↓,down,↓,0.6638801000081003,True,19,0,0,0
119K24,5,311,AS,exp,50,←,left,←,0.7352400000672787,True,19,1,0,0
119K24,5,312,AS,exp,50,↓,down,↓,0.6456911000423133,True,18,1,0,0
119K24,5,313,AS,exp,29,←,left,←,0.7555321999825537,True,18,1,0,0
119K24,5,314,AS,exp,45,↓,down,↓,0.6813672999851406,True,17,1,0,0
119K24,5,315,AS,exp,31,←,left,←,0.6833040998317301,True,17,1,0,0
119K24,5,316,AS,exp,41,↑,up,↑,0.7776419001165777,True,16,1,0,0
119K24,5,317,AS,exp,38,←,left,←,0.594503799919039,True,16,1,0,0
119K24,5,318,AS,exp,25,↑,left,←,0.729229100048542,False,15,-1,1,1
119K24,5,319,AS,exp,25,↓,down,↓,0.7703054000157863,True,16,-1,0,1
119K24,5,320,AS,exp,44,→,right,→,0.8079443001188338,True,16,1,1,2
119K24,5,321,AS,exp,39,↑,up,↑,0.500735400011763,True,15,1,0,2
119K24,5,322,AS,exp,48,←,right,→,0.7281086000148207,False,15,-1,1,3
119K24,5,323,AS,exp,50,→,right,→,0.5332223000004888,True,16,-1,0,3
119K24,5,324,AS,exp,36,←,up,↑,0.8115193999838084,False,16,-1,0,3
119K24,5,325,AS,exp,45,↑,up,↑,0.5587219998706132,True,17,-1,0,3
119K24,5,326,AS,exp,46,←,left,←,0.6572062999475747,True,17,1,1,4
119K24,5,327,AS,exp,49,↑,up,↑,0.6377960001118481,True,16,1,0,4
119K24,5,328,AS,exp,45,↓,down,↓,0.5968241000082344,True,16,1,0,4
119K24,5,329,AS,exp,46,↑,right,→,0.8099247999489307,False,15,-1,1,5
119K24,5,330,AS,exp,37,→,left,←,0.8964102999307215,False,16,-1,0,5
119K24,5,331,AS,exp,29,↓,down,↓,0.7358994998503476,True,17,-1,0,5
119K24,5,332,AS,exp,49,→,left,←,0.6848075999878347,False,17,-1,0,5
119K24,5,333,AS,exp,44,↓,down,↓,0.7416290000546724,True,18,-1,0,5
119K24,5,334,AS,exp,34,→,right,→,0.5459975998383015,True,18,1,1,6
119K24,5,335,AS,exp,40,↓,down,↓,0.9879098001401871,True,17,1,0,6
119K24,5,336,AS,exp,34,→,right,→,0.4940458999481052,True,17,1,0,6
119K24,5,337,AS,exp,33,←,no_key,no_letter,-1.0,False,16,-1,1,7
119K24,5,338,AS,exp,28,→,right,→,0.6336801999714226,True,17,-1,0,7
119K24,5,339,AS,exp,46,←,left,←,0.8352701999247074,True,17,1,1,8
119K24,5,340,AS,exp,25,→,right,→,0.6355068997945637,True,16,1,0,8
119K24,5,341,AS,exp,34,↓,down,↓,0.7392684000078589,True,16,1,0,8
119K24,5,342,AS,exp,41,→,right,→,0.68154829996638,True,15,1,0,8
119K24,5,343,AS,exp,28,←,right,→,0.699654099997133,False,15,-1,1,9
119K24,5,344,AS,exp,44,↑,up,↑,0.653181100031361,True,16,-1,0,9
119K24,5,345,AS,exp,46,←,left,←,0.5418188001494855,True,16,1,1,10
119K24,5,346,AS,exp,40,→,right,→,0.497082999907434,True,15,1,0,10
119K24,5,347,AS,exp,37,↑,up,↑,0.6886751998681575,True,15,1,0,10
119K24,5,348,AS,exp,26,←,right,→,0.809370799921453,False,14,-1,1,11
119K24,5,349,AS,exp,32,→,right,→,0.8525026999413967,True,15,-1,0,11
119K24,5,350,AS,exp,31,←,left,←,0.8639801999088377,True,15,1,1,12
119K24,5,351,AS,exp,48,↓,down,↓,0.7655320998746902,True,14,1,0,12
119K24,5,352,AS,exp,41,↑,up,↑,0.5253828999120742,True,14,1,0,12
119K24,5,353,AS,exp,49,↓,down,↓,1.0252368999645114,True,13,1,0,12
119K24,5,354,AS,exp,28,↑,up,↑,0.6324843999464065,True,13,1,0,12
119K24,5,355,AS,exp,28,→,right,→,0.7977400999516249,True,12,1,0,12
119K24,5,356,AS,exp,27,←,left,←,0.5833020000718534,True,12,1,0,12
119K24,5,357,AS,exp,36,↑,up,↑,0.7471310999244452,True,11,1,0,12
119K24,5,358,AS,exp,30,→,right,→,0.5337725998833776,True,11,1,0,12
119K24,5,359,AS,exp,31,↑,down,↓,0.712078999960795,False,10,-1,1,13
119K24,5,360,AS,exp,30,←,left,←,0.7681315999943763,True,11,-1,0,13
119K24,5,361,AS,exp,27,→,right,→,0.467971800127998,True,11,1,1,14
119K24,6,362,PS,intra_train,27,↓,down,↓,0.7192683999892324,True,15,-,-,-
119K24,6,363,PS,intra_train,27,←,right,→,0.6600605000276119,False,15,-,-,-
119K24,6,364,PS,intra_train,41,↓,down,↓,0.6086041000671685,True,15,-,-,-
119K24,6,365,PS,intra_train,49,↑,up,↑,0.6044787000864744,True,15,-,-,-
119K24,6,366,PS,intra_train,29,→,right,→,0.48169429996050894,True,15,-,-,-
119K24,6,367,PS,exp,46,←,left,←,0.5197637998498976,True,10,0,0,0
119K24,6,368,PS,exp,32,↑,up,↑,0.6668905999977142,True,10,1,0,0
119K24,6,369,PS,exp,27,←,left,←,0.5698526999913156,True,9,1,0,0
119K24,6,370,PS,exp,27,→,right,→,0.4875531999859959,True,9,1,0,0
119K24,6,371,PS,exp,32,↓,down,↓,0.5473383001517504,True,8,1,0,0
119K24,6,372,PS,exp,36,↑,down,↓,0.5612160000018775,False,8,-1,1,1
119K24,6,373,PS,exp,38,→,right,→,0.5277684999164194,True,9,-1,0,1
119K24,6,374,PS,exp,33,↑,up,↑,0.5610230998136103,True,9,1,1,2
119K24,6,375,PS,exp,25,←,left,←,0.4862534999847412,True,8,1,0,2
119K24,6,376,PS,exp,37,↑,up,↑,0.635972100077197,True,8,1,0,2
119K24,6,377,PS,exp,46,→,right,→,0.5231457999907434,True,7,1,0,2
119K24,6,378,PS,exp,25,↓,down,↓,0.5087055000476539,True,7,1,0,2
119K24,6,379,PS,exp,37,↑,left,←,0.6578826999757439,False,6,-1,1,3
119K24,6,380,PS,exp,37,←,left,←,0.6472187999170274,True,7,-1,0,3
119K24,6,381,PS,exp,46,↓,down,↓,0.8656549998559058,True,7,1,1,4
119K24,6,382,PS,exp,33,←,right,→,0.6626508999615908,False,6,-1,1,5
119K24,6,383,PS,exp,40,↓,down,↓,0.5327337998896837,True,7,-1,0,5
119K24,6,384,PS,exp,30,→,left,←,0.626228499924764,False,7,-1,0,5
119K24,6,385,PS,exp,44,←,left,←,0.5352194998413324,True,8,-1,0,5
119K24,6,386,PS,exp,40,↓,right,→,0.75308349984698,False,8,-1,0,5
119K24,6,387,PS,exp,36,←,left,←,0.5599935001228005,True,9,-1,0,5
119K24,6,388,PS,exp,31,↑,right,→,0.6764578002039343,False,9,-1,0,5
119K24,6,389,PS,exp,33,↓,down,↓,1.0061069000512362,True,10,-1,0,5
119K24,6,390,PS,exp,37,←,left,←,0.6048491999972612,True,10,1,1,6
119K24,6,391,PS,exp,37,↓,up,↑,0.6124613001011312,False,9,-1,1,7
119K24,6,392,PS,exp,31,←,left,←,0.8320774000603706,True,10,-1,0,7
119K24,6,393,PS,exp,25,↓,down,↓,0.43856199993751943,True,10,1,1,8
119K24,6,394,PS,exp,37,→,right,→,0.4498495999723673,True,9,1,0,8
119K24,6,395,PS,exp,46,←,left,←,0.5838119999971241,True,9,1,0,8
119K24,6,396,PS,exp,25,↑,left,←,0.7676993000786752,False,8,-1,1,9
119K24,6,397,PS,exp,32,↓,down,↓,0.6275889999233186,True,9,-1,0,9
119K24,6,398,PS,exp,46,→,right,→,0.5124359999317676,True,9,1,1,10
119K24,6,399,PS,exp,35,↑,up,↑,0.4669398001860827,True,8,1,0,10
119K24,6,400,PS,exp,25,→,right,→,0.6571681001223624,True,8,1,0,10
119K24,6,401,PS,exp,38,↑,down,↓,0.5813206001184881,False,7,-1,1,11
119K24,6,402,PS,exp,34,→,right,→,0.4969069000799209,True,8,-1,0,11
119K24,6,403,PS,exp,50,↑,left,←,0.6290289999451488,False,8,-1,0,11
119K24,6,404,PS,exp,45,↓,down,↓,0.5691692000254989,True,9,-1,0,11
119K24,6,405,PS,exp,46,←,left,←,0.6391412001103163,True,9,1,1,12
119K24,6,406,PS,exp,44,↑,up,↑,0.5161002001259476,True,8,1,0,12
119K24,6,407,PS,exp,42,←,left,←,0.5460637998767197,True,8,1,0,12
119K24,6,408,PS,exp,40,↓,down,↓,0.46364669990725815,True,7,1,0,12
119K24,6,409,PS,exp,30,→,right,→,0.6315303998999298,True,7,1,0,12
119K24,6,410,PS,exp,48,←,left,←,0.5154684998560697,True,6,1,0,12
119K24,6,411,PS,exp,42,↓,down,↓,0.5932795000262558,True,6,1,0,12
119K24,6,412,PS,exp,37,←,left,←,0.5529397998470813,True,5,1,0,12
119K24,6,413,PS,exp,37,→,right,→,0.5383952998090535,True,5,1,0,12
119K24,6,414,PS,exp,30,←,left,←,0.7405197001062334,True,4,1,0,12
119K24,6,415,PS,exp,31,↑,up,↑,1.1878632998559624,True,4,1,0,12
119K24,6,416,PS,exp,49,↓,down,↓,0.5845482998993248,True,3,1,0,12
119K24,6,417,PS,exp,43,↑,left,←,1.013527899980545,False,3,-1,1,13
119K24,6,418,PS,exp,25,↓,right,→,0.7862368999049067,False,4,-1,0,13
119K24,6,419,PS,exp,45,↑,up,↑,0.605011299951002,True,5,-1,0,13
119K24,6,420,PS,exp,50,↓,left,←,0.7679918999783695,False,5,-1,0,13
119K24,6,421,PS,exp,26,↑,up,↑,0.713686800096184,True,6,-1,0,13
119K24,6,422,PS,exp,30,←,left,←,0.739373000105843,True,6,1,1,14
119K24,7,423,PS,intra_train,26,→,right,→,0.6095976999495178,True,15,-,-,-
119K24,7,424,PS,intra_train,44,↑,up,↑,0.5912094998639077,True,15,-,-,-
119K24,7,425,PS,intra_train,49,→,right,→,0.545153500046581,True,15,-,-,-
119K24,7,426,PS,intra_train,34,↓,down,↓,0.7032031998969615,True,15,-,-,-
119K24,7,427,PS,intra_train,33,↑,up,↑,0.6009734000544995,True,15,-,-,-
119K24,7,428,PS,exp,34,→,right,→,0.45919530000537634,True,10,0,0,0
119K24,7,429,PS,exp,31,↑,up,↑,1.059932499891147,True,10,1,0,0
119K24,7,430,PS,exp,47,→,right,→,0.7497713998891413,True,9,1,0,0
119K24,7,431,PS,exp,48,←,left,←,0.5122205000370741,True,9,1,0,0
119K24,7,432,PS,exp,35,↑,up,↑,0.4294216998387128,True,8,1,0,0
119K24,7,433,PS,exp,48,→,left,←,0.8559425000566989,False,8,-1,1,1
119K24,7,434,PS,exp,38,↓,down,↓,0.5641765000764281,True,9,-1,0,1
119K24,7,435,PS,exp,41,→,right,→,0.4038319999817759,True,9,1,1,2
119K24,7,436,PS,exp,43,←,left,←,1.3142864999826998,True,8,1,0,2
119K24,7,437,PS,exp,45,↑,up,↑,0.9165537999942899,True,8,1,0,2
119K24,7,438,PS,exp,50,→,right,→,0.6194613000843674,True,7,1,0,2
119K24,7,439,PS,exp,29,↑,left,←,0.8471774000208825,False,7,-1,1,3
119K24,7,440,PS,exp,48,←,left,←,1.069773699855432,True,8,-1,0,3
119K24,7,441,PS,exp,34,↑,right,→,0.7491603000089526,False,8,-1,0,3
119K24,7,442,PS,exp,41,↓,down,↓,0.6733389000874013,True,9,-1,0,3
119K24,7,443,PS,exp,50,←,left,←,0.5063334000296891,True,9,1,1,4
119K24,7,444,PS,exp,29,→,left,←,0.6417735998984426,False,8,-1,1,5
119K24,7,445,PS,exp,41,↓,right,→,0.7555380000267178,False,9,-1,0,5
119K24,7,446,PS,exp,41,←,left,←,0.580680700019002,True,10,-1,0,5
119K24,7,447,PS,exp,33,↓,down,↓,0.6405357997864485,True,10,1,1,6
119K24,7,448,PS,exp,48,→,right,→,0.464129599975422,True,9,1,0,6
119K24,7,449,PS,exp,38,↓,left,←,0.6340681000147015,False,9,-1,1,7
119K24,7,450,PS,exp,40,←,left,←,0.4908105998765677,True,10,-1,0,7
119K24,7,451,PS,exp,27,↓,down,↓,0.5890092998743057,True,10,1,1,8
119K24,7,452,PS,exp,41,→,left,←,0.727728100027889,False,9,-1,1,9
119K24,7,453,PS,exp,42,↓,down,↓,0.418153699953109,True,10,-1,0,9
119K24,7,454,PS,exp,37,→,right,→,0.4838890000246465,True,10,1,1,10
119K24,7,455,PS,exp,39,←,left,←,0.7427593001630157,True,9,1,0,10
119K24,7,456,PS,exp,42,↓,down,↓,0.5802633999846876,True,9,1,0,10
119K24,7,457,PS,exp,37,↑,right,→,0.842948499834165,False,8,-1,1,11
119K24,7,458,PS,exp,50,←,left,←,0.7066842999774963,True,9,-1,0,11
119K24,7,459,PS,exp,42,→,right,→,0.6098017001058906,True,9,1,1,12
119K24,7,460,PS,exp,36,↑,down,↓,0.6425588999409229,False,8,-1,1,13
119K24,7,461,PS,exp,41,↓,no_key,no_letter,-1.0,False,9,-1,0,13
119K24,7,462,PS,exp,31,↑,up,↑,0.7298403000459075,True,10,-1,0,13
119K24,7,463,PS,exp,45,→,right,→,0.4725071999710053,True,10,1,1,14
119K24,8,464,AS,intra_train,26,↑,left,←,1.3253683000802994,False,28,-,-,-
119K24,8,465,AS,intra_train,41,←,left,←,0.7670095001813024,True,28,-,-,-
119K24,8,466,AS,intra_train,47,↓,down,↓,0.710951599990949,True,28,-,-,-
119K24,8,467,AS,intra_train,38,→,right,→,0.583828300004825,True,28,-,-,-
119K24,8,468,AS,intra_train,37,↓,down,↓,0.6003640999551862,True,28,-,-,-
119K24,8,469,AS,exp,48,→,right,→,0.6613767000380903,True,19,0,0,0
119K24,8,470,AS,exp,33,←,left,←,0.5046449000947177,True,19,1,0,0
119K24,8,471,AS,exp,36,→,right,→,0.4972238000482321,True,18,1,0,0
119K24,8,472,AS,exp,46,←,left,←,0.558348499936983,True,18,1,0,0
119K24,8,473,AS,exp,49,↓,up,↑,0.9796786999795586,False,17,-1,1,1
119K24,8,474,AS,exp,43,→,right,→,0.6115800999104977,True,18,-1,0,1
119K24,8,475,AS,exp,31,←,left,←,0.5122020998969674,True,18,1,1,2
119K24,8,476,AS,exp,37,↑,down,↓,0.9067150000482798,False,17,-1,1,3
119K24,8,477,AS,exp,30,←,left,←,0.8181874000001699,True,18,-1,0,3
119K24,8,478,AS,exp,45,↑,up,↑,0.6891562999226153,True,18,1,1,4
119K24,8,479,AS,exp,31,↓,down,↓,0.6616323001217097,True,17,1,0,4
119K24,8,480,AS,exp,29,↑,down,↓,0.9172326999250799,False,17,-1,1,5
119K24,8,481,AS,exp,25,→,right,→,0.7050185000989586,True,18,-1,0,5
119K24,8,482,AS,exp,45,↓,down,↓,1.075995699968189,True,18,1,1,6
119K24,8,483,AS,exp,25,→,right,→,0.6208190999459475,True,17,1,0,6
119K24,8,484,AS,exp,42,←,left,←,0.6695652999915183,True,17,1,0,6
119K24,8,485,AS,exp,36,↑,down,↓,0.7916091999504715,False,16,-1,1,7
119K24,8,486,AS,exp,45,←,right,→,0.5486355000175536,False,17,-1,0,7
119K24,8,487,AS,exp,26,→,right,→,0.5764234999660403,True,18,-1,0,7
119K24,8,488,AS,exp,42,←,left,←,0.6656663999892771,True,18,1,1,8
119K24,8,489,AS,exp,47,↓,down,↓,0.8103865999728441,True,17,1,0,8
119K24,8,490,AS,exp,34,←,right,→,0.6206773999147117,False,17,-1,1,9
119K24,8,491,AS,exp,49,↓,down,↓,0.5783106999006122,True,18,-1,0,9
119K24,8,492,AS,exp,47,←,right,→,0.973309300141409,False,18,-1,0,9
119K24,8,493,AS,exp,36,↓,down,↓,1.2138787999283522,True,19,-1,0,9
119K24,8,494,AS,exp,25,→,right,→,0.5590476000215858,True,19,1,1,10
119K24,8,495,AS,exp,28,↑,down,↓,0.8763764998875558,False,18,-1,1,11
119K24,8,496,AS,exp,44,←,left,←,0.7952470001764596,True,19,-1,0,11
119K24,8,497,AS,exp,34,↓,down,↓,0.7874925998039544,True,19,1,1,12
119K24,8,498,AS,exp,34,↑,down,↓,0.8609559999313205,False,18,-1,1,13
119K24,8,499,AS,exp,45,→,right,→,0.5777807000558823,True,19,-1,0,13
119K24,8,500,AS,exp,50,←,up,↑,1.1628775000572205,False,19,-1,0,13
119K24,8,501,AS,exp,30,→,right,→,0.7044486000668257,True,20,-1,0,13
119K24,8,502,AS,exp,35,←,left,←,0.7217487001325935,True,20,1,1,14
