PART_ID,Block_no,Trial_no,Block_type,Trial_type,CSI,Stim_letter,Key_pressed,letter_choose,Rt,Corr,Stimulus Time,Level,Reversal,Revs_count
188K23,1,1,PS,train,42,←,left,←,0.749851499999977,True,30,-,-,-
188K23,1,2,PS,train,45,↑,no_key,no_letter,-1.0,False,30,-,-,-
188K23,1,3,PS,train,35,→,right,→,0.8652788999999927,True,30,-,-,-
188K23,1,4,PS,train,32,↓,down,↓,0.8765932999999961,True,30,-,-,-
188K23,1,5,PS,train,33,←,left,←,0.8335519999999974,True,30,-,-,-
188K23,1,6,PS,train,43,↑,up,↑,1.5021540999999843,True,30,-,-,-
188K23,1,7,PS,train,36,↓,down,↓,0.8080726000000027,True,30,-,-,-
188K23,1,8,PS,train,36,←,left,←,0.8104842999999846,True,30,-,-,-
188K23,1,9,PS,train,33,→,right,→,0.9415255000000116,True,30,-,-,-
188K23,1,10,PS,train,31,←,left,←,0.9862957999999935,True,30,-,-,-
188K23,2,11,AS,train,40,↓,down,↓,1.1784827999999834,True,45,-,-,-
188K23,2,12,AS,train,28,→,right,→,0.8507433999999989,True,45,-,-,-
188K23,2,13,AS,train,47,←,left,←,1.0386167000000341,True,45,-,-,-
188K23,2,14,AS,train,48,→,right,→,1.2434147999999823,True,45,-,-,-
188K23,2,15,AS,train,37,←,left,←,1.3924860000000194,True,45,-,-,-
188K23,2,16,AS,train,30,↓,no_key,no_letter,-1.0,False,45,-,-,-
188K23,2,17,AS,train,50,←,left,←,1.229067299999997,True,45,-,-,-
188K23,2,18,AS,train,32,↑,up,↑,1.0301570999999967,True,45,-,-,-
188K23,2,19,AS,train,44,←,left,←,1.392495600000018,True,45,-,-,-
188K23,2,20,AS,train,38,↑,up,↑,1.2425931999999875,True,45,-,-,-
188K23,-,21,PS,adaptive,40,↓,down,↓,0.720142600000031,True,10,0,0,0
188K23,-,22,PS,adaptive,42,↑,up,↑,0.854470200000037,True,10,1,0,0
188K23,-,23,PS,adaptive,35,↓,down,↓,0.7485896000000025,True,9,1,0,0
188K23,-,24,PS,adaptive,33,←,left,←,0.7705737999999656,True,9,1,0,0
188K23,-,25,PS,adaptive,37,↑,up,↑,0.835607600000003,True,8,1,0,0
188K23,-,26,PS,adaptive,31,→,right,→,0.6585177999999701,True,8,1,0,0
188K23,-,27,PS,adaptive,30,←,left,←,0.8910111000000143,True,7,1,0,0
188K23,-,28,PS,adaptive,39,↑,up,↑,0.6617128999999977,True,7,1,0,0
188K23,-,29,PS,adaptive,34,↓,down,↓,0.7304171999999767,True,6,1,0,0
188K23,-,30,PS,adaptive,35,↑,up,↑,0.5658923999999956,True,6,1,0,0
188K23,-,31,PS,adaptive,25,↓,down,↓,0.6337210000000368,True,5,1,0,0
188K23,-,32,PS,adaptive,38,→,right,→,0.6860894000000144,True,5,1,0,0
188K23,-,33,PS,adaptive,45,↓,left,←,0.857999800000016,False,4,-1,1,1
188K23,-,34,PS,adaptive,48,←,right,→,0.6557510999999749,False,5,-1,0,1
188K23,-,35,PS,adaptive,33,↑,up,↑,0.6926148000000012,True,6,-1,0,1
188K23,-,36,PS,adaptive,33,←,left,←,0.7649375999999961,True,6,1,1,2
188K23,-,37,PS,adaptive,47,→,right,→,0.8700506999999789,True,5,1,0,2
188K23,-,38,PS,adaptive,45,↓,down,↓,0.7992244000000142,True,5,1,0,2
188K23,-,39,PS,adaptive,34,←,right,→,0.5614520000000311,False,4,-1,1,3
188K23,-,40,PS,adaptive,30,↑,right,→,0.8331147000000101,False,5,-1,0,3
188K23,-,41,PS,adaptive,32,←,left,←,0.5908368999999993,True,6,-1,0,3
188K23,-,42,PS,adaptive,44,→,right,→,0.6368606999999997,True,6,1,1,4
188K23,-,43,AS,adaptive,34,←,left,←,0.6857174000000441,True,20,0,0,0
188K23,-,44,AS,adaptive,34,→,right,→,0.7329824999999914,True,20,1,0,0
188K23,-,45,AS,adaptive,34,↓,down,↓,1.0395872999999938,True,19,1,0,0
188K23,-,46,AS,adaptive,26,←,right,→,1.093963599999995,False,19,-1,1,1
188K23,-,47,AS,adaptive,28,↑,down,↓,1.0034976000000029,False,20,-1,0,1
188K23,-,48,AS,adaptive,41,←,left,←,0.6997921000000247,True,21,-1,0,1
188K23,-,49,AS,adaptive,27,→,right,→,0.9957744999999818,True,21,1,1,2
188K23,-,50,AS,adaptive,42,←,left,←,0.9416946000000053,True,20,1,0,2
188K23,-,51,AS,adaptive,35,↑,up,↑,0.771542199999999,True,20,1,0,2
188K23,-,52,AS,adaptive,30,←,left,←,1.0143381000000318,True,19,1,0,2
188K23,-,53,AS,adaptive,31,↓,down,↓,0.9568945999999983,True,19,1,0,2
188K23,-,54,AS,adaptive,37,←,left,←,0.6018217000000163,True,18,1,0,2
188K23,-,55,AS,adaptive,33,↓,down,↓,0.7488069000000337,True,18,1,0,2
188K23,-,56,AS,adaptive,47,→,right,→,0.7734308999999939,True,17,1,0,2
188K23,-,57,AS,adaptive,44,↑,right,→,1.1020158000000038,False,17,-1,1,3
188K23,-,58,AS,adaptive,49,→,down,↓,1.2880213000000253,False,18,-1,0,3
188K23,-,59,AS,adaptive,35,←,left,←,1.0359963999999877,True,19,-1,0,3
188K23,-,60,AS,adaptive,46,↓,down,↓,0.8544478000000026,True,19,1,1,4
188K23,1,61,AS,intra_train,29,→,right,→,0.8462906999999973,True,27,-,-,-
188K23,1,62,AS,intra_train,42,↑,up,↑,0.6610006999999882,True,27,-,-,-
188K23,1,63,AS,intra_train,38,←,left,←,0.9902883999999972,True,27,-,-,-
188K23,1,64,AS,intra_train,30,↑,up,↑,0.847109200000034,True,27,-,-,-
188K23,1,65,AS,intra_train,49,←,left,←,0.6991954999999734,True,27,-,-,-
188K23,1,66,AS,exp,30,↑,up,↑,0.6656633000000056,True,18,0,0,0
188K23,1,67,AS,exp,43,→,left,←,1.0947684000000208,False,18,-1,0,0
188K23,1,68,AS,exp,43,↑,up,↑,0.6264673000000016,True,19,-1,0,0
188K23,1,69,AS,exp,40,↓,down,↓,0.7017616999999632,True,19,1,1,1
188K23,1,70,AS,exp,37,←,left,←,0.7298027000000502,True,18,1,0,1
188K23,1,71,AS,exp,30,↓,down,↓,0.7540938999999867,True,18,1,0,1
188K23,1,72,AS,exp,34,↑,up,↑,0.7310062000000244,True,17,1,0,1
188K23,1,73,AS,exp,31,↓,right,→,1.0411766000000284,False,17,-1,1,2
188K23,1,74,AS,exp,36,↑,up,↑,0.7217784000000051,True,18,-1,0,2
188K23,1,75,AS,exp,33,←,left,←,0.5833873999999923,True,18,1,1,3
188K23,1,76,AS,exp,26,↓,up,↑,0.9829839999999876,False,17,-1,1,4
188K23,1,77,AS,exp,48,→,right,→,0.7240294000000063,True,18,-1,0,4
188K23,1,78,AS,exp,35,←,left,←,0.744315400000005,True,18,1,1,5
188K23,1,79,AS,exp,32,↑,up,↑,0.8190380999999434,True,17,1,0,5
188K23,1,80,AS,exp,47,↓,right,→,0.9738132999999607,False,17,-1,1,6
188K23,1,81,AS,exp,42,↑,up,↑,0.6460607000000209,True,18,-1,0,6
188K23,1,82,AS,exp,47,→,right,→,0.7892974999999751,True,18,1,1,7
188K23,1,83,AS,exp,45,↓,up,↑,0.8074275999999827,False,17,-1,1,8
188K23,1,84,AS,exp,34,←,left,←,0.8312980000000607,True,18,-1,0,8
188K23,1,85,AS,exp,32,↓,up,↑,0.8584637999999813,False,18,-1,0,8
188K23,1,86,AS,exp,33,←,right,→,1.073036600000023,False,19,-1,0,8
188K23,1,87,AS,exp,31,↑,up,↑,0.540970399999992,True,20,-1,0,8
188K23,1,88,AS,exp,36,←,left,←,0.7111591999999973,True,20,1,1,9
188K23,1,89,AS,exp,38,↑,right,→,0.877317699999935,False,19,-1,1,10
188K23,1,90,AS,exp,43,→,right,→,0.6855935999999474,True,20,-1,0,10
188K23,1,91,AS,exp,50,↑,up,↑,0.5789546999999402,True,20,1,1,11
188K23,1,92,AS,exp,37,↓,right,→,0.8409947999999758,False,19,-1,1,12
188K23,1,93,AS,exp,26,←,right,→,0.7013498000000027,False,20,-1,0,12
188K23,1,94,AS,exp,48,↓,up,↑,0.9680847999999287,False,21,-1,0,12
188K23,1,95,AS,exp,34,→,right,→,0.8579010999999355,True,22,-1,0,12
188K23,1,96,AS,exp,26,↓,down,↓,0.7905698000000712,True,22,1,1,13
188K23,1,97,AS,exp,29,→,right,→,0.6675012000000606,True,21,1,0,13
188K23,1,98,AS,exp,41,↑,down,↓,0.7601707000000033,False,21,-1,1,14
188K23,2,99,PS,intra_train,37,←,left,←,0.7154956000000539,True,7,-,-,-
188K23,2,100,PS,intra_train,33,↓,down,↓,0.9522723000000042,True,7,-,-,-
188K23,2,101,PS,intra_train,31,↑,up,↑,0.7153270999999677,True,7,-,-,-
188K23,2,102,PS,intra_train,44,←,down,↓,1.0903869999999642,False,7,-,-,-
188K23,2,103,PS,intra_train,50,↓,left,←,0.983914000000027,False,7,-,-,-
188K23,2,104,PS,exp,44,←,right,→,0.776348999999982,False,5,-1,0,0
188K23,2,105,PS,exp,42,↑,up,↑,0.646883799999955,True,6,-1,0,0
188K23,2,106,PS,exp,47,←,left,←,0.6096472000000404,True,6,1,1,1
188K23,2,107,PS,exp,28,→,right,→,0.8940463000000136,True,5,1,0,1
188K23,2,108,PS,exp,43,↓,left,←,0.7235525000000962,False,5,-1,1,2
188K23,2,109,PS,exp,42,↑,up,↑,0.6442586999999094,True,6,-1,0,2
188K23,2,110,PS,exp,33,←,left,←,0.8273997999999665,True,6,1,1,3
188K23,2,111,PS,exp,37,↑,up,↑,0.6688939000000573,True,5,1,0,3
188K23,2,112,PS,exp,35,↓,left,←,0.875816699999973,False,5,-1,1,4
188K23,2,113,PS,exp,36,↑,up,↑,0.7997529000000441,True,6,-1,0,4
188K23,2,114,PS,exp,26,→,right,→,0.5786052000000836,True,6,1,1,5
188K23,2,115,PS,exp,49,←,left,←,0.6180140999999821,True,5,1,0,5
188K23,2,116,PS,exp,29,→,right,→,0.6904153000000406,True,5,1,0,5
188K23,2,117,PS,exp,34,↑,right,→,0.8484945000000153,False,4,-1,1,6
188K23,2,118,PS,exp,50,↓,left,←,0.5808726999999863,False,5,-1,0,6
188K23,2,119,PS,exp,48,↑,right,→,0.5973611000000574,False,6,-1,0,6
188K23,2,120,PS,exp,46,↓,right,→,1.0539437000001044,False,7,-1,0,6
188K23,2,121,PS,exp,34,↑,up,↑,0.7296863000000258,True,8,-1,0,6
188K23,2,122,PS,exp,36,↓,down,↓,1.1057795000000397,True,8,1,1,7
188K23,2,123,PS,exp,41,←,left,←,0.6227986999999757,True,7,1,0,7
188K23,2,124,PS,exp,40,↑,up,↑,0.629806799999983,True,7,1,0,7
188K23,2,125,PS,exp,41,←,left,←,0.4828608999999915,True,6,1,0,7
188K23,2,126,PS,exp,29,↑,right,→,0.7353747999999314,False,6,-1,1,8
188K23,2,127,PS,exp,31,←,right,→,0.7830648000000338,False,7,-1,0,8
188K23,2,128,PS,exp,33,↓,down,↓,0.7563634000000548,True,8,-1,0,8
188K23,2,129,PS,exp,36,↑,right,→,0.7464522000000215,False,8,-1,0,8
188K23,2,130,PS,exp,44,←,left,←,0.8400093000000197,True,9,-1,0,8
188K23,2,131,PS,exp,39,↓,right,→,0.6038221999999678,False,9,-1,0,8
188K23,2,132,PS,exp,43,→,right,→,0.6904210000000148,True,10,-1,0,8
188K23,2,133,PS,exp,32,↑,left,←,0.7529772999999977,False,10,-1,0,8
188K23,2,134,PS,exp,29,←,right,→,0.4630602000000863,False,11,-1,0,8
188K23,2,135,PS,exp,35,↑,left,←,0.6314621999999872,False,12,-1,0,8
188K23,2,136,PS,exp,42,↓,down,↓,0.740131099999985,True,13,-1,0,8
188K23,2,137,PS,exp,33,→,right,→,0.7628312000000506,True,13,1,1,9
188K23,2,138,PS,exp,33,↑,up,↑,0.8151876000000584,True,12,1,0,9
188K23,2,139,PS,exp,44,←,left,←,0.6678075999999464,True,12,1,0,9
188K23,2,140,PS,exp,42,↑,right,→,0.9944054000000051,False,11,-1,1,10
188K23,2,141,PS,exp,32,↓,down,↓,0.7527497000000949,True,12,-1,0,10
188K23,2,142,PS,exp,50,←,left,←,0.5937837000000172,True,12,1,1,11
188K23,2,143,PS,exp,40,→,right,→,0.6468792000000576,True,11,1,0,11
188K23,2,144,PS,exp,38,↓,down,↓,1.1599721000000045,True,11,1,0,11
188K23,2,145,PS,exp,33,→,left,←,1.0516861000000972,False,10,-1,1,12
188K23,2,146,PS,exp,37,←,left,←,0.6059895000000779,True,11,-1,0,12
188K23,2,147,PS,exp,30,→,right,→,0.6431556,True,11,1,1,13
188K23,2,148,PS,exp,48,←,left,←,0.5998925999999756,True,10,1,0,13
188K23,2,149,PS,exp,27,↑,up,↑,1.0984035000000176,True,10,1,0,13
188K23,2,150,PS,exp,43,↓,down,↓,0.8789284000000634,True,9,1,0,13
188K23,2,151,PS,exp,48,→,right,→,0.7177363000000696,True,9,1,0,13
188K23,2,152,PS,exp,38,↑,right,→,0.9831781999999976,False,8,-1,1,14
188K23,3,153,PS,intra_train,48,←,left,←,0.6852597000000742,True,7,-,-,-
188K23,3,154,PS,intra_train,42,↑,up,↑,0.995898499999953,True,7,-,-,-
188K23,3,155,PS,intra_train,42,↓,down,↓,0.8234035000000404,True,7,-,-,-
188K23,3,156,PS,intra_train,41,←,left,←,0.5853806999999733,True,7,-,-,-
188K23,3,157,PS,intra_train,48,→,right,→,0.5386324999999488,True,7,-,-,-
188K23,3,158,PS,exp,42,↑,right,→,0.9759377000000313,False,5,-1,0,0
188K23,3,159,PS,exp,37,←,left,←,0.5335670000000619,True,6,-1,0,0
188K23,3,160,PS,exp,34,↑,up,↑,0.6901355999999623,True,6,1,1,1
188K23,3,161,PS,exp,38,→,right,→,0.5609157000000096,True,5,1,0,1
188K23,3,162,PS,exp,32,↓,left,←,0.6676514999999199,False,5,-1,1,2
188K23,3,163,PS,exp,27,↑,up,↑,0.8910959999999477,True,6,-1,0,2
188K23,3,164,PS,exp,36,←,left,←,0.5060919000000013,True,6,1,1,3
188K23,3,165,PS,exp,25,→,right,→,0.5264604999999847,True,5,1,0,3
188K23,3,166,PS,exp,47,←,left,←,0.5162762999999586,True,5,1,0,3
188K23,3,167,PS,exp,37,↓,right,→,0.5215041000000156,False,4,-1,1,4
188K23,3,168,PS,exp,39,←,left,←,0.7192579000000023,True,5,-1,0,4
188K23,3,169,PS,exp,48,→,right,→,1.3050336999999672,True,5,1,1,5
188K23,3,170,PS,exp,38,↑,right,→,0.8788160000000289,False,4,-1,1,6
188K23,3,171,PS,exp,43,←,left,←,0.5627938000000086,True,5,-1,0,6
188K23,3,172,PS,exp,33,→,right,→,0.5959829000000809,True,5,1,1,7
188K23,3,173,PS,exp,38,←,down,↓,0.8564793000000464,False,4,-1,1,8
188K23,3,174,PS,exp,26,→,right,→,0.8440716999999722,True,5,-1,0,8
188K23,3,175,PS,exp,49,↑,left,←,0.6107883000000811,False,5,-1,0,8
188K23,3,176,PS,exp,48,↓,up,↑,1.173611199999982,False,6,-1,0,8
188K23,3,177,PS,exp,35,→,down,↓,1.415504800000008,False,7,-1,0,8
188K23,3,178,PS,exp,41,↓,down,↓,0.7873764000000847,True,8,-1,0,8
188K23,3,179,PS,exp,29,↑,right,→,0.7966805000000932,False,8,-1,0,8
188K23,3,180,PS,exp,30,↓,down,↓,0.7928519000000733,True,9,-1,0,8
188K23,3,181,PS,exp,50,→,right,→,0.5492541999999503,True,9,1,1,9
188K23,3,182,PS,exp,43,↓,down,↓,0.6208627000000888,True,8,1,0,9
188K23,3,183,PS,exp,45,→,down,↓,0.7344049999999243,False,8,-1,1,10
188K23,3,184,PS,exp,50,←,up,↑,0.7496092999999746,False,9,-1,0,10
188K23,3,185,PS,exp,30,↑,up,↑,0.5453340000000253,True,10,-1,0,10
188K23,3,186,PS,exp,40,→,right,→,0.5329049999999143,True,10,1,1,11
188K23,3,187,PS,exp,41,↓,down,↓,0.7122722000000294,True,9,1,0,11
188K23,3,188,PS,exp,35,←,left,←,0.6092846000000236,True,9,1,0,11
188K23,3,189,PS,exp,29,↓,down,↓,0.7663671999999906,True,8,1,0,11
188K23,3,190,PS,exp,25,←,left,←,0.5854872999999543,True,8,1,0,11
188K23,3,191,PS,exp,28,↓,up,↑,0.8547585000000026,False,7,-1,1,12
188K23,3,192,PS,exp,29,←,left,←,0.6456850999999233,True,8,-1,0,12
188K23,3,193,PS,exp,43,→,right,→,0.6479828000000225,True,8,1,1,13
188K23,3,194,PS,exp,26,↑,up,↑,0.5316809000000831,True,7,1,0,13
188K23,3,195,PS,exp,48,→,right,→,0.5994226000000253,True,7,1,0,13
188K23,3,196,PS,exp,50,←,left,←,0.7369506999999658,True,6,1,0,13
188K23,3,197,PS,exp,32,↓,right,→,0.9191454000000476,False,6,-1,1,14
188K23,4,198,AS,intra_train,44,←,left,←,0.7551880000000892,True,27,-,-,-
188K23,4,199,AS,intra_train,33,↑,no_key,no_letter,-1.0,False,27,-,-,-
188K23,4,200,AS,intra_train,30,←,left,←,0.9029734999999164,True,27,-,-,-
188K23,4,201,AS,intra_train,47,↓,down,↓,0.8284410000001117,True,27,-,-,-
188K23,4,202,AS,intra_train,50,←,left,←,1.7081186000000343,True,27,-,-,-
188K23,4,203,AS,exp,41,↓,down,↓,0.9357006000000183,True,18,0,0,0
188K23,4,204,AS,exp,49,→,right,→,0.6279693000000179,True,18,1,0,0
188K23,4,205,AS,exp,40,←,left,←,0.5569221000000653,True,17,1,0,0
188K23,4,206,AS,exp,44,→,right,→,0.7562628000000586,True,17,1,0,0
188K23,4,207,AS,exp,40,↓,down,↓,0.7234638000001041,True,16,1,0,0
188K23,4,208,AS,exp,48,→,down,↓,1.2276180000000068,False,16,-1,1,1
188K23,4,209,AS,exp,36,←,up,↑,0.8485841000000391,False,17,-1,0,1
188K23,4,210,AS,exp,49,↑,up,↑,0.6199477000000115,True,18,-1,0,1
188K23,4,211,AS,exp,45,→,right,→,0.718046500000014,True,18,1,1,2
188K23,4,212,AS,exp,44,↓,down,↓,0.7206989000000021,True,17,1,0,2
188K23,4,213,AS,exp,31,←,right,→,0.6682581999999684,False,17,-1,1,3
188K23,4,214,AS,exp,36,↓,down,↓,0.6846047000000226,True,18,-1,0,3
188K23,4,215,AS,exp,33,↑,up,↑,0.7215629000000945,True,18,1,1,4
188K23,4,216,AS,exp,38,→,right,→,0.8043350000000373,True,17,1,0,4
188K23,4,217,AS,exp,34,↓,up,↑,1.0525970999999572,False,17,-1,1,5
188K23,4,218,AS,exp,36,→,right,→,0.7863001000000622,True,18,-1,0,5
188K23,4,219,AS,exp,46,↑,up,↑,0.49854340000001685,True,18,1,1,6
188K23,4,220,AS,exp,31,→,right,→,0.7645973999999569,True,17,1,0,6
188K23,4,221,AS,exp,36,↓,down,↓,0.771533100000056,True,17,1,0,6
188K23,4,222,AS,exp,37,→,right,→,0.614970900000003,True,16,1,0,6
188K23,4,223,AS,exp,32,↑,down,↓,0.9198847000000114,False,16,-1,1,7
188K23,4,224,AS,exp,37,↓,down,↓,0.5544070999999349,True,17,-1,0,7
188K23,4,225,AS,exp,44,→,left,←,0.5178773000000092,False,17,-1,0,7
188K23,4,226,AS,exp,36,←,left,←,0.6721234000000322,True,18,-1,0,7
188K23,4,227,AS,exp,41,→,right,→,0.47435350000000653,True,18,1,1,8
188K23,4,228,AS,exp,49,↓,down,↓,0.5311494999999695,True,17,1,0,8
188K23,4,229,AS,exp,38,↑,down,↓,1.0191588000000138,False,17,-1,1,9
188K23,4,230,AS,exp,45,←,left,←,0.6715632000000369,True,18,-1,0,9
188K23,4,231,AS,exp,27,↑,right,→,0.6340523000000076,False,18,-1,0,9
188K23,4,232,AS,exp,41,→,right,→,0.5400802999999996,True,19,-1,0,9
188K23,4,233,AS,exp,30,↓,down,↓,0.6885618999999679,True,19,1,1,10
188K23,4,234,AS,exp,50,←,left,←,0.4840728000000354,True,18,1,0,10
188K23,4,235,AS,exp,31,↓,down,↓,0.5036767999999938,True,18,1,0,10
188K23,4,236,AS,exp,31,→,right,→,0.6805193000000145,True,17,1,0,10
188K23,4,237,AS,exp,49,↓,right,→,0.8935436000000436,False,17,-1,1,11
188K23,4,238,AS,exp,27,→,right,→,0.4968423000000257,True,18,-1,0,11
188K23,4,239,AS,exp,42,↑,up,↑,0.5987175999999863,True,18,1,1,12
188K23,4,240,AS,exp,42,↓,down,↓,0.9838856000000078,True,17,1,0,12
188K23,4,241,AS,exp,45,←,left,←,0.6790891000000556,True,17,1,0,12
188K23,4,242,AS,exp,26,↑,up,↑,0.5334503000000268,True,16,1,0,12
188K23,4,243,AS,exp,37,↓,down,↓,0.6949192000000721,True,16,1,0,12
188K23,4,244,AS,exp,42,←,left,←,0.7050758999999971,True,15,1,0,12
188K23,4,245,AS,exp,44,→,right,→,0.6086984999999459,True,15,1,0,12
188K23,4,246,AS,exp,25,←,left,←,0.5351742000000286,True,14,1,0,12
188K23,4,247,AS,exp,31,↑,up,↑,0.5773302000000058,True,14,1,0,12
188K23,4,248,AS,exp,37,→,right,→,0.45833090000007815,True,13,1,0,12
188K23,4,249,AS,exp,35,←,left,←,0.46169429999997647,True,13,1,0,12
188K23,4,250,AS,exp,46,→,right,→,0.46706940000001396,True,12,1,0,12
188K23,4,251,AS,exp,48,←,right,→,0.7883312999999816,False,12,-1,1,13
188K23,4,252,AS,exp,33,→,right,→,0.4513033999999152,True,13,-1,0,13
188K23,4,253,AS,exp,33,↑,up,↑,0.4875279000000319,True,13,1,1,14
188K23,5,254,AS,intra_train,30,←,left,←,0.7052775999998175,True,27,-,-,-
188K23,5,255,AS,intra_train,49,↓,up,↑,0.7643622999999025,False,27,-,-,-
188K23,5,256,AS,intra_train,27,→,right,→,0.8885319000000891,True,27,-,-,-
188K23,5,257,AS,intra_train,36,↓,down,↓,0.9688055000001441,True,27,-,-,-
188K23,5,258,AS,intra_train,36,→,right,→,0.8355547999999544,True,27,-,-,-
188K23,5,259,AS,exp,36,↓,down,↓,0.7113465000002179,True,18,0,0,0
188K23,5,260,AS,exp,26,→,right,→,0.6429894000000331,True,18,1,0,0
188K23,5,261,AS,exp,40,↑,right,→,0.8898815000000013,False,17,-1,1,1
188K23,5,262,AS,exp,31,→,right,→,0.5542497999999796,True,18,-1,0,1
188K23,5,263,AS,exp,34,↑,right,→,1.079313700000057,False,18,-1,0,1
188K23,5,264,AS,exp,33,↓,down,↓,1.368557199999941,True,19,-1,0,1
188K23,5,265,AS,exp,35,→,right,→,0.7773219000000609,True,19,1,1,2
188K23,5,266,AS,exp,49,↑,up,↑,0.6882560000001376,True,18,1,0,2
188K23,5,267,AS,exp,47,←,left,←,0.7527948999997989,True,18,1,0,2
188K23,5,268,AS,exp,28,↓,right,→,0.9696651000001566,False,17,-1,1,3
188K23,5,269,AS,exp,30,↑,up,↑,0.5654193000000305,True,18,-1,0,3
188K23,5,270,AS,exp,46,←,left,←,0.6722180999997818,True,18,1,1,4
188K23,5,271,AS,exp,41,↓,down,↓,0.9406126000001223,True,17,1,0,4
188K23,5,272,AS,exp,38,→,right,→,0.6175011999998787,True,17,1,0,4
188K23,5,273,AS,exp,39,←,left,←,1.2966055000001688,True,16,1,0,4
188K23,5,274,AS,exp,40,↑,up,↑,0.6335612000002584,True,16,1,0,4
188K23,5,275,AS,exp,34,→,right,→,0.6056543999998212,True,15,1,0,4
188K23,5,276,AS,exp,28,↑,up,↑,0.6241835999999239,True,15,1,0,4
188K23,5,277,AS,exp,40,←,left,←,0.9738472999997612,True,14,1,0,4
188K23,5,278,AS,exp,48,↓,down,↓,0.6734099000000242,True,14,1,0,4
188K23,5,279,AS,exp,29,←,left,←,0.6327949000001354,True,13,1,0,4
188K23,5,280,AS,exp,29,↑,up,↑,0.7344842999996217,True,13,1,0,4
188K23,5,281,AS,exp,28,←,left,←,0.5975843999999597,True,12,1,0,4
188K23,5,282,AS,exp,47,↓,down,↓,0.834269100000256,True,12,1,0,4
188K23,5,283,AS,exp,33,↑,up,↑,1.2696273000001383,True,11,1,0,4
188K23,5,284,AS,exp,46,←,left,←,0.9304001000000426,True,11,1,0,4
188K23,5,285,AS,exp,47,→,right,→,0.5979648000002271,True,10,1,0,4
188K23,5,286,AS,exp,44,↑,left,←,0.8964000999999371,False,10,-1,1,5
188K23,5,287,AS,exp,49,↓,right,→,1.0413621999996394,False,11,-1,0,5
188K23,5,288,AS,exp,37,↑,up,↑,1.5677409999998417,True,12,-1,0,5
188K23,5,289,AS,exp,48,↓,right,→,0.7775086999999985,False,12,-1,0,5
188K23,5,290,AS,exp,46,↑,up,↑,1.358386100000189,True,13,-1,0,5
188K23,5,291,AS,exp,39,↓,down,↓,0.7007200999996712,True,13,1,1,6
188K23,5,292,AS,exp,38,→,up,↑,1.0469718999997895,False,12,-1,1,7
188K23,5,293,AS,exp,31,←,left,←,0.6179349999997612,True,13,-1,0,7
188K23,5,294,AS,exp,44,→,up,↑,0.7841106999999283,False,13,-1,0,7
188K23,5,295,AS,exp,33,↑,up,↑,0.6322863000000325,True,14,-1,0,7
188K23,5,296,AS,exp,29,↓,up,↑,0.9016096000000289,False,14,-1,0,7
188K23,5,297,AS,exp,36,→,right,→,0.8946933999995963,True,15,-1,0,7
188K23,5,298,AS,exp,40,←,left,←,0.7293331000000762,True,15,1,1,8
188K23,5,299,AS,exp,32,→,right,→,0.9398055000001477,True,14,1,0,8
188K23,5,300,AS,exp,39,↓,down,↓,0.7212406000003284,True,14,1,0,8
188K23,5,301,AS,exp,35,↑,left,←,1.0632293999997273,False,13,-1,1,9
188K23,5,302,AS,exp,45,↓,left,←,1.3258362999999918,False,14,-1,0,9
188K23,5,303,AS,exp,31,→,right,→,0.8393100999996932,True,15,-1,0,9
188K23,5,304,AS,exp,26,↓,down,↓,0.7580121000000872,True,15,1,1,10
188K23,5,305,AS,exp,34,→,left,←,1.103282400000353,False,14,-1,1,11
188K23,5,306,AS,exp,41,←,left,←,0.6504297999999835,True,15,-1,0,11
188K23,5,307,AS,exp,30,↑,up,↑,0.9898581000002196,True,15,1,1,12
188K23,5,308,AS,exp,47,→,left,←,0.8284111000002667,False,14,-1,1,13
188K23,5,309,AS,exp,32,←,left,←,0.7022986000001765,True,15,-1,0,13
188K23,5,310,AS,exp,34,→,right,→,1.107331400000021,True,15,1,1,14
188K23,6,311,PS,intra_train,47,←,left,←,0.673845099999653,True,7,-,-,-
188K23,6,312,PS,intra_train,33,→,right,→,0.8100518999999622,True,7,-,-,-
188K23,6,313,PS,intra_train,47,↑,up,↑,1.1168603000000985,True,7,-,-,-
188K23,6,314,PS,intra_train,50,←,left,←,0.62170819999983,True,7,-,-,-
188K23,6,315,PS,intra_train,38,→,right,→,0.6318127000004097,True,7,-,-,-
188K23,6,316,PS,exp,42,↑,right,→,0.48067840000021533,False,5,-1,0,0
188K23,6,317,PS,exp,33,→,up,↑,0.6525517999998556,False,6,-1,0,0
188K23,6,318,PS,exp,42,↑,up,↑,0.5351488999999674,True,7,-1,0,0
188K23,6,319,PS,exp,37,→,right,→,0.6090328999998746,True,7,1,1,1
188K23,6,320,PS,exp,36,↓,down,↓,0.7007877999999437,True,6,1,0,1
188K23,6,321,PS,exp,33,↑,up,↑,0.806962200000271,True,6,1,0,1
188K23,6,322,PS,exp,29,↓,right,→,0.47037970000019413,False,5,-1,1,2
188K23,6,323,PS,exp,40,→,left,←,0.6939118999998755,False,6,-1,0,2
188K23,6,324,PS,exp,25,↓,right,→,0.6955545000000711,False,7,-1,0,2
188K23,6,325,PS,exp,47,→,right,→,0.8176395999998931,True,8,-1,0,2
188K23,6,326,PS,exp,44,←,left,←,0.5359365999997863,True,8,1,1,3
188K23,6,327,PS,exp,33,→,right,→,0.5820388000001913,True,7,1,0,3
188K23,6,328,PS,exp,35,←,left,←,0.5928945000000567,True,7,1,0,3
188K23,6,329,PS,exp,35,↑,up,↑,0.6725128000002769,True,6,1,0,3
188K23,6,330,PS,exp,25,↓,right,→,0.4931590999999571,False,6,-1,1,4
188K23,6,331,PS,exp,37,←,left,←,0.5621492999998736,True,7,-1,0,4
188K23,6,332,PS,exp,48,↑,up,↑,0.6644330999997692,True,7,1,1,5
188K23,6,333,PS,exp,37,↓,right,→,0.627420699999675,False,6,-1,1,6
188K23,6,334,PS,exp,42,←,left,←,0.5099118000002818,True,7,-1,0,6
188K23,6,335,PS,exp,47,↓,right,→,0.44425460000002204,False,7,-1,0,6
188K23,6,336,PS,exp,31,←,left,←,0.9335934999999154,True,8,-1,0,6
188K23,6,337,PS,exp,41,↓,left,←,0.6819623999999749,False,8,-1,0,6
188K23,6,338,PS,exp,40,←,right,→,0.5137459000002309,False,9,-1,0,6
188K23,6,339,PS,exp,47,↑,up,↑,0.5517036000001099,True,10,-1,0,6
188K23,6,340,PS,exp,39,↓,left,←,0.945724600000176,False,10,-1,0,6
188K23,6,341,PS,exp,39,↑,up,↑,0.7526726999999482,True,11,-1,0,6
188K23,6,342,PS,exp,34,↓,down,↓,0.6042652999999518,True,11,1,1,7
188K23,6,343,PS,exp,40,→,right,→,0.8874048000002404,True,10,1,0,7
188K23,6,344,PS,exp,38,↑,up,↑,0.6041700999999193,True,10,1,0,7
188K23,6,345,PS,exp,32,→,right,→,0.5740576999996847,True,9,1,0,7
188K23,6,346,PS,exp,50,↓,down,↓,1.0243640000003325,True,9,1,0,7
188K23,6,347,PS,exp,47,↑,right,→,0.6939405999996779,False,8,-1,1,8
188K23,6,348,PS,exp,40,←,right,→,0.8228417000000263,False,9,-1,0,8
188K23,6,349,PS,exp,44,↓,down,↓,0.8007887000003393,True,10,-1,0,8
188K23,6,350,PS,exp,44,→,right,→,0.8124241000000438,True,10,1,1,9
188K23,6,351,PS,exp,25,←,left,←,1.0068025999999008,True,9,1,0,9
188K23,6,352,PS,exp,27,→,right,→,0.6081576000001405,True,9,1,0,9
188K23,6,353,PS,exp,35,↑,up,↑,0.6359482999996544,True,8,1,0,9
188K23,6,354,PS,exp,48,←,left,←,0.6435161999997945,True,8,1,0,9
188K23,6,355,PS,exp,25,↓,down,↓,0.6345323000000462,True,7,1,0,9
188K23,6,356,PS,exp,29,←,left,←,0.4246398999998746,True,7,1,0,9
188K23,6,357,PS,exp,37,↑,left,←,0.780064499999753,False,6,-1,1,10
188K23,6,358,PS,exp,48,↓,down,↓,0.5385526000000027,True,7,-1,0,10
188K23,6,359,PS,exp,33,↑,up,↑,0.5727631999998266,True,7,1,1,11
188K23,6,360,PS,exp,30,→,right,→,0.6538712999999916,True,6,1,0,11
188K23,6,361,PS,exp,49,←,left,←,0.6069260000003851,True,6,1,0,11
188K23,6,362,PS,exp,35,↑,up,↑,0.6285333999999239,True,5,1,0,11
188K23,6,363,PS,exp,35,→,right,→,0.9440162999999302,True,5,1,0,11
188K23,6,364,PS,exp,31,←,down,↓,0.6010055000001557,False,4,-1,1,12
188K23,6,365,PS,exp,33,→,right,→,0.6244283000000905,True,5,-1,0,12
188K23,6,366,PS,exp,50,←,left,←,0.5366584000003058,True,5,1,1,13
188K23,6,367,PS,exp,49,→,right,→,0.5517988999999943,True,4,1,0,13
188K23,6,368,PS,exp,48,↓,left,←,0.5346223999999893,False,4,-1,1,14
188K23,7,369,PS,intra_train,34,←,left,←,0.5017063000000235,True,7,-,-,-
188K23,7,370,PS,intra_train,41,→,right,→,0.6247632999998132,True,7,-,-,-
188K23,7,371,PS,intra_train,30,←,left,←,0.5890577000000121,True,7,-,-,-
188K23,7,372,PS,intra_train,47,↓,down,↓,0.7364294000003611,True,7,-,-,-
188K23,7,373,PS,intra_train,49,←,left,←,0.5008299000000989,True,7,-,-,-
188K23,7,374,PS,exp,31,→,left,←,0.589273200000207,False,5,-1,0,0
188K23,7,375,PS,exp,32,↑,up,↑,0.9609689000003527,True,6,-1,0,0
188K23,7,376,PS,exp,49,↓,down,↓,0.859711999999945,True,6,1,1,1
188K23,7,377,PS,exp,46,↑,up,↑,0.665994899999987,True,5,1,0,1
188K23,7,378,PS,exp,44,←,left,←,0.6411607999998523,True,5,1,0,1
188K23,7,379,PS,exp,27,↑,down,↓,0.9546205999999984,False,4,-1,1,2
188K23,7,380,PS,exp,41,→,right,→,0.5843369999997776,True,5,-1,0,2
188K23,7,381,PS,exp,46,←,left,←,0.5302638999996816,True,5,1,1,3
188K23,7,382,PS,exp,42,↑,up,↑,0.5517715000000862,True,4,1,0,3
188K23,7,383,PS,exp,49,←,left,←,0.701546999999664,True,4,1,0,3
188K23,7,384,PS,exp,26,↑,left,←,0.6282075000003715,False,3,-1,1,4
188K23,7,385,PS,exp,42,←,right,→,0.8168989999999212,False,4,-1,0,4
188K23,7,386,PS,exp,29,↑,right,→,0.6065014999999221,False,5,-1,0,4
188K23,7,387,PS,exp,37,→,left,←,0.6858709000002818,False,6,-1,0,4
188K23,7,388,PS,exp,41,↓,down,↓,0.7698802999998406,True,7,-1,0,4
188K23,7,389,PS,exp,44,→,right,→,0.6774735000003602,True,7,1,1,5
188K23,7,390,PS,exp,32,↑,up,↑,0.5894021000003704,True,6,1,0,5
188K23,7,391,PS,exp,48,←,right,→,0.6596265999996831,False,6,-1,1,6
188K23,7,392,PS,exp,41,→,left,←,0.8843371000002662,False,7,-1,0,6
188K23,7,393,PS,exp,46,↑,up,↑,0.6696172000001752,True,8,-1,0,6
188K23,7,394,PS,exp,50,→,right,→,0.48808950000011464,True,8,1,1,7
188K23,7,395,PS,exp,42,↓,left,←,0.5991503000000193,False,7,-1,1,8
188K23,7,396,PS,exp,32,↑,down,↓,0.7228629999999612,False,8,-1,0,8
188K23,7,397,PS,exp,37,→,right,→,0.6021004000003813,True,9,-1,0,8
188K23,7,398,PS,exp,28,↓,down,↓,0.6547538000004351,True,9,1,1,9
188K23,7,399,PS,exp,44,→,right,→,0.8743436999998266,True,8,1,0,9
188K23,7,400,PS,exp,40,←,up,↑,0.8127900999998019,False,8,-1,1,10
188K23,7,401,PS,exp,40,↑,down,↓,0.7861204999999245,False,9,-1,0,10
188K23,7,402,PS,exp,29,↓,right,→,0.6544901000002028,False,10,-1,0,10
188K23,7,403,PS,exp,33,→,right,→,0.660547299999962,True,11,-1,0,10
188K23,7,404,PS,exp,30,↓,left,←,0.6056414999998196,False,11,-1,0,10
188K23,7,405,PS,exp,43,←,left,←,0.6326682999997502,True,12,-1,0,10
188K23,7,406,PS,exp,38,→,right,→,0.5143486000001758,True,12,1,1,11
188K23,7,407,PS,exp,50,↑,right,→,0.6331024999999499,False,11,-1,1,12
188K23,7,408,PS,exp,26,↓,down,↓,0.6574325999999928,True,12,-1,0,12
188K23,7,409,PS,exp,41,→,right,→,0.5416608000000451,True,12,1,1,13
188K23,7,410,PS,exp,28,↓,down,↓,0.6644713000000593,True,11,1,0,13
188K23,7,411,PS,exp,49,←,left,←,0.6550799999999981,True,11,1,0,13
188K23,7,412,PS,exp,47,↓,up,↑,0.784425100000135,False,10,-1,1,14
188K23,8,413,AS,intra_train,46,→,right,→,1.4331338000001779,True,27,-,-,-
188K23,8,414,AS,intra_train,42,↑,up,↑,1.3806016000003183,True,27,-,-,-
188K23,8,415,AS,intra_train,41,↓,down,↓,0.8081300999997438,True,27,-,-,-
188K23,8,416,AS,intra_train,47,←,left,←,0.8255550999997467,True,27,-,-,-
188K23,8,417,AS,intra_train,34,↓,down,↓,1.0063254000001507,True,27,-,-,-
188K23,8,418,AS,exp,50,↑,right,→,0.798201500000232,False,18,-1,0,0
188K23,8,419,AS,exp,42,→,down,↓,0.9643874999997024,False,19,-1,0,0
188K23,8,420,AS,exp,31,↓,up,↑,0.7961635999999999,False,20,-1,0,0
188K23,8,421,AS,exp,29,←,left,←,0.5670469000001503,True,21,-1,0,0
188K23,8,422,AS,exp,50,↑,up,↑,0.7466848999997637,True,21,1,1,1
188K23,8,423,AS,exp,40,↓,down,↓,0.8564174999996794,True,20,1,0,1
188K23,8,424,AS,exp,35,↑,up,↑,0.9094772000003104,True,20,1,0,1
188K23,8,425,AS,exp,46,←,left,←,0.606231199999911,True,19,1,0,1
188K23,8,426,AS,exp,26,↓,down,↓,0.7553367999998954,True,19,1,0,1
188K23,8,427,AS,exp,50,←,up,↑,0.8006359000000884,False,18,-1,1,2
188K23,8,428,AS,exp,26,→,right,→,0.5209496000002218,True,19,-1,0,2
188K23,8,429,AS,exp,41,←,left,←,0.700620400000389,True,19,1,1,3
188K23,8,430,AS,exp,30,↑,up,↑,0.6124301999998352,True,18,1,0,3
188K23,8,431,AS,exp,27,←,left,←,0.563526400000228,True,18,1,0,3
188K23,8,432,AS,exp,38,↓,down,↓,0.6585504000004221,True,17,1,0,3
188K23,8,433,AS,exp,49,↑,left,←,1.1329850000001898,False,17,-1,1,4
188K23,8,434,AS,exp,37,←,left,←,0.5425420999999915,True,18,-1,0,4
188K23,8,435,AS,exp,31,↑,right,→,0.9223166000001584,False,18,-1,0,4
188K23,8,436,AS,exp,34,←,left,←,0.584968900000149,True,19,-1,0,4
188K23,8,437,AS,exp,33,↑,up,↑,0.9032136000000719,True,19,1,1,5
188K23,8,438,AS,exp,34,↓,down,↓,0.7458380999996734,True,18,1,0,5
188K23,8,439,AS,exp,34,↑,up,↑,0.9249322000000575,True,18,1,0,5
188K23,8,440,AS,exp,31,→,right,→,0.6699610000000575,True,17,1,0,5
188K23,8,441,AS,exp,40,←,down,↓,0.7814495000002353,False,17,-1,1,6
188K23,8,442,AS,exp,44,↓,down,↓,0.7188195999997333,True,18,-1,0,6
188K23,8,443,AS,exp,33,↑,up,↑,0.8748125000001892,True,18,1,1,7
188K23,8,444,AS,exp,48,→,right,→,0.7777302999998028,True,17,1,0,7
188K23,8,445,AS,exp,43,↓,down,↓,0.6792508999997153,True,17,1,0,7
188K23,8,446,AS,exp,50,→,up,↑,0.854299600000104,False,16,-1,1,8
188K23,8,447,AS,exp,37,↓,down,↓,0.6715300999999272,True,17,-1,0,8
188K23,8,448,AS,exp,43,→,right,→,0.5583841999996366,True,17,1,1,9
188K23,8,449,AS,exp,45,↓,down,↓,0.6927034000000276,True,16,1,0,9
188K23,8,450,AS,exp,28,↑,up,↑,1.036575300000095,True,16,1,0,9
188K23,8,451,AS,exp,29,→,right,→,0.6061358000001746,True,15,1,0,9
188K23,8,452,AS,exp,47,←,left,←,0.5408754999998564,True,15,1,0,9
188K23,8,453,AS,exp,46,↑,up,↑,0.9771328000001631,True,14,1,0,9
188K23,8,454,AS,exp,25,→,right,→,0.5650436999999329,True,14,1,0,9
188K23,8,455,AS,exp,27,↓,right,→,0.8754226000000926,False,13,-1,1,10
188K23,8,456,AS,exp,29,←,left,←,0.758856200000082,True,14,-1,0,10
188K23,8,457,AS,exp,46,↓,down,↓,0.6558764000001247,True,14,1,1,11
188K23,8,458,AS,exp,28,↑,left,←,1.1949373000002197,False,13,-1,1,12
188K23,8,459,AS,exp,38,→,right,→,0.6829038999999284,True,14,-1,0,12
188K23,8,460,AS,exp,46,←,left,←,0.5614181999999346,True,14,1,1,13
188K23,8,461,AS,exp,36,↓,up,↑,0.7334587000000283,False,13,-1,1,14
