PART_ID,Block_no,Trial_no,Block_type,Trial_type,CSI,Stim_letter,Key_pressed,letter_choose,Rt,Corr,Stimulus Time,Level,Reversal,Revs_count
220K23,1,1,PS,train,39,↓,down,↓,1.1039107000106014,True,30,-,-,-
220K23,1,2,PS,train,48,→,right,→,0.6173091999953613,True,30,-,-,-
220K23,1,3,PS,train,45,↓,no_key,no_letter,-1.0,False,30,-,-,-
220K23,1,4,PS,train,31,←,left,←,1.0286603000131436,True,30,-,-,-
220K23,1,5,PS,train,31,↑,up,↑,1.0497627000149805,True,30,-,-,-
220K23,1,6,PS,train,30,←,left,←,0.6849434000032488,True,30,-,-,-
220K23,1,7,PS,train,34,↓,down,↓,0.7971267999964766,True,30,-,-,-
220K23,1,8,PS,train,46,→,right,→,0.6003127000003587,True,30,-,-,-
220K23,1,9,PS,train,40,↓,down,↓,0.6849941000109538,True,30,-,-,-
220K23,1,10,PS,train,38,↑,up,↑,1.0778353000059724,True,30,-,-,-
220K23,2,11,AS,train,35,←,left,←,0.5510750999965239,True,45,-,-,-
220K23,2,12,AS,train,39,↑,up,↑,0.6679704000125639,True,45,-,-,-
220K23,2,13,AS,train,37,←,left,←,0.48453840002184734,True,45,-,-,-
220K23,2,14,AS,train,47,↑,up,↑,0.4011700999981258,True,45,-,-,-
220K23,2,15,AS,train,30,↓,down,↓,0.7178261999797542,True,45,-,-,-
220K23,2,16,AS,train,48,↑,up,↑,0.6676875000121072,True,45,-,-,-
220K23,2,17,AS,train,42,→,right,→,0.7011989000020549,True,45,-,-,-
220K23,2,18,AS,train,34,↓,down,↓,0.6012213999929372,True,45,-,-,-
220K23,2,19,AS,train,46,←,right,→,0.48455620001186617,False,45,-,-,-
220K23,2,20,AS,train,37,↓,down,↓,0.7838596999936271,True,45,-,-,-
220K23,-,21,PS,adaptive,29,↑,up,↑,1.0470022000081372,True,10,0,0,0
220K23,-,22,PS,adaptive,45,→,right,→,1.3174397999828216,True,10,1,0,0
220K23,-,23,PS,adaptive,29,↑,left,←,1.1946788000059314,False,9,-1,1,1
220K23,-,24,PS,adaptive,40,↓,down,↓,0.6349248999904376,True,10,-1,0,1
220K23,-,25,PS,adaptive,26,→,left,←,1.299833299999591,False,10,-1,0,1
220K23,-,26,PS,adaptive,47,←,left,←,0.571569299994735,True,11,-1,0,1
220K23,-,27,PS,adaptive,35,→,right,→,0.5138540000189096,True,11,1,1,2
220K23,-,28,PS,adaptive,36,↓,left,←,1.1204462999885436,False,10,-1,1,3
220K23,-,29,PS,adaptive,42,→,right,→,0.5722727999964263,True,11,-1,0,3
220K23,-,30,PS,adaptive,50,↑,left,←,0.8984643000003416,False,11,-1,0,3
220K23,-,31,PS,adaptive,47,→,right,→,0.603533100016648,True,12,-1,0,3
220K23,-,32,PS,adaptive,47,↓,down,↓,0.7121096000191756,True,12,1,1,4
220K23,-,33,AS,adaptive,30,↑,up,↑,0.6186791000072844,True,20,0,0,0
220K23,-,34,AS,adaptive,40,→,right,→,0.5904908000084106,True,20,1,0,0
220K23,-,35,AS,adaptive,44,↑,up,↑,0.5056016000162344,True,19,1,0,0
220K23,-,36,AS,adaptive,34,↓,down,↓,0.542741900018882,True,19,1,0,0
220K23,-,37,AS,adaptive,47,↑,up,↑,0.6643483999941964,True,18,1,0,0
220K23,-,38,AS,adaptive,25,↓,down,↓,1.0600626999803353,True,18,1,0,0
220K23,-,39,AS,adaptive,44,←,left,←,0.5371614000177942,True,17,1,0,0
220K23,-,40,AS,adaptive,49,→,no_key,no_letter,-1.0,False,17,-1,1,1
220K23,-,41,AS,adaptive,39,↑,up,↑,0.4895918999973219,True,18,-1,0,1
220K23,-,42,AS,adaptive,45,↓,down,↓,0.9977369999978691,True,18,1,1,2
220K23,-,43,AS,adaptive,42,←,down,↓,0.8456716999935452,False,17,-1,1,3
220K23,-,44,AS,adaptive,37,↑,up,↑,0.6536113999900408,True,18,-1,0,3
220K23,-,45,AS,adaptive,48,←,left,←,0.6320815000217408,True,18,1,1,4
220K23,1,46,PS,intra_train,44,↓,down,↓,0.8193352000089362,True,16,-,-,-
220K23,1,47,PS,intra_train,39,←,left,←,0.5738653000153136,True,16,-,-,-
220K23,1,48,PS,intra_train,43,↑,up,↑,0.7190601000038441,True,16,-,-,-
220K23,1,49,PS,intra_train,43,←,left,←,0.5720504999917466,True,16,-,-,-
220K23,1,50,PS,intra_train,31,↓,down,↓,0.5658873000065796,True,16,-,-,-
220K23,1,51,PS,exp,27,←,left,←,0.5006603999936488,True,11,0,0,0
220K23,1,52,PS,exp,31,↓,down,↓,0.8932964999985415,True,11,1,0,0
220K23,1,53,PS,exp,39,→,right,→,0.4913380999932997,True,10,1,0,0
220K23,1,54,PS,exp,46,←,left,←,0.8218826999946032,True,10,1,0,0
220K23,1,55,PS,exp,29,↓,down,↓,0.47084630001336336,True,9,1,0,0
220K23,1,56,PS,exp,36,←,left,←,0.5257563999912236,True,9,1,0,0
220K23,1,57,PS,exp,41,→,right,→,0.5431605000048876,True,8,1,0,0
220K23,1,58,PS,exp,33,←,left,←,0.475421200011624,True,8,1,0,0
220K23,1,59,PS,exp,42,↑,right,→,1.1469010000000708,False,7,-1,1,1
220K23,1,60,PS,exp,45,←,left,←,0.6934539999929257,True,8,-1,0,1
220K23,1,61,PS,exp,35,→,right,→,0.915095799980918,True,8,1,1,2
220K23,1,62,PS,exp,42,←,left,←,0.8539229999878444,True,7,1,0,2
220K23,1,63,PS,exp,38,→,right,→,0.5096065000107046,True,7,1,0,2
220K23,1,64,PS,exp,37,↓,down,↓,0.5025898999883793,True,6,1,0,2
220K23,1,65,PS,exp,37,↑,left,←,0.9025228000245988,False,6,-1,1,3
220K23,1,66,PS,exp,29,↓,down,↓,0.5012376000231598,True,7,-1,0,3
220K23,1,67,PS,exp,47,←,left,←,0.4193597999983467,True,7,1,1,4
220K23,1,68,PS,exp,47,↓,down,↓,0.44056709998403676,True,6,1,0,4
220K23,1,69,PS,exp,49,←,left,←,0.4763000999810174,True,6,1,0,4
220K23,1,70,PS,exp,47,→,right,→,0.44002169999293983,True,5,1,0,4
220K23,1,71,PS,exp,48,←,right,→,0.8896053000062238,False,5,-1,1,5
220K23,1,72,PS,exp,27,↓,down,↓,0.5053563000110444,True,6,-1,0,5
220K23,1,73,PS,exp,25,←,right,→,0.6399729999830015,False,6,-1,0,5
220K23,1,74,PS,exp,39,↑,up,↑,1.268563899997389,True,7,-1,0,5
220K23,1,75,PS,exp,38,↓,down,↓,1.4316901999991387,True,7,1,1,6
220K23,1,76,PS,exp,40,→,right,→,0.9509773000027053,True,6,1,0,6
220K23,1,77,PS,exp,34,↓,right,→,0.9933827000204474,False,6,-1,1,7
220K23,1,78,PS,exp,45,←,left,←,0.8202294000075199,True,7,-1,0,7
220K23,1,79,PS,exp,44,↓,left,←,1.1123182000010274,False,7,-1,0,7
220K23,1,80,PS,exp,44,→,left,←,1.3062166000017896,False,8,-1,0,7
220K23,1,81,PS,exp,34,↓,down,↓,0.8637682000116911,True,9,-1,0,7
220K23,1,82,PS,exp,34,→,left,←,0.89102300000377,False,9,-1,0,7
220K23,1,83,PS,exp,31,↑,down,↓,1.357861700002104,False,10,-1,0,7
220K23,1,84,PS,exp,28,↓,left,←,1.0352932999958284,False,11,-1,0,7
220K23,1,85,PS,exp,43,→,right,→,0.6232063999923412,True,12,-1,0,7
220K23,1,86,PS,exp,44,←,right,→,1.4330424000218045,False,12,-1,0,7
220K23,1,87,PS,exp,45,→,right,→,0.5351741000195034,True,13,-1,0,7
220K23,1,88,PS,exp,44,↑,right,→,0.8363622999750078,False,13,-1,0,7
220K23,1,89,PS,exp,26,←,left,←,0.5021096999989823,True,14,-1,0,7
220K23,1,90,PS,exp,45,→,right,→,0.5579351999913342,True,14,1,1,8
220K23,1,91,PS,exp,32,↓,down,↓,0.4967604000121355,True,13,1,0,8
220K23,1,92,PS,exp,40,↑,up,↑,0.8236677999957465,True,13,1,0,8
220K23,1,93,PS,exp,49,↓,down,↓,0.7322021000145469,True,12,1,0,8
220K23,1,94,PS,exp,29,→,right,→,0.5749916000058874,True,12,1,0,8
220K23,1,95,PS,exp,44,↓,down,↓,0.5451162000244949,True,11,1,0,8
220K23,1,96,PS,exp,47,←,left,←,0.6020519999729004,True,11,1,0,8
220K23,1,97,PS,exp,46,↑,up,↑,0.7082301999907941,True,10,1,0,8
220K23,1,98,PS,exp,36,←,left,←,0.596636700007366,True,10,1,0,8
220K23,1,99,PS,exp,36,↓,down,↓,0.5445448999817017,True,9,1,0,8
220K23,1,100,PS,exp,45,→,right,→,0.48664479999570176,True,9,1,0,8
220K23,1,101,PS,exp,26,←,right,→,0.9527309999975841,False,8,-1,1,9
220K23,1,102,PS,exp,43,→,right,→,0.5209767000051215,True,9,-1,0,9
220K23,1,103,PS,exp,40,↓,left,←,1.137117300007958,False,9,-1,0,9
220K23,1,104,PS,exp,41,↑,right,→,0.71543599999859,False,10,-1,0,9
220K23,1,105,PS,exp,30,→,right,→,0.5139106000133324,True,11,-1,0,9
220K23,1,106,PS,exp,32,←,left,←,0.5096362000040244,True,11,1,1,10
220K23,1,107,PS,exp,37,→,right,→,0.4727980000025127,True,10,1,0,10
220K23,1,108,PS,exp,49,↑,up,↑,0.7392440999974497,True,10,1,0,10
220K23,1,109,PS,exp,36,→,right,→,0.4461608999990858,True,9,1,0,10
220K23,1,110,PS,exp,35,↑,up,↑,0.5334833999804687,True,9,1,0,10
220K23,1,111,PS,exp,41,→,up,↑,1.512890600017272,False,8,-1,1,11
220K23,1,112,PS,exp,34,←,left,←,0.6302194000163581,True,9,-1,0,11
220K23,1,113,PS,exp,41,→,right,→,0.9162017999915406,True,9,1,1,12
220K23,1,114,PS,exp,44,↑,right,→,0.7742381999851204,False,8,-1,1,13
220K23,1,115,PS,exp,35,→,right,→,0.601192500005709,True,9,-1,0,13
220K23,1,116,PS,exp,33,↑,left,←,0.8030420000141021,False,9,-1,0,13
220K23,1,117,PS,exp,40,↓,up,↑,0.5860197999863885,False,10,-1,0,13
220K23,1,118,PS,exp,26,→,right,→,0.6697675000177696,True,11,-1,0,13
220K23,1,119,PS,exp,28,↑,up,↑,0.49628009999287315,True,11,1,1,14
220K23,2,120,AS,intra_train,45,→,right,→,1.2475307999993674,True,25,-,-,-
220K23,2,121,AS,intra_train,34,←,left,←,0.9515166000055615,True,25,-,-,-
220K23,2,122,AS,intra_train,29,↓,down,↓,0.8509972000028938,True,25,-,-,-
220K23,2,123,AS,intra_train,50,↑,up,↑,0.7074371000053361,True,25,-,-,-
220K23,2,124,AS,intra_train,33,↓,down,↓,0.5984154999896418,True,25,-,-,-
220K23,2,125,AS,exp,43,→,right,→,0.5079578000004403,True,17,0,0,0
220K23,2,126,AS,exp,29,←,left,←,0.5740649999934249,True,17,1,0,0
220K23,2,127,AS,exp,48,↓,down,↓,0.6317746000131592,True,16,1,0,0
220K23,2,128,AS,exp,41,→,right,→,0.534368299995549,True,16,1,0,0
220K23,2,129,AS,exp,47,←,left,←,0.45405729999765754,True,15,1,0,0
220K23,2,130,AS,exp,36,↑,right,→,1.0933446999988519,False,15,-1,1,1
220K23,2,131,AS,exp,27,→,right,→,0.6163164000026882,True,16,-1,0,1
220K23,2,132,AS,exp,32,↓,right,→,0.9271203000098467,False,16,-1,0,1
220K23,2,133,AS,exp,43,←,left,←,0.5280984999844804,True,17,-1,0,1
220K23,2,134,AS,exp,27,↑,up,↑,0.6061340000014752,True,17,1,1,2
220K23,2,135,AS,exp,37,←,left,←,0.7196429999894463,True,16,1,0,2
220K23,2,136,AS,exp,31,↓,down,↓,0.9674328000110108,True,16,1,0,2
220K23,2,137,AS,exp,50,↑,left,←,1.068127700011246,False,15,-1,1,3
220K23,2,138,AS,exp,48,←,left,←,0.4593266000156291,True,16,-1,0,3
220K23,2,139,AS,exp,39,→,right,→,0.4880010999913793,True,16,1,1,4
220K23,2,140,AS,exp,40,↓,down,↓,1.1566165999975055,True,15,1,0,4
220K23,2,141,AS,exp,49,↑,up,↑,0.611812600021949,True,15,1,0,4
220K23,2,142,AS,exp,28,↓,down,↓,0.8035238000156824,True,14,1,0,4
220K23,2,143,AS,exp,37,←,left,←,0.4924495000159368,True,14,1,0,4
220K23,2,144,AS,exp,45,↓,down,↓,0.6241283999988809,True,13,1,0,4
220K23,2,145,AS,exp,44,←,left,←,0.46060880000004545,True,13,1,0,4
220K23,2,146,AS,exp,43,↓,left,←,1.3748596999794245,False,12,-1,1,5
220K23,2,147,AS,exp,27,↑,down,↓,0.7844135999912396,False,13,-1,0,5
220K23,2,148,AS,exp,25,↓,no_key,no_letter,-1.0,False,14,-1,0,5
220K23,2,149,AS,exp,39,↑,down,↓,0.7328750999877229,False,15,-1,0,5
220K23,2,150,AS,exp,40,↓,down,↓,0.7890689000196289,True,16,-1,0,5
220K23,2,151,AS,exp,44,←,left,←,0.624683499976527,True,16,1,1,6
220K23,2,152,AS,exp,39,↓,left,←,1.2158889999845996,False,15,-1,1,7
220K23,2,153,AS,exp,43,↑,up,↑,0.7964722999895457,True,16,-1,0,7
220K23,2,154,AS,exp,32,→,right,→,0.7266394000034779,True,16,1,1,8
220K23,2,155,AS,exp,41,↓,down,↓,0.7662186000088695,True,15,1,0,8
220K23,2,156,AS,exp,41,↑,down,↓,0.700494599994272,False,15,-1,1,9
220K23,2,157,AS,exp,40,→,right,→,0.893053100007819,True,16,-1,0,9
220K23,2,158,AS,exp,50,↓,down,↓,0.5125991000095382,True,16,1,1,10
220K23,2,159,AS,exp,42,→,left,←,0.6050710999988951,False,15,-1,1,11
220K23,2,160,AS,exp,44,←,left,←,0.4004669999994803,True,16,-1,0,11
220K23,2,161,AS,exp,47,↑,up,↑,0.6261533000215422,True,16,1,1,12
220K23,2,162,AS,exp,40,→,right,→,0.6307428999862168,True,15,1,0,12
220K23,2,163,AS,exp,29,↑,up,↑,0.4800690999836661,True,15,1,0,12
220K23,2,164,AS,exp,43,→,left,←,1.535618499998236,False,14,-1,1,13
220K23,2,165,AS,exp,38,↓,down,↓,0.6836727999907453,True,15,-1,0,13
220K23,2,166,AS,exp,36,→,left,←,0.6904508000006899,False,15,-1,0,13
220K23,2,167,AS,exp,31,↑,left,←,1.0055376999953296,False,16,-1,0,13
220K23,2,168,AS,exp,39,←,left,←,0.40042179997544736,True,17,-1,0,13
220K23,2,169,AS,exp,42,↑,up,↑,0.6334031999867875,True,17,1,1,14
220K23,3,170,AS,intra_train,29,→,right,→,0.6808543999795802,True,25,-,-,-
220K23,3,171,AS,intra_train,31,←,left,←,0.7123255000042263,True,25,-,-,-
220K23,3,172,AS,intra_train,48,↓,down,↓,0.809529999998631,True,25,-,-,-
220K23,3,173,AS,intra_train,30,→,right,→,0.4503917999973055,True,25,-,-,-
220K23,3,174,AS,intra_train,48,←,left,←,0.6475343000201974,True,25,-,-,-
220K23,3,175,AS,exp,38,→,right,→,0.9415433999965899,True,17,0,0,0
220K23,3,176,AS,exp,48,↓,down,↓,0.7857565000012983,True,17,1,0,0
220K23,3,177,AS,exp,45,↑,up,↑,0.6012106999987736,True,16,1,0,0
220K23,3,178,AS,exp,47,←,left,←,0.4935974999971222,True,16,1,0,0
220K23,3,179,AS,exp,38,↓,down,↓,0.6660935999825597,True,15,1,0,0
220K23,3,180,AS,exp,41,→,right,→,0.4700375999964308,True,15,1,0,0
220K23,3,181,AS,exp,40,←,left,←,0.9569184000138193,True,14,1,0,0
220K23,3,182,AS,exp,43,↓,down,↓,0.7028177999891341,True,14,1,0,0
220K23,3,183,AS,exp,26,→,left,←,0.7787874000205193,False,13,-1,1,1
220K23,3,184,AS,exp,25,↑,down,↓,0.5703410999849439,False,14,-1,0,1
220K23,3,185,AS,exp,48,↓,down,↓,0.6408708000089973,True,15,-1,0,1
220K23,3,186,AS,exp,47,→,right,→,0.423439000005601,True,15,1,1,2
220K23,3,187,AS,exp,33,↓,left,←,1.1117336000024807,False,14,-1,1,3
220K23,3,188,AS,exp,38,↑,down,↓,0.7313066000060644,False,15,-1,0,3
220K23,3,189,AS,exp,34,←,left,←,0.8092839000164531,True,16,-1,0,3
220K23,3,190,AS,exp,46,↓,down,↓,0.45213430002331734,True,16,1,1,4
220K23,3,191,AS,exp,26,↑,down,↓,0.8683042999764439,False,15,-1,1,5
220K23,3,192,AS,exp,48,→,left,←,0.6221587999898475,False,16,-1,0,5
220K23,3,193,AS,exp,39,↓,down,↓,1.5608575000078417,True,17,-1,0,5
220K23,3,194,AS,exp,34,←,left,←,0.5009610999841243,True,17,1,1,6
220K23,3,195,AS,exp,43,↓,down,↓,0.6153305000043474,True,16,1,0,6
220K23,3,196,AS,exp,43,↑,up,↑,1.1234259000048041,True,16,1,0,6
220K23,3,197,AS,exp,44,→,right,→,0.4815796000184491,True,15,1,0,6
220K23,3,198,AS,exp,35,↓,down,↓,0.921508300001733,True,15,1,0,6
220K23,3,199,AS,exp,50,→,right,→,0.6779116000107024,True,14,1,0,6
220K23,3,200,AS,exp,34,↓,down,↓,0.6043594999937341,True,14,1,0,6
220K23,3,201,AS,exp,45,↑,up,↑,0.5860222000046633,True,13,1,0,6
220K23,3,202,AS,exp,33,←,left,←,0.46165459998883307,True,13,1,0,6
220K23,3,203,AS,exp,25,→,right,→,0.4863586999999825,True,12,1,0,6
220K23,3,204,AS,exp,35,↓,down,↓,0.5216293999983463,True,12,1,0,6
220K23,3,205,AS,exp,44,←,left,←,0.6853451999777462,True,11,1,0,6
220K23,3,206,AS,exp,48,→,left,←,1.0612799000227824,False,11,-1,1,7
220K23,3,207,AS,exp,37,←,left,←,0.43093500001123175,True,12,-1,0,7
220K23,3,208,AS,exp,36,→,right,→,0.6430938999983482,True,12,1,1,8
220K23,3,209,AS,exp,50,↓,down,↓,0.46575560001656413,True,11,1,0,8
220K23,3,210,AS,exp,45,←,left,←,0.7719261000165716,True,11,1,0,8
220K23,3,211,AS,exp,46,↓,down,↓,0.42753499999525957,True,10,1,0,8
220K23,3,212,AS,exp,48,←,left,←,0.4620199000055436,True,10,1,0,8
220K23,3,213,AS,exp,30,→,right,→,0.4248857000202406,True,9,1,0,8
220K23,3,214,AS,exp,33,↓,down,↓,0.3742688000202179,True,9,1,0,8
220K23,3,215,AS,exp,30,↑,left,←,0.6346014000009745,False,8,-1,1,9
220K23,3,216,AS,exp,47,→,right,→,0.43650230002822354,True,9,-1,0,9
220K23,3,217,AS,exp,42,↓,down,↓,0.4712327000161167,True,9,1,1,10
220K23,3,218,AS,exp,45,←,left,←,0.4191572999989148,True,8,1,0,10
220K23,3,219,AS,exp,39,↓,left,←,0.6753822999889962,False,8,-1,1,11
220K23,3,220,AS,exp,38,→,right,→,0.47076019999803975,True,9,-1,0,11
220K23,3,221,AS,exp,28,↑,left,←,0.7701193999964744,False,9,-1,0,11
220K23,3,222,AS,exp,38,↓,down,↓,1.1950410999997985,True,10,-1,0,11
220K23,3,223,AS,exp,28,↑,left,←,0.7844825999927707,False,10,-1,0,11
220K23,3,224,AS,exp,49,↓,down,↓,0.6575905000208877,True,11,-1,0,11
220K23,3,225,AS,exp,37,→,right,→,0.4789015999995172,True,11,1,1,12
220K23,3,226,AS,exp,26,↓,down,↓,0.40579009999055415,True,10,1,0,12
220K23,3,227,AS,exp,45,→,right,→,0.44826580001972616,True,10,1,0,12
220K23,3,228,AS,exp,39,↑,up,↑,0.7760920000146143,True,9,1,0,12
220K23,3,229,AS,exp,33,↓,down,↓,0.41078470001230016,True,9,1,0,12
220K23,3,230,AS,exp,47,→,left,←,1.250363600003766,False,8,-1,1,13
220K23,3,231,AS,exp,37,←,left,←,0.4694874999986496,True,9,-1,0,13
220K23,3,232,AS,exp,39,→,right,→,0.4668408999859821,True,9,1,1,14
220K23,4,233,PS,intra_train,27,↑,down,↓,0.8461639000161085,False,16,-,-,-
220K23,4,234,PS,intra_train,26,↓,down,↓,0.6419617999927141,True,16,-,-,-
220K23,4,235,PS,intra_train,33,←,left,←,0.4520632000057958,True,16,-,-,-
220K23,4,236,PS,intra_train,44,→,right,→,0.6485484000004362,True,16,-,-,-
220K23,4,237,PS,intra_train,48,↑,left,←,1.000842500012368,False,16,-,-,-
220K23,4,238,PS,exp,28,→,right,→,0.8219459999818355,True,11,0,0,0
220K23,4,239,PS,exp,46,←,left,←,0.43474070000229403,True,11,1,0,0
220K23,4,240,PS,exp,28,→,left,←,0.7534802000154741,False,10,-1,1,1
220K23,4,241,PS,exp,34,↑,up,↑,0.4727128999948036,True,11,-1,0,1
220K23,4,242,PS,exp,31,→,right,→,0.651523599983193,True,11,1,1,2
220K23,4,243,PS,exp,39,↓,down,↓,0.6451355000026524,True,10,1,0,2
220K23,4,244,PS,exp,41,↑,up,↑,0.9893891999963671,True,10,1,0,2
220K23,4,245,PS,exp,35,→,right,→,0.9356738999777008,True,9,1,0,2
220K23,4,246,PS,exp,39,←,left,←,0.480746299988823,True,9,1,0,2
220K23,4,247,PS,exp,42,→,right,→,0.9394643999985419,True,8,1,0,2
220K23,4,248,PS,exp,47,↑,up,↑,0.5395829000044614,True,8,1,0,2
220K23,4,249,PS,exp,37,→,right,→,1.1419788000057451,True,7,1,0,2
220K23,4,250,PS,exp,28,↑,up,↑,0.5180976000265218,True,7,1,0,2
220K23,4,251,PS,exp,38,↓,left,←,0.8807572999794502,False,6,-1,1,3
220K23,4,252,PS,exp,28,→,right,→,0.6626931000209879,True,7,-1,0,3
220K23,4,253,PS,exp,39,↑,right,→,0.7820392999856267,False,7,-1,0,3
220K23,4,254,PS,exp,47,↓,left,←,0.5734564999875147,False,8,-1,0,3
220K23,4,255,PS,exp,32,→,right,→,0.4750390000117477,True,9,-1,0,3
220K23,4,256,PS,exp,40,↑,left,←,0.7693193000159226,False,9,-1,0,3
220K23,4,257,PS,exp,49,↓,left,←,0.7840267000137828,False,10,-1,0,3
220K23,4,258,PS,exp,27,→,right,→,0.5865823000203818,True,11,-1,0,3
220K23,4,259,PS,exp,40,←,left,←,1.1403697000059765,True,11,1,1,4
220K23,4,260,PS,exp,50,↑,up,↑,1.2684055999852717,True,10,1,0,4
220K23,4,261,PS,exp,25,↓,down,↓,0.6597928000264801,True,10,1,0,4
220K23,4,262,PS,exp,35,↑,up,↑,0.5485428999818396,True,9,1,0,4
220K23,4,263,PS,exp,34,←,left,←,0.4816582999774255,True,9,1,0,4
220K23,4,264,PS,exp,44,↓,down,↓,0.6590477999998257,True,8,1,0,4
220K23,4,265,PS,exp,33,↑,up,↑,0.5573047999932896,True,8,1,0,4
220K23,4,266,PS,exp,44,↓,right,→,0.6629143000172917,False,7,-1,1,5
220K23,4,267,PS,exp,27,←,left,←,0.4736663000076078,True,8,-1,0,5
220K23,4,268,PS,exp,39,↑,down,↓,0.9019798999943305,False,8,-1,0,5
220K23,4,269,PS,exp,38,→,down,↓,0.5415713000111282,False,9,-1,0,5
220K23,4,270,PS,exp,27,↓,down,↓,0.3940250000159722,True,10,-1,0,5
220K23,4,271,PS,exp,33,←,right,→,0.6856505000032485,False,10,-1,0,5
220K23,4,272,PS,exp,45,↑,left,←,0.8443059000128414,False,11,-1,0,5
220K23,4,273,PS,exp,36,→,right,→,0.5004240999987815,True,12,-1,0,5
220K23,4,274,PS,exp,34,←,left,←,0.5699670999892987,True,12,1,1,6
220K23,4,275,PS,exp,46,↑,up,↑,0.5134150000230875,True,11,1,0,6
220K23,4,276,PS,exp,41,→,right,→,0.56500150001375,True,11,1,0,6
220K23,4,277,PS,exp,28,↓,down,↓,0.42908689999603666,True,10,1,0,6
220K23,4,278,PS,exp,33,→,down,↓,0.7462501999980304,False,10,-1,1,7
220K23,4,279,PS,exp,28,←,left,←,0.4240927000064403,True,11,-1,0,7
220K23,4,280,PS,exp,26,→,right,→,0.6613874000031501,True,11,1,1,8
220K23,4,281,PS,exp,31,↓,left,←,0.68225490002078,False,10,-1,1,9
220K23,4,282,PS,exp,49,↑,up,↑,0.5571887000114657,True,11,-1,0,9
220K23,4,283,PS,exp,45,←,left,←,0.6385392000083812,True,11,1,1,10
220K23,4,284,PS,exp,28,↓,down,↓,0.6009479999775067,True,10,1,0,10
220K23,4,285,PS,exp,34,↑,up,↑,0.5221588000131305,True,10,1,0,10
220K23,4,286,PS,exp,34,←,left,←,0.46446100002503954,True,9,1,0,10
220K23,4,287,PS,exp,46,→,right,→,0.43900959999882616,True,9,1,0,10
220K23,4,288,PS,exp,38,←,right,→,0.9129230999969877,False,8,-1,1,11
220K23,4,289,PS,exp,44,↓,right,→,0.8768513000104576,False,9,-1,0,11
220K23,4,290,PS,exp,43,←,left,←,1.5084523999830708,True,10,-1,0,11
220K23,4,291,PS,exp,46,→,left,←,0.7327212999807671,False,10,-1,0,11
220K23,4,292,PS,exp,40,↑,up,↑,0.46884489999501966,True,11,-1,0,11
220K23,4,293,PS,exp,40,→,right,→,0.41840090000187047,True,11,1,1,12
220K23,4,294,PS,exp,27,←,right,→,0.9377323999942746,False,10,-1,1,13
220K23,4,295,PS,exp,40,→,right,→,0.8431827999884263,True,11,-1,0,13
220K23,4,296,PS,exp,42,↓,down,↓,0.5970818000205327,True,11,1,1,14
220K23,5,297,PS,intra_train,36,→,right,→,1.1261631000088528,True,16,-,-,-
220K23,5,298,PS,intra_train,35,↑,up,↑,0.6267890999733936,True,16,-,-,-
220K23,5,299,PS,intra_train,41,↓,left,←,1.525038499996299,False,16,-,-,-
220K23,5,300,PS,intra_train,36,←,left,←,1.3727107000013348,True,16,-,-,-
220K23,5,301,PS,intra_train,45,↑,up,↑,0.47999660001369193,True,16,-,-,-
220K23,5,302,PS,exp,35,→,right,→,0.5682627999922261,True,11,0,0,0
220K23,5,303,PS,exp,47,↓,down,↓,0.7018823999969754,True,11,1,0,0
220K23,5,304,PS,exp,39,←,left,←,0.509283499995945,True,10,1,0,0
220K23,5,305,PS,exp,37,↑,left,←,0.9412583999801427,False,10,-1,1,1
220K23,5,306,PS,exp,30,↓,right,→,0.6112350000184961,False,11,-1,0,1
220K23,5,307,PS,exp,30,←,left,←,0.7440735000127461,True,12,-1,0,1
220K23,5,308,PS,exp,45,↑,up,↑,0.4959002999821678,True,12,1,1,2
220K23,5,309,PS,exp,34,↓,right,→,0.8852689000195824,False,11,-1,1,3
220K23,5,310,PS,exp,49,←,left,←,0.5232940000132658,True,12,-1,0,3
220K23,5,311,PS,exp,47,↑,up,↑,0.44456120001268573,True,12,1,1,4
220K23,5,312,PS,exp,44,→,right,→,0.5752334000135306,True,11,1,0,4
220K23,5,313,PS,exp,34,↑,up,↑,0.3773512000043411,True,11,1,0,4
220K23,5,314,PS,exp,43,→,right,→,0.42359220000798814,True,10,1,0,4
220K23,5,315,PS,exp,38,↓,down,↓,0.7412183999840636,True,10,1,0,4
220K23,5,316,PS,exp,49,←,left,←,0.415081499988446,True,9,1,0,4
220K23,5,317,PS,exp,25,↑,up,↑,0.4650553000101354,True,9,1,0,4
220K23,5,318,PS,exp,35,←,right,→,0.6637386000074912,False,8,-1,1,5
220K23,5,319,PS,exp,30,↑,up,↑,0.40519240000867285,True,9,-1,0,5
220K23,5,320,PS,exp,40,←,right,→,1.098093600012362,False,9,-1,0,5
220K23,5,321,PS,exp,29,↓,left,←,0.777678599988576,False,10,-1,0,5
220K23,5,322,PS,exp,29,→,right,→,0.70604099999764,True,11,-1,0,5
220K23,5,323,PS,exp,29,←,right,→,0.5269576999999117,False,11,-1,0,5
220K23,5,324,PS,exp,38,→,right,→,0.42790740000782534,True,12,-1,0,5
220K23,5,325,PS,exp,50,↓,down,↓,0.7886094000132289,True,12,1,1,6
220K23,5,326,PS,exp,50,→,right,→,0.4085363000049256,True,11,1,0,6
220K23,5,327,PS,exp,41,↑,left,←,0.9465949000150431,False,11,-1,1,7
220K23,5,328,PS,exp,40,←,left,←,0.40702909999527037,True,12,-1,0,7
220K23,5,329,PS,exp,37,↑,up,↑,0.4191913999966346,True,12,1,1,8
220K23,5,330,PS,exp,32,↓,right,→,0.8943091999972239,False,11,-1,1,9
220K23,5,331,PS,exp,28,↑,up,↑,0.4358143999997992,True,12,-1,0,9
220K23,5,332,PS,exp,34,↓,down,↓,0.7797045000188518,True,12,1,1,10
220K23,5,333,PS,exp,43,↑,left,←,0.9773817000095733,False,11,-1,1,11
220K23,5,334,PS,exp,48,→,right,→,0.6045102000061888,True,12,-1,0,11
220K23,5,335,PS,exp,30,←,left,←,0.6580887000018265,True,12,1,1,12
220K23,5,336,PS,exp,35,↑,up,↑,0.5206347999919672,True,11,1,0,12
220K23,5,337,PS,exp,47,↓,up,↑,0.9376713999954518,False,11,-1,1,13
220K23,5,338,PS,exp,30,←,left,←,0.47233069999492727,True,12,-1,0,13
220K23,5,339,PS,exp,25,↑,left,←,1.0143710999982432,False,12,-1,0,13
220K23,5,340,PS,exp,46,↓,down,↓,0.6558881000091787,True,13,-1,0,13
220K23,5,341,PS,exp,36,↑,right,→,0.5701873000070918,False,13,-1,0,13
220K23,5,342,PS,exp,45,→,no_key,no_letter,-1.0,False,14,-1,0,13
220K23,5,343,PS,exp,36,←,no_key,no_letter,-1.0,False,15,-1,0,13
220K23,5,344,PS,exp,41,↓,down,↓,0.64649179999833,True,16,-1,0,13
220K23,5,345,PS,exp,45,↑,up,↑,0.5231762000184972,True,16,1,1,14
220K23,6,346,AS,intra_train,31,↓,down,↓,0.7817569999897387,True,25,-,-,-
220K23,6,347,AS,intra_train,25,↑,up,↑,1.4318596000084653,True,25,-,-,-
220K23,6,348,AS,intra_train,26,→,right,→,0.6138759000168648,True,25,-,-,-
220K23,6,349,AS,intra_train,43,↑,up,↑,0.6532023000181653,True,25,-,-,-
220K23,6,350,AS,intra_train,48,←,left,←,0.694359400018584,True,25,-,-,-
220K23,6,351,AS,exp,35,↑,up,↑,0.41696840000804514,True,17,0,0,0
220K23,6,352,AS,exp,38,↓,down,↓,1.2433184999972582,True,17,1,0,0
220K23,6,353,AS,exp,43,↑,up,↑,0.5200434999715071,True,16,1,0,0
220K23,6,354,AS,exp,34,↓,down,↓,0.8585200999805238,True,16,1,0,0
220K23,6,355,AS,exp,47,→,right,→,0.5019807000062428,True,15,1,0,0
220K23,6,356,AS,exp,43,←,left,←,0.938850700011244,True,15,1,0,0
220K23,6,357,AS,exp,26,↓,down,↓,0.5031165999826044,True,14,1,0,0
220K23,6,358,AS,exp,49,←,left,←,0.683257800003048,True,14,1,0,0
220K23,6,359,AS,exp,38,↑,left,←,1.024878299998818,False,13,-1,1,1
220K23,6,360,AS,exp,41,←,left,←,0.4543079999857582,True,14,-1,0,1
220K23,6,361,AS,exp,43,↓,down,↓,0.5156645000097342,True,14,1,1,2
220K23,6,362,AS,exp,45,←,left,←,0.7475294999894686,True,13,1,0,2
220K23,6,363,AS,exp,31,↑,down,↓,0.5495265999925323,False,13,-1,1,3
220K23,6,364,AS,exp,42,←,right,→,0.9920345999998972,False,14,-1,0,3
220K23,6,365,AS,exp,41,↓,left,←,0.9168455000035465,False,15,-1,0,3
220K23,6,366,AS,exp,40,←,left,←,0.7923337999964133,True,16,-1,0,3
220K23,6,367,AS,exp,44,↓,down,↓,0.6745948999887332,True,16,1,1,4
220K23,6,368,AS,exp,30,↑,down,↓,0.727500200009672,False,15,-1,1,5
220K23,6,369,AS,exp,33,↓,down,↓,0.7309769999992568,True,16,-1,0,5
220K23,6,370,AS,exp,45,→,right,→,0.5308925000135787,True,16,1,1,6
220K23,6,371,AS,exp,47,↓,left,←,1.399880100012524,False,15,-1,1,7
220K23,6,372,AS,exp,36,→,right,→,0.46997629999532364,True,16,-1,0,7
220K23,6,373,AS,exp,25,↑,up,↑,0.8616494000016246,True,16,1,1,8
220K23,6,374,AS,exp,45,↓,down,↓,0.6410141999949701,True,15,1,0,8
220K23,6,375,AS,exp,42,↑,up,↑,0.5568491999874823,True,15,1,0,8
220K23,6,376,AS,exp,42,↓,down,↓,0.5434410000161733,True,14,1,0,8
220K23,6,377,AS,exp,49,←,left,←,0.6014772999915294,True,14,1,0,8
220K23,6,378,AS,exp,33,↓,up,↑,0.7515507000207435,False,13,-1,1,9
220K23,6,379,AS,exp,47,↑,up,↑,0.7216884000226855,True,14,-1,0,9
220K23,6,380,AS,exp,44,↓,up,↑,0.7574580000073183,False,14,-1,0,9
220K23,6,381,AS,exp,25,←,left,←,0.8564002999919467,True,15,-1,0,9
220K23,6,382,AS,exp,48,↑,up,↑,0.47298060002503917,True,15,1,1,10
220K23,6,383,AS,exp,26,↓,up,↑,0.9762833999993745,False,14,-1,1,11
220K23,6,384,AS,exp,29,←,left,←,0.5997039999929257,True,15,-1,0,11
220K23,6,385,AS,exp,45,↑,up,↑,0.9642127999977674,True,15,1,1,12
220K23,6,386,AS,exp,27,←,up,↑,1.1723519999941345,False,14,-1,1,13
220K23,6,387,AS,exp,26,→,right,→,0.7305271999794059,True,15,-1,0,13
220K23,6,388,AS,exp,34,↑,up,↑,0.4615969999867957,True,15,1,1,14
220K23,7,389,AS,intra_train,30,→,right,→,0.6916947000136133,True,25,-,-,-
220K23,7,390,AS,intra_train,50,↓,down,↓,0.9406373999954667,True,25,-,-,-
220K23,7,391,AS,intra_train,39,↑,up,↑,1.5909958000120241,True,25,-,-,-
220K23,7,392,AS,intra_train,26,↓,down,↓,0.6582290999940597,True,25,-,-,-
220K23,7,393,AS,intra_train,50,→,right,→,0.48364939997554757,True,25,-,-,-
220K23,7,394,AS,exp,40,←,left,←,0.8296715999895241,True,17,0,0,0
220K23,7,395,AS,exp,37,→,left,←,1.0002149000065401,False,17,-1,0,0
220K23,7,396,AS,exp,40,↑,left,←,1.3698030000086874,False,18,-1,0,0
220K23,7,397,AS,exp,33,↓,down,↓,0.5343310000025667,True,19,-1,0,0
220K23,7,398,AS,exp,36,→,right,→,0.6625188000034541,True,19,1,1,1
220K23,7,399,AS,exp,46,↑,up,↑,0.8749671999830753,True,18,1,0,1
220K23,7,400,AS,exp,31,↓,down,↓,0.7253685000177938,True,18,1,0,1
220K23,7,401,AS,exp,44,→,right,→,0.48418739999760874,True,17,1,0,1
220K23,7,402,AS,exp,34,↑,up,↑,0.4727855999954045,True,17,1,0,1
220K23,7,403,AS,exp,47,→,right,→,0.6968310000083875,True,16,1,0,1
220K23,7,404,AS,exp,44,↑,up,↑,0.7206056000140961,True,16,1,0,1
220K23,7,405,AS,exp,42,→,right,→,0.6291774999990594,True,15,1,0,1
220K23,7,406,AS,exp,44,↑,up,↑,0.43647250000503846,True,15,1,0,1
220K23,7,407,AS,exp,39,↓,down,↓,0.7613179000036325,True,14,1,0,1
220K23,7,408,AS,exp,38,→,right,→,0.46778720000293106,True,14,1,0,1
220K23,7,409,AS,exp,46,↓,down,↓,0.5765668000094593,True,13,1,0,1
220K23,7,410,AS,exp,49,↑,up,↑,0.5417757999966852,True,13,1,0,1
220K23,7,411,AS,exp,37,↓,down,↓,0.5123662000114564,True,12,1,0,1
220K23,7,412,AS,exp,36,←,left,←,0.8391201999911573,True,12,1,0,1
220K23,7,413,AS,exp,36,↑,right,→,0.7832469000131823,False,11,-1,1,2
220K23,7,414,AS,exp,39,↓,down,↓,0.8962681999837514,True,12,-1,0,2
220K23,7,415,AS,exp,31,→,down,↓,0.8191725999931805,False,12,-1,0,2
220K23,7,416,AS,exp,47,↓,down,↓,0.5659850999945775,True,13,-1,0,2
220K23,7,417,AS,exp,27,←,down,↓,0.7310894000111148,False,13,-1,0,2
220K23,7,418,AS,exp,42,→,left,←,0.809706100000767,False,14,-1,0,2
220K23,7,419,AS,exp,49,↑,up,↑,0.6556189999973867,True,15,-1,0,2
220K23,7,420,AS,exp,25,↓,down,↓,0.7463737999787554,True,15,1,1,3
220K23,7,421,AS,exp,25,→,right,→,0.6568041999998968,True,14,1,0,3
220K23,7,422,AS,exp,38,↑,right,→,0.7334113999968395,False,14,-1,1,4
220K23,7,423,AS,exp,43,↓,down,↓,0.7185941000061575,True,15,-1,0,4
220K23,7,424,AS,exp,36,←,left,←,0.6826068000227679,True,15,1,1,5
220K23,7,425,AS,exp,46,↓,down,↓,0.6203473999921698,True,14,1,0,5
220K23,7,426,AS,exp,28,↑,up,↑,0.45860710000852123,True,14,1,0,5
220K23,7,427,AS,exp,32,→,right,→,0.5022085000236984,True,13,1,0,5
220K23,7,428,AS,exp,27,↓,down,↓,0.9205119000107516,True,13,1,0,5
220K23,7,429,AS,exp,25,←,left,←,0.572221400012495,True,12,1,0,5
220K23,7,430,AS,exp,40,↑,up,↑,0.5918125000025611,True,12,1,0,5
220K23,7,431,AS,exp,34,↓,down,↓,0.6621952999848872,True,11,1,0,5
220K23,7,432,AS,exp,31,←,left,←,0.6622171999770217,True,11,1,0,5
220K23,7,433,AS,exp,49,↑,up,↑,0.4978420000115875,True,10,1,0,5
220K23,7,434,AS,exp,35,↓,down,↓,0.5168063000019174,True,10,1,0,5
220K23,7,435,AS,exp,44,→,left,←,0.65155819998472,False,9,-1,1,6
220K23,7,436,AS,exp,49,↓,down,↓,0.4246366000152193,True,10,-1,0,6
220K23,7,437,AS,exp,36,→,right,→,0.7712345999898389,True,10,1,1,7
220K23,7,438,AS,exp,37,←,left,←,0.749705800000811,True,9,1,0,7
220K23,7,439,AS,exp,33,→,left,←,0.6175931000034325,False,9,-1,1,8
220K23,7,440,AS,exp,49,←,left,←,0.6680496000044513,True,10,-1,0,8
220K23,7,441,AS,exp,43,↓,down,↓,0.634085600002436,True,10,1,1,9
220K23,7,442,AS,exp,31,↑,down,↓,0.6200632000109181,False,9,-1,1,10
220K23,7,443,AS,exp,39,←,left,←,0.8244952000095509,True,10,-1,0,10
220K23,7,444,AS,exp,48,→,right,→,0.5793215000012424,True,10,1,1,11
220K23,7,445,AS,exp,36,↑,down,↓,0.7920126000244636,False,9,-1,1,12
220K23,7,446,AS,exp,26,↓,down,↓,0.8104706000012811,True,10,-1,0,12
220K23,7,447,AS,exp,39,←,left,←,0.4740260999824386,True,10,1,1,13
220K23,7,448,AS,exp,44,↑,up,↑,1.065978600003291,True,9,1,0,13
220K23,7,449,AS,exp,48,→,right,→,0.6178533000056632,True,9,1,0,13
220K23,7,450,AS,exp,42,←,right,→,0.5171053000085521,False,8,-1,1,14
220K23,8,451,PS,intra_train,27,→,right,→,0.9646929999871645,True,16,-,-,-
220K23,8,452,PS,intra_train,45,↓,right,→,0.7488991000282113,False,16,-,-,-
220K23,8,453,PS,intra_train,28,→,right,→,1.1383690000220668,True,16,-,-,-
220K23,8,454,PS,intra_train,34,↑,up,↑,0.5167494000052102,True,16,-,-,-
220K23,8,455,PS,intra_train,43,←,left,←,0.6740514000121038,True,16,-,-,-
220K23,8,456,PS,exp,42,→,down,↓,1.6812122999981511,False,11,-1,0,0
220K23,8,457,PS,exp,30,←,left,←,0.6512691999960225,True,12,-1,0,0
220K23,8,458,PS,exp,39,→,right,→,0.6047893000068143,True,12,1,1,1
220K23,8,459,PS,exp,49,←,left,←,0.42150369999581017,True,11,1,0,1
220K23,8,460,PS,exp,28,↓,down,↓,0.8082937000144739,True,11,1,0,1
220K23,8,461,PS,exp,44,↑,down,↓,0.9700951000268105,False,10,-1,1,2
220K23,8,462,PS,exp,46,↓,left,←,0.6444584999990184,False,11,-1,0,2
220K23,8,463,PS,exp,39,←,left,←,0.6246110000065528,True,12,-1,0,2
220K23,8,464,PS,exp,36,→,right,→,0.6132462999958079,True,12,1,1,3
220K23,8,465,PS,exp,37,↑,up,↑,0.5353808000218123,True,11,1,0,3
220K23,8,466,PS,exp,29,↓,down,↓,0.9635343000118155,True,11,1,0,3
220K23,8,467,PS,exp,48,↑,up,↑,0.5742233000055421,True,10,1,0,3
220K23,8,468,PS,exp,42,↓,up,↑,1.0278754999744706,False,10,-1,1,4
220K23,8,469,PS,exp,41,→,right,→,0.619343200000003,True,11,-1,0,4
220K23,8,470,PS,exp,38,↓,down,↓,0.49328379999496974,True,11,1,1,5
220K23,8,471,PS,exp,31,→,right,→,0.41574799999943934,True,10,1,0,5
220K23,8,472,PS,exp,27,↑,right,→,1.3633249000122305,False,10,-1,1,6
220K23,8,473,PS,exp,36,→,right,→,0.6219168000097852,True,11,-1,0,6
220K23,8,474,PS,exp,48,↑,up,↑,0.49484519998077303,True,11,1,1,7
220K23,8,475,PS,exp,42,←,left,←,0.4181683999777306,True,10,1,0,7
220K23,8,476,PS,exp,35,↑,up,↑,0.44016679999185726,True,10,1,0,7
220K23,8,477,PS,exp,48,↓,down,↓,0.6527632999932393,True,9,1,0,7
220K23,8,478,PS,exp,43,↑,up,↑,0.5634771999903023,True,9,1,0,7
220K23,8,479,PS,exp,45,→,right,→,0.41751919998205267,True,8,1,0,7
220K23,8,480,PS,exp,43,←,left,←,0.6123369000270031,True,8,1,0,7
220K23,8,481,PS,exp,34,↑,up,↑,0.41969529999187216,True,7,1,0,7
220K23,8,482,PS,exp,31,←,left,←,0.4062737000058405,True,7,1,0,7
220K23,8,483,PS,exp,32,↑,up,↑,0.49722879999899305,True,6,1,0,7
220K23,8,484,PS,exp,43,←,left,←,0.5068840000021737,True,6,1,0,7
220K23,8,485,PS,exp,43,↑,left,←,1.7203485000063665,False,5,-1,1,8
220K23,8,486,PS,exp,41,←,right,→,0.5841172999935225,False,6,-1,0,8
220K23,8,487,PS,exp,43,↑,right,→,0.6522732999874279,False,7,-1,0,8
220K23,8,488,PS,exp,50,↓,down,↓,0.6556413000216708,True,8,-1,0,8
220K23,8,489,PS,exp,48,→,right,→,0.631901899992954,True,8,1,1,9
220K23,8,490,PS,exp,26,↑,up,↑,0.5176795000152197,True,7,1,0,9
220K23,8,491,PS,exp,25,←,left,←,0.5796320000081323,True,7,1,0,9
220K23,8,492,PS,exp,33,↓,left,←,0.5574812999984715,False,6,-1,1,10
220K23,8,493,PS,exp,27,←,left,←,0.5256608000199776,True,7,-1,0,10
220K23,8,494,PS,exp,35,→,left,←,0.7047976999892853,False,7,-1,0,10
220K23,8,495,PS,exp,27,←,left,←,0.4378359999973327,True,8,-1,0,10
220K23,8,496,PS,exp,40,→,right,→,0.5090373000130057,True,8,1,1,11
220K23,8,497,PS,exp,45,↓,left,←,0.7874643000250217,False,7,-1,1,12
220K23,8,498,PS,exp,49,←,left,←,0.6186355999961961,True,8,-1,0,12
220K23,8,499,PS,exp,40,→,right,→,0.43475020001642406,True,8,1,1,13
220K23,8,500,PS,exp,26,←,left,←,0.44785689999116585,True,7,1,0,13
220K23,8,501,PS,exp,26,→,right,→,0.4491944999899715,True,7,1,0,13
220K23,8,502,PS,exp,30,←,left,←,0.9762078000057954,True,6,1,0,13
220K23,8,503,PS,exp,26,↓,down,↓,0.6770862999837846,True,6,1,0,13
220K23,8,504,PS,exp,33,↑,right,→,0.5177029999904335,False,5,-1,1,14
