PART_ID,Block_no,Trial_no,Block_type,Trial_type,CSI,Stim_letter,Key_pressed,letter_choose,Rt,Corr,Stimulus Time,Level,Reversal,Revs_count
PB004K20,1,1,PS,train,39,→,no_key,no_letter,-1.0,False,30,-,-,-
PB004K20,1,2,PS,train,48,↓,down,↓,0.9834292000014102,True,30,-,-,-
PB004K20,1,3,PS,train,32,←,left,←,0.7613275000039721,True,30,-,-,-
PB004K20,1,4,PS,train,48,↑,up,↑,1.2852965000056429,True,30,-,-,-
PB004K20,1,5,PS,train,32,←,left,←,0.6790788999933284,True,30,-,-,-
PB004K20,1,6,PS,train,30,→,right,→,0.600657200004207,True,30,-,-,-
PB004K20,1,7,PS,train,50,←,left,←,0.9358101999969222,True,30,-,-,-
PB004K20,1,8,PS,train,31,→,right,→,1.01389860000927,True,30,-,-,-
PB004K20,1,9,PS,train,27,←,left,←,1.0323644000018248,True,30,-,-,-
PB004K20,1,10,PS,train,31,→,right,→,0.8576975000032689,True,30,-,-,-
PB004K20,2,11,AS,train,46,←,left,←,1.0383106999943266,True,45,-,-,-
PB004K20,2,12,AS,train,32,↓,down,↓,0.9469605000049341,True,45,-,-,-
PB004K20,2,13,AS,train,27,↑,up,↑,1.6142486999888206,True,45,-,-,-
PB004K20,2,14,AS,train,27,→,right,→,0.7839068000030238,True,45,-,-,-
PB004K20,2,15,AS,train,46,←,left,←,0.8671218000090448,True,45,-,-,-
PB004K20,2,16,AS,train,43,↑,up,↑,1.3544971000083024,True,45,-,-,-
PB004K20,2,17,AS,train,48,↓,down,↓,0.6843265000061365,True,45,-,-,-
PB004K20,2,18,AS,train,47,↑,up,↑,1.2119819999934407,True,45,-,-,-
PB004K20,2,19,AS,train,33,←,left,←,0.8173251999978675,True,45,-,-,-
PB004K20,2,20,AS,train,47,↑,up,↑,0.8505960000038613,True,45,-,-,-
PB004K20,-,21,PS,adaptive,50,→,right,→,1.0519655000098282,True,10,0,0,0
PB004K20,-,22,PS,adaptive,37,↓,down,↓,0.7224204000085592,True,10,1,0,0
PB004K20,-,23,PS,adaptive,42,→,right,→,0.6386072000022978,True,9,1,0,0
PB004K20,-,24,PS,adaptive,48,↑,up,↑,1.4717929999897024,True,9,1,0,0
PB004K20,-,25,PS,adaptive,31,←,right,→,1.0976941000117222,False,8,-1,1,1
PB004K20,-,26,PS,adaptive,41,↑,up,↑,0.8672875999909593,True,9,-1,0,1
PB004K20,-,27,PS,adaptive,31,↓,right,→,0.8462052999966545,False,9,-1,0,1
PB004K20,-,28,PS,adaptive,32,→,right,→,0.6686466999963159,True,10,-1,0,1
PB004K20,-,29,PS,adaptive,48,↑,up,↑,1.306748000002699,True,10,1,1,2
PB004K20,-,30,PS,adaptive,47,↓,down,↓,0.7968548000062583,True,9,1,0,2
PB004K20,-,31,PS,adaptive,31,←,left,←,0.6126827999978559,True,9,1,0,2
PB004K20,-,32,PS,adaptive,27,↑,up,↑,0.8161676000017906,True,8,1,0,2
PB004K20,-,33,PS,adaptive,36,→,right,→,0.6159412999986671,True,8,1,0,2
PB004K20,-,34,PS,adaptive,41,↑,right,→,0.63549050000438,False,7,-1,1,3
PB004K20,-,35,PS,adaptive,50,→,right,→,0.6385220000083791,True,8,-1,0,3
PB004K20,-,36,PS,adaptive,43,←,right,→,0.6190640999993775,False,8,-1,0,3
PB004K20,-,37,PS,adaptive,28,→,left,←,0.758020299996133,False,9,-1,0,3
PB004K20,-,38,PS,adaptive,49,↑,up,↑,0.6635048000025563,True,10,-1,0,3
PB004K20,-,39,PS,adaptive,43,↓,right,→,0.5900674000004074,False,10,-1,0,3
PB004K20,-,40,PS,adaptive,50,↑,up,↑,0.7449125999992248,True,11,-1,0,3
PB004K20,-,41,PS,adaptive,46,→,right,→,0.6656099999963772,True,11,1,1,4
PB004K20,-,42,AS,adaptive,45,←,left,←,0.6004650000104448,True,20,0,0,0
PB004K20,-,43,AS,adaptive,38,↑,up,↑,0.7506033999961801,True,20,1,0,0
PB004K20,-,44,AS,adaptive,27,←,right,→,0.7836673999991035,False,19,-1,1,1
PB004K20,-,45,AS,adaptive,33,↑,up,↑,0.7774779000028502,True,20,-1,0,1
PB004K20,-,46,AS,adaptive,27,←,left,←,0.704716099993675,True,20,1,1,2
PB004K20,-,47,AS,adaptive,35,↑,up,↑,0.8401089999970281,True,19,1,0,2
PB004K20,-,48,AS,adaptive,33,→,right,→,0.5753666999953566,True,19,1,0,2
PB004K20,-,49,AS,adaptive,32,↑,up,↑,0.5754016999999294,True,18,1,0,2
PB004K20,-,50,AS,adaptive,33,→,left,←,0.9886010000045644,False,18,-1,1,3
PB004K20,-,51,AS,adaptive,49,↑,up,↑,0.7012316000036662,True,19,-1,0,3
PB004K20,-,52,AS,adaptive,30,←,left,←,0.6412773000047309,True,19,1,1,4
PB004K20,1,53,AS,intra_train,48,→,right,→,0.7387568999984069,True,27,-,-,-
PB004K20,1,54,AS,intra_train,48,↓,down,↓,0.7550902999937534,True,27,-,-,-
PB004K20,1,55,AS,intra_train,48,→,right,→,0.7569069000019226,True,27,-,-,-
PB004K20,1,56,AS,intra_train,29,↓,down,↓,0.5341042000072775,True,27,-,-,-
PB004K20,1,57,AS,intra_train,43,↑,up,↑,0.8096999999979744,True,27,-,-,-
PB004K20,1,58,AS,exp,37,←,left,←,0.4737750999920536,True,18,0,0,0
PB004K20,1,59,AS,exp,26,→,right,→,1.1303656000090996,True,18,1,0,0
PB004K20,1,60,AS,exp,40,←,left,←,1.8090035000059288,True,17,1,0,0
PB004K20,1,61,AS,exp,32,↑,up,↑,0.9135916000086581,True,17,1,0,0
PB004K20,1,62,AS,exp,42,↓,right,→,0.9610493999934988,False,16,-1,1,1
PB004K20,1,63,AS,exp,31,↑,up,↑,0.7518808000022545,True,17,-1,0,1
PB004K20,1,64,AS,exp,33,→,left,←,1.090244300008635,False,17,-1,0,1
PB004K20,1,65,AS,exp,26,↓,down,↓,0.9326109999965411,True,18,-1,0,1
PB004K20,1,66,AS,exp,37,→,right,→,0.8918477999977767,True,18,1,1,2
PB004K20,1,67,AS,exp,37,←,down,↓,1.2861700000066776,False,17,-1,1,3
PB004K20,1,68,AS,exp,28,→,right,→,0.525678500009235,True,18,-1,0,3
PB004K20,1,69,AS,exp,39,↓,down,↓,0.5158144000015454,True,18,1,1,4
PB004K20,1,70,AS,exp,48,→,right,→,0.8961696000042139,True,17,1,0,4
PB004K20,1,71,AS,exp,34,↑,right,→,1.7064537000114797,False,17,-1,1,5
PB004K20,1,72,AS,exp,39,←,right,→,0.9538901999912923,False,18,-1,0,5
PB004K20,1,73,AS,exp,27,→,right,→,0.675592500003404,True,19,-1,0,5
PB004K20,1,74,AS,exp,43,←,left,←,0.842464999994263,True,19,1,1,6
PB004K20,1,75,AS,exp,32,→,right,→,0.6512504999991506,True,18,1,0,6
PB004K20,1,76,AS,exp,37,←,left,←,0.8427932000049623,True,18,1,0,6
PB004K20,1,77,AS,exp,38,↑,up,↑,0.9618559000082314,True,17,1,0,6
PB004K20,1,78,AS,exp,27,↓,down,↓,0.9061616000108188,True,17,1,0,6
PB004K20,1,79,AS,exp,49,←,left,←,0.8826727999985451,True,16,1,0,6
PB004K20,1,80,AS,exp,44,↓,down,↓,0.6880557999975281,True,16,1,0,6
PB004K20,1,81,AS,exp,31,←,left,←,0.7507025000086287,True,15,1,0,6
PB004K20,1,82,AS,exp,25,↓,down,↓,0.7955462999962037,True,15,1,0,6
PB004K20,1,83,AS,exp,44,→,right,→,0.6599603999929968,True,14,1,0,6
PB004K20,1,84,AS,exp,38,←,left,←,1.0209489000117173,True,14,1,0,6
PB004K20,1,85,AS,exp,34,↑,right,→,1.1389972000033595,False,13,-1,1,7
PB004K20,1,86,AS,exp,29,→,left,←,0.8211410000076285,False,14,-1,0,7
PB004K20,1,87,AS,exp,42,↓,right,→,1.0224816000118153,False,15,-1,0,7
PB004K20,1,88,AS,exp,37,→,left,←,0.9350093000102788,False,16,-1,0,7
PB004K20,1,89,AS,exp,39,↓,down,↓,0.5571124000125565,True,17,-1,0,7
PB004K20,1,90,AS,exp,39,→,right,→,0.9121049999957904,True,17,1,1,8
PB004K20,1,91,AS,exp,29,←,left,←,0.8362006000097608,True,16,1,0,8
PB004K20,1,92,AS,exp,25,↓,down,↓,0.6524432000005618,True,16,1,0,8
PB004K20,1,93,AS,exp,41,↑,up,↑,0.9164532999857329,True,15,1,0,8
PB004K20,1,94,AS,exp,25,←,left,←,1.0094377000059467,True,15,1,0,8
PB004K20,1,95,AS,exp,37,↑,up,↑,0.9939690999890445,True,14,1,0,8
PB004K20,1,96,AS,exp,31,←,left,←,1.0776303999882657,True,14,1,0,8
PB004K20,1,97,AS,exp,31,↑,down,↓,0.8410396999970544,False,13,-1,1,9
PB004K20,1,98,AS,exp,31,←,left,←,0.8603768999892054,True,14,-1,0,9
PB004K20,1,99,AS,exp,37,→,right,→,0.7596044999954756,True,14,1,1,10
PB004K20,1,100,AS,exp,46,↑,right,→,1.1335787999996683,False,13,-1,1,11
PB004K20,1,101,AS,exp,27,↓,down,↓,0.6164240999933099,True,14,-1,0,11
PB004K20,1,102,AS,exp,40,→,right,→,0.5495086000009906,True,14,1,1,12
PB004K20,1,103,AS,exp,29,↓,down,↓,0.8295003000093857,True,13,1,0,12
PB004K20,1,104,AS,exp,50,↑,left,←,0.9944659999891883,False,13,-1,1,13
PB004K20,1,105,AS,exp,43,←,left,←,0.49797249998664483,True,14,-1,0,13
PB004K20,1,106,AS,exp,43,↓,right,→,0.9966376999946078,False,14,-1,0,13
PB004K20,1,107,AS,exp,42,←,right,→,0.9901716000022134,False,15,-1,0,13
PB004K20,1,108,AS,exp,27,↑,up,↑,0.9388424000062514,True,16,-1,0,13
PB004K20,1,109,AS,exp,42,←,right,→,0.6716923999920255,False,16,-1,0,13
PB004K20,1,110,AS,exp,43,↑,right,→,0.8158995999983745,False,17,-1,0,13
PB004K20,1,111,AS,exp,31,↓,down,↓,1.2407806999981403,True,18,-1,0,13
PB004K20,1,112,AS,exp,35,↑,up,↑,0.888056099996902,True,18,1,1,14
PB004K20,2,113,PS,intra_train,32,↓,down,↓,0.86831119999988,True,15,-,-,-
PB004K20,2,114,PS,intra_train,45,←,left,←,0.5118915999919409,True,15,-,-,-
PB004K20,2,115,PS,intra_train,30,↑,up,↑,0.8623405999969691,True,15,-,-,-
PB004K20,2,116,PS,intra_train,48,↓,down,↓,0.7159637000004295,True,15,-,-,-
PB004K20,2,117,PS,intra_train,35,→,right,→,0.5379748999985168,True,15,-,-,-
PB004K20,2,118,PS,exp,44,←,left,←,0.6401149999874178,True,10,0,0,0
PB004K20,2,119,PS,exp,48,→,right,→,0.5120170000009239,True,10,1,0,0
PB004K20,2,120,PS,exp,34,↓,right,→,0.8138755999971181,False,9,-1,1,1
PB004K20,2,121,PS,exp,41,←,left,←,0.5763872999959858,True,10,-1,0,1
PB004K20,2,122,PS,exp,45,↓,down,↓,0.6537232999980915,True,10,1,1,2
PB004K20,2,123,PS,exp,37,↑,up,↑,0.7604283999971813,True,9,1,0,2
PB004K20,2,124,PS,exp,27,←,left,←,0.5068958000047132,True,9,1,0,2
PB004K20,2,125,PS,exp,34,→,left,←,0.8247201000049245,False,8,-1,1,3
PB004K20,2,126,PS,exp,35,↓,right,→,0.9580962999898475,False,9,-1,0,3
PB004K20,2,127,PS,exp,50,←,right,→,0.8752112999936799,False,10,-1,0,3
PB004K20,2,128,PS,exp,36,↓,down,↓,0.6531174999981886,True,11,-1,0,3
PB004K20,2,129,PS,exp,26,←,left,←,0.6439458000095328,True,11,1,1,4
PB004K20,2,130,PS,exp,25,↑,right,→,0.7085236999992048,False,10,-1,1,5
PB004K20,2,131,PS,exp,31,↓,down,↓,1.062651400003233,True,11,-1,0,5
PB004K20,2,132,PS,exp,29,↑,left,←,0.7725585000007413,False,11,-1,0,5
PB004K20,2,133,PS,exp,37,←,left,←,0.5011685000063153,True,12,-1,0,5
PB004K20,2,134,PS,exp,44,↑,up,↑,0.6428287000017008,True,12,1,1,6
PB004K20,2,135,PS,exp,36,←,left,←,0.482683399997768,True,11,1,0,6
PB004K20,2,136,PS,exp,44,→,right,→,0.6589107000036165,True,11,1,0,6
PB004K20,2,137,PS,exp,45,↑,up,↑,0.6530668000050355,True,10,1,0,6
PB004K20,2,138,PS,exp,44,←,left,←,0.5126828000065871,True,10,1,0,6
PB004K20,2,139,PS,exp,26,→,right,→,0.4580720999947516,True,9,1,0,6
PB004K20,2,140,PS,exp,40,↑,down,↓,0.9708261000050697,False,9,-1,1,7
PB004K20,2,141,PS,exp,32,↓,left,←,0.9618641999986721,False,10,-1,0,7
PB004K20,2,142,PS,exp,28,↑,up,↑,0.6891636999935145,True,11,-1,0,7
PB004K20,2,143,PS,exp,28,↓,right,→,0.7831031999958213,False,11,-1,0,7
PB004K20,2,144,PS,exp,41,→,right,→,0.5937568999943323,True,12,-1,0,7
PB004K20,2,145,PS,exp,36,↑,right,→,0.9170288000022992,False,12,-1,0,7
PB004K20,2,146,PS,exp,39,←,left,←,0.5076295999897411,True,13,-1,0,7
PB004K20,2,147,PS,exp,28,→,right,→,0.6562945000041509,True,13,1,1,8
PB004K20,2,148,PS,exp,49,↑,right,→,0.9487363999942318,False,12,-1,1,9
PB004K20,2,149,PS,exp,39,←,left,←,0.6170813000062481,True,13,-1,0,9
PB004K20,2,150,PS,exp,42,↓,down,↓,0.8423925999959465,True,13,1,1,10
PB004K20,2,151,PS,exp,47,→,right,→,0.57539280000492,True,12,1,0,10
PB004K20,2,152,PS,exp,50,↓,left,←,0.8524675999942701,False,12,-1,1,11
PB004K20,2,153,PS,exp,42,↑,down,↓,0.9317693999910261,False,13,-1,0,11
PB004K20,2,154,PS,exp,37,←,left,←,0.6690306000091368,True,14,-1,0,11
PB004K20,2,155,PS,exp,37,↓,down,↓,0.6134834999975283,True,14,1,1,12
PB004K20,2,156,PS,exp,47,↑,left,←,0.8735663999977987,False,13,-1,1,13
PB004K20,2,157,PS,exp,49,←,left,←,0.5781459999998333,True,14,-1,0,13
PB004K20,2,158,PS,exp,27,↑,up,↑,0.7596952999883797,True,14,1,1,14
PB004K20,3,159,PS,intra_train,47,←,left,←,0.6153151000034995,True,15,-,-,-
PB004K20,3,160,PS,intra_train,38,↓,down,↓,0.5127060999948299,True,15,-,-,-
PB004K20,3,161,PS,intra_train,36,↑,up,↑,0.6563428999943426,True,15,-,-,-
PB004K20,3,162,PS,intra_train,29,←,right,→,1.007628499995917,False,15,-,-,-
PB004K20,3,163,PS,intra_train,43,↑,up,↑,0.6295659000024898,True,15,-,-,-
PB004K20,3,164,PS,exp,33,↓,left,←,0.84831440000562,False,10,-1,0,0
PB004K20,3,165,PS,exp,33,↑,right,→,0.9596770000061952,False,11,-1,0,0
PB004K20,3,166,PS,exp,32,→,right,→,0.5866659000021173,True,12,-1,0,0
PB004K20,3,167,PS,exp,31,←,left,←,0.5349915999977384,True,12,1,1,1
PB004K20,3,168,PS,exp,40,→,right,→,0.7717736000049626,True,11,1,0,1
PB004K20,3,169,PS,exp,39,↓,down,↓,0.6239272999955574,True,11,1,0,1
PB004K20,3,170,PS,exp,43,↑,left,←,0.9990421999973478,False,10,-1,1,2
PB004K20,3,171,PS,exp,26,↓,left,←,0.9823606999998447,False,11,-1,0,2
PB004K20,3,172,PS,exp,43,←,left,←,0.5269860999978846,True,12,-1,0,2
PB004K20,3,173,PS,exp,49,→,right,→,0.5523286999959964,True,12,1,1,3
PB004K20,3,174,PS,exp,30,↓,down,↓,0.8360070000053383,True,11,1,0,3
PB004K20,3,175,PS,exp,35,→,left,←,0.8118082000000868,False,11,-1,1,4
PB004K20,3,176,PS,exp,41,↓,down,↓,0.5112643000029493,True,12,-1,0,4
PB004K20,3,177,PS,exp,42,←,left,←,0.5611957000073744,True,12,1,1,5
PB004K20,3,178,PS,exp,34,↑,up,↑,0.8889509000000544,True,11,1,0,5
PB004K20,3,179,PS,exp,25,↓,left,←,0.9410757000005106,False,11,-1,1,6
PB004K20,3,180,PS,exp,27,←,left,←,0.6710509999975329,True,12,-1,0,6
PB004K20,3,181,PS,exp,49,↓,left,←,0.7366869999968912,False,12,-1,0,6
PB004K20,3,182,PS,exp,33,←,right,→,1.4151020999997854,False,13,-1,0,6
PB004K20,3,183,PS,exp,33,↓,down,↓,0.6539866999955848,True,14,-1,0,6
PB004K20,3,184,PS,exp,38,→,right,→,0.6120430000009947,True,14,1,1,7
PB004K20,3,185,PS,exp,44,←,left,←,0.7233945000043605,True,13,1,0,7
PB004K20,3,186,PS,exp,26,→,right,→,0.6179922000010265,True,13,1,0,7
PB004K20,3,187,PS,exp,26,↓,down,↓,0.6632106000033673,True,12,1,0,7
PB004K20,3,188,PS,exp,44,→,right,→,0.5932590999873355,True,12,1,0,7
PB004K20,3,189,PS,exp,35,←,right,→,0.7233388999884482,False,11,-1,1,8
PB004K20,3,190,PS,exp,43,↑,left,←,0.933831199989072,False,12,-1,0,8
PB004K20,3,191,PS,exp,43,←,left,←,0.5394894999917597,True,13,-1,0,8
PB004K20,3,192,PS,exp,48,→,right,→,0.6732079999928828,True,13,1,1,9
PB004K20,3,193,PS,exp,34,↓,down,↓,0.6908090000069933,True,12,1,0,9
PB004K20,3,194,PS,exp,42,←,left,←,0.6118363999994472,True,12,1,0,9
PB004K20,3,195,PS,exp,41,↓,right,→,0.7692722999927355,False,11,-1,1,10
PB004K20,3,196,PS,exp,48,→,right,→,0.48624939999717753,True,12,-1,0,10
PB004K20,3,197,PS,exp,36,↓,down,↓,0.6518905999982962,True,12,1,1,11
PB004K20,3,198,PS,exp,28,←,left,←,0.500858999992488,True,11,1,0,11
PB004K20,3,199,PS,exp,43,→,right,→,0.5408813999965787,True,11,1,0,11
PB004K20,3,200,PS,exp,25,←,left,←,0.7259199999971315,True,10,1,0,11
PB004K20,3,201,PS,exp,30,→,right,→,0.6199409999971977,True,10,1,0,11
PB004K20,3,202,PS,exp,37,←,left,←,0.6362307999952463,True,9,1,0,11
PB004K20,3,203,PS,exp,43,↑,left,←,0.7425108999887016,False,9,-1,1,12
PB004K20,3,204,PS,exp,25,→,right,→,0.7416372000006959,True,10,-1,0,12
PB004K20,3,205,PS,exp,47,↑,up,↑,0.8959854999993695,True,10,1,1,13
PB004K20,3,206,PS,exp,43,→,right,→,0.5508329000003869,True,9,1,0,13
PB004K20,3,207,PS,exp,25,↑,up,↑,0.9590006000071298,True,9,1,0,13
PB004K20,3,208,PS,exp,29,↓,left,←,0.871393800000078,False,8,-1,1,14
PB004K20,4,209,AS,intra_train,30,←,left,←,1.8967345999990357,True,27,-,-,-
PB004K20,4,210,AS,intra_train,27,↑,up,↑,1.07064679999894,True,27,-,-,-
PB004K20,4,211,AS,intra_train,45,→,right,→,0.9724692000017967,True,27,-,-,-
PB004K20,4,212,AS,intra_train,37,←,left,←,0.6805840000015451,True,27,-,-,-
PB004K20,4,213,AS,intra_train,30,↓,down,↓,0.7180606000038097,True,27,-,-,-
PB004K20,4,214,AS,exp,40,→,left,←,0.500159099989105,False,18,-1,0,0
PB004K20,4,215,AS,exp,38,↑,right,→,1.4269253999955254,False,19,-1,0,0
PB004K20,4,216,AS,exp,41,→,right,→,0.519473399996059,True,20,-1,0,0
PB004K20,4,217,AS,exp,43,↑,up,↑,0.9782084000034956,True,20,1,1,1
PB004K20,4,218,AS,exp,25,↓,down,↓,0.6819029000034789,True,19,1,0,1
PB004K20,4,219,AS,exp,29,←,right,→,0.7893314999964787,False,19,-1,1,2
PB004K20,4,220,AS,exp,28,↑,up,↑,0.6110645000007935,True,20,-1,0,2
PB004K20,4,221,AS,exp,25,←,left,←,0.6069750000024214,True,20,1,1,3
PB004K20,4,222,AS,exp,48,→,left,←,0.7731113000045298,False,19,-1,1,4
PB004K20,4,223,AS,exp,42,↓,down,↓,0.5124625000025844,True,20,-1,0,4
PB004K20,4,224,AS,exp,25,→,right,→,0.5631367000023602,True,20,1,1,5
PB004K20,4,225,AS,exp,34,↓,down,↓,0.6611880999989808,True,19,1,0,5
PB004K20,4,226,AS,exp,47,←,right,→,0.6087586999929044,False,19,-1,1,6
PB004K20,4,227,AS,exp,50,→,right,→,0.5057136999967042,True,20,-1,0,6
PB004K20,4,228,AS,exp,48,←,left,←,0.5005411000020104,True,20,1,1,7
PB004K20,4,229,AS,exp,33,→,left,←,0.7393767000030493,False,19,-1,1,8
PB004K20,4,230,AS,exp,48,↓,down,↓,0.5941706000012346,True,20,-1,0,8
PB004K20,4,231,AS,exp,40,←,left,←,0.5968656000040937,True,20,1,1,9
PB004K20,4,232,AS,exp,38,↓,down,↓,0.8168972999992548,True,19,1,0,9
PB004K20,4,233,AS,exp,44,↑,up,↑,0.8436749999964377,True,19,1,0,9
PB004K20,4,234,AS,exp,31,←,up,↑,1.046784399994067,False,18,-1,1,10
PB004K20,4,235,AS,exp,25,↓,down,↓,0.7669027000083588,True,19,-1,0,10
PB004K20,4,236,AS,exp,48,←,left,←,0.5058524000050966,True,19,1,1,11
PB004K20,4,237,AS,exp,39,→,right,→,0.5633364999957848,True,18,1,0,11
PB004K20,4,238,AS,exp,41,↑,up,↑,0.6012507000123151,True,18,1,0,11
PB004K20,4,239,AS,exp,31,→,down,↓,0.9273574999970151,False,17,-1,1,12
PB004K20,4,240,AS,exp,40,←,left,←,1.5166886999941198,True,18,-1,0,12
PB004K20,4,241,AS,exp,32,→,right,→,0.5290069999900879,True,18,1,1,13
PB004K20,4,242,AS,exp,49,←,right,→,0.6489746000006562,False,17,-1,1,14
PB004K20,5,243,AS,intra_train,31,↓,down,↓,0.7707516999944346,True,27,-,-,-
PB004K20,5,244,AS,intra_train,25,→,right,→,0.6727272999996785,True,27,-,-,-
PB004K20,5,245,AS,intra_train,27,↓,down,↓,0.5505277000047499,True,27,-,-,-
PB004K20,5,246,AS,intra_train,43,↑,up,↑,0.9742525000037858,True,27,-,-,-
PB004K20,5,247,AS,intra_train,45,←,left,←,0.7904598000022816,True,27,-,-,-
PB004K20,5,248,AS,exp,37,↑,up,↑,0.6158446000044933,True,18,0,0,0
PB004K20,5,249,AS,exp,40,↓,down,↓,0.6666240999911679,True,18,1,0,0
PB004K20,5,250,AS,exp,36,←,right,→,0.9486196999932872,False,17,-1,1,1
PB004K20,5,251,AS,exp,48,↑,up,↑,0.5910546999948565,True,18,-1,0,1
PB004K20,5,252,AS,exp,36,←,left,←,0.5263236000027973,True,18,1,1,2
PB004K20,5,253,AS,exp,31,↓,down,↓,0.5664426000003004,True,17,1,0,2
PB004K20,5,254,AS,exp,32,←,left,←,0.566946300008567,True,17,1,0,2
PB004K20,5,255,AS,exp,39,↓,down,↓,0.5776791000098456,True,16,1,0,2
PB004K20,5,256,AS,exp,27,←,left,←,1.60739229999308,True,16,1,0,2
PB004K20,5,257,AS,exp,48,→,right,→,0.6255134000093676,True,15,1,0,2
PB004K20,5,258,AS,exp,38,↓,right,→,0.9233521999994991,False,15,-1,1,3
PB004K20,5,259,AS,exp,40,→,right,→,1.0154565999982879,True,16,-1,0,3
PB004K20,5,260,AS,exp,46,←,right,→,0.8665283000009367,False,16,-1,0,3
PB004K20,5,261,AS,exp,47,↑,up,↑,0.617425300006289,True,17,-1,0,3
PB004K20,5,262,AS,exp,43,→,down,↓,0.957019900000887,False,17,-1,0,3
PB004K20,5,263,AS,exp,48,←,down,↓,0.9796458999917377,False,18,-1,0,3
PB004K20,5,264,AS,exp,47,↑,right,→,0.8290942999883555,False,19,-1,0,3
PB004K20,5,265,AS,exp,25,→,right,→,0.5667763999954332,True,20,-1,0,3
PB004K20,5,266,AS,exp,40,↓,left,←,0.9060922999924514,False,20,-1,0,3
PB004K20,5,267,AS,exp,33,→,left,←,0.6679868999926839,False,21,-1,0,3
PB004K20,5,268,AS,exp,31,↑,up,↑,0.8302686999959406,True,22,-1,0,3
PB004K20,5,269,AS,exp,45,↓,right,→,0.9787367000099039,False,22,-1,0,3
PB004K20,5,270,AS,exp,46,→,left,←,1.4977851000003284,False,23,-1,0,3
PB004K20,5,271,AS,exp,26,↑,up,↑,0.7657779000001028,True,24,-1,0,3
PB004K20,5,272,AS,exp,39,↓,down,↓,0.5005520999984583,True,24,1,1,4
PB004K20,5,273,AS,exp,45,↑,up,↑,0.9089008000009926,True,23,1,0,4
PB004K20,5,274,AS,exp,26,↓,down,↓,0.5581182000023546,True,23,1,0,4
PB004K20,5,275,AS,exp,40,→,right,→,0.6932701000041561,True,22,1,0,4
PB004K20,5,276,AS,exp,28,↑,left,←,1.1119767999916803,False,22,-1,1,5
PB004K20,5,277,AS,exp,46,↓,right,→,0.9912291999935405,False,23,-1,0,5
PB004K20,5,278,AS,exp,43,→,right,→,0.5921373999881325,True,24,-1,0,5
PB004K20,5,279,AS,exp,46,↑,right,→,1.1455470000073547,False,24,-1,0,5
PB004K20,5,280,AS,exp,31,↓,right,→,1.081344700010959,False,25,-1,0,5
PB004K20,5,281,AS,exp,32,↑,up,↑,0.8405377000017324,True,26,-1,0,5
PB004K20,5,282,AS,exp,39,→,right,→,0.5670821999956388,True,26,1,1,6
PB004K20,5,283,AS,exp,43,←,right,→,0.7603797000047052,False,25,-1,1,7
PB004K20,5,284,AS,exp,44,→,right,→,0.40115449999575503,True,26,-1,0,7
PB004K20,5,285,AS,exp,29,←,left,←,0.6838719999941532,True,26,1,1,8
PB004K20,5,286,AS,exp,39,→,right,→,0.7211027000012109,True,25,1,0,8
PB004K20,5,287,AS,exp,49,←,left,←,0.7411471999948844,True,25,1,0,8
PB004K20,5,288,AS,exp,41,→,right,→,2.034322500010603,True,24,1,0,8
PB004K20,5,289,AS,exp,32,↑,up,↑,0.7049143000040203,True,24,1,0,8
PB004K20,5,290,AS,exp,37,↓,down,↓,0.944429900002433,True,23,1,0,8
PB004K20,5,291,AS,exp,41,→,right,→,0.7680464000004577,True,23,1,0,8
PB004K20,5,292,AS,exp,28,↓,down,↓,0.6537050000042655,True,22,1,0,8
PB004K20,5,293,AS,exp,33,↑,up,↑,0.7413519000110682,True,22,1,0,8
PB004K20,5,294,AS,exp,32,→,right,→,0.8145539999968605,True,21,1,0,8
PB004K20,5,295,AS,exp,49,↑,up,↑,0.9327457000035793,True,21,1,0,8
PB004K20,5,296,AS,exp,40,←,left,←,0.6224096000078134,True,20,1,0,8
PB004K20,5,297,AS,exp,27,→,right,→,0.7821621999901254,True,20,1,0,8
PB004K20,5,298,AS,exp,47,↓,right,→,0.8905453999905149,False,19,-1,1,9
PB004K20,5,299,AS,exp,49,↑,up,↑,0.6783943000045838,True,20,-1,0,9
PB004K20,5,300,AS,exp,30,→,right,→,0.5519946999993408,True,20,1,1,10
PB004K20,5,301,AS,exp,46,↑,up,↑,0.6380903999961447,True,19,1,0,10
PB004K20,5,302,AS,exp,40,↓,up,↑,0.8524143999966327,False,19,-1,1,11
PB004K20,5,303,AS,exp,32,→,right,→,0.8195428000035463,True,20,-1,0,11
PB004K20,5,304,AS,exp,29,↓,down,↓,0.9587061000056565,True,20,1,1,12
PB004K20,5,305,AS,exp,43,→,right,→,0.6341357999917818,True,19,1,0,12
PB004K20,5,306,AS,exp,33,↓,up,↑,1.1121063000027789,False,19,-1,1,13
PB004K20,5,307,AS,exp,47,→,right,→,0.5843318000115687,True,20,-1,0,13
PB004K20,5,308,AS,exp,34,←,right,→,0.912480200000573,False,20,-1,0,13
PB004K20,5,309,AS,exp,31,↑,up,↑,1.0752342999912798,True,21,-1,0,13
PB004K20,5,310,AS,exp,30,↓,down,↓,0.8899494000070263,True,21,1,1,14
PB004K20,6,311,PS,intra_train,30,←,left,←,0.7176465000084136,True,15,-,-,-
PB004K20,6,312,PS,intra_train,30,→,right,→,0.5212223999988055,True,15,-,-,-
PB004K20,6,313,PS,intra_train,29,↑,up,↑,0.723763300004066,True,15,-,-,-
PB004K20,6,314,PS,intra_train,46,←,left,←,0.718622399988817,True,15,-,-,-
PB004K20,6,315,PS,intra_train,40,↑,up,↑,0.9287238999968395,True,15,-,-,-
PB004K20,6,316,PS,exp,49,→,right,→,0.5979648999928031,True,10,0,0,0
PB004K20,6,317,PS,exp,33,↓,left,←,1.1271160000032978,False,10,-1,0,0
PB004K20,6,318,PS,exp,44,→,right,→,0.6666063000011491,True,11,-1,0,0
PB004K20,6,319,PS,exp,35,←,left,←,0.7103205999883357,True,11,1,1,1
PB004K20,6,320,PS,exp,36,→,left,←,0.9720772999862675,False,10,-1,1,2
PB004K20,6,321,PS,exp,45,↑,left,←,0.8161625000066124,False,11,-1,0,2
PB004K20,6,322,PS,exp,48,↓,down,↓,0.5223534999968251,True,12,-1,0,2
PB004K20,6,323,PS,exp,35,←,left,←,0.6422793999954592,True,12,1,1,3
PB004K20,6,324,PS,exp,32,→,right,→,0.49211979999381583,True,11,1,0,3
PB004K20,6,325,PS,exp,41,↓,down,↓,0.5699059999897145,True,11,1,0,3
PB004K20,6,326,PS,exp,32,←,left,←,0.6000376000010874,True,10,1,0,3
PB004K20,6,327,PS,exp,43,↑,up,↑,0.5556661999871721,True,10,1,0,3
PB004K20,6,328,PS,exp,41,→,right,→,0.6159260999993421,True,9,1,0,3
PB004K20,6,329,PS,exp,37,←,left,←,0.9689317000011215,True,9,1,0,3
PB004K20,6,330,PS,exp,29,↑,up,↑,0.6431574000016553,True,8,1,0,3
PB004K20,6,331,PS,exp,42,→,right,→,0.5536562999914167,True,8,1,0,3
PB004K20,6,332,PS,exp,48,↓,left,←,0.7353960999898845,False,7,-1,1,4
PB004K20,6,333,PS,exp,50,←,left,←,0.5905515999911586,True,8,-1,0,4
PB004K20,6,334,PS,exp,36,↓,left,←,0.668286200001603,False,8,-1,0,4
PB004K20,6,335,PS,exp,26,→,right,→,0.501935800013598,True,9,-1,0,4
PB004K20,6,336,PS,exp,34,↑,up,↑,0.5726469999935944,True,9,1,1,5
PB004K20,6,337,PS,exp,47,↓,down,↓,0.6092739000014262,True,8,1,0,5
PB004K20,6,338,PS,exp,35,→,right,→,0.7497707000002265,True,8,1,0,5
PB004K20,6,339,PS,exp,25,↑,left,←,0.7875681000004988,False,7,-1,1,6
PB004K20,6,340,PS,exp,41,→,up,↑,0.7000960000004852,False,8,-1,0,6
PB004K20,6,341,PS,exp,49,←,down,↓,0.6635623000038322,False,9,-1,0,6
PB004K20,6,342,PS,exp,42,↑,right,→,0.8209471000009216,False,10,-1,0,6
PB004K20,6,343,PS,exp,48,↓,down,↓,0.6320175000000745,True,11,-1,0,6
PB004K20,6,344,PS,exp,50,↑,up,↑,0.928494599997066,True,11,1,1,7
PB004K20,6,345,PS,exp,36,→,right,→,0.5296818999922834,True,10,1,0,7
PB004K20,6,346,PS,exp,41,↓,left,←,0.8779293000116013,False,10,-1,1,8
PB004K20,6,347,PS,exp,48,↑,right,→,0.7571395999984816,False,11,-1,0,8
PB004K20,6,348,PS,exp,34,→,right,→,0.6536589999886928,True,12,-1,0,8
PB004K20,6,349,PS,exp,26,↑,up,↑,0.7476636999926995,True,12,1,1,9
PB004K20,6,350,PS,exp,32,←,left,←,0.9509625000064261,True,11,1,0,9
PB004K20,6,351,PS,exp,31,↑,up,↑,0.792691399998148,True,11,1,0,9
PB004K20,6,352,PS,exp,44,→,right,→,0.505544400002691,True,10,1,0,9
PB004K20,6,353,PS,exp,33,↑,up,↑,0.5860384000116028,True,10,1,0,9
PB004K20,6,354,PS,exp,47,←,left,←,0.6055452000000514,True,9,1,0,9
PB004K20,6,355,PS,exp,44,↓,left,←,0.6102501999994274,False,9,-1,1,10
PB004K20,6,356,PS,exp,43,←,right,→,0.6262145999935456,False,10,-1,0,10
PB004K20,6,357,PS,exp,41,→,right,→,0.6210776999942027,True,11,-1,0,10
PB004K20,6,358,PS,exp,28,↓,down,↓,0.7455114999902435,True,11,1,1,11
PB004K20,6,359,PS,exp,27,↑,right,→,0.5705515000008745,False,10,-1,1,12
PB004K20,6,360,PS,exp,35,→,right,→,0.4806981000001542,True,11,-1,0,12
PB004K20,6,361,PS,exp,26,←,left,←,1.176176699998905,True,11,1,1,13
PB004K20,6,362,PS,exp,32,↑,up,↑,0.592502900006366,True,10,1,0,13
PB004K20,6,363,PS,exp,31,←,right,→,0.5382154999970226,False,10,-1,1,14
PB004K20,7,364,PS,intra_train,37,→,right,→,0.4690155999996932,True,15,-,-,-
PB004K20,7,365,PS,intra_train,42,←,left,←,0.8676320999948075,True,15,-,-,-
PB004K20,7,366,PS,intra_train,28,↑,right,→,0.9196796999895014,False,15,-,-,-
PB004K20,7,367,PS,intra_train,27,←,left,←,0.6569829999934882,True,15,-,-,-
PB004K20,7,368,PS,intra_train,28,↑,up,↑,0.7528707000019494,True,15,-,-,-
PB004K20,7,369,PS,exp,47,→,right,→,0.4969903000019258,True,10,0,0,0
PB004K20,7,370,PS,exp,29,↑,left,←,0.6669145000050776,False,10,-1,0,0
PB004K20,7,371,PS,exp,46,←,up,↑,0.7272964000003412,False,11,-1,0,0
PB004K20,7,372,PS,exp,41,↑,up,↑,0.6150046999973711,True,12,-1,0,0
PB004K20,7,373,PS,exp,28,→,right,→,0.4498888999951305,True,12,1,1,1
PB004K20,7,374,PS,exp,50,↑,up,↑,0.5927754000003915,True,11,1,0,1
PB004K20,7,375,PS,exp,28,→,right,→,0.5301481000060448,True,11,1,0,1
PB004K20,7,376,PS,exp,48,←,left,←,0.6911043000000063,True,10,1,0,1
PB004K20,7,377,PS,exp,50,↑,up,↑,0.7299596000084421,True,10,1,0,1
PB004K20,7,378,PS,exp,46,↓,left,←,0.6370447000081185,False,9,-1,1,2
PB004K20,7,379,PS,exp,47,→,right,→,0.6772539999947185,True,10,-1,0,2
PB004K20,7,380,PS,exp,39,←,left,←,0.6030218999949284,True,10,1,1,3
PB004K20,7,381,PS,exp,49,↑,left,←,0.8133379999926547,False,9,-1,1,4
PB004K20,7,382,PS,exp,44,→,right,→,0.6438130000024103,True,10,-1,0,4
PB004K20,7,383,PS,exp,49,←,left,←,0.6344010999891907,True,10,1,1,5
PB004K20,7,384,PS,exp,49,↑,left,←,0.7353772999922512,False,9,-1,1,6
PB004K20,7,385,PS,exp,25,←,left,←,0.6718290999997407,True,10,-1,0,6
PB004K20,7,386,PS,exp,43,↓,down,↓,0.6078577000007499,True,10,1,1,7
PB004K20,7,387,PS,exp,42,→,up,↑,0.5845983999897726,False,9,-1,1,8
PB004K20,7,388,PS,exp,27,↑,left,←,0.7823777000012342,False,10,-1,0,8
PB004K20,7,389,PS,exp,34,↓,left,←,0.6823099000030197,False,11,-1,0,8
PB004K20,7,390,PS,exp,37,←,left,←,0.6567014999891398,True,12,-1,0,8
PB004K20,7,391,PS,exp,48,↑,up,↑,0.7222133000032045,True,12,1,1,9
PB004K20,7,392,PS,exp,38,←,left,←,0.6832254999899305,True,11,1,0,9
PB004K20,7,393,PS,exp,26,→,right,→,0.6823811000067508,True,11,1,0,9
PB004K20,7,394,PS,exp,35,←,left,←,0.8724092000047676,True,10,1,0,9
PB004K20,7,395,PS,exp,47,→,left,←,0.7206132999999681,False,10,-1,1,10
PB004K20,7,396,PS,exp,38,↓,down,↓,0.8622364000038942,True,11,-1,0,10
PB004K20,7,397,PS,exp,45,←,left,←,0.7764192999893567,True,11,1,1,11
PB004K20,7,398,PS,exp,41,↓,left,←,0.8717161000095075,False,10,-1,1,12
PB004K20,7,399,PS,exp,44,↑,up,↑,0.8280238000006648,True,11,-1,0,12
PB004K20,7,400,PS,exp,38,↓,down,↓,0.8413689000008162,True,11,1,1,13
PB004K20,7,401,PS,exp,47,→,right,→,1.308482799999183,True,10,1,0,13
PB004K20,7,402,PS,exp,39,↓,left,←,0.7603502000129083,False,10,-1,1,14
PB004K20,8,403,AS,intra_train,38,↑,up,↑,0.7516409999952884,True,27,-,-,-
PB004K20,8,404,AS,intra_train,44,←,left,←,0.8978452000010293,True,27,-,-,-
PB004K20,8,405,AS,intra_train,30,↑,up,↑,0.6320027000037953,True,27,-,-,-
PB004K20,8,406,AS,intra_train,34,→,right,→,0.844277800002601,True,27,-,-,-
PB004K20,8,407,AS,intra_train,38,←,left,←,0.8980499000026612,True,27,-,-,-
PB004K20,8,408,AS,exp,37,→,right,→,0.5711353000078816,True,18,0,0,0
PB004K20,8,409,AS,exp,50,←,left,←,0.7426245000096969,True,18,1,0,0
PB004K20,8,410,AS,exp,44,↑,right,→,0.724675900011789,False,17,-1,1,1
PB004K20,8,411,AS,exp,48,→,right,→,0.6194307999976445,True,18,-1,0,1
PB004K20,8,412,AS,exp,38,←,right,→,0.7990866000036476,False,18,-1,0,1
PB004K20,8,413,AS,exp,29,→,right,→,0.6712980999873253,True,19,-1,0,1
PB004K20,8,414,AS,exp,28,←,left,←,0.6993076000071596,True,19,1,1,2
PB004K20,8,415,AS,exp,36,↓,down,↓,0.7900977000099374,True,18,1,0,2
PB004K20,8,416,AS,exp,38,↑,up,↑,0.7228557000053115,True,18,1,0,2
PB004K20,8,417,AS,exp,39,↓,down,↓,0.6772484999964945,True,17,1,0,2
PB004K20,8,418,AS,exp,26,→,right,→,0.5498002999956952,True,17,1,0,2
PB004K20,8,419,AS,exp,29,↑,up,↑,0.717052899999544,True,16,1,0,2
PB004K20,8,420,AS,exp,44,→,right,→,0.5599437999917427,True,16,1,0,2
PB004K20,8,421,AS,exp,32,↓,up,↑,1.0462489999918034,False,15,-1,1,3
PB004K20,8,422,AS,exp,50,←,right,→,0.5315447000029963,False,16,-1,0,3
PB004K20,8,423,AS,exp,47,↓,left,←,0.9412622000090778,False,17,-1,0,3
PB004K20,8,424,AS,exp,42,←,left,←,0.9967574999900535,True,18,-1,0,3
PB004K20,8,425,AS,exp,39,↓,down,↓,0.6019499000103679,True,18,1,1,4
PB004K20,8,426,AS,exp,46,↑,up,↑,0.6484133999911137,True,17,1,0,4
PB004K20,8,427,AS,exp,48,←,left,←,0.578778200011584,True,17,1,0,4
PB004K20,8,428,AS,exp,46,→,right,→,0.5272888000035891,True,16,1,0,4
PB004K20,8,429,AS,exp,37,↓,down,↓,0.6905357000068761,True,16,1,0,4
PB004K20,8,430,AS,exp,47,↑,up,↑,0.5277461000077892,True,15,1,0,4
PB004K20,8,431,AS,exp,34,↓,down,↓,1.1010027000011178,True,15,1,0,4
PB004K20,8,432,AS,exp,46,↑,up,↑,0.8480263999954332,True,14,1,0,4
PB004K20,8,433,AS,exp,33,←,left,←,0.6777537000016309,True,14,1,0,4
PB004K20,8,434,AS,exp,29,↑,up,↑,0.813688700000057,True,13,1,0,4
PB004K20,8,435,AS,exp,38,←,left,←,0.6608305999980075,True,13,1,0,4
PB004K20,8,436,AS,exp,49,↓,down,↓,0.613434499988216,True,12,1,0,4
PB004K20,8,437,AS,exp,28,↑,up,↑,0.5855382000008831,True,12,1,0,4
PB004K20,8,438,AS,exp,38,→,right,→,0.61721129999205,True,11,1,0,4
PB004K20,8,439,AS,exp,35,↑,up,↑,0.658576699992409,True,11,1,0,4
PB004K20,8,440,AS,exp,28,→,right,→,0.5985447999992175,True,10,1,0,4
PB004K20,8,441,AS,exp,34,←,left,←,0.49951799999689683,True,10,1,0,4
PB004K20,8,442,AS,exp,42,↓,down,↓,0.6258844999974826,True,9,1,0,4
PB004K20,8,443,AS,exp,27,←,right,→,0.9004303999972763,False,9,-1,1,5
PB004K20,8,444,AS,exp,34,→,left,←,0.7019522000045981,False,10,-1,0,5
PB004K20,8,445,AS,exp,35,↑,right,→,0.807644500004244,False,11,-1,0,5
PB004K20,8,446,AS,exp,30,←,left,←,0.7578834000014467,True,12,-1,0,5
PB004K20,8,447,AS,exp,34,→,right,→,0.7115686000033747,True,12,1,1,6
PB004K20,8,448,AS,exp,36,↑,down,↓,0.9918863000057172,False,11,-1,1,7
PB004K20,8,449,AS,exp,42,→,no_key,no_letter,-1.0,False,12,-1,0,7
PB004K20,8,450,AS,exp,49,↓,right,→,0.7613096999994013,False,13,-1,0,7
PB004K20,8,451,AS,exp,26,↑,right,→,0.8233911000133958,False,14,-1,0,7
PB004K20,8,452,AS,exp,35,←,right,→,0.8005782999971416,False,15,-1,0,7
PB004K20,8,453,AS,exp,49,↑,left,←,0.7321835000038845,False,16,-1,0,7
PB004K20,8,454,AS,exp,44,↓,down,↓,0.566679200012004,True,17,-1,0,7
PB004K20,8,455,AS,exp,45,↑,up,↑,0.9178856999933487,True,17,1,1,8
PB004K20,8,456,AS,exp,42,←,right,→,0.6618616000050679,False,16,-1,1,9
PB004K20,8,457,AS,exp,34,↓,up,↑,0.8779639999993378,False,17,-1,0,9
PB004K20,8,458,AS,exp,39,←,left,←,0.757543200001237,True,18,-1,0,9
PB004K20,8,459,AS,exp,47,↑,up,↑,0.7522112000006018,True,18,1,1,10
PB004K20,8,460,AS,exp,36,→,right,→,0.5923340000008466,True,17,1,0,10
PB004K20,8,461,AS,exp,27,↑,up,↑,0.9352141999988817,True,17,1,0,10
PB004K20,8,462,AS,exp,28,←,right,→,0.7176866999943741,False,16,-1,1,11
PB004K20,8,463,AS,exp,30,→,right,→,0.5560696999891661,True,17,-1,0,11
PB004K20,8,464,AS,exp,42,↓,down,↓,0.598754699996789,True,17,1,1,12
PB004K20,8,465,AS,exp,42,→,left,←,0.8971902999910526,False,16,-1,1,13
PB004K20,8,466,AS,exp,46,↓,down,↓,0.6356599999999162,True,17,-1,0,13
PB004K20,8,467,AS,exp,27,↑,up,↑,0.618230299995048,True,17,1,1,14
