PART_ID,Block_no,Trial_no,Block_type,Trial_type,CSI,Stim_letter,Key_pressed,letter_choose,Rt,Corr,Stimulus Time,Level,Reversal,Revs_count
PB023K27,1,1,PS,train,44,→,no_key,no_letter,-1.0,False,30,-,-,-
PB023K27,1,2,PS,train,29,←,left,←,1.1045028000080492,True,30,-,-,-
PB023K27,1,3,PS,train,50,→,right,→,1.1075280999939423,True,30,-,-,-
PB023K27,1,4,PS,train,36,↑,up,↑,0.8432205000135582,True,30,-,-,-
PB023K27,1,5,PS,train,47,←,left,←,0.772343099990394,True,30,-,-,-
PB023K27,1,6,PS,train,35,↓,down,↓,0.7583584999956656,True,30,-,-,-
PB023K27,1,7,PS,train,43,←,left,←,0.6005440000153612,True,30,-,-,-
PB023K27,1,8,PS,train,38,↓,down,↓,0.8927828000159934,True,30,-,-,-
PB023K27,1,9,PS,train,28,→,right,→,0.8559382999956142,True,30,-,-,-
PB023K27,1,10,PS,train,48,←,left,←,0.7228543999954127,True,30,-,-,-
PB023K27,2,11,AS,train,41,↓,down,↓,0.8003119000059087,True,45,-,-,-
PB023K27,2,12,AS,train,28,→,right,→,0.7671692000003532,True,45,-,-,-
PB023K27,2,13,AS,train,42,↑,up,↑,0.8838943000009749,True,45,-,-,-
PB023K27,2,14,AS,train,43,→,right,→,0.8171988000103738,True,45,-,-,-
PB023K27,2,15,AS,train,33,←,left,←,1.0098410999926273,True,45,-,-,-
PB023K27,2,16,AS,train,28,↓,down,↓,0.8503287000057753,True,45,-,-,-
PB023K27,2,17,AS,train,42,→,right,→,0.9621684000012465,True,45,-,-,-
PB023K27,2,18,AS,train,37,↑,up,↑,0.7504043999942951,True,45,-,-,-
PB023K27,2,19,AS,train,35,→,right,→,0.684831699996721,True,45,-,-,-
PB023K27,2,20,AS,train,32,↓,down,↓,1.107878000009805,True,45,-,-,-
PB023K27,-,21,PS,adaptive,50,←,left,←,0.7098598000011407,True,10,0,0,0
PB023K27,-,22,PS,adaptive,40,↓,down,↓,1.0042995999974664,True,10,1,0,0
PB023K27,-,23,PS,adaptive,48,↑,up,↑,0.9094207000161987,True,9,1,0,0
PB023K27,-,24,PS,adaptive,30,←,left,←,0.6561982000130229,True,9,1,0,0
PB023K27,-,25,PS,adaptive,38,↑,up,↑,0.6690204000042286,True,8,1,0,0
PB023K27,-,26,PS,adaptive,39,←,left,←,0.8718794999876991,True,8,1,0,0
PB023K27,-,27,PS,adaptive,36,↓,down,↓,0.8049690000189003,True,7,1,0,0
PB023K27,-,28,PS,adaptive,50,←,left,←,0.6153130999882706,True,7,1,0,0
PB023K27,-,29,PS,adaptive,46,→,right,→,0.6344367999990936,True,6,1,0,0
PB023K27,-,30,PS,adaptive,40,←,left,←,0.6589803999813739,True,6,1,0,0
PB023K27,-,31,PS,adaptive,45,→,right,→,0.8035974000231363,True,5,1,0,0
PB023K27,-,32,PS,adaptive,26,↑,up,↑,0.8389353000093251,True,5,1,0,0
PB023K27,-,33,PS,adaptive,44,←,right,→,0.6637321000162046,False,4,-1,1,1
PB023K27,-,34,PS,adaptive,43,↓,left,←,0.8994667999795638,False,5,-1,0,1
PB023K27,-,35,PS,adaptive,27,←,left,←,0.8449352000025101,True,6,-1,0,1
PB023K27,-,36,PS,adaptive,36,↑,up,↑,0.8119578000041656,True,6,1,1,2
PB023K27,-,37,PS,adaptive,40,←,left,←,1.0166174000187311,True,5,1,0,2
PB023K27,-,38,PS,adaptive,29,↓,right,→,0.6802265000005718,False,5,-1,1,3
PB023K27,-,39,PS,adaptive,40,←,up,↑,0.8499866000202019,False,6,-1,0,3
PB023K27,-,40,PS,adaptive,49,→,right,→,0.69561419999809,True,7,-1,0,3
PB023K27,-,41,PS,adaptive,37,↓,down,↓,0.7886127000092529,True,7,1,1,4
PB023K27,-,42,AS,adaptive,31,←,left,←,0.6740386000019498,True,20,0,0,0
PB023K27,-,43,AS,adaptive,36,→,right,→,0.5572858999948949,True,20,1,0,0
PB023K27,-,44,AS,adaptive,31,←,left,←,0.5066095999791287,True,19,1,0,0
PB023K27,-,45,AS,adaptive,41,↑,up,↑,0.6489079000020865,True,19,1,0,0
PB023K27,-,46,AS,adaptive,34,↓,down,↓,0.7790535000094678,True,18,1,0,0
PB023K27,-,47,AS,adaptive,38,↑,up,↑,0.763034500007052,True,18,1,0,0
PB023K27,-,48,AS,adaptive,26,←,right,→,0.7244619999837596,False,17,-1,1,1
PB023K27,-,49,AS,adaptive,44,↑,up,↑,0.5890367999963928,True,18,-1,0,1
PB023K27,-,50,AS,adaptive,30,↓,down,↓,0.9714130999927875,True,18,1,1,2
PB023K27,-,51,AS,adaptive,44,←,left,←,0.6985447999904864,True,17,1,0,2
PB023K27,-,52,AS,adaptive,47,↓,down,↓,0.8703020999964792,True,17,1,0,2
PB023K27,-,53,AS,adaptive,45,↑,up,↑,0.6293054000125267,True,16,1,0,2
PB023K27,-,54,AS,adaptive,30,→,right,→,0.6544886000046972,True,16,1,0,2
PB023K27,-,55,AS,adaptive,36,↑,up,↑,0.6490740999870468,True,15,1,0,2
PB023K27,-,56,AS,adaptive,40,→,right,→,0.6627893000259064,True,15,1,0,2
PB023K27,-,57,AS,adaptive,47,←,right,→,1.0748774000094272,False,14,-1,1,3
PB023K27,-,58,AS,adaptive,39,↓,down,↓,0.8558371000108309,True,15,-1,0,3
PB023K27,-,59,AS,adaptive,33,←,left,←,0.7245460000121966,True,15,1,1,4
PB023K27,1,60,PS,intra_train,28,↓,down,↓,1.4348051999986637,True,9,-,-,-
PB023K27,1,61,PS,intra_train,32,←,left,←,0.6554327999765519,True,9,-,-,-
PB023K27,1,62,PS,intra_train,29,↓,down,↓,0.6532318999816198,True,9,-,-,-
PB023K27,1,63,PS,intra_train,32,↑,up,↑,0.6285017000045627,True,9,-,-,-
PB023K27,1,64,PS,intra_train,34,←,left,←,0.5049264999979641,True,9,-,-,-
PB023K27,1,65,PS,exp,48,↑,up,↑,0.7320716000103857,True,6,0,0,0
PB023K27,1,66,PS,exp,50,←,left,←,0.7003856000083033,True,6,1,0,0
PB023K27,1,67,PS,exp,38,→,left,←,0.6797207999916282,False,5,-1,1,1
PB023K27,1,68,PS,exp,28,↑,up,↑,0.6934580000233836,True,6,-1,0,1
PB023K27,1,69,PS,exp,38,→,right,→,0.6062153000093531,True,6,1,1,2
PB023K27,1,70,PS,exp,33,↓,up,↑,0.829324499994982,False,5,-1,1,3
PB023K27,1,71,PS,exp,30,↑,left,←,0.9755692999751773,False,6,-1,0,3
PB023K27,1,72,PS,exp,30,↓,left,←,0.7626263999845833,False,7,-1,0,3
PB023K27,1,73,PS,exp,42,←,left,←,0.666482000000542,True,8,-1,0,3
PB023K27,1,74,PS,exp,33,↓,left,←,0.5757039000163786,False,8,-1,0,3
PB023K27,1,75,PS,exp,28,→,right,→,0.7731982999830507,True,9,-1,0,3
PB023K27,1,76,PS,exp,25,↓,up,↑,0.7468894999765325,False,9,-1,0,3
PB023K27,1,77,PS,exp,28,→,right,→,0.6628092000028118,True,10,-1,0,3
PB023K27,1,78,PS,exp,46,↓,down,↓,0.8071187000023201,True,10,1,1,4
PB023K27,1,79,PS,exp,49,←,left,←,0.596733900019899,True,9,1,0,4
PB023K27,1,80,PS,exp,33,→,right,→,0.5527694000047632,True,9,1,0,4
PB023K27,1,81,PS,exp,31,↓,down,↓,0.7332754000090063,True,8,1,0,4
PB023K27,1,82,PS,exp,48,→,right,→,0.6694669999997132,True,8,1,0,4
PB023K27,1,83,PS,exp,39,←,left,←,0.4414325999969151,True,7,1,0,4
PB023K27,1,84,PS,exp,25,→,left,←,0.7091420000069775,False,7,-1,1,5
PB023K27,1,85,PS,exp,46,↓,left,←,0.6327600000076927,False,8,-1,0,5
PB023K27,1,86,PS,exp,27,←,left,←,0.5499068000062834,True,9,-1,0,5
PB023K27,1,87,PS,exp,48,→,right,→,0.6499015000008512,True,9,1,1,6
PB023K27,1,88,PS,exp,39,↓,left,←,0.6691973999841139,False,8,-1,1,7
PB023K27,1,89,PS,exp,39,↑,left,←,0.979827800008934,False,9,-1,0,7
PB023K27,1,90,PS,exp,49,→,left,←,0.6728089999814983,False,10,-1,0,7
PB023K27,1,91,PS,exp,49,↑,up,↑,0.6635921999986749,True,11,-1,0,7
PB023K27,1,92,PS,exp,47,↓,down,↓,0.7160339999827556,True,11,1,1,8
PB023K27,1,93,PS,exp,30,↑,up,↑,0.7373988000035752,True,10,1,0,8
PB023K27,1,94,PS,exp,30,→,right,→,0.6099055999948177,True,10,1,0,8
PB023K27,1,95,PS,exp,48,↓,up,↑,0.7396407000196632,False,9,-1,1,9
PB023K27,1,96,PS,exp,32,←,left,←,0.45600310000008903,True,10,-1,0,9
PB023K27,1,97,PS,exp,31,→,right,→,0.49564920002012514,True,10,1,1,10
PB023K27,1,98,PS,exp,33,↓,down,↓,0.7150677999889012,True,9,1,0,10
PB023K27,1,99,PS,exp,31,→,right,→,0.6339462999894749,True,9,1,0,10
PB023K27,1,100,PS,exp,47,↓,right,→,1.3349115000164602,False,8,-1,1,11
PB023K27,1,101,PS,exp,34,←,left,←,0.6814845000044443,True,9,-1,0,11
PB023K27,1,102,PS,exp,32,↑,up,↑,0.6004730999993626,True,9,1,1,12
PB023K27,1,103,PS,exp,31,→,right,→,0.6528243999928236,True,8,1,0,12
PB023K27,1,104,PS,exp,45,←,left,←,0.3747958000167273,True,8,1,0,12
PB023K27,1,105,PS,exp,26,↓,up,↑,0.6830114999902435,False,7,-1,1,13
PB023K27,1,106,PS,exp,40,←,left,←,0.5083045999926981,True,8,-1,0,13
PB023K27,1,107,PS,exp,49,↓,up,↑,0.7603055000072345,False,8,-1,0,13
PB023K27,1,108,PS,exp,33,←,left,←,0.5310186999849975,True,9,-1,0,13
PB023K27,1,109,PS,exp,33,↑,up,↑,0.5055965000065044,True,9,1,1,14
PB023K27,2,110,AS,intra_train,26,↓,down,↓,0.9055349999980535,True,21,-,-,-
PB023K27,2,111,AS,intra_train,41,→,right,→,0.7904759000230115,True,21,-,-,-
PB023K27,2,112,AS,intra_train,42,↓,down,↓,0.7258841000148095,True,21,-,-,-
PB023K27,2,113,AS,intra_train,44,→,right,→,0.6606482999923173,True,21,-,-,-
PB023K27,2,114,AS,intra_train,44,←,left,←,0.590383800008567,True,21,-,-,-
PB023K27,2,115,AS,exp,40,↓,left,←,1.348242099978961,False,14,-1,0,0
PB023K27,2,116,AS,exp,31,↑,up,↑,0.5441047000058461,True,15,-1,0,0
PB023K27,2,117,AS,exp,28,→,right,→,0.5923144000116736,True,15,1,1,1
PB023K27,2,118,AS,exp,27,←,right,→,0.7818055000097957,False,14,-1,1,2
PB023K27,2,119,AS,exp,39,→,right,→,0.5363367999962065,True,15,-1,0,2
PB023K27,2,120,AS,exp,45,←,left,←,0.5540388000081293,True,15,1,1,3
PB023K27,2,121,AS,exp,49,↑,up,↑,0.5548685000103433,True,14,1,0,3
PB023K27,2,122,AS,exp,33,↓,up,↑,0.7074950000096578,False,14,-1,1,4
PB023K27,2,123,AS,exp,46,←,left,←,0.6187976000073832,True,15,-1,0,4
PB023K27,2,124,AS,exp,29,↓,down,↓,0.7790619000152219,True,15,1,1,5
PB023K27,2,125,AS,exp,50,↑,down,↓,0.9162315999856219,False,14,-1,1,6
PB023K27,2,126,AS,exp,29,↓,down,↓,0.8498106999904849,True,15,-1,0,6
PB023K27,2,127,AS,exp,46,↑,down,↓,0.7048604000010528,False,15,-1,0,6
PB023K27,2,128,AS,exp,33,←,left,←,0.5668676999921445,True,16,-1,0,6
PB023K27,2,129,AS,exp,28,↑,up,↑,0.7216743000026327,True,16,1,1,7
PB023K27,2,130,AS,exp,43,↓,down,↓,0.9130328000173904,True,15,1,0,7
PB023K27,2,131,AS,exp,37,←,left,←,0.5467889999854378,True,15,1,0,7
PB023K27,2,132,AS,exp,34,→,right,→,0.6705256999994162,True,14,1,0,7
PB023K27,2,133,AS,exp,41,←,left,←,0.9156537000089884,True,14,1,0,7
PB023K27,2,134,AS,exp,35,→,left,←,1.015158700000029,False,13,-1,1,8
PB023K27,2,135,AS,exp,34,↓,up,↑,0.8989063999906648,False,14,-1,0,8
PB023K27,2,136,AS,exp,42,→,right,→,0.8857935999985784,True,15,-1,0,8
PB023K27,2,137,AS,exp,35,↑,up,↑,0.686357800004771,True,15,1,1,9
PB023K27,2,138,AS,exp,48,→,right,→,0.6895052999898326,True,14,1,0,9
PB023K27,2,139,AS,exp,27,↓,down,↓,0.7508565999742132,True,14,1,0,9
PB023K27,2,140,AS,exp,37,←,left,←,0.6240587000211235,True,13,1,0,9
PB023K27,2,141,AS,exp,27,↓,down,↓,0.7877611000149045,True,13,1,0,9
PB023K27,2,142,AS,exp,40,↑,down,↓,0.6848034999857191,False,12,-1,1,10
PB023K27,2,143,AS,exp,35,→,right,→,0.5802274999732617,True,13,-1,0,10
PB023K27,2,144,AS,exp,47,↑,up,↑,0.6855273999972269,True,13,1,1,11
PB023K27,2,145,AS,exp,43,↓,down,↓,0.7190198999887798,True,12,1,0,11
PB023K27,2,146,AS,exp,48,↑,down,↓,0.7378997000050731,False,12,-1,1,12
PB023K27,2,147,AS,exp,30,↓,up,↑,0.9297516000224277,False,13,-1,0,12
PB023K27,2,148,AS,exp,44,→,right,→,0.6197824000264518,True,14,-1,0,12
PB023K27,2,149,AS,exp,44,←,left,←,0.6292688999965321,True,14,1,1,13
PB023K27,2,150,AS,exp,28,↓,down,↓,0.8425881000002846,True,13,1,0,13
PB023K27,2,151,AS,exp,32,→,right,→,1.1097616000042763,True,13,1,0,13
PB023K27,2,152,AS,exp,37,←,no_key,no_letter,-1.0,False,12,-1,1,14
PB023K27,3,153,AS,intra_train,32,↑,up,↑,0.6216244000243023,True,21,-,-,-
PB023K27,3,154,AS,intra_train,34,→,right,→,0.6764169000089169,True,21,-,-,-
PB023K27,3,155,AS,intra_train,42,↓,down,↓,0.8784793000086211,True,21,-,-,-
PB023K27,3,156,AS,intra_train,49,↑,up,↑,0.6219541000027675,True,21,-,-,-
PB023K27,3,157,AS,intra_train,32,↓,up,↑,0.9829190000018571,False,21,-,-,-
PB023K27,3,158,AS,exp,33,→,right,→,0.6251521999947727,True,14,0,0,0
PB023K27,3,159,AS,exp,49,←,left,←,0.6573180999839678,True,14,1,0,0
PB023K27,3,160,AS,exp,29,→,right,→,0.7107370999874547,True,13,1,0,0
PB023K27,3,161,AS,exp,41,↓,down,↓,0.7844454000005499,True,13,1,0,0
PB023K27,3,162,AS,exp,31,→,right,→,0.8066541999869514,True,12,1,0,0
PB023K27,3,163,AS,exp,46,↑,up,↑,0.6725288000016008,True,12,1,0,0
PB023K27,3,164,AS,exp,40,←,left,←,0.6697544000053313,True,11,1,0,0
PB023K27,3,165,AS,exp,30,↑,up,↑,0.6238188999996055,True,11,1,0,0
PB023K27,3,166,AS,exp,37,→,right,→,0.8054244999948423,True,10,1,0,0
PB023K27,3,167,AS,exp,25,↓,down,↓,0.7015200000023469,True,10,1,0,0
PB023K27,3,168,AS,exp,46,↑,up,↑,0.5489293999853544,True,9,1,0,0
PB023K27,3,169,AS,exp,37,↓,up,↑,0.7615441000089049,False,9,-1,1,1
PB023K27,3,170,AS,exp,33,←,left,←,0.5648247000062838,True,10,-1,0,1
PB023K27,3,171,AS,exp,46,↓,down,↓,0.9173896000138484,True,10,1,1,2
PB023K27,3,172,AS,exp,31,↑,down,↓,1.21575160001521,False,9,-1,1,3
PB023K27,3,173,AS,exp,35,←,left,←,0.4991603000089526,True,10,-1,0,3
PB023K27,3,174,AS,exp,27,→,left,←,0.7947451999934856,False,10,-1,0,3
PB023K27,3,175,AS,exp,31,↑,down,↓,0.9887409000075422,False,11,-1,0,3
PB023K27,3,176,AS,exp,47,↓,down,↓,0.6947160999989137,True,12,-1,0,3
PB023K27,3,177,AS,exp,28,←,right,→,0.7156801999954041,False,12,-1,0,3
PB023K27,3,178,AS,exp,40,↑,up,↑,0.5297538000158966,True,13,-1,0,3
PB023K27,3,179,AS,exp,42,→,left,←,0.46985809999750927,False,13,-1,0,3
PB023K27,3,180,AS,exp,36,←,left,←,0.48989260001690127,True,14,-1,0,3
PB023K27,3,181,AS,exp,29,↑,up,↑,0.5225419999915175,True,14,1,1,4
PB023K27,3,182,AS,exp,42,←,left,←,0.5753697000036482,True,13,1,0,4
PB023K27,3,183,AS,exp,46,↓,down,↓,1.0507033999892883,True,13,1,0,4
PB023K27,3,184,AS,exp,28,←,left,←,0.7121991000021808,True,12,1,0,4
PB023K27,3,185,AS,exp,50,↑,up,↑,0.5587791000143625,True,12,1,0,4
PB023K27,3,186,AS,exp,45,←,left,←,0.4942457999859471,True,11,1,0,4
PB023K27,3,187,AS,exp,49,↓,down,↓,0.7500320000108331,True,11,1,0,4
PB023K27,3,188,AS,exp,33,→,left,←,0.5687663999851793,False,10,-1,1,5
PB023K27,3,189,AS,exp,38,↑,up,↑,0.706401100003859,True,11,-1,0,5
PB023K27,3,190,AS,exp,41,↓,down,↓,0.7042080999817699,True,11,1,1,6
PB023K27,3,191,AS,exp,45,↑,up,↑,0.5464063999825157,True,10,1,0,6
PB023K27,3,192,AS,exp,39,←,left,←,0.6852117000089493,True,10,1,0,6
PB023K27,3,193,AS,exp,36,↓,left,←,1.3531895999913104,False,9,-1,1,7
PB023K27,3,194,AS,exp,27,←,left,←,0.4871184999938123,True,10,-1,0,7
PB023K27,3,195,AS,exp,25,→,right,→,0.8119556000165176,True,10,1,1,8
PB023K27,3,196,AS,exp,30,↓,down,↓,0.7284921999962535,True,9,1,0,8
PB023K27,3,197,AS,exp,34,→,right,→,0.770173299999442,True,9,1,0,8
PB023K27,3,198,AS,exp,33,↑,up,↑,0.6580418999947142,True,8,1,0,8
PB023K27,3,199,AS,exp,38,↓,down,↓,0.7375638000085019,True,8,1,0,8
PB023K27,3,200,AS,exp,39,→,no_key,no_letter,-1.0,False,7,-1,1,9
PB023K27,3,201,AS,exp,29,↑,up,↑,0.6023323999834247,True,8,-1,0,9
PB023K27,3,202,AS,exp,43,←,left,←,0.5502849000040442,True,8,1,1,10
PB023K27,3,203,AS,exp,32,↓,down,↓,0.7093331999785732,True,7,1,0,10
PB023K27,3,204,AS,exp,43,↑,up,↑,0.4330354999983683,True,7,1,0,10
PB023K27,3,205,AS,exp,44,→,right,→,0.5598529000126291,True,6,1,0,10
PB023K27,3,206,AS,exp,40,↓,down,↓,0.6634497999912128,True,6,1,0,10
PB023K27,3,207,AS,exp,45,←,right,→,0.7038762999873143,False,5,-1,1,11
PB023K27,3,208,AS,exp,29,↑,down,↓,0.8916695000079926,False,6,-1,0,11
PB023K27,3,209,AS,exp,29,↓,down,↓,0.6349346999777481,True,7,-1,0,11
PB023K27,3,210,AS,exp,40,→,down,↓,0.6966469000035431,False,7,-1,0,11
PB023K27,3,211,AS,exp,29,↓,down,↓,0.6285201999999117,True,8,-1,0,11
PB023K27,3,212,AS,exp,45,↑,down,↓,0.6231147000216879,False,8,-1,0,11
PB023K27,3,213,AS,exp,36,→,right,→,0.6608110000088345,True,9,-1,0,11
PB023K27,3,214,AS,exp,31,↑,up,↑,0.7050160000217147,True,9,1,1,12
PB023K27,3,215,AS,exp,31,←,right,→,0.6599172000132967,False,8,-1,1,13
PB023K27,3,216,AS,exp,30,→,right,→,0.6213687999988906,True,9,-1,0,13
PB023K27,3,217,AS,exp,31,↑,down,↓,0.6785060999973211,False,9,-1,0,13
PB023K27,3,218,AS,exp,32,→,right,→,0.594864000013331,True,10,-1,0,13
PB023K27,3,219,AS,exp,34,↓,down,↓,0.6277030000055674,True,10,1,1,14
PB023K27,4,220,PS,intra_train,40,↑,up,↑,0.7685241999861319,True,9,-,-,-
PB023K27,4,221,PS,intra_train,35,↓,down,↓,0.7005422000074759,True,9,-,-,-
PB023K27,4,222,PS,intra_train,35,↑,up,↑,0.7645648999896366,True,9,-,-,-
PB023K27,4,223,PS,intra_train,44,→,left,←,0.6080539999820758,False,9,-,-,-
PB023K27,4,224,PS,intra_train,27,↓,right,→,0.6955747999891173,False,9,-,-,-
PB023K27,4,225,PS,exp,32,←,up,↑,0.81259190000128,False,6,-1,0,0
PB023K27,4,226,PS,exp,31,↑,down,↓,0.6613195999816526,False,7,-1,0,0
PB023K27,4,227,PS,exp,31,↓,down,↓,0.7226673999975901,True,8,-1,0,0
PB023K27,4,228,PS,exp,38,→,left,←,0.5901534000004176,False,8,-1,0,0
PB023K27,4,229,PS,exp,37,←,left,←,0.7915209000057075,True,9,-1,0,0
PB023K27,4,230,PS,exp,44,↓,left,←,0.8030910000088625,False,9,-1,0,0
PB023K27,4,231,PS,exp,32,←,left,←,0.7266055000072811,True,10,-1,0,0
PB023K27,4,232,PS,exp,25,→,left,←,1.7946659000008367,False,10,-1,0,0
PB023K27,4,233,PS,exp,46,↓,down,↓,0.7939415999862831,True,11,-1,0,0
PB023K27,4,234,PS,exp,32,↑,up,↑,0.6675991000083741,True,11,1,1,1
PB023K27,4,235,PS,exp,35,→,right,→,0.7443099000083748,True,10,1,0,1
PB023K27,4,236,PS,exp,26,←,up,↑,0.9848224000015762,False,10,-1,1,2
PB023K27,4,237,PS,exp,34,→,right,→,0.5129069999966305,True,11,-1,0,2
PB023K27,4,238,PS,exp,48,↓,down,↓,0.8162371000216808,True,11,1,1,3
PB023K27,4,239,PS,exp,26,←,left,←,0.5475826000038069,True,10,1,0,3
PB023K27,4,240,PS,exp,50,↓,down,↓,0.7206056000140961,True,10,1,0,3
PB023K27,4,241,PS,exp,35,↑,up,↑,0.5238903999852482,True,9,1,0,3
PB023K27,4,242,PS,exp,43,↓,down,↓,0.6597400000027847,True,9,1,0,3
PB023K27,4,243,PS,exp,50,↑,up,↑,0.7637864999996964,True,8,1,0,3
PB023K27,4,244,PS,exp,42,→,right,→,0.7923112999997102,True,8,1,0,3
PB023K27,4,245,PS,exp,29,↑,up,↑,0.4750130999891553,True,7,1,0,3
PB023K27,4,246,PS,exp,33,←,left,←,0.6344241000188049,True,7,1,0,3
PB023K27,4,247,PS,exp,44,↓,down,↓,0.7254195999994408,True,6,1,0,3
PB023K27,4,248,PS,exp,28,→,down,↓,1.018910999991931,False,6,-1,1,4
PB023K27,4,249,PS,exp,43,↑,left,←,1.1966402000107337,False,7,-1,0,4
PB023K27,4,250,PS,exp,36,←,left,←,0.7403116000059526,True,8,-1,0,4
PB023K27,4,251,PS,exp,48,→,left,←,1.3796814999950584,False,8,-1,0,4
PB023K27,4,252,PS,exp,31,↑,left,←,1.5272861999983434,False,9,-1,0,4
PB023K27,4,253,PS,exp,35,↓,down,↓,0.9503045000019483,True,10,-1,0,4
PB023K27,4,254,PS,exp,41,←,down,↓,0.7523255000123754,False,10,-1,0,4
PB023K27,4,255,PS,exp,37,→,right,→,0.7209747000015341,True,11,-1,0,4
PB023K27,4,256,PS,exp,46,↓,down,↓,1.0022060000046622,True,11,1,1,5
PB023K27,4,257,PS,exp,36,→,right,→,0.7391944999981206,True,10,1,0,5
PB023K27,4,258,PS,exp,44,↑,right,→,1.4395234000112396,False,10,-1,1,6
PB023K27,4,259,PS,exp,30,→,right,→,0.7126285000122152,True,11,-1,0,6
PB023K27,4,260,PS,exp,36,←,left,←,0.6751956000225618,True,11,1,1,7
PB023K27,4,261,PS,exp,32,↑,up,↑,0.8064500999753363,True,10,1,0,7
PB023K27,4,262,PS,exp,42,←,left,←,0.5801338000164833,True,10,1,0,7
PB023K27,4,263,PS,exp,50,↑,up,↑,0.6151955000241287,True,9,1,0,7
PB023K27,4,264,PS,exp,47,↓,down,↓,0.7604085000057239,True,9,1,0,7
PB023K27,4,265,PS,exp,36,→,right,→,0.7924223000009079,True,8,1,0,7
PB023K27,4,266,PS,exp,34,←,right,→,0.6743877999833785,False,8,-1,1,8
PB023K27,4,267,PS,exp,30,→,right,→,0.7154569000122137,True,9,-1,0,8
PB023K27,4,268,PS,exp,31,↓,down,↓,0.5956754000217188,True,9,1,1,9
PB023K27,4,269,PS,exp,30,←,left,←,0.6162865999795031,True,8,1,0,9
PB023K27,4,270,PS,exp,49,↓,down,↓,0.5649369000166189,True,8,1,0,9
PB023K27,4,271,PS,exp,33,→,left,←,0.657320800004527,False,7,-1,1,10
PB023K27,4,272,PS,exp,31,↑,right,→,0.7382565999869257,False,8,-1,0,10
PB023K27,4,273,PS,exp,29,←,left,←,0.4506122000166215,True,9,-1,0,10
PB023K27,4,274,PS,exp,27,→,right,→,0.5089602000080049,True,9,1,1,11
PB023K27,4,275,PS,exp,48,←,right,→,0.685865899984492,False,8,-1,1,12
PB023K27,4,276,PS,exp,43,↑,up,↑,0.5186419000092428,True,9,-1,0,12
PB023K27,4,277,PS,exp,25,→,right,→,0.6137916999869049,True,9,1,1,13
PB023K27,4,278,PS,exp,45,↑,right,→,0.7041246000153478,False,8,-1,1,14
PB023K27,5,279,PS,intra_train,48,→,right,→,0.8816286000073887,True,9,-,-,-
PB023K27,5,280,PS,intra_train,37,↓,down,↓,0.6872918999870308,True,9,-,-,-
PB023K27,5,281,PS,intra_train,26,→,right,→,0.6441175999934785,True,9,-,-,-
PB023K27,5,282,PS,intra_train,25,↓,down,↓,0.6800266999925952,True,9,-,-,-
PB023K27,5,283,PS,intra_train,33,↑,up,↑,0.6082006999931764,True,9,-,-,-
PB023K27,5,284,PS,exp,28,↓,up,↑,0.7879599999869242,False,6,-1,0,0
PB023K27,5,285,PS,exp,36,↑,up,↑,0.7285190999973565,True,7,-1,0,0
PB023K27,5,286,PS,exp,28,→,left,←,0.6932964000152424,False,7,-1,0,0
PB023K27,5,287,PS,exp,38,↓,up,↑,0.6867505999980494,False,8,-1,0,0
PB023K27,5,288,PS,exp,31,↑,up,↑,0.9502906000125222,True,9,-1,0,0
PB023K27,5,289,PS,exp,42,↓,left,←,0.6276054000190925,False,9,-1,0,0
PB023K27,5,290,PS,exp,30,←,left,←,0.632343100005528,True,10,-1,0,0
PB023K27,5,291,PS,exp,33,→,right,→,0.5950768000038806,True,10,1,1,1
PB023K27,5,292,PS,exp,46,↑,right,→,1.4001914999971632,False,9,-1,1,2
PB023K27,5,293,PS,exp,47,←,left,←,0.5557900000130758,True,10,-1,0,2
PB023K27,5,294,PS,exp,43,↑,left,←,0.6222847000171896,False,10,-1,0,2
PB023K27,5,295,PS,exp,36,→,right,→,0.7182629000162706,True,11,-1,0,2
PB023K27,5,296,PS,exp,45,↑,right,→,0.7069080999935977,False,11,-1,0,2
PB023K27,5,297,PS,exp,27,↓,down,↓,0.8398927000234835,True,12,-1,0,2
PB023K27,5,298,PS,exp,30,←,left,←,0.5879647000110708,True,12,1,1,3
PB023K27,5,299,PS,exp,38,↓,down,↓,0.6698898999893572,True,11,1,0,3
PB023K27,5,300,PS,exp,40,←,down,↓,0.8607753999822307,False,11,-1,1,4
PB023K27,5,301,PS,exp,26,↑,up,↑,0.5093040999781806,True,12,-1,0,4
PB023K27,5,302,PS,exp,32,→,right,→,0.5766950999968685,True,12,1,1,5
PB023K27,5,303,PS,exp,29,←,left,←,0.660885600023903,True,11,1,0,5
PB023K27,5,304,PS,exp,25,↓,left,←,0.6505757000122685,False,11,-1,1,6
PB023K27,5,305,PS,exp,33,←,left,←,0.5987021999899298,True,12,-1,0,6
PB023K27,5,306,PS,exp,32,→,right,→,0.5486560999997891,True,12,1,1,7
PB023K27,5,307,PS,exp,41,←,left,←,0.5128825000138022,True,11,1,0,7
PB023K27,5,308,PS,exp,49,↑,up,↑,0.616854100022465,True,11,1,0,7
PB023K27,5,309,PS,exp,29,←,left,←,0.5207938000094146,True,10,1,0,7
PB023K27,5,310,PS,exp,38,→,right,→,0.5171855000080541,True,10,1,0,7
PB023K27,5,311,PS,exp,36,↓,left,←,0.7157077000010759,False,9,-1,1,8
PB023K27,5,312,PS,exp,36,→,right,→,0.648589600023115,True,10,-1,0,8
PB023K27,5,313,PS,exp,25,←,left,←,0.7253847999963909,True,10,1,1,9
PB023K27,5,314,PS,exp,25,↑,left,←,0.9027829999977257,False,9,-1,1,10
PB023K27,5,315,PS,exp,26,←,left,←,0.5579060000018217,True,10,-1,0,10
PB023K27,5,316,PS,exp,27,↓,left,←,0.7142053999996278,False,10,-1,0,10
PB023K27,5,317,PS,exp,33,←,left,←,0.603740899998229,True,11,-1,0,10
PB023K27,5,318,PS,exp,41,→,right,→,0.5136561999970581,True,11,1,1,11
PB023K27,5,319,PS,exp,38,↓,right,→,1.0631320000102278,False,10,-1,1,12
PB023K27,5,320,PS,exp,37,←,left,←,0.5671570999838877,True,11,-1,0,12
PB023K27,5,321,PS,exp,33,↑,up,↑,0.6850753999897279,True,11,1,1,13
PB023K27,5,322,PS,exp,45,←,left,←,0.7652783999801613,True,10,1,0,13
PB023K27,5,323,PS,exp,32,↓,left,←,0.8245577000197954,False,10,-1,1,14
PB023K27,6,324,AS,intra_train,38,←,left,←,0.7057751000102144,True,21,-,-,-
PB023K27,6,325,AS,intra_train,25,↓,down,↓,0.8622791999951005,True,21,-,-,-
PB023K27,6,326,AS,intra_train,38,→,left,←,0.7561014000093564,False,21,-,-,-
PB023K27,6,327,AS,intra_train,28,↑,up,↑,0.6896219000045676,True,21,-,-,-
PB023K27,6,328,AS,intra_train,31,→,right,→,0.7392714000015985,True,21,-,-,-
PB023K27,6,329,AS,exp,38,↓,up,↑,0.7472563000046648,False,14,-1,0,0
PB023K27,6,330,AS,exp,43,→,right,→,0.6094679000088945,True,15,-1,0,0
PB023K27,6,331,AS,exp,50,↑,left,←,1.0036593000113498,False,15,-1,0,0
PB023K27,6,332,AS,exp,49,←,left,←,0.5649233000003733,True,16,-1,0,0
PB023K27,6,333,AS,exp,43,→,up,↑,1.0295083000091836,False,16,-1,0,0
PB023K27,6,334,AS,exp,42,↑,up,↑,0.5452648999926168,True,17,-1,0,0
PB023K27,6,335,AS,exp,36,↓,down,↓,0.8646258000226226,True,17,1,1,1
PB023K27,6,336,AS,exp,50,↑,left,←,0.6963060999987647,False,16,-1,1,2
PB023K27,6,337,AS,exp,40,→,left,←,0.5074208000150975,False,17,-1,0,2
PB023K27,6,338,AS,exp,27,↑,up,↑,0.8498240000044461,True,18,-1,0,2
PB023K27,6,339,AS,exp,45,→,right,→,0.6293717999942601,True,18,1,1,3
PB023K27,6,340,AS,exp,42,↓,down,↓,0.605323000025237,True,17,1,0,3
PB023K27,6,341,AS,exp,48,→,right,→,0.5440237000002526,True,17,1,0,3
PB023K27,6,342,AS,exp,36,←,left,←,0.5361289999855217,True,16,1,0,3
PB023K27,6,343,AS,exp,36,↑,up,↑,0.557454299996607,True,16,1,0,3
PB023K27,6,344,AS,exp,40,→,right,→,0.5275723999948241,True,15,1,0,3
PB023K27,6,345,AS,exp,33,↑,up,↑,0.5216020999941975,True,15,1,0,3
PB023K27,6,346,AS,exp,32,↓,up,↑,0.7761813999968581,False,14,-1,1,4
PB023K27,6,347,AS,exp,37,↑,up,↑,0.5949800999951549,True,15,-1,0,4
PB023K27,6,348,AS,exp,38,→,right,→,0.6306271000066772,True,15,1,1,5
PB023K27,6,349,AS,exp,26,↑,up,↑,0.6743741999962367,True,14,1,0,5
PB023K27,6,350,AS,exp,26,←,left,←,0.5103762999933679,True,14,1,0,5
PB023K27,6,351,AS,exp,43,↑,up,↑,0.6442594999971334,True,13,1,0,5
PB023K27,6,352,AS,exp,30,→,right,→,0.5533408999908715,True,13,1,0,5
PB023K27,6,353,AS,exp,38,↑,up,↑,0.7198968000011519,True,12,1,0,5
PB023K27,6,354,AS,exp,41,↓,up,↑,0.6993200000142679,False,12,-1,1,6
PB023K27,6,355,AS,exp,34,↑,up,↑,0.5523033000063151,True,13,-1,0,6
PB023K27,6,356,AS,exp,26,→,right,→,0.9057813000108581,True,13,1,1,7
PB023K27,6,357,AS,exp,42,↓,down,↓,0.8280210999946576,True,12,1,0,7
PB023K27,6,358,AS,exp,34,←,left,←,0.5387520999938715,True,12,1,0,7
PB023K27,6,359,AS,exp,43,→,right,→,0.7525148999993689,True,11,1,0,7
PB023K27,6,360,AS,exp,40,↓,down,↓,0.6895328000246082,True,11,1,0,7
PB023K27,6,361,AS,exp,34,→,right,→,0.6646746000042185,True,10,1,0,7
PB023K27,6,362,AS,exp,38,←,left,←,0.46908360000816174,True,10,1,0,7
PB023K27,6,363,AS,exp,50,↓,right,→,0.8494010000140406,False,9,-1,1,8
PB023K27,6,364,AS,exp,26,↑,up,↑,0.6766802000056487,True,10,-1,0,8
PB023K27,6,365,AS,exp,31,←,left,←,0.5096099999791477,True,10,1,1,9
PB023K27,6,366,AS,exp,33,↑,up,↑,0.5090934000036214,True,9,1,0,9
PB023K27,6,367,AS,exp,26,→,right,→,0.5394884999841452,True,9,1,0,9
PB023K27,6,368,AS,exp,27,↑,up,↑,0.5026273999828845,True,8,1,0,9
PB023K27,6,369,AS,exp,30,←,left,←,0.6813035999948625,True,8,1,0,9
PB023K27,6,370,AS,exp,44,→,right,→,0.9698573999921791,True,7,1,0,9
PB023K27,6,371,AS,exp,27,↓,up,↑,0.669449800014263,False,7,-1,1,10
PB023K27,6,372,AS,exp,34,↑,no_key,no_letter,-1.0,False,8,-1,0,10
PB023K27,6,373,AS,exp,35,↓,up,↑,0.7502948000037577,False,9,-1,0,10
PB023K27,6,374,AS,exp,47,→,left,←,0.5290125000174157,False,10,-1,0,10
PB023K27,6,375,AS,exp,42,←,right,→,0.6670821000006981,False,11,-1,0,10
PB023K27,6,376,AS,exp,36,→,right,→,0.7175849000050221,True,12,-1,0,10
PB023K27,6,377,AS,exp,47,←,left,←,0.5296577000117395,True,12,1,1,11
PB023K27,6,378,AS,exp,43,↑,up,↑,0.5306065999902785,True,11,1,0,11
PB023K27,6,379,AS,exp,42,←,left,←,0.49122389999683946,True,11,1,0,11
PB023K27,6,380,AS,exp,40,↑,up,↑,0.5261982000083663,True,10,1,0,11
PB023K27,6,381,AS,exp,28,→,left,←,0.6407016000011936,False,10,-1,1,12
PB023K27,6,382,AS,exp,41,←,right,→,0.5866755000024568,False,11,-1,0,12
PB023K27,6,383,AS,exp,42,→,right,→,0.5096314999973401,True,12,-1,0,12
PB023K27,6,384,AS,exp,33,←,left,←,0.47435720000066794,True,12,1,1,13
PB023K27,6,385,AS,exp,50,↑,left,←,0.48508130002301186,False,11,-1,1,14
PB023K27,7,386,AS,intra_train,25,↓,down,↓,0.827677000022959,True,21,-,-,-
PB023K27,7,387,AS,intra_train,50,→,right,→,0.7625675000017509,True,21,-,-,-
PB023K27,7,388,AS,intra_train,42,↓,down,↓,0.6177201000100467,True,21,-,-,-
PB023K27,7,389,AS,intra_train,28,↑,up,↑,0.6685844000021461,True,21,-,-,-
PB023K27,7,390,AS,intra_train,48,→,right,→,0.596596799994586,True,21,-,-,-
PB023K27,7,391,AS,exp,44,↓,down,↓,0.7756413000170141,True,14,0,0,0
PB023K27,7,392,AS,exp,37,→,right,→,0.546765700011747,True,14,1,0,0
PB023K27,7,393,AS,exp,30,↑,down,↓,0.7217229999951087,False,13,-1,1,1
PB023K27,7,394,AS,exp,42,↓,down,↓,0.866435600008117,True,14,-1,0,1
PB023K27,7,395,AS,exp,36,→,right,→,0.5878136999963317,True,14,1,1,2
PB023K27,7,396,AS,exp,27,←,left,←,0.6244503000052646,True,13,1,0,2
PB023K27,7,397,AS,exp,32,→,left,←,1.2379384000087157,False,13,-1,1,3
PB023K27,7,398,AS,exp,49,←,left,←,0.5669275999825913,True,14,-1,0,3
PB023K27,7,399,AS,exp,50,→,right,→,0.5878157999832183,True,14,1,1,4
PB023K27,7,400,AS,exp,36,←,left,←,0.6005527999950573,True,13,1,0,4
PB023K27,7,401,AS,exp,27,↓,right,→,1.4930684999853838,False,13,-1,1,5
PB023K27,7,402,AS,exp,49,↑,up,↑,0.6998029999958817,True,14,-1,0,5
PB023K27,7,403,AS,exp,32,→,left,←,0.6691126000077929,False,14,-1,0,5
PB023K27,7,404,AS,exp,37,↓,down,↓,0.7484167999937199,True,15,-1,0,5
PB023K27,7,405,AS,exp,44,→,right,→,0.5556760999897961,True,15,1,1,6
PB023K27,7,406,AS,exp,31,←,left,←,0.5754246999858879,True,14,1,0,6
PB023K27,7,407,AS,exp,26,↑,up,↑,0.7264670000004116,True,14,1,0,6
PB023K27,7,408,AS,exp,50,→,left,←,0.6669341000088025,False,13,-1,1,7
PB023K27,7,409,AS,exp,37,←,left,←,0.7891002999967895,True,14,-1,0,7
PB023K27,7,410,AS,exp,47,→,right,→,0.7302879999915604,True,14,1,1,8
PB023K27,7,411,AS,exp,33,↓,down,↓,0.84337799999048,True,13,1,0,8
PB023K27,7,412,AS,exp,26,→,right,→,0.7249995000020135,True,13,1,0,8
PB023K27,7,413,AS,exp,34,←,left,←,0.7149097000074107,True,12,1,0,8
PB023K27,7,414,AS,exp,38,→,right,→,0.8439759999746457,True,12,1,0,8
PB023K27,7,415,AS,exp,37,↓,down,↓,0.72385629999917,True,11,1,0,8
PB023K27,7,416,AS,exp,33,←,up,↑,0.9395861999946646,False,11,-1,1,9
PB023K27,7,417,AS,exp,49,↓,down,↓,0.6507837999961339,True,12,-1,0,9
PB023K27,7,418,AS,exp,31,↑,down,↓,1.40012839998235,False,12,-1,0,9
PB023K27,7,419,AS,exp,34,→,right,→,0.7962667999963742,True,13,-1,0,9
PB023K27,7,420,AS,exp,25,↑,up,↑,0.6818446999823209,True,13,1,1,10
PB023K27,7,421,AS,exp,42,→,right,→,0.6974634999933187,True,12,1,0,10
PB023K27,7,422,AS,exp,25,←,left,←,0.547955699992599,True,12,1,0,10
PB023K27,7,423,AS,exp,26,→,right,→,0.6074453999754041,True,11,1,0,10
PB023K27,7,424,AS,exp,33,↓,down,↓,0.849812500004191,True,11,1,0,10
PB023K27,7,425,AS,exp,50,←,left,←,0.5795638999843504,True,10,1,0,10
PB023K27,7,426,AS,exp,45,↑,up,↑,0.615492799988715,True,10,1,0,10
PB023K27,7,427,AS,exp,47,→,left,←,0.6037661999871489,False,9,-1,1,11
PB023K27,7,428,AS,exp,37,←,left,←,0.6336579999770038,True,10,-1,0,11
PB023K27,7,429,AS,exp,44,→,left,←,0.6878555000002962,False,10,-1,0,11
PB023K27,7,430,AS,exp,25,↓,down,↓,0.6632881999830715,True,11,-1,0,11
PB023K27,7,431,AS,exp,46,←,left,←,0.7768472000025213,True,11,1,1,12
PB023K27,7,432,AS,exp,43,↑,up,↑,0.6654702999803703,True,10,1,0,12
PB023K27,7,433,AS,exp,42,→,right,→,0.7003512000082992,True,10,1,0,12
PB023K27,7,434,AS,exp,50,←,left,←,0.6935245000058785,True,9,1,0,12
PB023K27,7,435,AS,exp,49,↑,up,↑,0.6232210999878589,True,9,1,0,12
PB023K27,7,436,AS,exp,48,↓,up,↑,0.7598137999884784,False,8,-1,1,13
PB023K27,7,437,AS,exp,25,↑,up,↑,0.823715100006666,True,9,-1,0,13
PB023K27,7,438,AS,exp,39,→,left,←,0.5758423999941442,False,9,-1,0,13
PB023K27,7,439,AS,exp,35,←,left,←,0.6488998999993782,True,10,-1,0,13
PB023K27,7,440,AS,exp,39,→,left,←,0.7459651000099257,False,10,-1,0,13
PB023K27,7,441,AS,exp,40,↑,up,↑,0.49346490000607446,True,11,-1,0,13
PB023K27,7,442,AS,exp,33,→,right,→,0.7118090999720152,True,11,1,1,14
PB023K27,8,443,PS,intra_train,38,↓,down,↓,0.768238199991174,True,9,-,-,-
PB023K27,8,444,PS,intra_train,32,←,left,←,0.5895464000059292,True,9,-,-,-
PB023K27,8,445,PS,intra_train,26,↑,left,←,0.6374109000025783,False,9,-,-,-
PB023K27,8,446,PS,intra_train,48,↓,down,↓,0.7137837999907788,True,9,-,-,-
PB023K27,8,447,PS,intra_train,30,←,left,←,0.4880235999880824,True,9,-,-,-
PB023K27,8,448,PS,exp,47,→,right,→,0.5250813000020571,True,6,0,0,0
PB023K27,8,449,PS,exp,33,←,left,←,0.568332199996803,True,6,1,0,0
PB023K27,8,450,PS,exp,49,→,left,←,0.51502929997514,False,5,-1,1,1
PB023K27,8,451,PS,exp,48,↑,left,←,0.759160299989162,False,6,-1,0,1
PB023K27,8,452,PS,exp,42,→,left,←,0.46976700000232086,False,7,-1,0,1
PB023K27,8,453,PS,exp,27,↑,left,←,0.49157240000204183,False,8,-1,0,1
PB023K27,8,454,PS,exp,49,↓,down,↓,0.685742300003767,True,9,-1,0,1
PB023K27,8,455,PS,exp,46,←,right,→,0.6873238999978639,False,9,-1,0,1
PB023K27,8,456,PS,exp,41,↑,up,↑,0.6636475000123028,True,10,-1,0,1
PB023K27,8,457,PS,exp,37,←,left,←,0.46781459997873753,True,10,1,1,2
PB023K27,8,458,PS,exp,30,→,left,←,0.6009701000002678,False,9,-1,1,3
PB023K27,8,459,PS,exp,34,←,right,→,1.1768614999891724,False,10,-1,0,3
PB023K27,8,460,PS,exp,49,↓,down,↓,0.6005860000150278,True,11,-1,0,3
PB023K27,8,461,PS,exp,37,←,left,←,0.39672809999319725,True,11,1,1,4
PB023K27,8,462,PS,exp,43,↓,down,↓,0.4379610999894794,True,10,1,0,4
PB023K27,8,463,PS,exp,49,←,right,→,0.9396537999855354,False,10,-1,1,5
PB023K27,8,464,PS,exp,31,↓,left,←,0.4018444000103045,False,11,-1,0,5
PB023K27,8,465,PS,exp,37,↑,left,←,0.616311100020539,False,12,-1,0,5
PB023K27,8,466,PS,exp,27,→,left,←,0.4020476999867242,False,13,-1,0,5
PB023K27,8,467,PS,exp,28,↑,up,↑,0.705798999988474,True,14,-1,0,5
PB023K27,8,468,PS,exp,42,→,right,→,0.5310956000175793,True,14,1,1,6
PB023K27,8,469,PS,exp,46,↓,right,→,0.8510641999891959,False,13,-1,1,7
PB023K27,8,470,PS,exp,33,→,right,→,0.6552973999932874,True,14,-1,0,7
PB023K27,8,471,PS,exp,45,↓,down,↓,0.8575129999953788,True,14,1,1,8
PB023K27,8,472,PS,exp,31,→,right,→,0.4786974000162445,True,13,1,0,8
PB023K27,8,473,PS,exp,46,←,left,←,0.5384947000129614,True,13,1,0,8
PB023K27,8,474,PS,exp,40,↑,up,↑,0.4692207999760285,True,12,1,0,8
PB023K27,8,475,PS,exp,33,↓,up,↑,0.7285866999882273,False,12,-1,1,9
PB023K27,8,476,PS,exp,33,→,right,→,0.5890354000148363,True,13,-1,0,9
PB023K27,8,477,PS,exp,37,↓,down,↓,0.8066199999884702,True,13,1,1,10
PB023K27,8,478,PS,exp,32,→,right,→,0.63197840002249,True,12,1,0,10
PB023K27,8,479,PS,exp,33,↑,up,↑,0.6067170999886002,True,12,1,0,10
PB023K27,8,480,PS,exp,37,→,right,→,0.49722409999230877,True,11,1,0,10
PB023K27,8,481,PS,exp,49,↑,right,→,0.850415900000371,False,11,-1,1,11
PB023K27,8,482,PS,exp,39,↓,down,↓,0.729680799995549,True,12,-1,0,11
PB023K27,8,483,PS,exp,37,→,right,→,0.47576920001301914,True,12,1,1,12
PB023K27,8,484,PS,exp,26,←,right,→,0.6506662000028882,False,11,-1,1,13
PB023K27,8,485,PS,exp,33,↓,down,↓,0.6362541999842506,True,12,-1,0,13
PB023K27,8,486,PS,exp,31,↑,up,↑,0.5441731000028085,True,12,1,1,14
