PART_ID,Block_no,Trial_no,Block_type,Trial_type,CSI,Stim_letter,Key_pressed,letter_choose,Rt,Corr,Stimulus Time,Level,Reversal,Revs_count
PB043M20,1,1,PS,train,41,↓,down,↓,0.8239639000967145,True,30,-,-,-
PB043M20,1,2,PS,train,41,←,left,←,0.7679616999812424,True,30,-,-,-
PB043M20,1,3,PS,train,25,→,right,→,0.5671974000288174,True,30,-,-,-
PB043M20,1,4,PS,train,44,←,left,←,0.6005541000049561,True,30,-,-,-
PB043M20,1,5,PS,train,26,↓,down,↓,0.7516209000023082,True,30,-,-,-
PB043M20,1,6,PS,train,31,←,left,←,0.7765322999330238,True,30,-,-,-
PB043M20,1,7,PS,train,28,↑,up,↑,0.7086588999954984,True,30,-,-,-
PB043M20,1,8,PS,train,32,→,right,→,0.7034073000540957,True,30,-,-,-
PB043M20,1,9,PS,train,35,↓,down,↓,0.7289019000018016,True,30,-,-,-
PB043M20,1,10,PS,train,38,→,right,→,0.5671281999675557,True,30,-,-,-
PB043M20,2,11,AS,train,28,↑,up,↑,0.8838250000262633,True,45,-,-,-
PB043M20,2,12,AS,train,31,→,right,→,0.8004609999479726,True,45,-,-,-
PB043M20,2,13,AS,train,45,↑,up,↑,0.65114370000083,True,45,-,-,-
PB043M20,2,14,AS,train,35,↓,down,↓,0.7504614999052137,True,45,-,-,-
PB043M20,2,15,AS,train,36,↑,up,↑,0.6844914000248536,True,45,-,-,-
PB043M20,2,16,AS,train,41,→,right,→,0.6177616999484599,True,45,-,-,-
PB043M20,2,17,AS,train,37,↑,up,↑,0.5678102999227121,True,45,-,-,-
PB043M20,2,18,AS,train,31,↓,down,↓,0.867264200001955,True,45,-,-,-
PB043M20,2,19,AS,train,50,←,left,←,0.883800100069493,True,45,-,-,-
PB043M20,2,20,AS,train,28,→,right,→,0.617915700073354,True,45,-,-,-
PB043M20,-,21,PS,adaptive,43,↑,up,↑,0.6246487000025809,True,10,0,0,0
PB043M20,-,22,PS,adaptive,29,→,right,→,0.6222970000235364,True,10,1,0,0
PB043M20,-,23,PS,adaptive,43,←,left,←,0.8875738000497222,True,9,1,0,0
PB043M20,-,24,PS,adaptive,44,→,left,←,1.4370851999847218,False,9,-1,1,1
PB043M20,-,25,PS,adaptive,26,↓,down,↓,0.7051753998966888,True,10,-1,0,1
PB043M20,-,26,PS,adaptive,35,←,left,←,0.7875185000011697,True,10,1,1,2
PB043M20,-,27,PS,adaptive,34,↓,right,→,1.542541499948129,False,9,-1,1,3
PB043M20,-,28,PS,adaptive,35,↑,up,↑,0.6065487000159919,True,10,-1,0,3
PB043M20,-,29,PS,adaptive,36,↓,down,↓,0.8589148999890313,True,10,1,1,4
PB043M20,-,30,AS,adaptive,37,→,right,→,0.6490820000180975,True,20,0,0,0
PB043M20,-,31,AS,adaptive,49,↑,up,↑,0.7485822000307962,True,20,1,0,0
PB043M20,-,32,AS,adaptive,36,←,left,←,0.7089671998983249,True,19,1,0,0
PB043M20,-,33,AS,adaptive,46,↑,up,↑,0.8169005999807268,True,19,1,0,0
PB043M20,-,34,AS,adaptive,44,↓,down,↓,0.750027900096029,True,18,1,0,0
PB043M20,-,35,AS,adaptive,36,→,right,→,0.6755885999882594,True,18,1,0,0
PB043M20,-,36,AS,adaptive,43,←,left,←,0.7274779001018032,True,17,1,0,0
PB043M20,-,37,AS,adaptive,47,→,right,→,0.48827580001670867,True,17,1,0,0
PB043M20,-,38,AS,adaptive,29,←,left,←,0.7174007999710739,True,16,1,0,0
PB043M20,-,39,AS,adaptive,32,→,right,→,0.5464858999475837,True,16,1,0,0
PB043M20,-,40,AS,adaptive,27,↑,up,↑,0.5884920000098646,True,15,1,0,0
PB043M20,-,41,AS,adaptive,43,→,up,↑,0.8257634999463335,False,15,-1,1,1
PB043M20,-,42,AS,adaptive,38,↓,down,↓,0.7377809999743477,True,16,-1,0,1
PB043M20,-,43,AS,adaptive,32,→,left,←,0.6823913000989705,False,16,-1,0,1
PB043M20,-,44,AS,adaptive,45,←,left,←,0.5314729999518022,True,17,-1,0,1
PB043M20,-,45,AS,adaptive,31,↑,up,↑,0.581467799958773,True,17,1,1,2
PB043M20,-,46,AS,adaptive,39,←,left,←,0.8860582000343129,True,16,1,0,2
PB043M20,-,47,AS,adaptive,46,↓,down,↓,0.7433833000250161,True,16,1,0,2
PB043M20,-,48,AS,adaptive,45,←,left,←,1.2622354000341147,True,15,1,0,2
PB043M20,-,49,AS,adaptive,39,↑,no_key,no_letter,-1.0,False,15,-1,1,3
PB043M20,-,50,AS,adaptive,26,←,left,←,0.5941599999787286,True,16,-1,0,3
PB043M20,-,51,AS,adaptive,40,↑,down,↓,0.8031966999405995,False,16,-1,0,3
PB043M20,-,52,AS,adaptive,25,↓,down,↓,0.6039811000227928,True,17,-1,0,3
PB043M20,-,53,AS,adaptive,48,←,left,←,0.6892755000153556,True,17,1,1,4
PB043M20,1,54,PS,intra_train,27,↑,up,↑,0.6554516999749467,True,13,-,-,-
PB043M20,1,55,PS,intra_train,39,↓,down,↓,0.6413913998985663,True,13,-,-,-
PB043M20,1,56,PS,intra_train,38,←,left,←,0.5595415999414399,True,13,-,-,-
PB043M20,1,57,PS,intra_train,43,↑,up,↑,0.5654787999810651,True,13,-,-,-
PB043M20,1,58,PS,intra_train,34,→,right,→,0.6257262999424711,True,13,-,-,-
PB043M20,1,59,PS,exp,49,↑,up,↑,0.5653565999818966,True,9,0,0,0
PB043M20,1,60,PS,exp,41,←,left,←,0.7044944999506697,True,9,1,0,0
PB043M20,1,61,PS,exp,29,↓,down,↓,0.6962529000593349,True,8,1,0,0
PB043M20,1,62,PS,exp,28,←,right,→,1.4876322000054643,False,8,-1,1,1
PB043M20,1,63,PS,exp,35,→,right,→,0.537766500026919,True,9,-1,0,1
PB043M20,1,64,PS,exp,25,←,left,←,0.9142434999812394,True,9,1,1,2
PB043M20,1,65,PS,exp,34,→,right,→,0.5778184999944642,True,8,1,0,2
PB043M20,1,66,PS,exp,42,↓,down,↓,1.0774276000447571,True,8,1,0,2
PB043M20,1,67,PS,exp,43,←,left,←,0.6511388999642804,True,7,1,0,2
PB043M20,1,68,PS,exp,28,→,left,←,0.7208966000471264,False,7,-1,1,3
PB043M20,1,69,PS,exp,48,←,no_key,no_letter,-1.0,False,8,-1,0,3
PB043M20,1,70,PS,exp,36,↓,down,↓,0.5948760999599472,True,9,-1,0,3
PB043M20,1,71,PS,exp,32,↑,up,↑,0.7843736000359058,True,9,1,1,4
PB043M20,1,72,PS,exp,36,←,left,←,1.3261960999807343,True,8,1,0,4
PB043M20,1,73,PS,exp,45,→,right,→,0.6247328000608832,True,8,1,0,4
PB043M20,1,74,PS,exp,43,↓,right,→,0.5451825000345707,False,7,-1,1,5
PB043M20,1,75,PS,exp,45,←,left,←,0.7425819999771193,True,8,-1,0,5
PB043M20,1,76,PS,exp,47,→,right,→,0.6570550999604166,True,8,1,1,6
PB043M20,1,77,PS,exp,41,↑,up,↑,0.5942680999869481,True,7,1,0,6
PB043M20,1,78,PS,exp,39,→,down,↓,0.7464095999021083,False,7,-1,1,7
PB043M20,1,79,PS,exp,46,↑,left,←,1.3879889999516308,False,8,-1,0,7
PB043M20,1,80,PS,exp,32,→,right,→,0.5531582999974489,True,9,-1,0,7
PB043M20,1,81,PS,exp,30,←,left,←,0.6377929999725893,True,9,1,1,8
PB043M20,1,82,PS,exp,35,↑,down,↓,0.7272907999577001,False,8,-1,1,9
PB043M20,1,83,PS,exp,26,←,left,←,0.6682929999660701,True,9,-1,0,9
PB043M20,1,84,PS,exp,25,↑,right,→,0.8452734000748023,False,9,-1,0,9
PB043M20,1,85,PS,exp,47,→,right,→,0.7085608000634238,True,10,-1,0,9
PB043M20,1,86,PS,exp,25,↑,down,↓,0.8142579999985173,False,10,-1,0,9
PB043M20,1,87,PS,exp,46,→,right,→,0.7127858999883756,True,11,-1,0,9
PB043M20,1,88,PS,exp,36,←,left,←,0.6657695000758395,True,11,1,1,10
PB043M20,1,89,PS,exp,29,↓,down,↓,0.6594349999213591,True,10,1,0,10
PB043M20,1,90,PS,exp,26,↑,up,↑,1.0870965999783948,True,10,1,0,10
PB043M20,1,91,PS,exp,43,←,left,←,0.5798486999701709,True,9,1,0,10
PB043M20,1,92,PS,exp,30,↓,down,↓,0.6861166000599042,True,9,1,0,10
PB043M20,1,93,PS,exp,27,←,left,←,0.5748546000104398,True,8,1,0,10
PB043M20,1,94,PS,exp,25,→,right,→,0.7897100000409409,True,8,1,0,10
PB043M20,1,95,PS,exp,38,←,right,→,1.065357799991034,False,7,-1,1,11
PB043M20,1,96,PS,exp,27,↓,down,↓,0.6894086999818683,True,8,-1,0,11
PB043M20,1,97,PS,exp,41,↑,up,↑,0.5626784999622032,True,8,1,1,12
PB043M20,1,98,PS,exp,37,→,up,↑,0.6109849000349641,False,7,-1,1,13
PB043M20,1,99,PS,exp,50,↑,down,↓,1.060943100019358,False,8,-1,0,13
PB043M20,1,100,PS,exp,50,→,left,←,0.895996900042519,False,9,-1,0,13
PB043M20,1,101,PS,exp,41,←,left,←,0.5755938000511378,True,10,-1,0,13
PB043M20,1,102,PS,exp,26,→,right,→,1.2186401000944898,True,10,1,1,14
PB043M20,2,103,AS,intra_train,47,←,left,←,0.6353640999877825,True,24,-,-,-
PB043M20,2,104,AS,intra_train,38,→,right,→,0.6326379999518394,True,24,-,-,-
PB043M20,2,105,AS,intra_train,32,←,no_key,no_letter,-1.0,False,24,-,-,-
PB043M20,2,106,AS,intra_train,46,↑,up,↑,0.6654243000084534,True,24,-,-,-
PB043M20,2,107,AS,intra_train,49,↓,down,↓,0.6400546999648213,True,24,-,-,-
PB043M20,2,108,AS,exp,30,←,left,←,0.5997622000286356,True,16,0,0,0
PB043M20,2,109,AS,exp,49,↑,up,↑,0.6672977999551222,True,16,1,0,0
PB043M20,2,110,AS,exp,28,↓,up,↑,0.8170481999404728,False,15,-1,1,1
PB043M20,2,111,AS,exp,30,→,right,→,0.5649135999847203,True,16,-1,0,1
PB043M20,2,112,AS,exp,38,↑,up,↑,0.650583399925381,True,16,1,1,2
PB043M20,2,113,AS,exp,37,↓,down,↓,0.6326645000372082,True,15,1,0,2
PB043M20,2,114,AS,exp,41,→,right,→,0.6566572000738233,True,15,1,0,2
PB043M20,2,115,AS,exp,47,←,right,→,0.6770609000232071,False,14,-1,1,3
PB043M20,2,116,AS,exp,43,↑,up,↑,0.5714989000698552,True,15,-1,0,3
PB043M20,2,117,AS,exp,30,→,right,→,0.5760911999968812,True,15,1,1,4
PB043M20,2,118,AS,exp,42,↑,down,↓,0.7347797999391332,False,14,-1,1,5
PB043M20,2,119,AS,exp,29,→,right,→,0.5590436999918893,True,15,-1,0,5
PB043M20,2,120,AS,exp,30,↑,up,↑,0.5155198000138626,True,15,1,1,6
PB043M20,2,121,AS,exp,36,↓,down,↓,0.6135209000203758,True,14,1,0,6
PB043M20,2,122,AS,exp,43,→,right,→,0.5256992999929935,True,14,1,0,6
PB043M20,2,123,AS,exp,26,↓,down,↓,0.6599523000186309,True,13,1,0,6
PB043M20,2,124,AS,exp,33,↑,up,↑,0.5272182999178767,True,13,1,0,6
PB043M20,2,125,AS,exp,27,←,left,←,0.563431000104174,True,12,1,0,6
PB043M20,2,126,AS,exp,34,↑,up,↑,0.5081736999563873,True,12,1,0,6
PB043M20,2,127,AS,exp,32,←,left,←,0.8446778000798076,True,11,1,0,6
PB043M20,2,128,AS,exp,46,→,up,↑,0.9455736000090837,False,11,-1,1,7
PB043M20,2,129,AS,exp,50,↓,down,↓,0.9759070998989046,True,12,-1,0,7
PB043M20,2,130,AS,exp,46,↑,up,↑,0.6760953000048175,True,12,1,1,8
PB043M20,2,131,AS,exp,25,↓,up,↑,0.5908951000310481,False,11,-1,1,9
PB043M20,2,132,AS,exp,35,↑,up,↑,0.5058838000986725,True,12,-1,0,9
PB043M20,2,133,AS,exp,41,→,left,←,0.9117310999426991,False,12,-1,0,9
PB043M20,2,134,AS,exp,43,↑,up,↑,0.675311699975282,True,13,-1,0,9
PB043M20,2,135,AS,exp,30,↓,down,↓,0.676672299974598,True,13,1,1,10
PB043M20,2,136,AS,exp,37,→,left,←,0.6822969999630004,False,12,-1,1,11
PB043M20,2,137,AS,exp,34,↓,down,↓,0.5132854001130909,True,13,-1,0,11
PB043M20,2,138,AS,exp,44,←,left,←,1.4524854000192136,True,13,1,1,12
PB043M20,2,139,AS,exp,27,→,right,→,0.5618988999631256,True,12,1,0,12
PB043M20,2,140,AS,exp,30,↓,down,↓,0.6715633999556303,True,12,1,0,12
PB043M20,2,141,AS,exp,47,→,up,↑,0.7293256999691948,False,11,-1,1,13
PB043M20,2,142,AS,exp,49,↑,left,←,1.1405951000051573,False,12,-1,0,13
PB043M20,2,143,AS,exp,35,←,left,←,0.8812476999592036,True,13,-1,0,13
PB043M20,2,144,AS,exp,48,↑,up,↑,0.8121021999977529,True,13,1,1,14
PB043M20,3,145,AS,intra_train,46,←,left,←,0.6020574999274686,True,24,-,-,-
PB043M20,3,146,AS,intra_train,29,↓,down,↓,0.6186309000477195,True,24,-,-,-
PB043M20,3,147,AS,intra_train,37,↑,up,↑,0.6515855999896303,True,24,-,-,-
PB043M20,3,148,AS,intra_train,45,↓,down,↓,0.7554208999499679,True,24,-,-,-
PB043M20,3,149,AS,intra_train,36,←,left,←,0.597759100026451,True,24,-,-,-
PB043M20,3,150,AS,exp,34,↓,down,↓,0.6431435999693349,True,16,0,0,0
PB043M20,3,151,AS,exp,48,→,right,→,0.6400747000006959,True,16,1,0,0
PB043M20,3,152,AS,exp,37,←,right,→,0.5111837999429554,False,15,-1,1,1
PB043M20,3,153,AS,exp,40,↑,up,↑,0.5020948000019416,True,16,-1,0,1
PB043M20,3,154,AS,exp,37,←,left,←,0.4553842000896111,True,16,1,1,2
PB043M20,3,155,AS,exp,32,→,right,→,1.7662910999497399,True,15,1,0,2
PB043M20,3,156,AS,exp,35,↑,up,↑,0.5251998999156058,True,15,1,0,2
PB043M20,3,157,AS,exp,45,↓,down,↓,0.7242693000007421,True,14,1,0,2
PB043M20,3,158,AS,exp,35,↑,up,↑,0.7014036999316886,True,14,1,0,2
PB043M20,3,159,AS,exp,25,←,left,←,0.6314922000747174,True,13,1,0,2
PB043M20,3,160,AS,exp,42,→,right,→,0.6329401000402868,True,13,1,0,2
PB043M20,3,161,AS,exp,45,←,left,←,0.628834699979052,True,12,1,0,2
PB043M20,3,162,AS,exp,27,→,right,→,0.45315840002149343,True,12,1,0,2
PB043M20,3,163,AS,exp,50,↓,down,↓,0.6377937999786809,True,11,1,0,2
PB043M20,3,164,AS,exp,28,←,left,←,0.7003983999602497,True,11,1,0,2
PB043M20,3,165,AS,exp,42,↓,down,↓,0.7403762000612915,True,10,1,0,2
PB043M20,3,166,AS,exp,47,↑,up,↑,0.6562198000028729,True,10,1,0,2
PB043M20,3,167,AS,exp,37,→,left,←,0.7138268999988213,False,9,-1,1,3
PB043M20,3,168,AS,exp,25,←,left,←,0.7923789999913424,True,10,-1,0,3
PB043M20,3,169,AS,exp,50,↓,down,↓,0.6344311001012102,True,10,1,1,4
PB043M20,3,170,AS,exp,40,→,right,→,0.48259010002948344,True,9,1,0,4
PB043M20,3,171,AS,exp,41,↑,up,↑,0.6239506000420079,True,9,1,0,4
PB043M20,3,172,AS,exp,26,↓,down,↓,0.7755233000498265,True,8,1,0,4
PB043M20,3,173,AS,exp,26,→,up,↑,1.5996598000638187,False,8,-1,1,5
PB043M20,3,174,AS,exp,35,←,down,↓,0.93158560001757,False,9,-1,0,5
PB043M20,3,175,AS,exp,34,↑,left,←,1.029811599990353,False,10,-1,0,5
PB043M20,3,176,AS,exp,47,→,left,←,0.6679183000233024,False,11,-1,0,5
PB043M20,3,177,AS,exp,49,↓,down,↓,0.5964364999672398,True,12,-1,0,5
PB043M20,3,178,AS,exp,37,←,left,←,1.1913338000886142,True,12,1,1,6
PB043M20,3,179,AS,exp,50,→,left,←,0.7925532999215648,False,11,-1,1,7
PB043M20,3,180,AS,exp,33,←,left,←,0.6909647000720724,True,12,-1,0,7
PB043M20,3,181,AS,exp,38,↑,down,↓,0.696202400024049,False,12,-1,0,7
PB043M20,3,182,AS,exp,39,↓,down,↓,0.8360884999856353,True,13,-1,0,7
PB043M20,3,183,AS,exp,28,←,right,→,0.6846967999590561,False,13,-1,0,7
PB043M20,3,184,AS,exp,39,→,right,→,0.8160937998909503,True,14,-1,0,7
PB043M20,3,185,AS,exp,39,↑,up,↑,0.7094987999880686,True,14,1,1,8
PB043M20,3,186,AS,exp,26,↓,up,↑,0.8459444000618532,False,13,-1,1,9
PB043M20,3,187,AS,exp,46,↑,down,↓,1.2817046999698505,False,14,-1,0,9
PB043M20,3,188,AS,exp,41,→,right,→,0.6258956000674516,True,15,-1,0,9
PB043M20,3,189,AS,exp,38,↓,left,←,0.9663070000242442,False,15,-1,0,9
PB043M20,3,190,AS,exp,39,→,right,→,0.6812913999892771,True,16,-1,0,9
PB043M20,3,191,AS,exp,34,←,up,↑,0.9233273999998346,False,16,-1,0,9
PB043M20,3,192,AS,exp,33,↓,down,↓,0.687463799957186,True,17,-1,0,9
PB043M20,3,193,AS,exp,43,↑,up,↑,0.6564304999774322,True,17,1,1,10
PB043M20,3,194,AS,exp,44,→,right,→,0.6947212000377476,True,16,1,0,10
PB043M20,3,195,AS,exp,40,↑,down,↓,0.9351337000261992,False,16,-1,1,11
PB043M20,3,196,AS,exp,42,→,right,→,0.6480550999986008,True,17,-1,0,11
PB043M20,3,197,AS,exp,36,↑,up,↑,0.7125313000287861,True,17,1,1,12
PB043M20,3,198,AS,exp,32,→,right,→,0.4758526000659913,True,16,1,0,12
PB043M20,3,199,AS,exp,27,↑,up,↑,0.6771979999030009,True,16,1,0,12
PB043M20,3,200,AS,exp,45,→,right,→,0.5464863000670448,True,15,1,0,12
PB043M20,3,201,AS,exp,49,↑,up,↑,0.58091100002639,True,15,1,0,12
PB043M20,3,202,AS,exp,30,←,right,→,0.5838856999762356,False,14,-1,1,13
PB043M20,3,203,AS,exp,40,→,right,→,0.4803496999666095,True,15,-1,0,13
PB043M20,3,204,AS,exp,43,↑,up,↑,0.5526485000737011,True,15,1,1,14
PB043M20,4,205,PS,intra_train,47,→,left,←,0.7557232999242842,False,13,-,-,-
PB043M20,4,206,PS,intra_train,35,↓,down,↓,0.578969300026074,True,13,-,-,-
PB043M20,4,207,PS,intra_train,25,↑,up,↑,0.620603600051254,True,13,-,-,-
PB043M20,4,208,PS,intra_train,49,→,right,→,0.5416882999707013,True,13,-,-,-
PB043M20,4,209,PS,intra_train,44,↓,down,↓,0.6511760000139475,True,13,-,-,-
PB043M20,4,210,PS,exp,43,←,left,←,0.6302910000085831,True,9,0,0,0
PB043M20,4,211,PS,exp,42,↓,down,↓,0.7685942999087274,True,9,1,0,0
PB043M20,4,212,PS,exp,35,→,right,→,0.6860733999637887,True,8,1,0,0
PB043M20,4,213,PS,exp,30,↓,down,↓,0.6446815999224782,True,8,1,0,0
PB043M20,4,214,PS,exp,44,↑,up,↑,0.5931273000314832,True,7,1,0,0
PB043M20,4,215,PS,exp,46,←,left,←,0.8025869000703096,True,7,1,0,0
PB043M20,4,216,PS,exp,42,↓,down,↓,0.6103846000041813,True,6,1,0,0
PB043M20,4,217,PS,exp,36,→,right,→,0.6427785999840125,True,6,1,0,0
PB043M20,4,218,PS,exp,43,↓,down,↓,0.6774194999597967,True,5,1,0,0
PB043M20,4,219,PS,exp,42,→,left,←,0.5812297000084072,False,5,-1,1,1
PB043M20,4,220,PS,exp,35,↑,down,↓,0.5391380999935791,False,6,-1,0,1
PB043M20,4,221,PS,exp,34,→,right,→,0.5451501000206918,True,7,-1,0,1
PB043M20,4,222,PS,exp,50,←,left,←,0.5428755999309942,True,7,1,1,2
PB043M20,4,223,PS,exp,30,→,right,→,1.1125964000821114,True,6,1,0,2
PB043M20,4,224,PS,exp,40,↓,down,↓,0.6293947000522166,True,6,1,0,2
PB043M20,4,225,PS,exp,31,→,right,→,0.5207825999241322,True,5,1,0,2
PB043M20,4,226,PS,exp,34,↓,right,→,0.3683813000097871,False,5,-1,1,3
PB043M20,4,227,PS,exp,39,←,right,→,0.5741649999981746,False,6,-1,0,3
PB043M20,4,228,PS,exp,48,→,up,↑,0.5963973999023438,False,7,-1,0,3
PB043M20,4,229,PS,exp,28,←,left,←,0.5601867999648675,True,8,-1,0,3
PB043M20,4,230,PS,exp,32,→,down,↓,0.7819400998996571,False,8,-1,0,3
PB043M20,4,231,PS,exp,25,↑,up,↑,0.6004092999501154,True,9,-1,0,3
PB043M20,4,232,PS,exp,32,→,up,↑,0.5905653999652714,False,9,-1,0,3
PB043M20,4,233,PS,exp,33,←,left,←,0.47740620002150536,True,10,-1,0,3
PB043M20,4,234,PS,exp,37,↑,left,←,0.45280640001874417,False,10,-1,0,3
PB043M20,4,235,PS,exp,48,←,left,←,0.7375256000086665,True,11,-1,0,3
PB043M20,4,236,PS,exp,27,↑,up,↑,0.4566717999987304,True,11,1,1,4
PB043M20,4,237,PS,exp,42,↓,up,↑,0.48430780007038265,False,10,-1,1,5
PB043M20,4,238,PS,exp,32,↑,left,←,0.9999636999564245,False,11,-1,0,5
PB043M20,4,239,PS,exp,34,←,left,←,0.6410373999970034,True,12,-1,0,5
PB043M20,4,240,PS,exp,35,→,right,→,0.5010903000365943,True,12,1,1,6
PB043M20,4,241,PS,exp,30,←,left,←,0.6519874000223354,True,11,1,0,6
PB043M20,4,242,PS,exp,50,→,right,→,0.4941154000116512,True,11,1,0,6
PB043M20,4,243,PS,exp,31,↑,up,↑,0.5773061000509188,True,10,1,0,6
PB043M20,4,244,PS,exp,36,↓,down,↓,0.8488881000084803,True,10,1,0,6
PB043M20,4,245,PS,exp,30,↑,up,↑,0.6568210000405088,True,9,1,0,6
PB043M20,4,246,PS,exp,48,←,left,←,0.5969717999687418,True,9,1,0,6
PB043M20,4,247,PS,exp,49,↓,right,→,0.6890322000253946,False,8,-1,1,7
PB043M20,4,248,PS,exp,38,↑,up,↑,0.5307340999133885,True,9,-1,0,7
PB043M20,4,249,PS,exp,29,←,left,←,0.5288880999432877,True,9,1,1,8
PB043M20,4,250,PS,exp,25,→,left,←,0.906026600045152,False,8,-1,1,9
PB043M20,4,251,PS,exp,41,←,left,←,0.9284216000232846,True,9,-1,0,9
PB043M20,4,252,PS,exp,49,↓,down,↓,0.6280751000158489,True,9,1,1,10
PB043M20,4,253,PS,exp,28,↑,up,↑,0.5273284000577405,True,8,1,0,10
PB043M20,4,254,PS,exp,26,↓,up,↑,0.6862629000097513,False,8,-1,1,11
PB043M20,4,255,PS,exp,27,→,left,←,0.8665469000115991,False,9,-1,0,11
PB043M20,4,256,PS,exp,33,↓,down,↓,0.5856947000138462,True,10,-1,0,11
PB043M20,4,257,PS,exp,41,→,right,→,0.4739922999870032,True,10,1,1,12
PB043M20,4,258,PS,exp,49,↑,up,↑,0.45906580006703734,True,9,1,0,12
PB043M20,4,259,PS,exp,50,↓,down,↓,0.5350553001044318,True,9,1,0,12
PB043M20,4,260,PS,exp,49,→,right,→,0.46455750009045005,True,8,1,0,12
PB043M20,4,261,PS,exp,32,↑,down,↓,0.7059246000135317,False,8,-1,1,13
PB043M20,4,262,PS,exp,39,→,right,→,0.4172805999405682,True,9,-1,0,13
PB043M20,4,263,PS,exp,43,↑,down,↓,0.7119520999258384,False,9,-1,0,13
PB043M20,4,264,PS,exp,35,↓,down,↓,0.5544201999437064,True,10,-1,0,13
PB043M20,4,265,PS,exp,27,↑,up,↑,0.5064784999703988,True,10,1,1,14
PB043M20,5,266,PS,intra_train,45,↓,down,↓,0.6101465000538155,True,13,-,-,-
PB043M20,5,267,PS,intra_train,28,←,right,→,0.6764322000090033,False,13,-,-,-
PB043M20,5,268,PS,intra_train,50,→,right,→,0.5618076999671757,True,13,-,-,-
PB043M20,5,269,PS,intra_train,43,←,left,←,0.5057798000052571,True,13,-,-,-
PB043M20,5,270,PS,intra_train,30,→,right,→,0.49753279995638877,True,13,-,-,-
PB043M20,5,271,PS,exp,40,↓,left,←,0.41536439990159124,False,9,-1,0,0
PB043M20,5,272,PS,exp,38,←,right,→,0.5020661000162363,False,10,-1,0,0
PB043M20,5,273,PS,exp,25,↑,up,↑,0.6270319999894127,True,11,-1,0,0
PB043M20,5,274,PS,exp,26,←,left,←,0.47184359992388636,True,11,1,1,1
PB043M20,5,275,PS,exp,45,↑,up,↑,0.5375824000220746,True,10,1,0,1
PB043M20,5,276,PS,exp,42,↓,down,↓,0.6187372000422329,True,10,1,0,1
PB043M20,5,277,PS,exp,39,→,right,→,0.5552199999801815,True,9,1,0,1
PB043M20,5,278,PS,exp,48,↑,up,↑,0.5359458000166342,True,9,1,0,1
PB043M20,5,279,PS,exp,31,↓,up,↑,0.45690380001906306,False,8,-1,1,2
PB043M20,5,280,PS,exp,31,←,up,↑,0.9357213000766933,False,9,-1,0,2
PB043M20,5,281,PS,exp,33,↓,down,↓,0.5225425999378785,True,10,-1,0,2
PB043M20,5,282,PS,exp,26,↑,up,↑,0.5170971999177709,True,10,1,1,3
PB043M20,5,283,PS,exp,41,←,left,←,0.5216109999455512,True,9,1,0,3
PB043M20,5,284,PS,exp,40,↓,down,↓,0.6473111000377685,True,9,1,0,3
PB043M20,5,285,PS,exp,30,→,right,→,0.5037563999649137,True,8,1,0,3
PB043M20,5,286,PS,exp,34,↑,right,→,0.4747468999121338,False,8,-1,1,4
PB043M20,5,287,PS,exp,37,←,right,→,0.6545036999741569,False,9,-1,0,4
PB043M20,5,288,PS,exp,44,↑,up,↑,0.6067532000597566,True,10,-1,0,4
PB043M20,5,289,PS,exp,33,←,left,←,0.5358699000207707,True,10,1,1,5
PB043M20,5,290,PS,exp,30,→,right,→,0.4503234999720007,True,9,1,0,5
PB043M20,5,291,PS,exp,31,↑,left,←,0.8553914999356493,False,9,-1,1,6
PB043M20,5,292,PS,exp,43,←,left,←,0.44760329998098314,True,10,-1,0,6
PB043M20,5,293,PS,exp,39,↓,right,→,0.6444116999628022,False,10,-1,0,6
PB043M20,5,294,PS,exp,33,→,right,→,0.6821124999551103,True,11,-1,0,6
PB043M20,5,295,PS,exp,30,↓,down,↓,0.6069555999711156,True,11,1,1,7
PB043M20,5,296,PS,exp,41,↑,up,↑,0.5968735999194905,True,10,1,0,7
PB043M20,5,297,PS,exp,48,↓,down,↓,0.5125223000068218,True,10,1,0,7
PB043M20,5,298,PS,exp,44,→,right,→,0.5867024000035599,True,9,1,0,7
PB043M20,5,299,PS,exp,40,↓,down,↓,0.6393852999899536,True,9,1,0,7
PB043M20,5,300,PS,exp,37,↑,up,↑,0.5058212999720126,True,8,1,0,7
PB043M20,5,301,PS,exp,35,←,left,←,0.4913650000235066,True,8,1,0,7
PB043M20,5,302,PS,exp,41,→,right,→,0.46776989998761564,True,7,1,0,7
PB043M20,5,303,PS,exp,42,←,left,←,0.7576800000388175,True,7,1,0,7
PB043M20,5,304,PS,exp,45,→,right,→,0.41993690002709627,True,6,1,0,7
PB043M20,5,305,PS,exp,49,↓,right,→,0.43684510001912713,False,6,-1,1,8
PB043M20,5,306,PS,exp,26,→,left,←,0.6827293999958783,False,7,-1,0,8
PB043M20,5,307,PS,exp,25,↓,down,↓,0.6523718999233097,True,8,-1,0,8
PB043M20,5,308,PS,exp,38,←,left,←,0.49137000006157905,True,8,1,1,9
PB043M20,5,309,PS,exp,44,↑,right,→,0.7703397999284789,False,7,-1,1,10
PB043M20,5,310,PS,exp,27,←,left,←,0.6123725000070408,True,8,-1,0,10
PB043M20,5,311,PS,exp,35,↑,right,→,0.38101460004691035,False,8,-1,0,10
PB043M20,5,312,PS,exp,48,←,right,→,1.0525058000348508,False,9,-1,0,10
PB043M20,5,313,PS,exp,50,↑,up,↑,0.7788020999869332,True,10,-1,0,10
PB043M20,5,314,PS,exp,42,↓,down,↓,0.8368160999380052,True,10,1,1,11
PB043M20,5,315,PS,exp,42,←,left,←,0.8489094000542536,True,9,1,0,11
PB043M20,5,316,PS,exp,36,↓,down,↓,0.6687225999776274,True,9,1,0,11
PB043M20,5,317,PS,exp,33,↑,up,↑,0.5053755999542773,True,8,1,0,11
PB043M20,5,318,PS,exp,48,↓,up,↑,0.3770176999969408,False,8,-1,1,12
PB043M20,5,319,PS,exp,40,↑,up,↑,0.9476249000290409,True,9,-1,0,12
PB043M20,5,320,PS,exp,43,↓,down,↓,0.36127750005107373,True,9,1,1,13
PB043M20,5,321,PS,exp,48,←,right,→,0.6337241000728682,False,8,-1,1,14
PB043M20,6,322,AS,intra_train,28,↓,down,↓,0.7107292000437155,True,24,-,-,-
PB043M20,6,323,AS,intra_train,32,←,left,←,0.6614946000045165,True,24,-,-,-
PB043M20,6,324,AS,intra_train,28,↑,up,↑,0.7726470000343397,True,24,-,-,-
PB043M20,6,325,AS,intra_train,32,←,left,←,0.6537381999660283,True,24,-,-,-
PB043M20,6,326,AS,intra_train,31,↑,up,↑,0.5334588000550866,True,24,-,-,-
PB043M20,6,327,AS,exp,33,←,left,←,0.6226095999591053,True,16,0,0,0
PB043M20,6,328,AS,exp,48,↑,up,↑,0.5317745000356808,True,16,1,0,0
PB043M20,6,329,AS,exp,27,←,down,↓,1.0448583000106737,False,15,-1,1,1
PB043M20,6,330,AS,exp,38,↓,up,↑,0.6104043999221176,False,16,-1,0,1
PB043M20,6,331,AS,exp,29,→,right,→,0.6052821000339463,True,17,-1,0,1
PB043M20,6,332,AS,exp,50,←,right,→,0.6284420000156388,False,17,-1,0,1
PB043M20,6,333,AS,exp,49,↓,down,↓,0.6234965999610722,True,18,-1,0,1
PB043M20,6,334,AS,exp,42,→,right,→,0.6042230000020936,True,18,1,1,2
PB043M20,6,335,AS,exp,34,↓,down,↓,0.6004362000385299,True,17,1,0,2
PB043M20,6,336,AS,exp,38,↑,up,↑,0.5399930999847129,True,17,1,0,2
PB043M20,6,337,AS,exp,50,←,left,←,0.5317840999923646,True,16,1,0,2
PB043M20,6,338,AS,exp,43,↓,up,↑,0.6652344999602064,False,16,-1,1,3
PB043M20,6,339,AS,exp,42,→,right,→,0.6008063999470323,True,17,-1,0,3
PB043M20,6,340,AS,exp,44,↓,down,↓,0.6211559999501333,True,17,1,1,4
PB043M20,6,341,AS,exp,39,↑,up,↑,0.614614500082098,True,16,1,0,4
PB043M20,6,342,AS,exp,40,←,right,→,0.6516824000282213,False,16,-1,1,5
PB043M20,6,343,AS,exp,46,↓,down,↓,0.5926512000150979,True,17,-1,0,5
PB043M20,6,344,AS,exp,31,↑,up,↑,0.6040396000025794,True,17,1,1,6
PB043M20,6,345,AS,exp,44,←,left,←,0.5962233999744058,True,16,1,0,6
PB043M20,6,346,AS,exp,48,↑,up,↑,0.749396999948658,True,16,1,0,6
PB043M20,6,347,AS,exp,33,↓,down,↓,0.6480504999635741,True,15,1,0,6
PB043M20,6,348,AS,exp,34,←,left,←,0.937074700021185,True,15,1,0,6
PB043M20,6,349,AS,exp,40,↑,up,↑,0.5495904000708833,True,14,1,0,6
PB043M20,6,350,AS,exp,44,←,left,←,0.5265313000418246,True,14,1,0,6
PB043M20,6,351,AS,exp,32,→,right,→,0.5171069001080468,True,13,1,0,6
PB043M20,6,352,AS,exp,36,←,left,←,0.5693474999861792,True,13,1,0,6
PB043M20,6,353,AS,exp,38,↓,down,↓,0.6326775000197813,True,12,1,0,6
PB043M20,6,354,AS,exp,43,→,right,→,0.5069469000445679,True,12,1,0,6
PB043M20,6,355,AS,exp,44,↓,down,↓,0.8114026000257581,True,11,1,0,6
PB043M20,6,356,AS,exp,50,↑,up,↑,0.597693599993363,True,11,1,0,6
PB043M20,6,357,AS,exp,36,→,right,→,0.5397761999629438,True,10,1,0,6
PB043M20,6,358,AS,exp,27,↑,up,↑,0.5413095999974757,True,10,1,0,6
PB043M20,6,359,AS,exp,50,↓,down,↓,0.5941060000332072,True,9,1,0,6
PB043M20,6,360,AS,exp,47,←,right,→,0.44829630001913756,False,9,-1,1,7
PB043M20,6,361,AS,exp,49,↓,up,↑,0.3616326000774279,False,10,-1,0,7
PB043M20,6,362,AS,exp,42,←,left,←,0.6375225000083447,True,11,-1,0,7
PB043M20,6,363,AS,exp,26,↑,up,↑,0.5489351999713108,True,11,1,1,8
PB043M20,6,364,AS,exp,45,→,right,→,0.5337167999241501,True,10,1,0,8
PB043M20,6,365,AS,exp,39,↑,up,↑,0.5722706000087783,True,10,1,0,8
PB043M20,6,366,AS,exp,28,↓,down,↓,0.607849600026384,True,9,1,0,8
PB043M20,6,367,AS,exp,26,→,up,↑,0.4924022000050172,False,9,-1,1,9
PB043M20,6,368,AS,exp,43,↑,up,↑,0.5904677000362426,True,10,-1,0,9
PB043M20,6,369,AS,exp,37,↓,down,↓,0.6574731000000611,True,10,1,1,10
PB043M20,6,370,AS,exp,27,→,right,→,0.6320369000313804,True,9,1,0,10
PB043M20,6,371,AS,exp,32,←,left,←,0.5962711999891326,True,9,1,0,10
PB043M20,6,372,AS,exp,38,↑,up,↑,1.2387974000303075,True,8,1,0,10
PB043M20,6,373,AS,exp,47,↓,down,↓,0.6446267999708652,True,8,1,0,10
PB043M20,6,374,AS,exp,26,↑,up,↑,0.6733023999258876,True,7,1,0,10
PB043M20,6,375,AS,exp,43,→,right,→,0.7040845999727026,True,7,1,0,10
PB043M20,6,376,AS,exp,39,↓,right,→,1.070940600009635,False,6,-1,1,11
PB043M20,6,377,AS,exp,25,→,right,→,0.7942444999935105,True,7,-1,0,11
PB043M20,6,378,AS,exp,37,←,right,→,1.0964832999743521,False,7,-1,0,11
PB043M20,6,379,AS,exp,31,↑,up,↑,1.1576368999667466,True,8,-1,0,11
PB043M20,6,380,AS,exp,35,→,down,↓,1.4874603999778628,False,8,-1,0,11
PB043M20,6,381,AS,exp,26,↓,left,←,1.0020952000049874,False,9,-1,0,11
PB043M20,6,382,AS,exp,31,→,right,→,0.6044390999013558,True,10,-1,0,11
PB043M20,6,383,AS,exp,49,↓,up,↑,0.716737600043416,False,10,-1,0,11
PB043M20,6,384,AS,exp,34,↑,right,→,0.8960466000717133,False,11,-1,0,11
PB043M20,6,385,AS,exp,31,→,right,→,0.5489431000314653,True,12,-1,0,11
PB043M20,6,386,AS,exp,40,↑,left,←,0.6569499999750406,False,12,-1,0,11
PB043M20,6,387,AS,exp,26,→,right,→,0.43196959991473705,True,13,-1,0,11
PB043M20,6,388,AS,exp,42,↑,up,↑,0.6563183000544086,True,13,1,1,12
PB043M20,6,389,AS,exp,25,←,left,←,0.8036933999974281,True,12,1,0,12
PB043M20,6,390,AS,exp,32,↓,down,↓,0.6729067000560462,True,12,1,0,12
PB043M20,6,391,AS,exp,48,←,left,←,0.8225682000629604,True,11,1,0,12
PB043M20,6,392,AS,exp,36,↓,down,↓,0.6671951999887824,True,11,1,0,12
PB043M20,6,393,AS,exp,27,↑,up,↑,1.1279900000663474,True,10,1,0,12
PB043M20,6,394,AS,exp,27,←,up,↑,0.6467319000512362,False,10,-1,1,13
PB043M20,6,395,AS,exp,35,↓,up,↑,1.2339140999829397,False,11,-1,0,13
PB043M20,6,396,AS,exp,48,↑,up,↑,0.8144998999778181,True,12,-1,0,13
PB043M20,6,397,AS,exp,42,←,right,→,0.6641306000528857,False,12,-1,0,13
PB043M20,6,398,AS,exp,27,↓,down,↓,0.7518934999825433,True,13,-1,0,13
PB043M20,6,399,AS,exp,38,→,up,↑,0.3958824999863282,False,13,-1,0,13
PB043M20,6,400,AS,exp,28,↑,up,↑,0.6824202999705449,True,14,-1,0,13
PB043M20,6,401,AS,exp,42,→,right,→,0.6280685000820085,True,14,1,1,14
PB043M20,7,402,AS,intra_train,43,↓,no_key,no_letter,-1.0,False,24,-,-,-
PB043M20,7,403,AS,intra_train,39,←,right,→,0.5171376999933273,False,24,-,-,-
PB043M20,7,404,AS,intra_train,27,↓,down,↓,0.6032281999941915,True,24,-,-,-
PB043M20,7,405,AS,intra_train,46,↑,up,↑,0.5985516000073403,True,24,-,-,-
PB043M20,7,406,AS,intra_train,49,←,no_key,no_letter,-1.0,False,24,-,-,-
PB043M20,7,407,AS,exp,47,→,right,→,0.7241140999831259,True,16,0,0,0
PB043M20,7,408,AS,exp,48,↓,down,↓,0.6435609000036493,True,16,1,0,0
PB043M20,7,409,AS,exp,43,→,right,→,0.502525599906221,True,15,1,0,0
PB043M20,7,410,AS,exp,32,↓,down,↓,0.601568799931556,True,15,1,0,0
PB043M20,7,411,AS,exp,30,←,right,→,0.5580548000289127,False,14,-1,1,1
PB043M20,7,412,AS,exp,27,→,right,→,0.5821694999467582,True,15,-1,0,1
PB043M20,7,413,AS,exp,33,↑,up,↑,0.6341643999330699,True,15,1,1,2
PB043M20,7,414,AS,exp,47,←,left,←,0.5054141000146046,True,14,1,0,2
PB043M20,7,415,AS,exp,27,↑,up,↑,0.5042061000131071,True,14,1,0,2
PB043M20,7,416,AS,exp,30,←,left,←,0.6460393000161275,True,13,1,0,2
PB043M20,7,417,AS,exp,47,↑,down,↓,0.6989486999809742,False,13,-1,1,3
PB043M20,7,418,AS,exp,45,→,right,→,0.49624480004422367,True,14,-1,0,3
PB043M20,7,419,AS,exp,48,←,right,→,0.5576100000180304,False,14,-1,0,3
PB043M20,7,420,AS,exp,39,↑,up,↑,0.6484330000821501,True,15,-1,0,3
PB043M20,7,421,AS,exp,40,←,right,→,0.6133125000633299,False,15,-1,0,3
PB043M20,7,422,AS,exp,44,→,left,←,0.7459758999757469,False,16,-1,0,3
PB043M20,7,423,AS,exp,29,↑,up,↑,0.5906072000507265,True,17,-1,0,3
PB043M20,7,424,AS,exp,27,→,right,→,0.6157938999822363,True,17,1,1,4
PB043M20,7,425,AS,exp,46,↓,down,↓,0.7155351999681443,True,16,1,0,4
PB043M20,7,426,AS,exp,37,←,left,←,0.5422431000042707,True,16,1,0,4
PB043M20,7,427,AS,exp,29,↑,up,↑,0.5115871999878436,True,15,1,0,4
PB043M20,7,428,AS,exp,40,←,left,←,0.5273395000258461,True,15,1,0,4
PB043M20,7,429,AS,exp,28,↓,up,↑,0.5401923999888822,False,14,-1,1,5
PB043M20,7,430,AS,exp,31,←,left,←,0.5911438999464735,True,15,-1,0,5
PB043M20,7,431,AS,exp,34,↓,down,↓,0.728008099948056,True,15,1,1,6
PB043M20,7,432,AS,exp,35,←,left,←,0.6251215999945998,True,14,1,0,6
PB043M20,7,433,AS,exp,45,↓,down,↓,0.6624157000333071,True,14,1,0,6
PB043M20,7,434,AS,exp,34,→,right,→,0.8339694000314921,True,13,1,0,6
PB043M20,7,435,AS,exp,33,←,left,←,0.6497795999748632,True,13,1,0,6
PB043M20,7,436,AS,exp,28,↑,up,↑,0.6667472999542952,True,12,1,0,6
PB043M20,7,437,AS,exp,37,→,right,→,0.6213745001005009,True,12,1,0,6
PB043M20,7,438,AS,exp,42,↓,down,↓,0.6458679999923334,True,11,1,0,6
PB043M20,7,439,AS,exp,38,↑,down,↓,0.8574889999581501,False,11,-1,1,7
PB043M20,7,440,AS,exp,32,←,up,↑,0.9672652999870479,False,12,-1,0,7
PB043M20,7,441,AS,exp,49,↓,up,↑,0.6175716000143439,False,13,-1,0,7
PB043M20,7,442,AS,exp,25,←,left,←,0.6305015999823809,True,14,-1,0,7
PB043M20,7,443,AS,exp,48,↑,right,→,0.49488489993382245,False,14,-1,0,7
PB043M20,7,444,AS,exp,31,↓,down,↓,0.644451400032267,True,15,-1,0,7
PB043M20,7,445,AS,exp,44,→,right,→,0.5935656999936327,True,15,1,1,8
PB043M20,7,446,AS,exp,40,←,left,←,0.5281876999652013,True,14,1,0,8
PB043M20,7,447,AS,exp,30,↑,up,↑,0.6549127999460325,True,14,1,0,8
PB043M20,7,448,AS,exp,31,→,left,←,0.5534478999907151,False,13,-1,1,9
PB043M20,7,449,AS,exp,45,↑,up,↑,0.6008688999572769,True,14,-1,0,9
PB043M20,7,450,AS,exp,28,↓,down,↓,0.6598003000253811,True,14,1,1,10
PB043M20,7,451,AS,exp,46,↑,up,↑,0.5279751000925899,True,13,1,0,10
PB043M20,7,452,AS,exp,35,→,right,→,0.4778525000438094,True,13,1,0,10
PB043M20,7,453,AS,exp,35,↑,up,↑,0.5069896000204608,True,12,1,0,10
PB043M20,7,454,AS,exp,44,→,right,→,0.6123130000196397,True,12,1,0,10
PB043M20,7,455,AS,exp,46,↑,up,↑,0.48466880002524704,True,11,1,0,10
PB043M20,7,456,AS,exp,28,←,left,←,0.624823399935849,True,11,1,0,10
PB043M20,7,457,AS,exp,31,→,right,→,0.6379163000965491,True,10,1,0,10
PB043M20,7,458,AS,exp,37,←,left,←,0.5866342999506742,True,10,1,0,10
PB043M20,7,459,AS,exp,28,↓,up,↑,0.5818842999869958,False,9,-1,1,11
PB043M20,7,460,AS,exp,45,↑,up,↑,0.489324799971655,True,10,-1,0,11
PB043M20,7,461,AS,exp,28,→,right,→,0.7088829999556765,True,10,1,1,12
PB043M20,7,462,AS,exp,38,←,right,→,0.6807492000516504,False,9,-1,1,13
PB043M20,7,463,AS,exp,25,→,right,→,0.5457716999808326,True,10,-1,0,13
PB043M20,7,464,AS,exp,50,←,left,←,0.5478616999462247,True,10,1,1,14
PB043M20,8,465,PS,intra_train,33,→,right,→,0.5833439000416547,True,13,-,-,-
PB043M20,8,466,PS,intra_train,39,←,right,→,0.46104679990094155,False,13,-,-,-
PB043M20,8,467,PS,intra_train,28,↓,up,↑,0.5555694999638945,False,13,-,-,-
PB043M20,8,468,PS,intra_train,26,←,left,←,0.6686703999293968,True,13,-,-,-
PB043M20,8,469,PS,intra_train,41,↓,down,↓,0.5552870000246912,True,13,-,-,-
PB043M20,8,470,PS,exp,43,←,left,←,0.5311039999360219,True,9,0,0,0
PB043M20,8,471,PS,exp,41,→,right,→,0.4419215000234544,True,9,1,0,0
PB043M20,8,472,PS,exp,31,↑,up,↑,0.7287596000824124,True,8,1,0,0
PB043M20,8,473,PS,exp,46,→,right,→,0.5274480999214575,True,8,1,0,0
PB043M20,8,474,PS,exp,33,←,right,→,0.40990070009138435,False,7,-1,1,1
PB043M20,8,475,PS,exp,38,↓,right,→,0.3655999000184238,False,8,-1,0,1
PB043M20,8,476,PS,exp,37,→,left,←,0.803473399952054,False,9,-1,0,1
PB043M20,8,477,PS,exp,48,↓,down,↓,0.5057886000722647,True,10,-1,0,1
PB043M20,8,478,PS,exp,31,↑,up,↑,0.42744080000557005,True,10,1,1,2
PB043M20,8,479,PS,exp,46,↓,up,↑,0.7458586000138894,False,9,-1,1,3
PB043M20,8,480,PS,exp,42,↑,up,↑,0.45104519999586046,True,10,-1,0,3
PB043M20,8,481,PS,exp,26,→,right,→,0.42201779992319643,True,10,1,1,4
PB043M20,8,482,PS,exp,37,↑,up,↑,0.4131068999413401,True,9,1,0,4
PB043M20,8,483,PS,exp,32,↓,down,↓,0.5533015999244526,True,9,1,0,4
PB043M20,8,484,PS,exp,32,←,left,←,0.4231447000056505,True,8,1,0,4
PB043M20,8,485,PS,exp,48,→,left,←,0.7799207998905331,False,8,-1,1,5
PB043M20,8,486,PS,exp,46,↓,down,↓,0.4349070000462234,True,9,-1,0,5
PB043M20,8,487,PS,exp,48,→,down,↓,0.6192418000428006,False,9,-1,0,5
PB043M20,8,488,PS,exp,35,←,up,↑,0.4657746999291703,False,10,-1,0,5
PB043M20,8,489,PS,exp,41,→,right,→,0.5005630999803543,True,11,-1,0,5
PB043M20,8,490,PS,exp,34,↑,up,↑,0.5076990000670776,True,11,1,1,6
PB043M20,8,491,PS,exp,43,→,right,→,0.4928094999631867,True,10,1,0,6
PB043M20,8,492,PS,exp,26,↑,up,↑,0.4634599999990314,True,10,1,0,6
PB043M20,8,493,PS,exp,50,↓,right,→,0.40196300006937236,False,9,-1,1,7
PB043M20,8,494,PS,exp,29,←,left,←,0.5977597000310197,True,10,-1,0,7
PB043M20,8,495,PS,exp,35,→,right,→,0.36821190000046045,True,10,1,1,8
PB043M20,8,496,PS,exp,27,↑,left,←,0.45632019999902695,False,9,-1,1,9
PB043M20,8,497,PS,exp,47,↓,up,↑,0.335745400050655,False,10,-1,0,9
PB043M20,8,498,PS,exp,46,←,left,←,0.5637491999659687,True,11,-1,0,9
PB043M20,8,499,PS,exp,43,↓,right,→,0.38496019993908703,False,11,-1,0,9
PB043M20,8,500,PS,exp,33,←,left,←,0.5057698999298736,True,12,-1,0,9
PB043M20,8,501,PS,exp,44,↓,down,↓,0.6198794000083581,True,12,1,1,10
PB043M20,8,502,PS,exp,30,↑,up,↑,0.4986197000835091,True,11,1,0,10
PB043M20,8,503,PS,exp,33,↓,down,↓,0.5888548999791965,True,11,1,0,10
PB043M20,8,504,PS,exp,28,←,left,←,0.51179769996088,True,10,1,0,10
PB043M20,8,505,PS,exp,31,↓,right,→,0.3002487999619916,False,10,-1,1,11
PB043M20,8,506,PS,exp,46,↑,up,↑,0.4276473999489099,True,11,-1,0,11
PB043M20,8,507,PS,exp,44,↓,right,→,0.2503832000074908,False,11,-1,0,11
PB043M20,8,508,PS,exp,26,←,left,←,0.5882294999901205,True,12,-1,0,11
PB043M20,8,509,PS,exp,42,↓,down,↓,0.7038619999075308,True,12,1,1,12
PB043M20,8,510,PS,exp,36,↑,up,↑,0.6968495000619441,True,11,1,0,12
PB043M20,8,511,PS,exp,47,↓,down,↓,0.8323472000192851,True,11,1,0,12
PB043M20,8,512,PS,exp,45,←,left,←,0.5214908999623731,True,10,1,0,12
PB043M20,8,513,PS,exp,36,→,right,→,0.48573930002748966,True,10,1,0,12
PB043M20,8,514,PS,exp,44,↑,up,↑,0.4309941000537947,True,9,1,0,12
PB043M20,8,515,PS,exp,35,←,left,←,0.6962567999726161,True,9,1,0,12
PB043M20,8,516,PS,exp,50,→,left,←,0.7330335999140516,False,8,-1,1,13
PB043M20,8,517,PS,exp,47,↑,up,↑,0.4888261000160128,True,9,-1,0,13
PB043M20,8,518,PS,exp,28,→,right,→,0.45149080001283437,True,9,1,1,14
