PART_ID,Block_no,Trial_no,Block_type,Trial_type,CSI,Stim_letter,Key_pressed,letter_choose,Rt,Corr,Stimulus Time,Level,Reversal,Revs_count
PB059K22,1,1,PS,train,26,←,left,←,1.4776890999928582,True,30,-,-,-
PB059K22,1,2,PS,train,28,↑,up,↑,0.849717100005364,True,30,-,-,-
PB059K22,1,3,PS,train,35,←,left,←,0.8280164000170771,True,30,-,-,-
PB059K22,1,4,PS,train,47,↓,down,↓,0.9364370999974199,True,30,-,-,-
PB059K22,1,5,PS,train,38,↑,up,↑,0.8520354999927804,True,30,-,-,-
PB059K22,1,6,PS,train,26,←,left,←,0.5334698999940883,True,30,-,-,-
PB059K22,1,7,PS,train,27,→,right,→,0.5170632000081241,True,30,-,-,-
PB059K22,1,8,PS,train,26,↓,down,↓,0.8267269000061788,True,30,-,-,-
PB059K22,1,9,PS,train,28,←,left,←,1.8022323999903165,True,30,-,-,-
PB059K22,1,10,PS,train,29,↓,down,↓,0.7438637999875937,True,30,-,-,-
PB059K22,2,11,AS,train,31,←,left,←,0.6344969999918249,True,45,-,-,-
PB059K22,2,12,AS,train,36,↑,up,↑,0.7335692000051495,True,45,-,-,-
PB059K22,2,13,AS,train,47,↓,down,↓,1.5357599999988452,True,45,-,-,-
PB059K22,2,14,AS,train,49,←,left,←,0.617849699978251,True,45,-,-,-
PB059K22,2,15,AS,train,50,↓,down,↓,0.8503489000140689,True,45,-,-,-
PB059K22,2,16,AS,train,34,↑,up,↑,0.7011534000048414,True,45,-,-,-
PB059K22,2,17,AS,train,26,→,right,→,0.8340474000142422,True,45,-,-,-
PB059K22,2,18,AS,train,38,←,left,←,0.6180205999989994,True,45,-,-,-
PB059K22,2,19,AS,train,44,↓,left,←,0.43448260001605377,False,45,-,-,-
PB059K22,2,20,AS,train,44,↑,up,↑,0.8004240000154823,True,45,-,-,-
PB059K22,-,21,PS,adaptive,34,↓,down,↓,0.6529064000060316,True,10,0,0,0
PB059K22,-,22,PS,adaptive,45,↑,up,↑,0.6609099000052083,True,10,1,0,0
PB059K22,-,23,PS,adaptive,47,←,up,↑,1.3884831999894232,False,9,-1,1,1
PB059K22,-,24,PS,adaptive,46,→,right,→,0.6115481999877375,True,10,-1,0,1
PB059K22,-,25,PS,adaptive,49,↓,up,↑,1.417115099990042,False,10,-1,0,1
PB059K22,-,26,PS,adaptive,25,↑,up,↑,0.6359299000177998,True,11,-1,0,1
PB059K22,-,27,PS,adaptive,26,←,no_key,no_letter,-1.0,False,11,-1,0,1
PB059K22,-,28,PS,adaptive,48,↑,up,↑,0.6090802999970037,True,12,-1,0,1
PB059K22,-,29,PS,adaptive,27,→,right,→,0.5579838000121526,True,12,1,1,2
PB059K22,-,30,PS,adaptive,42,↓,down,↓,0.6270863999961875,True,11,1,0,2
PB059K22,-,31,PS,adaptive,34,←,left,←,0.5523012999910861,True,11,1,0,2
PB059K22,-,32,PS,adaptive,28,↓,down,↓,0.8802853999950457,True,10,1,0,2
PB059K22,-,33,PS,adaptive,33,↑,down,↓,0.8750918000005186,False,10,-1,1,3
PB059K22,-,34,PS,adaptive,47,←,down,↓,1.3096189000061713,False,11,-1,0,3
PB059K22,-,35,PS,adaptive,46,→,right,→,0.4643305000208784,True,12,-1,0,3
PB059K22,-,36,PS,adaptive,34,←,left,←,0.6142383999831509,True,12,1,1,4
PB059K22,-,37,AS,adaptive,39,↓,down,↓,0.5997386999952141,True,20,0,0,0
PB059K22,-,38,AS,adaptive,26,←,left,←,0.6775629000039771,True,20,1,0,0
PB059K22,-,39,AS,adaptive,26,↓,down,↓,0.6428796999971382,True,19,1,0,0
PB059K22,-,40,AS,adaptive,34,↑,up,↑,0.5315110999799799,True,19,1,0,0
PB059K22,-,41,AS,adaptive,34,←,left,←,0.5918004999984987,True,18,1,0,0
PB059K22,-,42,AS,adaptive,48,↑,up,↑,0.5644005999783985,True,18,1,0,0
PB059K22,-,43,AS,adaptive,32,→,right,→,0.512441700004274,True,17,1,0,0
PB059K22,-,44,AS,adaptive,48,↓,down,↓,0.7101573999971151,True,17,1,0,0
PB059K22,-,45,AS,adaptive,26,↑,up,↑,0.5633466999861412,True,16,1,0,0
PB059K22,-,46,AS,adaptive,49,←,left,←,1.0796446000167634,True,16,1,0,0
PB059K22,-,47,AS,adaptive,33,↓,up,↑,0.9956355000031181,False,15,-1,1,1
PB059K22,-,48,AS,adaptive,50,↑,up,↑,0.5444105000060517,True,16,-1,0,1
PB059K22,-,49,AS,adaptive,38,↓,down,↓,0.9619642000179738,True,16,1,1,2
PB059K22,-,50,AS,adaptive,37,←,left,←,0.5301860999898054,True,15,1,0,2
PB059K22,-,51,AS,adaptive,32,↓,down,↓,0.62217590000364,True,15,1,0,2
PB059K22,-,52,AS,adaptive,44,←,left,←,0.47393550002016127,True,14,1,0,2
PB059K22,-,53,AS,adaptive,43,↓,down,↓,0.4693892999785021,True,14,1,0,2
PB059K22,-,54,AS,adaptive,32,→,right,→,0.40340569999534637,True,13,1,0,2
PB059K22,-,55,AS,adaptive,50,↓,down,↓,0.4316889999900013,True,13,1,0,2
PB059K22,-,56,AS,adaptive,50,←,left,←,0.8570823000045493,True,12,1,0,2
PB059K22,-,57,AS,adaptive,26,→,right,→,1.0342117999971379,True,12,1,0,2
PB059K22,-,58,AS,adaptive,40,↑,up,↑,0.9894281000015326,True,11,1,0,2
PB059K22,-,59,AS,adaptive,45,←,left,←,0.8140814000216778,True,11,1,0,2
PB059K22,-,60,AS,adaptive,25,→,right,→,0.7880500000028405,True,10,1,0,2
PB059K22,-,61,AS,adaptive,31,←,left,←,0.4703424999897834,True,10,1,0,2
PB059K22,-,62,AS,adaptive,32,→,left,←,0.672687100013718,False,9,-1,1,3
PB059K22,-,63,AS,adaptive,42,←,left,←,0.4496383999940008,True,10,-1,0,3
PB059K22,-,64,AS,adaptive,50,→,right,→,0.4631292999838479,True,10,1,1,4
PB059K22,1,65,PS,intra_train,45,↑,up,↑,1.1094035000132862,True,16,-,-,-
PB059K22,1,66,PS,intra_train,35,←,left,←,0.4674862999818288,True,16,-,-,-
PB059K22,1,67,PS,intra_train,44,↓,down,↓,0.7447760000068229,True,16,-,-,-
PB059K22,1,68,PS,intra_train,32,↑,up,↑,0.5462167999939993,True,16,-,-,-
PB059K22,1,69,PS,intra_train,29,↓,down,↓,0.6265409999759868,True,16,-,-,-
PB059K22,1,70,PS,exp,31,↑,up,↑,0.5922336999792606,True,11,0,0,0
PB059K22,1,71,PS,exp,44,↓,down,↓,0.5750698000192642,True,11,1,0,0
PB059K22,1,72,PS,exp,45,↑,up,↑,0.5684486999816727,True,10,1,0,0
PB059K22,1,73,PS,exp,42,←,left,←,0.432994000002509,True,10,1,0,0
PB059K22,1,74,PS,exp,35,→,right,→,0.5717000000004191,True,9,1,0,0
PB059K22,1,75,PS,exp,38,←,left,←,0.6785511999914888,True,9,1,0,0
PB059K22,1,76,PS,exp,31,→,left,←,0.7659447000187356,False,8,-1,1,1
PB059K22,1,77,PS,exp,29,↓,down,↓,0.5380271000030916,True,9,-1,0,1
PB059K22,1,78,PS,exp,33,←,down,↓,0.8579558999917936,False,9,-1,0,1
PB059K22,1,79,PS,exp,39,↓,down,↓,1.5642873999895528,True,10,-1,0,1
PB059K22,1,80,PS,exp,38,→,right,→,0.5332546999852639,True,10,1,1,2
PB059K22,1,81,PS,exp,47,↓,up,↑,1.2032970000000205,False,9,-1,1,3
PB059K22,1,82,PS,exp,37,→,right,→,0.5277157999807969,True,10,-1,0,3
PB059K22,1,83,PS,exp,38,↑,up,↑,0.5082026999734808,True,10,1,1,4
PB059K22,1,84,PS,exp,35,↓,down,↓,0.6027353999961633,True,9,1,0,4
PB059K22,1,85,PS,exp,45,←,left,←,0.5393425999791361,True,9,1,0,4
PB059K22,1,86,PS,exp,25,↓,down,↓,0.5307804000040051,True,8,1,0,4
PB059K22,1,87,PS,exp,41,←,left,←,0.48688270000275224,True,8,1,0,4
PB059K22,1,88,PS,exp,27,↓,down,↓,0.478475999989314,True,7,1,0,4
PB059K22,1,89,PS,exp,50,←,left,←,0.8603569999977481,True,7,1,0,4
PB059K22,1,90,PS,exp,26,→,right,→,0.489261600014288,True,6,1,0,4
PB059K22,1,91,PS,exp,35,←,right,→,0.6558829999994487,False,6,-1,1,5
PB059K22,1,92,PS,exp,37,↑,up,↑,0.5958780999935698,True,7,-1,0,5
PB059K22,1,93,PS,exp,42,→,left,←,0.7812727000273298,False,7,-1,0,5
PB059K22,1,94,PS,exp,48,←,left,←,0.48784149999846704,True,8,-1,0,5
PB059K22,1,95,PS,exp,27,↓,left,←,0.6194219999888446,False,8,-1,0,5
PB059K22,1,96,PS,exp,37,↑,up,↑,0.4966292000026442,True,9,-1,0,5
PB059K22,1,97,PS,exp,42,←,right,→,0.6219568999949843,False,9,-1,0,5
PB059K22,1,98,PS,exp,49,→,right,→,0.5525747000065167,True,10,-1,0,5
PB059K22,1,99,PS,exp,45,↑,left,←,1.0154564999975264,False,10,-1,0,5
PB059K22,1,100,PS,exp,32,→,right,→,0.5691982999851461,True,11,-1,0,5
PB059K22,1,101,PS,exp,47,↓,down,↓,0.6690506000013556,True,11,1,1,6
PB059K22,1,102,PS,exp,28,→,right,→,0.5959200000215787,True,10,1,0,6
PB059K22,1,103,PS,exp,43,←,left,←,0.5154123000102118,True,10,1,0,6
PB059K22,1,104,PS,exp,45,→,right,→,0.43367899997974746,True,9,1,0,6
PB059K22,1,105,PS,exp,50,↓,right,→,0.7177329999976791,False,9,-1,1,7
PB059K22,1,106,PS,exp,26,←,left,←,0.5404565999924671,True,10,-1,0,7
PB059K22,1,107,PS,exp,27,↑,right,→,0.8800656000094023,False,10,-1,0,7
PB059K22,1,108,PS,exp,50,↓,left,←,0.9383004999835975,False,11,-1,0,7
PB059K22,1,109,PS,exp,50,→,right,→,0.6229855999990832,True,12,-1,0,7
PB059K22,1,110,PS,exp,30,←,left,←,0.582395200006431,True,12,1,1,8
PB059K22,1,111,PS,exp,42,→,right,→,0.4974831000145059,True,11,1,0,8
PB059K22,1,112,PS,exp,27,↑,up,↑,0.7859614999906626,True,11,1,0,8
PB059K22,1,113,PS,exp,47,↓,left,←,0.9658635999949183,False,10,-1,1,9
PB059K22,1,114,PS,exp,33,→,right,→,0.4676843000052031,True,11,-1,0,9
PB059K22,1,115,PS,exp,36,↓,left,←,0.6010547000041697,False,11,-1,0,9
PB059K22,1,116,PS,exp,46,→,right,→,0.5205477999988943,True,12,-1,0,9
PB059K22,1,117,PS,exp,30,↓,right,→,0.4974073000194039,False,12,-1,0,9
PB059K22,1,118,PS,exp,42,→,right,→,0.45006209998973645,True,13,-1,0,9
PB059K22,1,119,PS,exp,45,↓,down,↓,0.5053122999961488,True,13,1,1,10
PB059K22,1,120,PS,exp,29,←,left,←,0.49052900000242516,True,12,1,0,10
PB059K22,1,121,PS,exp,46,↓,left,←,0.9687734000035562,False,12,-1,1,11
PB059K22,1,122,PS,exp,43,←,left,←,0.4906248999759555,True,13,-1,0,11
PB059K22,1,123,PS,exp,25,→,left,←,1.6988768999872264,False,13,-1,0,11
PB059K22,1,124,PS,exp,26,←,left,←,0.4594615999958478,True,14,-1,0,11
PB059K22,1,125,PS,exp,30,→,right,→,0.7005735999846365,True,14,1,1,12
PB059K22,1,126,PS,exp,29,←,no_key,no_letter,-1.0,False,13,-1,1,13
PB059K22,1,127,PS,exp,43,↓,down,↓,0.48011869998299517,True,14,-1,0,13
PB059K22,1,128,PS,exp,37,↑,up,↑,0.6584113999851979,True,14,1,1,14
PB059K22,2,129,AS,intra_train,33,↓,no_key,no_letter,-1.0,False,13,-,-,-
PB059K22,2,130,AS,intra_train,30,→,left,←,0.739214399975026,False,13,-,-,-
PB059K22,2,131,AS,intra_train,33,↑,up,↑,1.2555577000021003,True,13,-,-,-
PB059K22,2,132,AS,intra_train,42,→,right,→,0.6634717999841087,True,13,-,-,-
PB059K22,2,133,AS,intra_train,44,←,right,→,0.8243928000156302,False,13,-,-,-
PB059K22,2,134,AS,exp,31,→,left,←,0.6656929999880958,False,9,-1,0,0
PB059K22,2,135,AS,exp,37,↑,right,→,0.7340326000121422,False,10,-1,0,0
PB059K22,2,136,AS,exp,39,→,right,→,0.9932060000137426,True,11,-1,0,0
PB059K22,2,137,AS,exp,26,←,left,←,0.5741505999758374,True,11,1,1,1
PB059K22,2,138,AS,exp,38,→,left,←,0.624271000007866,False,10,-1,1,2
PB059K22,2,139,AS,exp,38,↓,up,↑,0.588576899986947,False,11,-1,0,2
PB059K22,2,140,AS,exp,32,→,right,→,0.6487520000082441,True,12,-1,0,2
PB059K22,2,141,AS,exp,46,←,left,←,0.49600850002025254,True,12,1,1,3
PB059K22,2,142,AS,exp,36,↓,up,↑,0.696156299993163,False,11,-1,1,4
PB059K22,2,143,AS,exp,30,←,left,←,0.6255211999814492,True,12,-1,0,4
PB059K22,2,144,AS,exp,33,→,right,→,0.4332975000143051,True,12,1,1,5
PB059K22,2,145,AS,exp,49,↓,right,→,0.9680238000000827,False,11,-1,1,6
PB059K22,2,146,AS,exp,27,↑,up,↑,0.5612108000204898,True,12,-1,0,6
PB059K22,2,147,AS,exp,32,→,right,→,0.5862617999955546,True,12,1,1,7
PB059K22,2,148,AS,exp,39,↑,left,←,0.39306670002406463,False,11,-1,1,8
PB059K22,2,149,AS,exp,44,←,left,←,0.48225669999374077,True,12,-1,0,8
PB059K22,2,150,AS,exp,38,↓,right,→,0.7305842000059783,False,12,-1,0,8
PB059K22,2,151,AS,exp,31,↑,up,↑,0.5273624999972526,True,13,-1,0,8
PB059K22,2,152,AS,exp,25,→,left,←,0.5742230000032578,False,13,-1,0,8
PB059K22,2,153,AS,exp,44,↓,down,↓,0.6751807999971788,True,14,-1,0,8
PB059K22,2,154,AS,exp,42,↑,up,↑,0.6528030000044964,True,14,1,1,9
PB059K22,2,155,AS,exp,46,↓,left,←,1.2157191000005696,False,13,-1,1,10
PB059K22,2,156,AS,exp,32,←,left,←,0.6318289999908302,True,14,-1,0,10
PB059K22,2,157,AS,exp,50,↓,up,↑,1.2993848999904003,False,14,-1,0,10
PB059K22,2,158,AS,exp,47,←,right,→,0.8865775000012945,False,15,-1,0,10
PB059K22,2,159,AS,exp,37,↑,up,↑,0.6982572999841068,True,16,-1,0,10
PB059K22,2,160,AS,exp,30,→,right,→,0.6246589999936987,True,16,1,1,11
PB059K22,2,161,AS,exp,38,↑,up,↑,0.8980144999804907,True,15,1,0,11
PB059K22,2,162,AS,exp,29,←,left,←,0.5703848999983165,True,15,1,0,11
PB059K22,2,163,AS,exp,36,↑,left,←,0.9236400999943726,False,14,-1,1,12
PB059K22,2,164,AS,exp,46,→,right,→,0.5745562999800313,True,15,-1,0,12
PB059K22,2,165,AS,exp,28,↑,left,←,0.7728943999973126,False,15,-1,0,12
PB059K22,2,166,AS,exp,32,←,left,←,0.5978057000029366,True,16,-1,0,12
PB059K22,2,167,AS,exp,33,↑,up,↑,0.738269900000887,True,16,1,1,13
PB059K22,2,168,AS,exp,28,↓,up,↑,1.3952583000063896,False,15,-1,1,14
PB059K22,3,169,AS,intra_train,49,↑,left,←,0.9497647999960463,False,13,-,-,-
PB059K22,3,170,AS,intra_train,45,↓,down,↓,0.5650631000171416,True,13,-,-,-
PB059K22,3,171,AS,intra_train,29,←,left,←,0.5454889000102412,True,13,-,-,-
PB059K22,3,172,AS,intra_train,41,↓,left,←,0.5800222000107169,False,13,-,-,-
PB059K22,3,173,AS,intra_train,43,←,left,←,0.5193682000099216,True,13,-,-,-
PB059K22,3,174,AS,exp,36,↓,no_key,no_letter,-1.0,False,9,-1,0,0
PB059K22,3,175,AS,exp,36,→,left,←,0.7961021999944933,False,10,-1,0,0
PB059K22,3,176,AS,exp,44,↑,left,←,1.2775646999944001,False,11,-1,0,0
PB059K22,3,177,AS,exp,26,←,left,←,0.45472950002294965,True,12,-1,0,0
PB059K22,3,178,AS,exp,43,→,right,→,0.4057598000217695,True,12,1,1,1
PB059K22,3,179,AS,exp,27,↓,left,←,0.7635388000053354,False,11,-1,1,2
PB059K22,3,180,AS,exp,26,←,left,←,0.4362402999831829,True,12,-1,0,2
PB059K22,3,181,AS,exp,43,→,right,→,0.44523059998755343,True,12,1,1,3
PB059K22,3,182,AS,exp,47,←,left,←,0.6028992999927141,True,11,1,0,3
PB059K22,3,183,AS,exp,47,↑,up,↑,0.6631660999846645,True,11,1,0,3
PB059K22,3,184,AS,exp,46,↓,left,←,0.6845382000028621,False,10,-1,1,4
PB059K22,3,185,AS,exp,28,→,right,→,0.4706638000207022,True,11,-1,0,4
PB059K22,3,186,AS,exp,45,←,left,←,0.4708450000034645,True,11,1,1,5
PB059K22,3,187,AS,exp,33,↑,up,↑,0.5219204000022728,True,10,1,0,5
PB059K22,3,188,AS,exp,34,↓,left,←,0.7904516999842599,False,10,-1,1,6
PB059K22,3,189,AS,exp,32,←,left,←,0.6115227999980561,True,11,-1,0,6
PB059K22,3,190,AS,exp,39,↓,left,←,0.7020831000118051,False,11,-1,0,6
PB059K22,3,191,AS,exp,41,→,left,←,0.6751522999838926,False,12,-1,0,6
PB059K22,3,192,AS,exp,31,↓,up,↑,0.9957501000026241,False,13,-1,0,6
PB059K22,3,193,AS,exp,36,↑,up,↑,0.4449542000074871,True,14,-1,0,6
PB059K22,3,194,AS,exp,37,←,left,←,0.4087592999858316,True,14,1,1,7
PB059K22,3,195,AS,exp,40,→,left,←,0.5352359999960754,False,13,-1,1,8
PB059K22,3,196,AS,exp,48,←,left,←,0.45315210000262596,True,14,-1,0,8
PB059K22,3,197,AS,exp,28,↓,right,→,0.9107656999840401,False,14,-1,0,8
PB059K22,3,198,AS,exp,28,→,left,←,0.627238999994006,False,15,-1,0,8
PB059K22,3,199,AS,exp,49,↓,up,↑,0.7222475000016857,False,16,-1,0,8
PB059K22,3,200,AS,exp,50,→,left,←,0.4662792999879457,False,17,-1,0,8
PB059K22,3,201,AS,exp,45,←,right,→,1.4264507999760099,False,18,-1,0,8
PB059K22,3,202,AS,exp,38,↓,down,↓,0.7157803000009153,True,19,-1,0,8
PB059K22,3,203,AS,exp,25,←,left,←,0.5282061999896541,True,19,1,1,9
PB059K22,3,204,AS,exp,28,↑,left,←,1.2674286999972537,False,18,-1,1,10
PB059K22,3,205,AS,exp,47,→,right,→,0.4501067000092007,True,19,-1,0,10
PB059K22,3,206,AS,exp,35,←,left,←,0.7353448000212666,True,19,1,1,11
PB059K22,3,207,AS,exp,46,↑,up,↑,0.7646867999865208,True,18,1,0,11
PB059K22,3,208,AS,exp,31,←,left,←,0.6143848999927286,True,18,1,0,11
PB059K22,3,209,AS,exp,35,→,right,→,1.7085503000125755,True,17,1,0,11
PB059K22,3,210,AS,exp,50,↑,up,↑,1.2613093000254594,True,17,1,0,11
PB059K22,3,211,AS,exp,26,↓,up,↑,0.9706329999899026,False,16,-1,1,12
PB059K22,3,212,AS,exp,26,↑,up,↑,0.5915312000142876,True,17,-1,0,12
PB059K22,3,213,AS,exp,46,←,left,←,0.46280949999345466,True,17,1,1,13
PB059K22,3,214,AS,exp,31,↓,up,↑,0.9711411000171211,False,16,-1,1,14
PB059K22,4,215,PS,intra_train,33,←,left,←,0.5717783999862149,True,16,-,-,-
PB059K22,4,216,PS,intra_train,48,↑,up,↑,0.4966634000011254,True,16,-,-,-
PB059K22,4,217,PS,intra_train,34,←,left,←,0.8656719999853522,True,16,-,-,-
PB059K22,4,218,PS,intra_train,31,→,right,→,0.49765070001012646,True,16,-,-,-
PB059K22,4,219,PS,intra_train,33,↓,left,←,1.017391499975929,False,16,-,-,-
PB059K22,4,220,PS,exp,42,→,right,→,0.5010352000244893,True,11,0,0,0
PB059K22,4,221,PS,exp,30,↑,up,↑,0.9512502000143286,True,11,1,0,0
PB059K22,4,222,PS,exp,40,←,left,←,0.552526499988744,True,10,1,0,0
PB059K22,4,223,PS,exp,32,↓,down,↓,0.5726113999844529,True,10,1,0,0
PB059K22,4,224,PS,exp,47,→,right,→,0.5325455999991391,True,9,1,0,0
PB059K22,4,225,PS,exp,38,↑,up,↑,0.5428927000029944,True,9,1,0,0
PB059K22,4,226,PS,exp,31,←,left,←,0.5940892000216991,True,8,1,0,0
PB059K22,4,227,PS,exp,49,↑,up,↑,0.6447456999740098,True,8,1,0,0
PB059K22,4,228,PS,exp,44,←,left,←,0.5883398999867495,True,7,1,0,0
PB059K22,4,229,PS,exp,25,↓,left,←,0.6758396999794059,False,7,-1,1,1
PB059K22,4,230,PS,exp,25,↑,up,↑,0.5419463000143878,True,8,-1,0,1
PB059K22,4,231,PS,exp,36,↓,down,↓,0.48964539999724366,True,8,1,1,2
PB059K22,4,232,PS,exp,47,↑,down,↓,0.8747402000008151,False,7,-1,1,3
PB059K22,4,233,PS,exp,35,←,left,←,0.619257899990771,True,8,-1,0,3
PB059K22,4,234,PS,exp,29,→,right,→,0.5057908000017051,True,8,1,1,4
PB059K22,4,235,PS,exp,41,←,left,←,0.426721700001508,True,7,1,0,4
PB059K22,4,236,PS,exp,48,→,right,→,0.5577050000138115,True,7,1,0,4
PB059K22,4,237,PS,exp,46,←,left,←,0.4989855000167154,True,6,1,0,4
PB059K22,4,238,PS,exp,49,↑,left,←,0.5335456999891903,False,6,-1,1,5
PB059K22,4,239,PS,exp,38,→,left,←,0.6311480000149459,False,7,-1,0,5
PB059K22,4,240,PS,exp,49,←,left,←,0.6133613999991212,True,8,-1,0,5
PB059K22,4,241,PS,exp,43,→,right,→,0.49851579999085516,True,8,1,1,6
PB059K22,4,242,PS,exp,45,←,left,←,0.6330343000008725,True,7,1,0,6
PB059K22,4,243,PS,exp,40,↑,right,→,0.4873082999838516,False,7,-1,1,7
PB059K22,4,244,PS,exp,37,↓,left,←,0.48074590001488104,False,8,-1,0,7
PB059K22,4,245,PS,exp,48,←,left,←,0.7139212999900337,True,9,-1,0,7
PB059K22,4,246,PS,exp,50,→,right,→,0.4872691000055056,True,9,1,1,8
PB059K22,4,247,PS,exp,48,↑,left,←,0.5577411999984179,False,8,-1,1,9
PB059K22,4,248,PS,exp,40,←,left,←,0.40644350001821294,True,9,-1,0,9
PB059K22,4,249,PS,exp,45,→,right,→,0.43191959999967366,True,9,1,1,10
PB059K22,4,250,PS,exp,43,↑,left,←,0.6800675000122283,False,8,-1,1,11
PB059K22,4,251,PS,exp,31,←,left,←,0.46243990000220947,True,9,-1,0,11
PB059K22,4,252,PS,exp,49,↓,down,↓,0.6063044000184163,True,9,1,1,12
PB059K22,4,253,PS,exp,48,←,left,←,0.45039230000111274,True,8,1,0,12
PB059K22,4,254,PS,exp,38,↑,left,←,0.6966332999872975,False,8,-1,1,13
PB059K22,4,255,PS,exp,29,←,left,←,0.40848209999967366,True,9,-1,0,13
PB059K22,4,256,PS,exp,41,↓,right,→,0.5377279999956954,False,9,-1,0,13
PB059K22,4,257,PS,exp,27,↑,left,←,0.7475246000103652,False,10,-1,0,13
PB059K22,4,258,PS,exp,45,←,right,→,1.2338290000043344,False,11,-1,0,13
PB059K22,4,259,PS,exp,50,→,right,→,0.577111499995226,True,12,-1,0,13
PB059K22,4,260,PS,exp,39,↓,down,↓,0.5522445000242442,True,12,1,1,14
PB059K22,5,261,PS,intra_train,47,↑,left,←,1.3220092999981716,False,16,-,-,-
PB059K22,5,262,PS,intra_train,33,↓,down,↓,0.6201676999917254,True,16,-,-,-
PB059K22,5,263,PS,intra_train,27,→,right,→,0.546838200010825,True,16,-,-,-
PB059K22,5,264,PS,intra_train,35,↑,up,↑,0.5821091999823693,True,16,-,-,-
PB059K22,5,265,PS,intra_train,33,→,right,→,0.4559327000170015,True,16,-,-,-
PB059K22,5,266,PS,exp,50,↓,down,↓,0.5054138999839779,True,11,0,0,0
PB059K22,5,267,PS,exp,42,↑,up,↑,0.5896148000028916,True,11,1,0,0
PB059K22,5,268,PS,exp,41,↓,down,↓,0.42950039997231215,True,10,1,0,0
PB059K22,5,269,PS,exp,37,↑,right,→,0.6780256000056397,False,10,-1,1,1
PB059K22,5,270,PS,exp,27,←,left,←,0.5701434999937192,True,11,-1,0,1
PB059K22,5,271,PS,exp,47,↓,down,↓,0.47286790001089685,True,11,1,1,2
PB059K22,5,272,PS,exp,41,→,right,→,0.483018600003561,True,10,1,0,2
PB059K22,5,273,PS,exp,47,↓,right,→,0.9140202000271529,False,10,-1,1,3
PB059K22,5,274,PS,exp,41,↑,up,↑,0.5890122000128031,True,11,-1,0,3
PB059K22,5,275,PS,exp,31,←,left,←,0.44973429999663495,True,11,1,1,4
PB059K22,5,276,PS,exp,32,→,right,→,0.4168624000158161,True,10,1,0,4
PB059K22,5,277,PS,exp,42,←,left,←,0.5008192000095733,True,10,1,0,4
PB059K22,5,278,PS,exp,28,→,left,←,0.8101316000102088,False,9,-1,1,5
PB059K22,5,279,PS,exp,26,↓,down,↓,0.5196403999871109,True,10,-1,0,5
PB059K22,5,280,PS,exp,45,↑,up,↑,0.5733624999993481,True,10,1,1,6
PB059K22,5,281,PS,exp,38,→,right,→,0.7718244999996386,True,9,1,0,6
PB059K22,5,282,PS,exp,39,↓,down,↓,0.5149264000065159,True,9,1,0,6
PB059K22,5,283,PS,exp,35,→,right,→,0.45519350000540726,True,8,1,0,6
PB059K22,5,284,PS,exp,26,←,left,←,0.5656444999913219,True,8,1,0,6
PB059K22,5,285,PS,exp,41,↑,right,→,0.62037409999175,False,7,-1,1,7
PB059K22,5,286,PS,exp,40,→,right,→,0.48471649998100474,True,8,-1,0,7
PB059K22,5,287,PS,exp,29,←,right,→,0.8737665000080597,False,8,-1,0,7
PB059K22,5,288,PS,exp,32,↑,up,↑,0.7439541000057943,True,9,-1,0,7
PB059K22,5,289,PS,exp,45,↓,down,↓,0.7147685999807436,True,9,1,1,8
PB059K22,5,290,PS,exp,49,→,right,→,0.661027899972396,True,8,1,0,8
PB059K22,5,291,PS,exp,28,↓,down,↓,0.5044792999979109,True,8,1,0,8
PB059K22,5,292,PS,exp,42,↑,down,↓,0.586110500007635,False,7,-1,1,9
PB059K22,5,293,PS,exp,32,↓,down,↓,0.48759920001612045,True,8,-1,0,9
PB059K22,5,294,PS,exp,40,↑,up,↑,0.7045826000103261,True,8,1,1,10
PB059K22,5,295,PS,exp,43,→,up,↑,0.7141017999965698,False,7,-1,1,11
PB059K22,5,296,PS,exp,45,↑,right,→,0.8026176999846939,False,8,-1,0,11
PB059K22,5,297,PS,exp,29,→,right,→,1.3191555000084918,True,9,-1,0,11
PB059K22,5,298,PS,exp,43,←,left,←,0.4918257000099402,True,9,1,1,12
PB059K22,5,299,PS,exp,28,↑,up,↑,0.7613077999849338,True,8,1,0,12
PB059K22,5,300,PS,exp,38,→,right,→,0.45053280002321117,True,8,1,0,12
PB059K22,5,301,PS,exp,38,↓,up,↑,0.8437699000060093,False,7,-1,1,13
PB059K22,5,302,PS,exp,28,↑,up,↑,0.5660191000206396,True,8,-1,0,13
PB059K22,5,303,PS,exp,50,→,right,→,0.47326240001711994,True,8,1,1,14
PB059K22,6,304,AS,intra_train,29,↑,right,→,0.8408248999912757,False,13,-,-,-
PB059K22,6,305,AS,intra_train,48,←,right,→,1.0993588999845088,False,13,-,-,-
PB059K22,6,306,AS,intra_train,44,→,right,→,0.5007870999979787,True,13,-,-,-
PB059K22,6,307,AS,intra_train,44,←,left,←,0.697581899992656,True,13,-,-,-
PB059K22,6,308,AS,intra_train,34,↓,down,↓,0.9271452999964822,True,13,-,-,-
PB059K22,6,309,AS,exp,25,←,right,→,0.5913065999920946,False,9,-1,0,0
PB059K22,6,310,AS,exp,36,↓,right,→,0.7271576999919489,False,10,-1,0,0
PB059K22,6,311,AS,exp,25,←,left,←,0.6436639999737963,True,11,-1,0,0
PB059K22,6,312,AS,exp,31,→,left,←,0.6770319000061136,False,11,-1,0,0
PB059K22,6,313,AS,exp,30,←,left,←,0.5647058000031393,True,12,-1,0,0
PB059K22,6,314,AS,exp,39,↓,left,←,0.598531900002854,False,12,-1,0,0
PB059K22,6,315,AS,exp,28,←,left,←,0.5949693000002299,True,13,-1,0,0
PB059K22,6,316,AS,exp,41,→,right,→,0.6827833999996074,True,13,1,1,1
PB059K22,6,317,AS,exp,39,↓,right,→,0.7321898000082001,False,12,-1,1,2
PB059K22,6,318,AS,exp,26,←,left,←,0.5426622999948449,True,13,-1,0,2
PB059K22,6,319,AS,exp,42,↓,down,↓,0.6998121000069659,True,13,1,1,3
PB059K22,6,320,AS,exp,37,↑,down,↓,0.7073472000192851,False,12,-1,1,4
PB059K22,6,321,AS,exp,27,↓,down,↓,0.7485178000060841,True,13,-1,0,4
PB059K22,6,322,AS,exp,38,←,down,↓,0.6266142000094987,False,13,-1,0,4
PB059K22,6,323,AS,exp,41,→,left,←,0.5528602999984287,False,14,-1,0,4
PB059K22,6,324,AS,exp,47,↓,down,↓,0.5226721999933943,True,15,-1,0,4
PB059K22,6,325,AS,exp,25,↑,up,↑,0.7303110000211746,True,15,1,1,5
PB059K22,6,326,AS,exp,48,←,left,←,0.5486235999851488,True,14,1,0,5
PB059K22,6,327,AS,exp,41,→,right,→,0.5767293000244536,True,14,1,0,5
PB059K22,6,328,AS,exp,45,↓,down,↓,0.47493239998584613,True,13,1,0,5
PB059K22,6,329,AS,exp,40,↑,up,↑,0.6620832999760751,True,13,1,0,5
PB059K22,6,330,AS,exp,41,←,left,←,0.6958312000206206,True,12,1,0,5
PB059K22,6,331,AS,exp,45,→,right,→,0.6843294999853242,True,12,1,0,5
PB059K22,6,332,AS,exp,36,↑,down,↓,0.6685554000141565,False,11,-1,1,6
PB059K22,6,333,AS,exp,26,↓,down,↓,1.0097726000240073,True,12,-1,0,6
PB059K22,6,334,AS,exp,29,→,left,←,0.5291451000084635,False,12,-1,0,6
PB059K22,6,335,AS,exp,46,↑,up,↑,0.5387927999836393,True,13,-1,0,6
PB059K22,6,336,AS,exp,42,→,right,→,0.43700239999452606,True,13,1,1,7
PB059K22,6,337,AS,exp,29,←,left,←,0.6188414999924134,True,12,1,0,7
PB059K22,6,338,AS,exp,38,→,left,←,0.6924643999955151,False,12,-1,1,8
PB059K22,6,339,AS,exp,43,←,left,←,0.6371319000027142,True,13,-1,0,8
PB059K22,6,340,AS,exp,44,↑,up,↑,1.0865053000161424,True,13,1,1,9
PB059K22,6,341,AS,exp,34,↓,up,↑,0.6013895000214688,False,12,-1,1,10
PB059K22,6,342,AS,exp,29,←,left,←,0.648475000023609,True,13,-1,0,10
PB059K22,6,343,AS,exp,40,↑,left,←,0.7680178000009619,False,13,-1,0,10
PB059K22,6,344,AS,exp,47,→,right,→,0.8151112000050489,True,14,-1,0,10
PB059K22,6,345,AS,exp,46,↓,down,↓,0.7706797999853734,True,14,1,1,11
PB059K22,6,346,AS,exp,38,↑,up,↑,0.5030855000077281,True,13,1,0,11
PB059K22,6,347,AS,exp,48,→,right,→,0.9954839000129141,True,13,1,0,11
PB059K22,6,348,AS,exp,39,←,left,←,0.5910835000104271,True,12,1,0,11
PB059K22,6,349,AS,exp,27,→,right,→,0.9844538000179455,True,12,1,0,11
PB059K22,6,350,AS,exp,29,↑,right,→,0.8919991000148002,False,11,-1,1,12
PB059K22,6,351,AS,exp,46,↓,left,←,0.6291477999766357,False,12,-1,0,12
PB059K22,6,352,AS,exp,50,↑,up,↑,0.4350687999976799,True,13,-1,0,12
PB059K22,6,353,AS,exp,45,→,left,←,0.589624400017783,False,13,-1,0,12
PB059K22,6,354,AS,exp,39,↓,down,↓,0.6596709000004921,True,14,-1,0,12
PB059K22,6,355,AS,exp,31,←,right,→,0.8377937000186648,False,14,-1,0,12
PB059K22,6,356,AS,exp,49,↓,down,↓,0.5888522999885026,True,15,-1,0,12
PB059K22,6,357,AS,exp,38,←,left,←,0.5177285999816377,True,15,1,1,13
PB059K22,6,358,AS,exp,29,↓,right,→,0.9141309999977238,False,14,-1,1,14
PB059K22,7,359,AS,intra_train,27,↑,up,↑,0.8814358999952674,True,13,-,-,-
PB059K22,7,360,AS,intra_train,43,→,left,←,0.6741643999994267,False,13,-,-,-
PB059K22,7,361,AS,intra_train,26,↑,up,↑,0.587395300011849,True,13,-,-,-
PB059K22,7,362,AS,intra_train,48,←,left,←,0.4362058000115212,True,13,-,-,-
PB059K22,7,363,AS,intra_train,45,↓,down,↓,0.7828049999952782,True,13,-,-,-
PB059K22,7,364,AS,exp,33,→,down,↓,0.7887768000073265,False,9,-1,0,0
PB059K22,7,365,AS,exp,39,↑,up,↑,0.5606780000089202,True,10,-1,0,0
PB059K22,7,366,AS,exp,26,↓,up,↑,0.6401992999890354,False,10,-1,0,0
PB059K22,7,367,AS,exp,25,←,left,←,0.5860973999951966,True,11,-1,0,0
PB059K22,7,368,AS,exp,42,↑,up,↑,1.048086399998283,True,11,1,1,1
PB059K22,7,369,AS,exp,31,→,right,→,0.49225189999560826,True,10,1,0,1
PB059K22,7,370,AS,exp,25,←,right,→,0.8075189999944996,False,10,-1,1,2
PB059K22,7,371,AS,exp,32,↓,right,→,0.7641766000015195,False,11,-1,0,2
PB059K22,7,372,AS,exp,40,→,left,←,0.5024681999930181,False,12,-1,0,2
PB059K22,7,373,AS,exp,41,↑,right,→,0.7973482999950647,False,13,-1,0,2
PB059K22,7,374,AS,exp,28,→,right,→,0.47484670000267215,True,14,-1,0,2
PB059K22,7,375,AS,exp,26,←,left,←,0.44151699999929406,True,14,1,1,3
PB059K22,7,376,AS,exp,38,↓,down,↓,0.7100916000199504,True,13,1,0,3
PB059K22,7,377,AS,exp,27,←,left,←,0.5861339000111911,True,13,1,0,3
PB059K22,7,378,AS,exp,50,→,right,→,0.5993208000145387,True,12,1,0,3
PB059K22,7,379,AS,exp,35,←,left,←,0.4918209999741521,True,12,1,0,3
PB059K22,7,380,AS,exp,36,↓,right,→,0.8006182000099216,False,11,-1,1,4
PB059K22,7,381,AS,exp,34,←,left,←,0.5175061000045389,True,12,-1,0,4
PB059K22,7,382,AS,exp,35,↑,left,←,0.6355234000075143,False,12,-1,0,4
PB059K22,7,383,AS,exp,48,→,right,→,0.4901645999925677,True,13,-1,0,4
PB059K22,7,384,AS,exp,42,↑,up,↑,0.5257291000161786,True,13,1,1,5
PB059K22,7,385,AS,exp,39,←,left,←,0.44365729999844916,True,12,1,0,5
PB059K22,7,386,AS,exp,32,↑,up,↑,0.7423571000108495,True,12,1,0,5
PB059K22,7,387,AS,exp,45,←,left,←,0.5471843000268564,True,11,1,0,5
PB059K22,7,388,AS,exp,29,→,right,→,0.400009000004502,True,11,1,0,5
PB059K22,7,389,AS,exp,36,↑,left,←,0.6680481999937911,False,10,-1,1,6
PB059K22,7,390,AS,exp,42,↓,down,↓,0.6822718000039458,True,11,-1,0,6
PB059K22,7,391,AS,exp,41,←,left,←,0.48792660000617616,True,11,1,1,7
PB059K22,7,392,AS,exp,25,↑,down,↓,0.6742034000053536,False,10,-1,1,8
PB059K22,7,393,AS,exp,34,↓,down,↓,0.483190899976762,True,11,-1,0,8
PB059K22,7,394,AS,exp,40,←,down,↓,0.6564536999794655,False,11,-1,0,8
PB059K22,7,395,AS,exp,28,→,right,→,0.5065406000067014,True,12,-1,0,8
PB059K22,7,396,AS,exp,34,←,left,←,0.7921008999983314,True,12,1,1,9
PB059K22,7,397,AS,exp,31,↓,down,↓,0.6236043000244536,True,11,1,0,9
PB059K22,7,398,AS,exp,43,↑,up,↑,0.6762485000072047,True,11,1,0,9
PB059K22,7,399,AS,exp,41,↓,up,↑,0.6626551000226755,False,10,-1,1,10
PB059K22,7,400,AS,exp,37,→,left,←,0.6140176000189967,False,11,-1,0,10
PB059K22,7,401,AS,exp,45,↓,up,↑,0.7213431999844033,False,12,-1,0,10
PB059K22,7,402,AS,exp,25,→,right,→,0.4393139000167139,True,13,-1,0,10
PB059K22,7,403,AS,exp,30,↓,up,↑,0.9052890999882948,False,13,-1,0,10
PB059K22,7,404,AS,exp,37,↑,right,→,0.9102856000245083,False,14,-1,0,10
PB059K22,7,405,AS,exp,32,→,right,→,0.4713773000112269,True,15,-1,0,10
PB059K22,7,406,AS,exp,38,←,left,←,0.46268299999064766,True,15,1,1,11
PB059K22,7,407,AS,exp,29,↓,left,←,0.6214480999915395,False,14,-1,1,12
PB059K22,7,408,AS,exp,25,←,left,←,0.5475777999963611,True,15,-1,0,12
PB059K22,7,409,AS,exp,45,↓,down,↓,0.696637599990936,True,15,1,1,13
PB059K22,7,410,AS,exp,36,→,left,←,0.6857493999996223,False,14,-1,1,14
PB059K22,8,411,PS,intra_train,29,↑,up,↑,1.1937380000017583,True,16,-,-,-
PB059K22,8,412,PS,intra_train,50,↓,down,↓,0.5739023000060115,True,16,-,-,-
PB059K22,8,413,PS,intra_train,34,→,right,→,0.8445065999985673,True,16,-,-,-
PB059K22,8,414,PS,intra_train,36,↑,up,↑,0.5746669999789447,True,16,-,-,-
PB059K22,8,415,PS,intra_train,42,↓,down,↓,0.5398702000093181,True,16,-,-,-
PB059K22,8,416,PS,exp,45,←,left,←,0.5374508999811951,True,11,0,0,0
PB059K22,8,417,PS,exp,28,↑,up,↑,0.5904934999998659,True,11,1,0,0
PB059K22,8,418,PS,exp,25,↓,down,↓,0.5646290000004228,True,10,1,0,0
PB059K22,8,419,PS,exp,40,↑,up,↑,0.6075581000186503,True,10,1,0,0
PB059K22,8,420,PS,exp,37,→,right,→,0.4949698999989778,True,9,1,0,0
PB059K22,8,421,PS,exp,35,←,left,←,0.5032523999980185,True,9,1,0,0
PB059K22,8,422,PS,exp,46,→,right,→,0.4900389000249561,True,8,1,0,0
PB059K22,8,423,PS,exp,48,↑,up,↑,0.7555146999948192,True,8,1,0,0
PB059K22,8,424,PS,exp,35,←,right,→,0.6772323999903165,False,7,-1,1,1
PB059K22,8,425,PS,exp,26,→,right,→,0.5622694999910891,True,8,-1,0,1
PB059K22,8,426,PS,exp,49,↓,down,↓,0.5425879000104032,True,8,1,1,2
PB059K22,8,427,PS,exp,30,←,right,→,0.7610762000258546,False,7,-1,1,3
PB059K22,8,428,PS,exp,31,↓,down,↓,0.480976599996211,True,8,-1,0,3
PB059K22,8,429,PS,exp,45,↑,up,↑,0.5698227999964729,True,8,1,1,4
PB059K22,8,430,PS,exp,46,→,right,→,0.5387997000070754,True,7,1,0,4
PB059K22,8,431,PS,exp,39,↑,up,↑,0.4228988999966532,True,7,1,0,4
PB059K22,8,432,PS,exp,29,→,right,→,0.5285712000040803,True,6,1,0,4
PB059K22,8,433,PS,exp,34,←,up,↑,0.5070861999993213,False,6,-1,1,5
PB059K22,8,434,PS,exp,44,↑,right,→,0.5749051999882795,False,7,-1,0,5
PB059K22,8,435,PS,exp,45,←,left,←,0.5266545000195038,True,8,-1,0,5
PB059K22,8,436,PS,exp,33,↑,up,↑,0.500592800002778,True,8,1,1,6
PB059K22,8,437,PS,exp,31,↓,down,↓,0.9220548000012059,True,7,1,0,6
PB059K22,8,438,PS,exp,29,←,down,↓,0.7349008999881335,False,7,-1,1,7
PB059K22,8,439,PS,exp,40,↓,down,↓,0.4380842999962624,True,8,-1,0,7
PB059K22,8,440,PS,exp,42,←,left,←,0.4906487999833189,True,8,1,1,8
PB059K22,8,441,PS,exp,32,→,right,→,0.5085791000165045,True,7,1,0,8
PB059K22,8,442,PS,exp,50,←,left,←,0.4596327999897767,True,7,1,0,8
PB059K22,8,443,PS,exp,43,↑,left,←,0.7178445000026841,False,6,-1,1,9
PB059K22,8,444,PS,exp,27,→,right,→,0.4360770999919623,True,7,-1,0,9
PB059K22,8,445,PS,exp,42,↓,left,←,0.5228790999972261,False,7,-1,0,9
PB059K22,8,446,PS,exp,39,→,right,→,0.7566406000114512,True,8,-1,0,9
PB059K22,8,447,PS,exp,50,↓,down,↓,0.5295572000031825,True,8,1,1,10
PB059K22,8,448,PS,exp,26,←,right,→,0.5690682999847922,False,7,-1,1,11
PB059K22,8,449,PS,exp,38,↓,down,↓,0.5194514000031631,True,8,-1,0,11
PB059K22,8,450,PS,exp,47,↑,up,↑,0.6524855000025127,True,8,1,1,12
PB059K22,8,451,PS,exp,40,↓,right,→,0.7800091999815777,False,7,-1,1,13
PB059K22,8,452,PS,exp,50,←,left,←,0.5562598999822512,True,8,-1,0,13
PB059K22,8,453,PS,exp,36,↓,down,↓,0.6784017999889329,True,8,1,1,14
