PART_ID,Block_no,Trial_no,Block_type,Trial_type,CSI,Stim_letter,Key_pressed,letter_choose,Rt,Corr,Stimulus Time,Level,Reversal,Revs_count
PB057K26,1,1,PS,train,46,←,no_key,no_letter,-1.0,False,30,-,-,-
PB057K26,1,2,PS,train,32,→,right,→,1.427862800017465,True,30,-,-,-
PB057K26,1,3,PS,train,47,↓,down,↓,1.3751649000041652,True,30,-,-,-
PB057K26,1,4,PS,train,37,↑,up,↑,1.6129402999940794,True,30,-,-,-
PB057K26,1,5,PS,train,46,→,right,→,1.079114699998172,True,30,-,-,-
PB057K26,1,6,PS,train,37,←,left,←,0.6171373000252061,True,30,-,-,-
PB057K26,1,7,PS,train,35,→,right,→,1.0624283000070136,True,30,-,-,-
PB057K26,1,8,PS,train,41,↑,up,↑,0.8632057000068016,True,30,-,-,-
PB057K26,1,9,PS,train,28,↓,down,↓,0.7846716000058223,True,30,-,-,-
PB057K26,1,10,PS,train,36,↑,up,↑,0.9010180000041146,True,30,-,-,-
PB057K26,2,11,AS,train,45,↓,down,↓,1.0104621000064071,True,45,-,-,-
PB057K26,2,12,AS,train,32,→,right,→,0.7837142000207677,True,45,-,-,-
PB057K26,2,13,AS,train,28,↑,left,←,0.7177925999858417,False,45,-,-,-
PB057K26,2,14,AS,train,41,→,right,→,0.6678630999813322,True,45,-,-,-
PB057K26,2,15,AS,train,40,↑,up,↑,0.8338201000005938,True,45,-,-,-
PB057K26,2,16,AS,train,28,↓,down,↓,0.9698069000151008,True,45,-,-,-
PB057K26,2,17,AS,train,36,↑,up,↑,0.6679189999995288,True,45,-,-,-
PB057K26,2,18,AS,train,46,←,left,←,0.7671543000033125,True,45,-,-,-
PB057K26,2,19,AS,train,36,↓,down,↓,0.8171956999867689,True,45,-,-,-
PB057K26,2,20,AS,train,25,↑,up,↑,0.8672013999894261,True,45,-,-,-
PB057K26,-,21,PS,adaptive,29,←,left,←,0.6306274999806192,True,10,0,0,0
PB057K26,-,22,PS,adaptive,27,↓,down,↓,0.6767687000101432,True,10,1,0,0
PB057K26,-,23,PS,adaptive,50,←,left,←,0.7024950999766588,True,9,1,0,0
PB057K26,-,24,PS,adaptive,28,→,right,→,0.6732453999866266,True,9,1,0,0
PB057K26,-,25,PS,adaptive,48,←,left,←,1.1643567999999505,True,8,1,0,0
PB057K26,-,26,PS,adaptive,35,↓,down,↓,0.7826009000127669,True,8,1,0,0
PB057K26,-,27,PS,adaptive,42,←,left,←,0.5900433999777306,True,7,1,0,0
PB057K26,-,28,PS,adaptive,33,↑,down,↓,0.6231146000209264,False,7,-1,1,1
PB057K26,-,29,PS,adaptive,37,←,left,←,0.6532119000039529,True,8,-1,0,1
PB057K26,-,30,PS,adaptive,38,↓,down,↓,0.7456559000129346,True,8,1,1,2
PB057K26,-,31,PS,adaptive,35,←,left,←,0.751609400002053,True,7,1,0,2
PB057K26,-,32,PS,adaptive,40,→,right,→,0.7319480999722145,True,7,1,0,2
PB057K26,-,33,PS,adaptive,44,↓,down,↓,0.5728604999894742,True,6,1,0,2
PB057K26,-,34,PS,adaptive,34,→,right,→,0.606721899996046,True,6,1,0,2
PB057K26,-,35,PS,adaptive,36,←,down,↓,0.6115169999829959,False,5,-1,1,3
PB057K26,-,36,PS,adaptive,50,↓,down,↓,0.7189052999892738,True,6,-1,0,3
PB057K26,-,37,PS,adaptive,25,→,right,→,0.6052956999919843,True,6,1,1,4
PB057K26,-,38,AS,adaptive,29,←,right,→,1.796086499991361,False,20,-1,0,0
PB057K26,-,39,AS,adaptive,28,→,right,→,0.6514210000168532,True,21,-1,0,0
PB057K26,-,40,AS,adaptive,30,↓,down,↓,0.6119450000114739,True,21,1,1,1
PB057K26,-,41,AS,adaptive,48,←,right,→,1.0523490000050515,False,20,-1,1,2
PB057K26,-,42,AS,adaptive,37,→,right,→,0.5407567000074778,True,21,-1,0,2
PB057K26,-,43,AS,adaptive,46,↓,right,→,1.1182243000075687,False,21,-1,0,2
PB057K26,-,44,AS,adaptive,40,↑,up,↑,0.8441254000063054,True,22,-1,0,2
PB057K26,-,45,AS,adaptive,45,↓,right,→,0.9604415999783669,False,22,-1,0,2
PB057K26,-,46,AS,adaptive,30,←,left,←,0.5670400999952108,True,23,-1,0,2
PB057K26,-,47,AS,adaptive,49,↑,up,↑,0.6625736000132747,True,23,1,1,3
PB057K26,-,48,AS,adaptive,44,→,right,→,0.5524304999853484,True,22,1,0,3
PB057K26,-,49,AS,adaptive,33,↓,down,↓,0.7447121999866795,True,22,1,0,3
PB057K26,-,50,AS,adaptive,44,↑,up,↑,0.8975000999926124,True,21,1,0,3
PB057K26,-,51,AS,adaptive,49,↓,down,↓,0.7574715999944601,True,21,1,0,3
PB057K26,-,52,AS,adaptive,25,←,right,→,0.8120823999925051,False,20,-1,1,4
PB057K26,1,53,AS,intra_train,39,→,right,→,0.6957431999908295,True,31,-,-,-
PB057K26,1,54,AS,intra_train,27,↑,up,↑,0.7280824000190478,True,31,-,-,-
PB057K26,1,55,AS,intra_train,41,→,right,→,0.5677486000058707,True,31,-,-,-
PB057K26,1,56,AS,intra_train,29,↑,up,↑,0.6975420000089798,True,31,-,-,-
PB057K26,1,57,AS,intra_train,28,→,right,→,0.8162582000077236,True,31,-,-,-
PB057K26,1,58,AS,exp,27,↓,down,↓,0.8484713000070769,True,21,0,0,0
PB057K26,1,59,AS,exp,32,↑,up,↑,1.035334199987119,True,21,1,0,0
PB057K26,1,60,AS,exp,30,→,right,→,0.4672487000061665,True,20,1,0,0
PB057K26,1,61,AS,exp,43,↓,down,↓,0.6045517000020482,True,20,1,0,0
PB057K26,1,62,AS,exp,29,←,left,←,0.43361779997940175,True,19,1,0,0
PB057K26,1,63,AS,exp,28,↑,up,↑,0.6126395000028424,True,19,1,0,0
PB057K26,1,64,AS,exp,32,→,right,→,0.5234371999977157,True,18,1,0,0
PB057K26,1,65,AS,exp,27,↓,down,↓,0.632999599998584,True,18,1,0,0
PB057K26,1,66,AS,exp,40,→,left,←,0.9848828999965917,False,17,-1,1,1
PB057K26,1,67,AS,exp,34,↓,left,←,0.43373829999472946,False,18,-1,0,1
PB057K26,1,68,AS,exp,42,↑,up,↑,0.8626927000004798,True,19,-1,0,1
PB057K26,1,69,AS,exp,37,↓,down,↓,0.5413722000084817,True,19,1,1,2
PB057K26,1,70,AS,exp,40,←,left,←,0.5614644000015687,True,18,1,0,2
PB057K26,1,71,AS,exp,49,↑,down,↓,0.9086558000126388,False,18,-1,1,3
PB057K26,1,72,AS,exp,32,→,right,→,0.8046701999846846,True,19,-1,0,3
PB057K26,1,73,AS,exp,50,↓,down,↓,0.7153410000028089,True,19,1,1,4
PB057K26,1,74,AS,exp,34,←,left,←,0.5418738000153098,True,18,1,0,4
PB057K26,1,75,AS,exp,38,→,left,←,0.9164049999963026,False,18,-1,1,5
PB057K26,1,76,AS,exp,37,↑,up,↑,0.7984854000096675,True,19,-1,0,5
PB057K26,1,77,AS,exp,49,→,right,→,1.0301158999791369,True,19,1,1,6
PB057K26,1,78,AS,exp,48,↑,up,↑,0.7801119000068866,True,18,1,0,6
PB057K26,1,79,AS,exp,28,←,left,←,0.7405624999955762,True,18,1,0,6
PB057K26,1,80,AS,exp,27,↑,left,←,1.2302535999915563,False,17,-1,1,7
PB057K26,1,81,AS,exp,45,↓,down,↓,0.7927169000031427,True,18,-1,0,7
PB057K26,1,82,AS,exp,25,←,left,←,0.8113169000134803,True,18,1,1,8
PB057K26,1,83,AS,exp,26,→,right,→,0.9899143000075128,True,17,1,0,8
PB057K26,1,84,AS,exp,45,↓,down,↓,0.9639246999868192,True,17,1,0,8
PB057K26,1,85,AS,exp,34,←,left,←,0.5892223999835551,True,16,1,0,8
PB057K26,1,86,AS,exp,27,↑,right,→,0.9804298000235576,False,16,-1,1,9
PB057K26,1,87,AS,exp,47,↓,down,↓,0.8660644000046887,True,17,-1,0,9
PB057K26,1,88,AS,exp,40,↑,up,↑,0.78207200000179,True,17,1,1,10
PB057K26,1,89,AS,exp,36,→,right,→,1.0306689999997616,True,16,1,0,10
PB057K26,1,90,AS,exp,38,←,left,←,0.9952549999870826,True,16,1,0,10
PB057K26,1,91,AS,exp,25,↓,down,↓,0.7292306000017561,True,15,1,0,10
PB057K26,1,92,AS,exp,33,←,left,←,0.5670919000112917,True,15,1,0,10
PB057K26,1,93,AS,exp,31,↓,right,→,0.9717828000138979,False,14,-1,1,11
PB057K26,1,94,AS,exp,35,→,right,→,0.5029347999952734,True,15,-1,0,11
PB057K26,1,95,AS,exp,47,←,left,←,0.8155391000036616,True,15,1,1,12
PB057K26,1,96,AS,exp,30,↓,down,↓,0.6362217999994755,True,14,1,0,12
PB057K26,1,97,AS,exp,47,→,right,→,0.8095422000042163,True,14,1,0,12
PB057K26,1,98,AS,exp,35,↑,down,↓,0.7485620999941602,False,13,-1,1,13
PB057K26,1,99,AS,exp,35,↓,down,↓,0.7870112000091467,True,14,-1,0,13
PB057K26,1,100,AS,exp,45,→,left,←,0.7414805000007618,False,14,-1,0,13
PB057K26,1,101,AS,exp,50,←,left,←,0.7251616999856196,True,15,-1,0,13
PB057K26,1,102,AS,exp,25,→,right,→,0.739727199979825,True,15,1,1,14
PB057K26,2,103,PS,intra_train,46,↑,left,←,1.1378237000026274,False,7,-,-,-
PB057K26,2,104,PS,intra_train,39,→,right,→,0.6664022000040859,True,7,-,-,-
PB057K26,2,105,PS,intra_train,26,←,left,←,0.7581582999846432,True,7,-,-,-
PB057K26,2,106,PS,intra_train,29,↑,up,↑,0.7623262999986764,True,7,-,-,-
PB057K26,2,107,PS,intra_train,40,→,left,←,0.8264566999860108,False,7,-,-,-
PB057K26,2,108,PS,exp,37,↑,up,↑,0.7752392000111286,True,5,0,0,0
PB057K26,2,109,PS,exp,34,←,left,←,1.2131338999897707,True,5,1,0,0
PB057K26,2,110,PS,exp,32,→,left,←,0.627247600001283,False,4,-1,1,1
PB057K26,2,111,PS,exp,27,↑,up,↑,0.9897796000004746,True,5,-1,0,1
PB057K26,2,112,PS,exp,30,→,right,→,0.8392931999987923,True,5,1,1,2
PB057K26,2,113,PS,exp,35,↓,up,↑,0.9544236999936402,False,4,-1,1,3
PB057K26,2,114,PS,exp,33,↑,down,↓,0.8894767000165302,False,5,-1,0,3
PB057K26,2,115,PS,exp,42,→,right,→,0.7434813999861944,True,6,-1,0,3
PB057K26,2,116,PS,exp,42,↓,down,↓,0.7940149999922141,True,6,1,1,4
PB057K26,2,117,PS,exp,49,↑,down,↓,0.9770835999806877,False,5,-1,1,5
PB057K26,2,118,PS,exp,36,←,left,←,0.7245349000149872,True,6,-1,0,5
PB057K26,2,119,PS,exp,38,↓,right,→,0.9231885999906808,False,6,-1,0,5
PB057K26,2,120,PS,exp,42,→,right,→,0.6974373999983072,True,7,-1,0,5
PB057K26,2,121,PS,exp,40,←,down,↓,0.8937568000110332,False,7,-1,0,5
PB057K26,2,122,PS,exp,45,↑,left,←,1.09885119998944,False,8,-1,0,5
PB057K26,2,123,PS,exp,31,→,right,→,0.6567257000133395,True,9,-1,0,5
PB057K26,2,124,PS,exp,29,↓,left,←,0.7897063999844249,False,9,-1,0,5
PB057K26,2,125,PS,exp,36,←,left,←,0.6487534000189044,True,10,-1,0,5
PB057K26,2,126,PS,exp,42,↓,left,←,1.2210617999953683,False,10,-1,0,5
PB057K26,2,127,PS,exp,28,←,right,→,1.0535126999893691,False,11,-1,0,5
PB057K26,2,128,PS,exp,35,↓,right,→,0.9239384999964386,False,12,-1,0,5
PB057K26,2,129,PS,exp,28,→,right,→,0.6564262000028975,True,13,-1,0,5
PB057K26,2,130,PS,exp,50,←,left,←,0.6840710999967996,True,13,1,1,6
PB057K26,2,131,PS,exp,42,↓,left,←,0.45814790000440553,False,12,-1,1,7
PB057K26,2,132,PS,exp,46,←,left,←,0.4940825999947265,True,13,-1,0,7
PB057K26,2,133,PS,exp,37,↑,up,↑,0.6955304000002798,True,13,1,1,8
PB057K26,2,134,PS,exp,32,↓,down,↓,0.7118474000017159,True,12,1,0,8
PB057K26,2,135,PS,exp,34,←,left,←,0.6151535999961197,True,12,1,0,8
PB057K26,2,136,PS,exp,37,→,right,→,0.5395314999914262,True,11,1,0,8
PB057K26,2,137,PS,exp,50,←,right,→,0.6362185000034515,False,11,-1,1,9
PB057K26,2,138,PS,exp,41,↑,right,→,0.5860069000045769,False,12,-1,0,9
PB057K26,2,139,PS,exp,33,←,left,←,0.5479421000054572,True,13,-1,0,9
PB057K26,2,140,PS,exp,26,↑,left,←,0.899184800015064,False,13,-1,0,9
PB057K26,2,141,PS,exp,48,←,left,←,0.48375559999840334,True,14,-1,0,9
PB057K26,2,142,PS,exp,32,→,right,→,0.6932895999925677,True,14,1,1,10
PB057K26,2,143,PS,exp,33,←,left,←,0.5635304000170436,True,13,1,0,10
PB057K26,2,144,PS,exp,32,→,right,→,0.4933710000186693,True,13,1,0,10
PB057K26,2,145,PS,exp,48,←,right,→,0.9547933999856468,False,12,-1,1,11
PB057K26,2,146,PS,exp,48,→,right,→,0.7145280999829993,True,13,-1,0,11
PB057K26,2,147,PS,exp,35,↓,down,↓,0.6354843000008259,True,13,1,1,12
PB057K26,2,148,PS,exp,29,←,right,→,0.5705748000182211,False,12,-1,1,13
PB057K26,2,149,PS,exp,40,→,right,→,0.43421499998657964,True,13,-1,0,13
PB057K26,2,150,PS,exp,31,↑,up,↑,1.0673374999896623,True,13,1,1,14
PB057K26,3,151,PS,intra_train,45,↓,right,→,0.6720099000085611,False,7,-,-,-
PB057K26,3,152,PS,intra_train,37,←,left,←,0.6151898999814875,True,7,-,-,-
PB057K26,3,153,PS,intra_train,44,→,right,→,0.5495843999960925,True,7,-,-,-
PB057K26,3,154,PS,intra_train,27,←,left,←,0.6073805000050925,True,7,-,-,-
PB057K26,3,155,PS,intra_train,45,→,right,→,0.5545882000005804,True,7,-,-,-
PB057K26,3,156,PS,exp,32,↑,right,→,0.6526989999983925,False,5,-1,0,0
PB057K26,3,157,PS,exp,45,↓,down,↓,1.0794897000014316,True,6,-1,0,0
PB057K26,3,158,PS,exp,31,→,right,→,0.6014050999947358,True,6,1,1,1
PB057K26,3,159,PS,exp,32,↑,right,→,0.7766216000018176,False,5,-1,1,2
PB057K26,3,160,PS,exp,28,→,right,→,0.6757044999976642,True,6,-1,0,2
PB057K26,3,161,PS,exp,38,↑,right,→,1.0569250999833457,False,6,-1,0,2
PB057K26,3,162,PS,exp,45,→,right,→,0.6847721000085585,True,7,-1,0,2
PB057K26,3,163,PS,exp,47,↑,right,→,0.7672092999855522,False,7,-1,0,2
PB057K26,3,164,PS,exp,30,←,left,←,0.6274801999970805,True,8,-1,0,2
PB057K26,3,165,PS,exp,45,↓,right,→,0.7219746000191662,False,8,-1,0,2
PB057K26,3,166,PS,exp,30,↑,up,↑,0.8670928000065032,True,9,-1,0,2
PB057K26,3,167,PS,exp,43,→,right,→,0.6089515000057872,True,9,1,1,3
PB057K26,3,168,PS,exp,39,↑,left,←,0.7469648999976926,False,8,-1,1,4
PB057K26,3,169,PS,exp,49,→,right,→,0.6692839000024833,True,9,-1,0,4
PB057K26,3,170,PS,exp,40,↓,down,↓,1.1060092000116128,True,9,1,1,5
PB057K26,3,171,PS,exp,48,↑,left,←,0.588664200011408,False,8,-1,1,6
PB057K26,3,172,PS,exp,25,←,left,←,0.6622080999950413,True,9,-1,0,6
PB057K26,3,173,PS,exp,39,↑,up,↑,0.7394750000094064,True,9,1,1,7
PB057K26,3,174,PS,exp,44,↓,down,↓,0.819165900000371,True,8,1,0,7
PB057K26,3,175,PS,exp,36,←,left,←,0.7188232000044081,True,8,1,0,7
PB057K26,3,176,PS,exp,48,→,left,←,1.1454681000031997,False,7,-1,1,8
PB057K26,3,177,PS,exp,48,↑,up,↑,0.7505933000065852,True,8,-1,0,8
PB057K26,3,178,PS,exp,30,←,left,←,0.8188776000170037,True,8,1,1,9
PB057K26,3,179,PS,exp,37,↑,left,←,0.8107821999874432,False,7,-1,1,10
PB057K26,3,180,PS,exp,41,↓,down,↓,0.812160400004359,True,8,-1,0,10
PB057K26,3,181,PS,exp,35,→,left,←,0.73899139999412,False,8,-1,0,10
PB057K26,3,182,PS,exp,48,↓,left,←,0.5509711999911815,False,9,-1,0,10
PB057K26,3,183,PS,exp,40,←,right,→,0.6258085999870673,False,10,-1,0,10
PB057K26,3,184,PS,exp,34,↑,left,←,0.8414708999916911,False,11,-1,0,10
PB057K26,3,185,PS,exp,33,→,right,→,0.6157459999958519,True,12,-1,0,10
PB057K26,3,186,PS,exp,48,↑,up,↑,0.7126095999847166,True,12,1,1,11
PB057K26,3,187,PS,exp,48,↓,down,↓,0.7156122000014875,True,11,1,0,11
PB057K26,3,188,PS,exp,42,→,left,←,0.5779000999755226,False,11,-1,1,12
PB057K26,3,189,PS,exp,25,↓,down,↓,0.8185470000025816,True,12,-1,0,12
PB057K26,3,190,PS,exp,48,→,right,→,0.738940300012473,True,12,1,1,13
PB057K26,3,191,PS,exp,49,↓,down,↓,0.5138781999994535,True,11,1,0,13
PB057K26,3,192,PS,exp,30,↑,down,↓,0.6418058999988716,False,11,-1,1,14
PB057K26,4,193,AS,intra_train,50,→,right,→,0.845159499993315,True,31,-,-,-
PB057K26,4,194,AS,intra_train,29,↑,up,↑,0.6882771000091452,True,31,-,-,-
PB057K26,4,195,AS,intra_train,47,←,left,←,0.7426595000142697,True,31,-,-,-
PB057K26,4,196,AS,intra_train,26,↓,down,↓,0.8435608000145294,True,31,-,-,-
PB057K26,4,197,AS,intra_train,39,←,left,←,0.7496080000128131,True,31,-,-,-
PB057K26,4,198,AS,exp,47,↑,up,↑,0.728767799999332,True,21,0,0,0
PB057K26,4,199,AS,exp,49,→,right,→,0.7404961999855004,True,21,1,0,0
PB057K26,4,200,AS,exp,33,↑,up,↑,0.6826051999814808,True,20,1,0,0
PB057K26,4,201,AS,exp,26,↓,down,↓,0.9915867999952752,True,20,1,0,0
PB057K26,4,202,AS,exp,41,→,right,→,0.5796127000066917,True,19,1,0,0
PB057K26,4,203,AS,exp,44,←,no_key,no_letter,-1.0,False,19,-1,1,1
PB057K26,4,204,AS,exp,29,↑,right,→,1.6373040000034962,False,20,-1,0,1
PB057K26,4,205,AS,exp,49,←,left,←,0.5300096999853849,True,21,-1,0,1
PB057K26,4,206,AS,exp,29,↓,down,↓,0.9182407000043895,True,21,1,1,2
PB057K26,4,207,AS,exp,48,→,right,→,0.5891176000004634,True,20,1,0,2
PB057K26,4,208,AS,exp,29,←,left,←,0.4503565999912098,True,20,1,0,2
PB057K26,4,209,AS,exp,38,↑,up,↑,0.7110360000224318,True,19,1,0,2
PB057K26,4,210,AS,exp,37,→,right,→,0.8246115999936592,True,19,1,0,2
PB057K26,4,211,AS,exp,35,↑,up,↑,0.8439700000162702,True,18,1,0,2
PB057K26,4,212,AS,exp,29,←,left,←,0.9521763999946415,True,18,1,0,2
PB057K26,4,213,AS,exp,32,↓,down,↓,0.6922675000096206,True,17,1,0,2
PB057K26,4,214,AS,exp,35,↑,down,↓,1.0128490000206511,False,17,-1,1,3
PB057K26,4,215,AS,exp,33,→,right,→,0.47990359997493215,True,18,-1,0,3
PB057K26,4,216,AS,exp,28,↓,down,↓,0.7089632999850437,True,18,1,1,4
PB057K26,4,217,AS,exp,25,↑,down,↓,0.9693060999852605,False,17,-1,1,5
PB057K26,4,218,AS,exp,35,↓,down,↓,0.5798895999905653,True,18,-1,0,5
PB057K26,4,219,AS,exp,36,→,right,→,0.643588400009321,True,18,1,1,6
PB057K26,4,220,AS,exp,47,←,left,←,0.4665986000036355,True,17,1,0,6
PB057K26,4,221,AS,exp,47,↓,down,↓,0.9478156999975909,True,17,1,0,6
PB057K26,4,222,AS,exp,25,↑,left,←,0.8206807000096887,False,16,-1,1,7
PB057K26,4,223,AS,exp,44,↓,down,↓,0.7239871000056155,True,17,-1,0,7
PB057K26,4,224,AS,exp,46,↑,down,↓,0.8031445000087842,False,17,-1,0,7
PB057K26,4,225,AS,exp,39,↓,down,↓,0.7435112999810372,True,18,-1,0,7
PB057K26,4,226,AS,exp,36,←,left,←,0.5173893999890424,True,18,1,1,8
PB057K26,4,227,AS,exp,37,→,right,→,0.7424118999915663,True,17,1,0,8
PB057K26,4,228,AS,exp,49,↓,down,↓,1.2010550999839325,True,17,1,0,8
PB057K26,4,229,AS,exp,42,↑,up,↑,0.6788298000174109,True,16,1,0,8
PB057K26,4,230,AS,exp,30,→,right,→,0.8304211999929976,True,16,1,0,8
PB057K26,4,231,AS,exp,40,↓,down,↓,0.7803134999994654,True,15,1,0,8
PB057K26,4,232,AS,exp,43,→,right,→,0.8691186999785714,True,15,1,0,8
PB057K26,4,233,AS,exp,46,←,left,←,0.6233913000032771,True,14,1,0,8
PB057K26,4,234,AS,exp,33,↑,up,↑,0.6610230000223964,True,14,1,0,8
PB057K26,4,235,AS,exp,40,←,left,←,0.4959264000062831,True,13,1,0,8
PB057K26,4,236,AS,exp,48,↑,up,↑,0.74733370001195,True,13,1,0,8
PB057K26,4,237,AS,exp,47,→,right,→,0.5830347999872174,True,12,1,0,8
PB057K26,4,238,AS,exp,26,↑,up,↑,1.033252299996093,True,12,1,0,8
PB057K26,4,239,AS,exp,39,→,right,→,0.8057259999914095,True,11,1,0,8
PB057K26,4,240,AS,exp,26,↓,right,→,1.0243399000028148,False,11,-1,1,9
PB057K26,4,241,AS,exp,40,→,right,→,0.5282184999960009,True,12,-1,0,9
PB057K26,4,242,AS,exp,31,↑,left,←,0.8230063999944832,False,12,-1,0,9
PB057K26,4,243,AS,exp,27,↓,right,→,0.6705634999962058,False,13,-1,0,9
PB057K26,4,244,AS,exp,26,←,up,↑,1.1223075999878347,False,14,-1,0,9
PB057K26,4,245,AS,exp,49,↓,down,↓,0.7380351999890991,True,15,-1,0,9
PB057K26,4,246,AS,exp,41,←,left,←,0.507522500003688,True,15,1,1,10
PB057K26,4,247,AS,exp,32,↑,down,↓,0.9506042999855708,False,14,-1,1,11
PB057K26,4,248,AS,exp,36,↓,down,↓,0.5166017999872565,True,15,-1,0,11
PB057K26,4,249,AS,exp,47,←,left,←,0.44656849998864345,True,15,1,1,12
PB057K26,4,250,AS,exp,38,↓,down,↓,0.4742989999940619,True,14,1,0,12
PB057K26,4,251,AS,exp,34,→,right,→,0.6328311999968719,True,14,1,0,12
PB057K26,4,252,AS,exp,50,↑,down,↓,0.814212099998258,False,13,-1,1,13
PB057K26,4,253,AS,exp,29,←,down,↓,0.7608365000050981,False,14,-1,0,13
PB057K26,4,254,AS,exp,48,→,right,→,0.5559666999906767,True,15,-1,0,13
PB057K26,4,255,AS,exp,32,←,right,→,0.5130409999983385,False,15,-1,0,13
PB057K26,4,256,AS,exp,35,→,right,→,0.623744100012118,True,16,-1,0,13
PB057K26,4,257,AS,exp,34,↓,down,↓,0.5119859999977052,True,16,1,1,14
PB057K26,5,258,AS,intra_train,47,→,right,→,0.6502460999763571,True,31,-,-,-
PB057K26,5,259,AS,intra_train,32,←,left,←,0.5005314000009093,True,31,-,-,-
PB057K26,5,260,AS,intra_train,32,↓,down,↓,0.9954276999924332,True,31,-,-,-
PB057K26,5,261,AS,intra_train,36,←,left,←,0.48417729997891,True,31,-,-,-
PB057K26,5,262,AS,intra_train,28,→,right,→,0.6973934999841731,True,31,-,-,-
PB057K26,5,263,AS,exp,33,←,no_key,no_letter,-1.0,False,21,-1,0,0
PB057K26,5,264,AS,exp,39,→,right,→,0.41714049997972324,True,22,-1,0,0
PB057K26,5,265,AS,exp,34,↑,up,↑,0.7869761000038125,True,22,1,1,1
PB057K26,5,266,AS,exp,36,→,right,→,0.5697736000001896,True,21,1,0,1
PB057K26,5,267,AS,exp,32,←,left,←,0.6671398000034969,True,21,1,0,1
PB057K26,5,268,AS,exp,45,↓,down,↓,0.6222162000194658,True,20,1,0,1
PB057K26,5,269,AS,exp,32,→,right,→,0.7564256000041496,True,20,1,0,1
PB057K26,5,270,AS,exp,28,←,left,←,0.3338424999965355,True,19,1,0,1
PB057K26,5,271,AS,exp,44,↓,down,↓,0.45031759998528287,True,19,1,0,1
PB057K26,5,272,AS,exp,47,→,right,→,0.9814444000076037,True,18,1,0,1
PB057K26,5,273,AS,exp,28,←,left,←,0.40046579999034293,True,18,1,0,1
PB057K26,5,274,AS,exp,33,→,no_key,no_letter,-1.0,False,17,-1,1,2
PB057K26,5,275,AS,exp,30,↓,right,→,1.1358958999917377,False,18,-1,0,2
PB057K26,5,276,AS,exp,34,←,left,←,0.5173915000050329,True,19,-1,0,2
PB057K26,5,277,AS,exp,33,→,right,→,0.76250430001528,True,19,1,1,3
PB057K26,5,278,AS,exp,44,←,left,←,0.6749797000084072,True,18,1,0,3
PB057K26,5,279,AS,exp,46,↓,down,↓,0.8121301999781281,True,18,1,0,3
PB057K26,5,280,AS,exp,44,←,left,←,0.4922558000253048,True,17,1,0,3
PB057K26,5,281,AS,exp,45,→,right,→,0.5373873999924399,True,17,1,0,3
PB057K26,5,282,AS,exp,29,↓,down,↓,0.8139487000007648,True,16,1,0,3
PB057K26,5,283,AS,exp,25,→,right,→,0.8738968999823555,True,16,1,0,3
PB057K26,5,284,AS,exp,43,↓,down,↓,0.526875800016569,True,15,1,0,3
PB057K26,5,285,AS,exp,32,→,right,→,0.6028063999838196,True,15,1,0,3
PB057K26,5,286,AS,exp,32,↓,down,↓,0.5769632000010461,True,14,1,0,3
PB057K26,5,287,AS,exp,25,←,left,←,0.45642130001215264,True,14,1,0,3
PB057K26,5,288,AS,exp,29,↑,up,↑,0.690518500021426,True,13,1,0,3
PB057K26,5,289,AS,exp,28,→,right,→,0.5650215999921784,True,13,1,0,3
PB057K26,5,290,AS,exp,29,↑,up,↑,0.437416700005997,True,12,1,0,3
PB057K26,5,291,AS,exp,44,↓,down,↓,0.6759398999856785,True,12,1,0,3
PB057K26,5,292,AS,exp,35,←,right,→,0.6656552999920677,False,11,-1,1,4
PB057K26,5,293,AS,exp,32,→,right,→,0.4325278000032995,True,12,-1,0,4
PB057K26,5,294,AS,exp,25,←,left,←,0.47609729997930117,True,12,1,1,5
PB057K26,5,295,AS,exp,44,↑,right,→,0.3743998999998439,False,11,-1,1,6
PB057K26,5,296,AS,exp,43,→,left,←,0.8908146000176203,False,12,-1,0,6
PB057K26,5,297,AS,exp,26,↑,up,↑,0.8289648999925703,True,13,-1,0,6
PB057K26,5,298,AS,exp,28,→,right,→,0.4891981999971904,True,13,1,1,7
PB057K26,5,299,AS,exp,31,↑,down,↓,0.894527200027369,False,12,-1,1,8
PB057K26,5,300,AS,exp,38,←,right,→,0.7241562000126578,False,13,-1,0,8
PB057K26,5,301,AS,exp,49,→,left,←,0.7518905999895651,False,14,-1,0,8
PB057K26,5,302,AS,exp,40,↓,down,↓,0.7930923000094481,True,15,-1,0,8
PB057K26,5,303,AS,exp,28,←,left,←,0.670978100009961,True,15,1,1,9
PB057K26,5,304,AS,exp,35,→,right,→,0.4659046999877319,True,14,1,0,9
PB057K26,5,305,AS,exp,26,↑,up,↑,0.6737161000201013,True,14,1,0,9
PB057K26,5,306,AS,exp,28,←,left,←,0.6409547999792267,True,13,1,0,9
PB057K26,5,307,AS,exp,37,↓,down,↓,0.7430460999894422,True,13,1,0,9
PB057K26,5,308,AS,exp,33,→,right,→,1.267466199991759,True,12,1,0,9
PB057K26,5,309,AS,exp,29,↑,down,↓,0.8206917000061367,False,12,-1,1,10
PB057K26,5,310,AS,exp,31,→,left,←,0.6463997999962885,False,13,-1,0,10
PB057K26,5,311,AS,exp,44,↓,right,→,0.7085553999932017,False,14,-1,0,10
PB057K26,5,312,AS,exp,38,↑,up,↑,0.6759500000043772,True,15,-1,0,10
PB057K26,5,313,AS,exp,43,←,left,←,0.7785063999763224,True,15,1,1,11
PB057K26,5,314,AS,exp,27,↓,down,↓,0.6296167999971658,True,14,1,0,11
PB057K26,5,315,AS,exp,33,←,left,←,0.4951397000113502,True,14,1,0,11
PB057K26,5,316,AS,exp,41,↓,down,↓,0.7361365999968257,True,13,1,0,11
PB057K26,5,317,AS,exp,47,↑,left,←,0.9317596000037156,False,13,-1,1,12
PB057K26,5,318,AS,exp,26,←,left,←,0.7093162999954075,True,14,-1,0,12
PB057K26,5,319,AS,exp,39,↓,left,←,1.0757335999805946,False,14,-1,0,12
PB057K26,5,320,AS,exp,43,→,right,→,0.6390601999883074,True,15,-1,0,12
PB057K26,5,321,AS,exp,33,↓,down,↓,0.6829040999873541,True,15,1,1,13
PB057K26,5,322,AS,exp,27,↑,down,↓,0.9418229000002611,False,14,-1,1,14
PB057K26,6,323,PS,intra_train,30,←,left,←,0.8174967999802902,True,7,-,-,-
PB057K26,6,324,PS,intra_train,44,↓,down,↓,0.7589177999761887,True,7,-,-,-
PB057K26,6,325,PS,intra_train,47,→,left,←,0.6681112000078429,False,7,-,-,-
PB057K26,6,326,PS,intra_train,25,↑,up,↑,0.843381299986504,True,7,-,-,-
PB057K26,6,327,PS,intra_train,26,→,left,←,0.8180905999906827,False,7,-,-,-
PB057K26,6,328,PS,exp,48,←,left,←,0.5954016000032425,True,5,0,0,0
PB057K26,6,329,PS,exp,42,↑,up,↑,0.8652768999745604,True,5,1,0,0
PB057K26,6,330,PS,exp,28,↓,up,↑,0.8804299999901559,False,4,-1,1,1
PB057K26,6,331,PS,exp,30,→,down,↓,0.9294382999942172,False,5,-1,0,1
PB057K26,6,332,PS,exp,32,←,right,→,0.7225149000005331,False,6,-1,0,1
PB057K26,6,333,PS,exp,46,↑,up,↑,0.7286670000175945,True,7,-1,0,1
PB057K26,6,334,PS,exp,39,↓,down,↓,0.6073849000094924,True,7,1,1,2
PB057K26,6,335,PS,exp,50,←,left,←,0.7507142999966163,True,6,1,0,2
PB057K26,6,336,PS,exp,48,↓,down,↓,0.4998978999792598,True,6,1,0,2
PB057K26,6,337,PS,exp,48,←,left,←,0.620494900009362,True,5,1,0,2
PB057K26,6,338,PS,exp,40,↓,left,←,0.6620428999885917,False,5,-1,1,3
PB057K26,6,339,PS,exp,50,↑,up,↑,0.6510599000030197,True,6,-1,0,3
PB057K26,6,340,PS,exp,48,↓,down,↓,0.8173222999903373,True,6,1,1,4
PB057K26,6,341,PS,exp,35,←,left,←,0.5709246999758761,True,5,1,0,4
PB057K26,6,342,PS,exp,50,→,up,↑,0.7079721000045538,False,5,-1,1,5
PB057K26,6,343,PS,exp,47,↓,right,→,0.5651293000264559,False,6,-1,0,5
PB057K26,6,344,PS,exp,43,←,left,←,0.5467094999912661,True,7,-1,0,5
PB057K26,6,345,PS,exp,26,↑,left,←,0.5930566000170074,False,7,-1,0,5
PB057K26,6,346,PS,exp,46,↓,up,↑,0.8223853999807034,False,8,-1,0,5
PB057K26,6,347,PS,exp,50,→,right,→,0.6663899999985006,True,9,-1,0,5
PB057K26,6,348,PS,exp,37,↑,right,→,1.1895617000118364,False,9,-1,0,5
PB057K26,6,349,PS,exp,28,↓,down,↓,0.6505645000142977,True,10,-1,0,5
PB057K26,6,350,PS,exp,34,↑,up,↑,0.5232981000153814,True,10,1,1,6
PB057K26,6,351,PS,exp,47,↓,down,↓,0.6215573000081349,True,9,1,0,6
PB057K26,6,352,PS,exp,27,↑,down,↓,0.753227799985325,False,9,-1,1,7
PB057K26,6,353,PS,exp,31,↓,down,↓,0.3595579999964684,True,10,-1,0,7
PB057K26,6,354,PS,exp,46,↑,right,→,0.5070877999824006,False,10,-1,0,7
PB057K26,6,355,PS,exp,34,↓,down,↓,0.5742811000091024,True,11,-1,0,7
PB057K26,6,356,PS,exp,49,↑,up,↑,0.9282936000090558,True,11,1,1,8
PB057K26,6,357,PS,exp,48,↓,down,↓,0.5541177999984939,True,10,1,0,8
PB057K26,6,358,PS,exp,43,←,down,↓,0.6332158999866806,False,10,-1,1,9
PB057K26,6,359,PS,exp,37,↓,down,↓,0.5530971999978647,True,11,-1,0,9
PB057K26,6,360,PS,exp,26,↑,up,↑,0.5681475999881513,True,11,1,1,10
PB057K26,6,361,PS,exp,29,↓,down,↓,0.5139494999893941,True,10,1,0,10
PB057K26,6,362,PS,exp,33,←,right,→,0.6036463000054937,False,10,-1,1,11
PB057K26,6,363,PS,exp,38,→,right,→,0.5275979999860283,True,11,-1,0,11
PB057K26,6,364,PS,exp,46,↓,down,↓,0.5790443999867421,True,11,1,1,12
PB057K26,6,365,PS,exp,46,←,left,←,0.5627582000161055,True,10,1,0,12
PB057K26,6,366,PS,exp,31,↓,right,→,0.6703182999917772,False,10,-1,1,13
PB057K26,6,367,PS,exp,41,←,right,→,0.5323548000014853,False,11,-1,0,13
PB057K26,6,368,PS,exp,30,→,right,→,0.5024700999783818,True,12,-1,0,13
PB057K26,6,369,PS,exp,48,←,left,←,0.834274099994218,True,12,1,1,14
PB057K26,7,370,PS,intra_train,49,↑,left,←,1.3594998000189662,False,7,-,-,-
PB057K26,7,371,PS,intra_train,50,←,left,←,0.5745086999959312,True,7,-,-,-
PB057K26,7,372,PS,intra_train,26,↓,down,↓,0.7347101999912411,True,7,-,-,-
PB057K26,7,373,PS,intra_train,46,→,right,→,0.6787812999973539,True,7,-,-,-
PB057K26,7,374,PS,intra_train,50,↑,down,↓,0.7231038000027183,False,7,-,-,-
PB057K26,7,375,PS,exp,42,→,right,→,0.5816423000069335,True,5,0,0,0
PB057K26,7,376,PS,exp,26,↓,right,→,0.8823000999982469,False,5,-1,0,0
PB057K26,7,377,PS,exp,27,↑,down,↓,0.9714034000062384,False,6,-1,0,0
PB057K26,7,378,PS,exp,35,←,left,←,0.7840157999889925,True,7,-1,0,0
PB057K26,7,379,PS,exp,25,↑,up,↑,0.6974846000084653,True,7,1,1,1
PB057K26,7,380,PS,exp,49,←,left,←,0.6665286000061315,True,6,1,0,1
PB057K26,7,381,PS,exp,49,→,right,→,0.585557999991579,True,6,1,0,1
PB057K26,7,382,PS,exp,28,←,left,←,0.7621120999974664,True,5,1,0,1
PB057K26,7,383,PS,exp,34,↑,left,←,0.7481810999743175,False,5,-1,1,2
PB057K26,7,384,PS,exp,44,→,left,←,0.5969523999956436,False,6,-1,0,2
PB057K26,7,385,PS,exp,40,↓,left,←,0.7559245000011288,False,7,-1,0,2
PB057K26,7,386,PS,exp,42,←,down,↓,0.8124507000029553,False,8,-1,0,2
PB057K26,7,387,PS,exp,29,↑,down,↓,1.5530577000172343,False,9,-1,0,2
PB057K26,7,388,PS,exp,46,←,left,←,0.6871726999816019,True,10,-1,0,2
PB057K26,7,389,PS,exp,35,↓,down,↓,0.6572453000117093,True,10,1,1,3
PB057K26,7,390,PS,exp,36,↑,up,↑,0.7248201000038534,True,9,1,0,3
PB057K26,7,391,PS,exp,50,↓,down,↓,1.0431926000164822,True,9,1,0,3
PB057K26,7,392,PS,exp,26,→,right,→,0.5914109000004828,True,8,1,0,3
PB057K26,7,393,PS,exp,29,←,left,←,0.5333609000081196,True,8,1,0,3
PB057K26,7,394,PS,exp,49,↓,right,→,0.8182426999846939,False,7,-1,1,4
PB057K26,7,395,PS,exp,32,→,right,→,0.49444470001617447,True,8,-1,0,4
PB057K26,7,396,PS,exp,36,↓,up,↑,0.7142204999981914,False,8,-1,0,4
PB057K26,7,397,PS,exp,30,↑,up,↑,0.5946021999989171,True,9,-1,0,4
PB057K26,7,398,PS,exp,41,←,up,↑,0.7387110999843571,False,9,-1,0,4
PB057K26,7,399,PS,exp,31,↓,down,↓,0.5597870999772567,True,10,-1,0,4
PB057K26,7,400,PS,exp,48,←,left,←,0.6674246999900788,True,10,1,1,5
PB057K26,7,401,PS,exp,36,→,down,↓,0.7944960000168066,False,9,-1,1,6
PB057K26,7,402,PS,exp,44,←,left,←,0.6617521999869496,True,10,-1,0,6
PB057K26,7,403,PS,exp,38,→,right,→,0.4967674999788869,True,10,1,1,7
PB057K26,7,404,PS,exp,42,↓,left,←,0.4070017999911215,False,9,-1,1,8
PB057K26,7,405,PS,exp,30,→,right,→,0.8372870000021067,True,10,-1,0,8
PB057K26,7,406,PS,exp,34,←,up,↑,0.9804395999817643,False,10,-1,0,8
PB057K26,7,407,PS,exp,33,→,right,→,0.5711911999969743,True,11,-1,0,8
PB057K26,7,408,PS,exp,35,↓,up,↑,0.752091999980621,False,11,-1,0,8
PB057K26,7,409,PS,exp,31,→,right,→,0.5571723000030033,True,12,-1,0,8
PB057K26,7,410,PS,exp,44,↓,up,↑,1.1165678999968804,False,12,-1,0,8
PB057K26,7,411,PS,exp,46,←,left,←,0.5853727999783587,True,13,-1,0,8
PB057K26,7,412,PS,exp,30,↓,down,↓,0.671078600018518,True,13,1,1,9
PB057K26,7,413,PS,exp,41,←,up,↑,0.863542300008703,False,12,-1,1,10
PB057K26,7,414,PS,exp,44,↑,up,↑,0.5137641000037547,True,13,-1,0,10
PB057K26,7,415,PS,exp,31,←,left,←,0.5779406999936327,True,13,1,1,11
PB057K26,7,416,PS,exp,29,↑,up,↑,0.7107671000121627,True,12,1,0,11
PB057K26,7,417,PS,exp,25,→,right,→,0.5422412999905646,True,12,1,0,11
PB057K26,7,418,PS,exp,44,←,left,←,0.6409222999936901,True,11,1,0,11
PB057K26,7,419,PS,exp,50,↓,down,↓,0.7080725000123493,True,11,1,0,11
PB057K26,7,420,PS,exp,35,↑,up,↑,0.6649785000190604,True,10,1,0,11
PB057K26,7,421,PS,exp,25,↓,down,↓,0.5902494000038132,True,10,1,0,11
PB057K26,7,422,PS,exp,45,↑,up,↑,0.7422030000016093,True,9,1,0,11
PB057K26,7,423,PS,exp,43,→,right,→,0.5160443000204396,True,9,1,0,11
PB057K26,7,424,PS,exp,44,↑,right,→,0.8909048999776132,False,8,-1,1,12
PB057K26,7,425,PS,exp,33,←,left,←,0.5777977000107057,True,9,-1,0,12
PB057K26,7,426,PS,exp,43,→,up,↑,0.6166929000173695,False,9,-1,0,12
PB057K26,7,427,PS,exp,40,←,up,↑,0.7216198999958578,False,10,-1,0,12
PB057K26,7,428,PS,exp,46,↑,up,↑,0.5197377999720629,True,11,-1,0,12
PB057K26,7,429,PS,exp,49,↓,down,↓,0.7259519000072032,True,11,1,1,13
PB057K26,7,430,PS,exp,30,→,up,↑,0.5464247000054456,False,10,-1,1,14
PB057K26,8,431,AS,intra_train,45,←,left,←,0.9746237999934237,True,31,-,-,-
PB057K26,8,432,AS,intra_train,43,↓,down,↓,0.7274164000118617,True,31,-,-,-
PB057K26,8,433,AS,intra_train,25,←,left,←,0.5837231999903452,True,31,-,-,-
PB057K26,8,434,AS,intra_train,29,↑,up,↑,0.5001866999955382,True,31,-,-,-
PB057K26,8,435,AS,intra_train,39,←,left,←,0.4679662999988068,True,31,-,-,-
PB057K26,8,436,AS,exp,42,↓,down,↓,0.615494800003944,True,21,0,0,0
PB057K26,8,437,AS,exp,48,→,right,→,0.9068772999744397,True,21,1,0,0
PB057K26,8,438,AS,exp,32,↓,down,↓,0.7708767000003718,True,20,1,0,0
PB057K26,8,439,AS,exp,44,→,no_key,no_letter,-1.0,False,20,-1,1,1
PB057K26,8,440,AS,exp,41,←,right,→,1.2438770000007935,False,21,-1,0,1
PB057K26,8,441,AS,exp,46,↓,no_key,no_letter,-1.0,False,22,-1,0,1
PB057K26,8,442,AS,exp,44,→,right,→,0.5004948000132572,True,23,-1,0,1
PB057K26,8,443,AS,exp,43,↓,down,↓,0.8359207999892533,True,23,1,1,2
PB057K26,8,444,AS,exp,43,←,left,←,0.6970848999917507,True,22,1,0,2
PB057K26,8,445,AS,exp,43,↑,up,↑,0.8652338999963831,True,22,1,0,2
PB057K26,8,446,AS,exp,44,→,left,←,0.5181499000173062,False,21,-1,1,3
PB057K26,8,447,AS,exp,44,↑,no_key,no_letter,-1.0,False,22,-1,0,3
PB057K26,8,448,AS,exp,25,↓,down,↓,0.6185253000003286,True,23,-1,0,3
PB057K26,8,449,AS,exp,30,→,no_key,no_letter,-1.0,False,23,-1,0,3
PB057K26,8,450,AS,exp,48,↑,up,↑,0.5337643000239041,True,24,-1,0,3
PB057K26,8,451,AS,exp,42,→,down,↓,0.4007933000102639,False,24,-1,0,3
PB057K26,8,452,AS,exp,45,↓,down,↓,0.8601183000137098,True,25,-1,0,3
PB057K26,8,453,AS,exp,37,→,right,→,0.6003262000158429,True,25,1,1,4
PB057K26,8,454,AS,exp,25,↑,no_key,no_letter,-1.0,False,24,-1,1,5
PB057K26,8,455,AS,exp,32,↓,down,↓,0.5171139000158291,True,25,-1,0,5
PB057K26,8,456,AS,exp,32,↑,up,↑,0.8931740999978501,True,25,1,1,6
PB057K26,8,457,AS,exp,46,↓,no_key,no_letter,-1.0,False,24,-1,1,7
PB057K26,8,458,AS,exp,38,←,no_key,no_letter,-1.0,False,25,-1,0,7
PB057K26,8,459,AS,exp,36,→,right,→,0.9138642000034451,True,26,-1,0,7
PB057K26,8,460,AS,exp,38,↑,no_key,no_letter,-1.0,False,26,-1,0,7
PB057K26,8,461,AS,exp,29,←,left,←,0.5506675999786239,True,27,-1,0,7
PB057K26,8,462,AS,exp,32,↓,down,↓,0.6269887000089511,True,27,1,1,8
PB057K26,8,463,AS,exp,26,←,right,→,0.6218949999893084,False,26,-1,1,9
PB057K26,8,464,AS,exp,25,↓,no_key,no_letter,-1.0,False,27,-1,0,9
PB057K26,8,465,AS,exp,38,←,left,←,0.4513361999997869,True,28,-1,0,9
PB057K26,8,466,AS,exp,25,↑,up,↑,0.8915675000171177,True,28,1,1,10
PB057K26,8,467,AS,exp,44,→,right,→,0.8959440999897197,True,27,1,0,10
PB057K26,8,468,AS,exp,34,↑,up,↑,0.5336609999940265,True,27,1,0,10
PB057K26,8,469,AS,exp,34,→,right,→,0.5504591999924742,True,26,1,0,10
PB057K26,8,470,AS,exp,27,↑,up,↑,0.6225637999887113,True,26,1,0,10
PB057K26,8,471,AS,exp,37,←,left,←,0.5974094000121113,True,25,1,0,10
PB057K26,8,472,AS,exp,32,↓,down,↓,0.8880332999979146,True,25,1,0,10
PB057K26,8,473,AS,exp,48,←,left,←,0.7821958000131417,True,24,1,0,10
PB057K26,8,474,AS,exp,27,→,right,→,0.7785550999979023,True,24,1,0,10
PB057K26,8,475,AS,exp,39,←,left,←,0.7022977999877185,True,23,1,0,10
PB057K26,8,476,AS,exp,27,↑,up,↑,0.7406498999916948,True,23,1,0,10
PB057K26,8,477,AS,exp,44,↓,down,↓,0.6326212999993004,True,22,1,0,10
PB057K26,8,478,AS,exp,38,←,left,←,0.4837635000003502,True,22,1,0,10
PB057K26,8,479,AS,exp,29,↓,down,↓,0.7107995999976993,True,21,1,0,10
PB057K26,8,480,AS,exp,48,→,right,→,0.6680484999960754,True,21,1,0,10
PB057K26,8,481,AS,exp,38,↓,down,↓,0.731796599982772,True,20,1,0,10
PB057K26,8,482,AS,exp,43,↑,no_key,no_letter,-1.0,False,20,-1,1,11
PB057K26,8,483,AS,exp,48,←,left,←,0.5611269000219181,True,21,-1,0,11
PB057K26,8,484,AS,exp,33,↑,down,↓,0.8947981999954209,False,21,-1,0,11
PB057K26,8,485,AS,exp,29,→,right,→,0.795839900005376,True,22,-1,0,11
PB057K26,8,486,AS,exp,27,↓,down,↓,0.6118793000059668,True,22,1,1,12
PB057K26,8,487,AS,exp,28,↑,up,↑,0.4839464999968186,True,21,1,0,12
PB057K26,8,488,AS,exp,39,←,left,←,0.4339392999827396,True,21,1,0,12
PB057K26,8,489,AS,exp,41,↑,up,↑,0.8355652000172995,True,20,1,0,12
PB057K26,8,490,AS,exp,33,←,left,←,0.62614200002281,True,20,1,0,12
PB057K26,8,491,AS,exp,31,↓,no_key,no_letter,-1.0,False,19,-1,1,13
PB057K26,8,492,AS,exp,30,←,left,←,0.6099270000122488,True,20,-1,0,13
PB057K26,8,493,AS,exp,47,↑,up,↑,0.7015905999869574,True,20,1,1,14
