PART_ID,Trial_no,Trial_type,CSI,Stim_letter,Key_pressed,letter_choose,Rt,Corr,Stimulus Time,nDropped
real_testM20S1,1,training,120,↓,no_key,no_letter,-1.0,False,60,0
real_testM20S1,2,training,120,→,no_key,no_letter,-1.0,False,60,0
real_testM20S1,3,training,120,→,no_key,no_letter,-1.0,False,60,0
real_testM20S1,4,training,120,↓,no_key,no_letter,-1.0,False,60,0
real_testM20S1,5,training,120,←,no_key,no_letter,-1.0,False,60,0
real_testM20S1,6,training,120,←,no_key,no_letter,-1.0,False,60,0
real_testM20S1,7,training,120,→,no_key,no_letter,-1.0,False,60,0
real_testM20S1,8,training,120,←,no_key,no_letter,-1.0,False,60,0
real_testM20S1,9,training,120,↑,no_key,no_letter,-1.0,False,60,0
real_testM20S1,10,training,120,↓,no_key,no_letter,-1.0,False,60,0
real_testM20S1,11,training,120,↓,no_key,no_letter,-1.0,False,60,0
real_testM20S1,12,training,120,→,no_key,no_letter,-1.0,False,60,0
real_testM20S1,13,training,120,←,no_key,no_letter,-1.0,False,60,0
real_testM20S1,14,training,120,→,no_key,no_letter,-1.0,False,60,0
real_testM20S1,15,training,120,↓,no_key,no_letter,-1.0,False,60,0
real_testM20S1,16,training,120,↑,no_key,no_letter,-1.0,False,60,0
real_testM20S1,17,training,120,↑,no_key,no_letter,-1.0,False,60,0
real_testM20S1,18,training,120,→,no_key,no_letter,-1.0,False,60,0
real_testM20S1,19,training,120,→,no_key,no_letter,-1.0,False,60,0
real_testM20S1,20,training,120,↑,no_key,no_letter,-1.0,False,60,0
real_testM20S1,21,no_adaptation,120,↑,no_key,no_letter,-1.0,False,36,0
real_testM20S1,22,no_adaptation,120,→,no_key,no_letter,-1.0,False,36,0
real_testM20S1,23,no_adaptation,120,←,no_key,no_letter,-1.0,False,36,0
real_testM20S1,24,no_adaptation,120,↓,no_key,no_letter,-1.0,False,36,0
real_testM20S1,25,no_adaptation,120,↑,no_key,no_letter,-1.0,False,36,0
real_testM20S1,26,no_adaptation,120,↑,no_key,no_letter,-1.0,False,36,0
real_testM20S1,27,no_adaptation,120,↑,no_key,no_letter,-1.0,False,36,0
real_testM20S1,28,no_adaptation,120,↑,no_key,no_letter,-1.0,False,36,0
real_testM20S1,29,no_adaptation,120,→,no_key,no_letter,-1.0,False,36,0
real_testM20S1,30,no_adaptation,120,←,no_key,no_letter,-1.0,False,36,0
real_testM20S1,31,no_adaptation,120,→,no_key,no_letter,-1.0,False,36,0
real_testM20S1,32,no_adaptation,120,←,no_key,no_letter,-1.0,False,36,0
real_testM20S1,33,no_adaptation,120,→,no_key,no_letter,-1.0,False,36,0
real_testM20S1,34,no_adaptation,120,←,no_key,no_letter,-1.0,False,36,0
real_testM20S1,35,no_adaptation,120,↓,no_key,no_letter,-1.0,False,36,0
real_testM20S1,36,no_adaptation,120,←,no_key,no_letter,-1.0,False,36,0
real_testM20S1,37,no_adaptation,120,↑,no_key,no_letter,-1.0,False,36,0
real_testM20S1,38,no_adaptation,120,↑,no_key,no_letter,-1.0,False,36,0
real_testM20S1,39,no_adaptation,120,↓,no_key,no_letter,-1.0,False,36,0
real_testM20S1,40,no_adaptation,120,→,no_key,no_letter,-1.0,False,36,0
real_testM20S1,41,training,16,↑,no_key,no_letter,-1.0,False,36,0
real_testM20S1,42,training,85,↓,no_key,no_letter,-1.0,False,36,1
real_testM20S1,43,experiment,85,→,no_key,no_letter,-1.0,False,36,1
real_testM20S1,44,experiment,12,→,no_key,no_letter,-1.0,False,36,1
real_testM20S1,45,experiment,63,→,no_key,no_letter,-1.0,False,36,1
real_testM20S1,46,experiment,88,←,no_key,no_letter,-1.0,False,36,1
real_testM20S1,47,experiment,91,→,no_key,no_letter,-1.0,False,36,1
real_testM20S1,48,experiment,37,→,no_key,no_letter,-1.0,False,36,1
real_testM20S1,49,experiment,11,↑,no_key,no_letter,-1.0,False,36,1
real_testM20S1,50,experiment,86,←,no_key,no_letter,-1.0,False,36,1
real_testM20S1,51,experiment,69,↑,no_key,no_letter,-1.0,False,36,1
real_testM20S1,52,experiment,2,↓,no_key,no_letter,-1.0,False,36,1
real_testM20S1,53,experiment,80,→,no_key,no_letter,-1.0,False,36,1
real_testM20S1,54,experiment,40,→,no_key,no_letter,-1.0,False,36,1
real_testM20S1,55,experiment,52,←,no_key,no_letter,-1.0,False,36,0
real_testM20S1,56,experiment,51,↓,no_key,no_letter,-1.0,False,36,1
real_testM20S1,57,experiment,54,↑,no_key,no_letter,-1.0,False,36,0
real_testM20S1,58,experiment,99,→,no_key,no_letter,-1.0,False,36,1
real_testM20S1,59,experiment,50,→,no_key,no_letter,-1.0,False,36,1
real_testM20S1,60,experiment,94,↓,no_key,no_letter,-1.0,False,36,1
real_testM20S1,61,experiment,60,↓,no_key,no_letter,-1.0,False,36,1
real_testM20S1,62,experiment,64,↓,no_key,no_letter,-1.0,False,36,1
real_testM20S1,63,experiment,14,←,no_key,no_letter,-1.0,False,36,1
real_testM20S1,64,experiment,44,→,no_key,no_letter,-1.0,False,36,0
real_testM20S1,65,experiment,89,↑,no_key,no_letter,-1.0,False,36,1
real_testM20S1,66,experiment,47,→,no_key,no_letter,-1.0,False,36,1
real_testM20S1,67,experiment,20,→,no_key,no_letter,-1.0,False,36,1
real_testM20S1,68,experiment,30,↓,no_key,no_letter,-1.0,False,36,1
real_testM20S1,69,experiment,95,↓,no_key,no_letter,-1.0,False,36,1
real_testM20S1,70,experiment,57,→,no_key,no_letter,-1.0,False,36,1
real_testM20S1,71,experiment,83,←,no_key,no_letter,-1.0,False,36,1
real_testM20S1,72,experiment,38,→,no_key,no_letter,-1.0,False,36,1
real_testM20S1,73,experiment,55,→,no_key,no_letter,-1.0,False,36,1
real_testM20S1,74,experiment,101,↑,no_key,no_letter,-1.0,False,36,0
real_testM20S1,75,experiment,18,→,no_key,no_letter,-1.0,False,36,1
real_testM20S1,76,experiment,26,↑,no_key,no_letter,-1.0,False,36,1
real_testM20S1,77,experiment,74,↓,no_key,no_letter,-1.0,False,36,1
real_testM20S1,78,experiment,45,←,no_key,no_letter,-1.0,False,36,1
real_testM20S1,79,experiment,72,→,no_key,no_letter,-1.0,False,36,1
real_testM20S1,80,experiment,17,↑,no_key,no_letter,-1.0,False,36,1
real_testM20S1,81,experiment,71,←,no_key,no_letter,-1.0,False,36,1
real_testM20S1,82,experiment,39,←,no_key,no_letter,-1.0,False,36,1
real_testM20S1,83,experiment,77,→,no_key,no_letter,-1.0,False,36,1
real_testM20S1,84,experiment,31,↓,no_key,no_letter,-1.0,False,36,1
real_testM20S1,85,experiment,66,↑,no_key,no_letter,-1.0,False,36,1
real_testM20S1,86,experiment,1,←,no_key,no_letter,-1.0,False,36,1
real_testM20S1,87,experiment,96,↓,no_key,no_letter,-1.0,False,36,1
real_testM20S1,88,experiment,36,←,no_key,no_letter,-1.0,False,36,1
real_testM20S1,89,experiment,87,←,no_key,no_letter,-1.0,False,36,1
real_testM20S1,90,experiment,27,→,no_key,no_letter,-1.0,False,36,1
real_testM20S1,91,experiment,33,↓,no_key,no_letter,-1.0,False,36,1
real_testM20S1,92,experiment,97,→,no_key,no_letter,-1.0,False,36,1
real_testM20S1,93,experiment,58,↓,no_key,no_letter,-1.0,False,36,1
real_testM20S1,94,experiment,21,→,no_key,no_letter,-1.0,False,36,1
real_testM20S1,95,experiment,79,→,no_key,no_letter,-1.0,False,36,1
real_testM20S1,96,experiment,16,↑,no_key,no_letter,-1.0,False,36,1
real_testM20S1,97,experiment,46,←,no_key,no_letter,-1.0,False,36,1
real_testM20S1,98,experiment,49,↑,no_key,no_letter,-1.0,False,36,1
real_testM20S1,99,experiment,84,→,no_key,no_letter,-1.0,False,36,0
real_testM20S1,100,experiment,43,→,no_key,no_letter,-1.0,False,36,1
real_testM20S1,101,experiment,19,←,no_key,no_letter,-1.0,False,36,1
real_testM20S1,102,experiment,25,→,no_key,no_letter,-1.0,False,36,0
real_testM20S1,103,experiment,10,→,no_key,no_letter,-1.0,False,36,1
real_testM20S1,104,experiment,76,↓,no_key,no_letter,-1.0,False,36,1
real_testM20S1,105,experiment,48,→,no_key,no_letter,-1.0,False,36,1
real_testM20S1,106,experiment,100,→,no_key,no_letter,-1.0,False,36,1
real_testM20S1,107,experiment,53,↑,no_key,no_letter,-1.0,False,36,1
real_testM20S1,108,experiment,15,↑,no_key,no_letter,-1.0,False,36,0
real_testM20S1,109,experiment,59,↑,no_key,no_letter,-1.0,False,36,1
real_testM20S1,110,experiment,93,→,no_key,no_letter,-1.0,False,36,1
real_testM20S1,111,experiment,61,↓,no_key,no_letter,-1.0,False,36,1
real_testM20S1,112,experiment,65,↑,no_key,no_letter,-1.0,False,36,1
real_testM20S1,113,experiment,9,↓,no_key,no_letter,-1.0,False,36,1
real_testM20S1,114,experiment,13,↓,no_key,no_letter,-1.0,False,36,1
real_testM20S1,115,experiment,4,↑,no_key,no_letter,-1.0,False,36,1
real_testM20S1,116,experiment,32,→,no_key,no_letter,-1.0,False,36,1
real_testM20S1,117,experiment,98,→,no_key,no_letter,-1.0,False,36,1
real_testM20S1,118,experiment,73,↓,no_key,no_letter,-1.0,False,36,1
real_testM20S1,119,experiment,70,←,no_key,no_letter,-1.0,False,36,1
real_testM20S1,120,experiment,34,→,no_key,no_letter,-1.0,False,36,1
real_testM20S1,121,experiment,75,←,no_key,no_letter,-1.0,False,36,1
real_testM20S1,122,experiment,29,→,no_key,no_letter,-1.0,False,36,1
real_testM20S1,123,experiment,35,→,no_key,no_letter,-1.0,False,36,1
real_testM20S1,124,experiment,24,→,no_key,no_letter,-1.0,False,36,1
real_testM20S1,125,experiment,56,↑,no_key,no_letter,-1.0,False,36,1
real_testM20S1,126,experiment,42,↑,no_key,no_letter,-1.0,False,36,1
real_testM20S1,127,experiment,92,↑,no_key,no_letter,-1.0,False,36,1
real_testM20S1,128,experiment,82,↑,no_key,no_letter,-1.0,False,36,1
real_testM20S1,129,experiment,5,→,no_key,no_letter,-1.0,False,36,1
real_testM20S1,130,experiment,62,↑,no_key,no_letter,-1.0,False,36,1
real_testM20S1,131,experiment,90,←,no_key,no_letter,-1.0,False,36,1
real_testM20S1,132,experiment,8,↓,no_key,no_letter,-1.0,False,36,1
real_testM20S1,133,experiment,81,←,no_key,no_letter,-1.0,False,36,1
real_testM20S1,134,experiment,67,↓,no_key,no_letter,-1.0,False,36,1
real_testM20S1,135,experiment,68,↓,no_key,no_letter,-1.0,False,36,1
real_testM20S1,136,experiment,23,↑,no_key,no_letter,-1.0,False,36,1
real_testM20S1,137,experiment,6,↓,no_key,no_letter,-1.0,False,36,1
real_testM20S1,138,experiment,22,→,no_key,no_letter,-1.0,False,36,1
real_testM20S1,139,experiment,28,↓,no_key,no_letter,-1.0,False,36,1
real_testM20S1,140,experiment,7,←,no_key,no_letter,-1.0,False,36,1
real_testM20S1,141,experiment,78,↓,no_key,no_letter,-1.0,False,36,1
real_testM20S1,142,experiment,3,↓,no_key,no_letter,-1.0,False,36,1
real_testM20S1,143,experiment,41,→,no_key,no_letter,-1.0,False,36,0
real_testM20S1,144,training,27,←,no_key,no_letter,-1.0,False,37,0
real_testM20S1,145,training,58,→,no_key,no_letter,-1.0,False,37,1
real_testM20S1,146,experiment,75,→,no_key,no_letter,-1.0,False,37,1
real_testM20S1,147,experiment,13,↓,no_key,no_letter,-1.0,False,37,1
real_testM20S1,148,experiment,2,↓,no_key,no_letter,-1.0,False,37,1
real_testM20S1,149,experiment,78,←,no_key,no_letter,-1.0,False,37,1
real_testM20S1,150,experiment,46,←,no_key,no_letter,-1.0,False,37,1
real_testM20S1,151,experiment,44,←,no_key,no_letter,-1.0,False,37,1
real_testM20S1,152,experiment,30,↓,no_key,no_letter,-1.0,False,37,1
real_testM20S1,153,experiment,61,↑,no_key,no_letter,-1.0,False,37,1
real_testM20S1,154,experiment,27,↑,no_key,no_letter,-1.0,False,37,1
real_testM20S1,155,experiment,54,←,no_key,no_letter,-1.0,False,37,1
real_testM20S1,156,experiment,17,↓,no_key,no_letter,-1.0,False,37,1
real_testM20S1,157,experiment,77,↑,no_key,no_letter,-1.0,False,37,1
real_testM20S1,158,experiment,86,↑,no_key,no_letter,-1.0,False,37,1
real_testM20S1,159,experiment,48,↓,no_key,no_letter,-1.0,False,37,1
real_testM20S1,160,experiment,82,↑,no_key,no_letter,-1.0,False,37,1
real_testM20S1,161,experiment,28,↑,no_key,no_letter,-1.0,False,37,1
real_testM20S1,162,experiment,97,→,no_key,no_letter,-1.0,False,37,1
real_testM20S1,163,experiment,11,↑,no_key,no_letter,-1.0,False,37,1
real_testM20S1,164,experiment,99,→,no_key,no_letter,-1.0,False,37,1
real_testM20S1,165,experiment,12,↑,no_key,no_letter,-1.0,False,37,1
real_testM20S1,166,experiment,51,↓,no_key,no_letter,-1.0,False,37,1
real_testM20S1,167,experiment,87,←,no_key,no_letter,-1.0,False,37,1
real_testM20S1,168,experiment,37,↑,no_key,no_letter,-1.0,False,37,1
real_testM20S1,169,experiment,84,→,no_key,no_letter,-1.0,False,37,1
real_testM20S1,170,experiment,76,←,no_key,no_letter,-1.0,False,37,1
real_testM20S1,171,experiment,20,←,no_key,no_letter,-1.0,False,37,1
real_testM20S1,172,experiment,80,↑,no_key,no_letter,-1.0,False,37,1
real_testM20S1,173,experiment,96,↓,no_key,no_letter,-1.0,False,37,1
real_testM20S1,174,experiment,24,←,no_key,no_letter,-1.0,False,37,1
real_testM20S1,175,experiment,59,↑,no_key,no_letter,-1.0,False,37,1
real_testM20S1,176,experiment,100,↓,no_key,no_letter,-1.0,False,37,1
real_testM20S1,177,experiment,6,→,no_key,no_letter,-1.0,False,37,1
real_testM20S1,178,experiment,7,↓,no_key,no_letter,-1.0,False,37,1
real_testM20S1,179,experiment,74,←,no_key,no_letter,-1.0,False,37,1
real_testM20S1,180,experiment,19,→,no_key,no_letter,-1.0,False,37,1
real_testM20S1,181,experiment,52,↑,no_key,no_letter,-1.0,False,37,1
real_testM20S1,182,experiment,39,↓,no_key,no_letter,-1.0,False,37,1
real_testM20S1,183,experiment,50,↓,no_key,no_letter,-1.0,False,37,1
real_testM20S1,184,experiment,22,↓,no_key,no_letter,-1.0,False,37,1
real_testM20S1,185,experiment,3,↑,no_key,no_letter,-1.0,False,37,1
real_testM20S1,186,experiment,40,↑,no_key,no_letter,-1.0,False,37,1
real_testM20S1,187,experiment,90,↑,no_key,no_letter,-1.0,False,37,1
real_testM20S1,188,experiment,35,←,no_key,no_letter,-1.0,False,37,1
real_testM20S1,189,experiment,64,→,no_key,no_letter,-1.0,False,37,1
real_testM20S1,190,experiment,58,←,no_key,no_letter,-1.0,False,37,1
real_testM20S1,191,experiment,95,↑,no_key,no_letter,-1.0,False,37,1
real_testM20S1,192,experiment,70,←,no_key,no_letter,-1.0,False,37,1
real_testM20S1,193,experiment,32,→,no_key,no_letter,-1.0,False,37,1
real_testM20S1,194,experiment,81,↑,no_key,no_letter,-1.0,False,37,1
real_testM20S1,195,experiment,38,↑,no_key,no_letter,-1.0,False,37,1
real_testM20S1,196,experiment,34,←,no_key,no_letter,-1.0,False,37,1
real_testM20S1,197,experiment,83,↓,no_key,no_letter,-1.0,False,37,1
real_testM20S1,198,experiment,15,→,no_key,no_letter,-1.0,False,37,1
real_testM20S1,199,experiment,85,↑,no_key,no_letter,-1.0,False,37,1
real_testM20S1,200,experiment,21,↑,no_key,no_letter,-1.0,False,37,1
real_testM20S1,201,experiment,23,↓,no_key,no_letter,-1.0,False,37,1
real_testM20S1,202,experiment,10,↑,no_key,no_letter,-1.0,False,37,1
real_testM20S1,203,experiment,41,←,no_key,no_letter,-1.0,False,37,1
real_testM20S1,204,experiment,88,↑,no_key,no_letter,-1.0,False,37,1
real_testM20S1,205,experiment,69,→,no_key,no_letter,-1.0,False,37,1
real_testM20S1,206,experiment,45,←,no_key,no_letter,-1.0,False,37,1
real_testM20S1,207,experiment,72,↑,no_key,no_letter,-1.0,False,37,1
real_testM20S1,208,experiment,42,←,no_key,no_letter,-1.0,False,37,1
real_testM20S1,209,experiment,36,→,no_key,no_letter,-1.0,False,37,1
real_testM20S1,210,experiment,31,←,no_key,no_letter,-1.0,False,37,1
real_testM20S1,211,experiment,93,↓,no_key,no_letter,-1.0,False,37,1
real_testM20S1,212,experiment,9,→,no_key,no_letter,-1.0,False,37,1
real_testM20S1,213,experiment,89,↓,no_key,no_letter,-1.0,False,37,1
real_testM20S1,214,experiment,66,→,no_key,no_letter,-1.0,False,37,1
real_testM20S1,215,experiment,67,←,no_key,no_letter,-1.0,False,37,1
real_testM20S1,216,experiment,53,↓,no_key,no_letter,-1.0,False,37,1
real_testM20S1,217,experiment,57,→,no_key,no_letter,-1.0,False,37,1
real_testM20S1,218,experiment,101,→,no_key,no_letter,-1.0,False,37,1
real_testM20S1,219,experiment,26,→,no_key,no_letter,-1.0,False,37,1
real_testM20S1,220,experiment,73,→,no_key,no_letter,-1.0,False,37,1
real_testM20S1,221,experiment,49,→,no_key,no_letter,-1.0,False,37,1
real_testM20S1,222,experiment,25,↑,no_key,no_letter,-1.0,False,37,1
real_testM20S1,223,experiment,56,↓,no_key,no_letter,-1.0,False,37,0
real_testM20S1,224,experiment,79,→,no_key,no_letter,-1.0,False,37,1
real_testM20S1,225,experiment,98,↓,no_key,no_letter,-1.0,False,37,1
real_testM20S1,226,experiment,18,→,no_key,no_letter,-1.0,False,37,1
real_testM20S1,227,experiment,62,←,no_key,no_letter,-1.0,False,37,0
real_testM20S1,228,experiment,92,→,no_key,no_letter,-1.0,False,37,1
real_testM20S1,229,experiment,5,↑,no_key,no_letter,-1.0,False,37,1
real_testM20S1,230,experiment,63,↓,no_key,no_letter,-1.0,False,37,1
real_testM20S1,231,experiment,94,↓,no_key,no_letter,-1.0,False,37,1
real_testM20S1,232,experiment,43,→,no_key,no_letter,-1.0,False,37,0
real_testM20S1,233,experiment,65,↓,no_key,no_letter,-1.0,False,37,1
real_testM20S1,234,experiment,14,↑,no_key,no_letter,-1.0,False,37,1
real_testM20S1,235,experiment,47,↓,no_key,no_letter,-1.0,False,37,1
real_testM20S1,236,experiment,71,→,no_key,no_letter,-1.0,False,37,1
real_testM20S1,237,experiment,33,↑,no_key,no_letter,-1.0,False,37,1
real_testM20S1,238,experiment,16,↑,no_key,no_letter,-1.0,False,37,1
real_testM20S1,239,experiment,4,→,no_key,no_letter,-1.0,False,37,1
real_testM20S1,240,experiment,68,→,no_key,no_letter,-1.0,False,37,1
real_testM20S1,241,experiment,1,←,no_key,no_letter,-1.0,False,37,1
real_testM20S1,242,experiment,91,↑,no_key,no_letter,-1.0,False,37,1
real_testM20S1,243,experiment,60,←,no_key,no_letter,-1.0,False,37,0
real_testM20S1,244,experiment,8,←,no_key,no_letter,-1.0,False,37,0
real_testM20S1,245,experiment,55,↑,no_key,no_letter,-1.0,False,37,1
real_testM20S1,246,experiment,29,↑,no_key,no_letter,-1.0,False,37,1
real_testM20S1,247,training,47,→,no_key,no_letter,-1.0,False,38,0
real_testM20S1,248,training,5,←,no_key,no_letter,-1.0,False,38,1
real_testM20S1,249,experiment,38,↓,no_key,no_letter,-1.0,False,38,1
real_testM20S1,250,experiment,29,↑,no_key,no_letter,-1.0,False,38,1
real_testM20S1,251,experiment,50,↓,no_key,no_letter,-1.0,False,38,1
real_testM20S1,252,experiment,33,↑,no_key,no_letter,-1.0,False,38,0
real_testM20S1,253,experiment,101,↓,no_key,no_letter,-1.0,False,38,1
real_testM20S1,254,experiment,73,→,no_key,no_letter,-1.0,False,38,1
real_testM20S1,255,experiment,39,↑,no_key,no_letter,-1.0,False,38,1
real_testM20S1,256,experiment,100,←,no_key,no_letter,-1.0,False,38,1
real_testM20S1,257,experiment,98,↓,no_key,no_letter,-1.0,False,38,1
real_testM20S1,258,experiment,60,→,no_key,no_letter,-1.0,False,38,1
real_testM20S1,259,experiment,75,↓,no_key,no_letter,-1.0,False,38,1
real_testM20S1,260,experiment,82,→,no_key,no_letter,-1.0,False,38,1
real_testM20S1,261,experiment,16,→,no_key,no_letter,-1.0,False,38,1
real_testM20S1,262,experiment,14,←,no_key,no_letter,-1.0,False,38,1
real_testM20S1,263,experiment,79,↓,no_key,no_letter,-1.0,False,38,0
real_testM20S1,264,experiment,51,→,no_key,no_letter,-1.0,False,38,1
real_testM20S1,265,experiment,94,↑,no_key,no_letter,-1.0,False,38,1
real_testM20S1,266,experiment,86,→,no_key,no_letter,-1.0,False,38,1
real_testM20S1,267,experiment,93,←,no_key,no_letter,-1.0,False,38,1
real_testM20S1,268,experiment,35,→,no_key,no_letter,-1.0,False,38,1
real_testM20S1,269,experiment,28,←,no_key,no_letter,-1.0,False,38,1
real_testM20S1,270,experiment,5,↓,no_key,no_letter,-1.0,False,38,1
real_testM20S1,271,experiment,88,←,no_key,no_letter,-1.0,False,38,1
real_testM20S1,272,experiment,40,→,no_key,no_letter,-1.0,False,38,0
real_testM20S1,273,experiment,80,←,no_key,no_letter,-1.0,False,38,0
real_testM20S1,274,experiment,74,↑,no_key,no_letter,-1.0,False,38,1
real_testM20S1,275,experiment,4,↓,no_key,no_letter,-1.0,False,38,1
real_testM20S1,276,experiment,22,↑,no_key,no_letter,-1.0,False,38,1
real_testM20S1,277,experiment,61,↓,no_key,no_letter,-1.0,False,38,1
real_testM20S1,278,experiment,67,↓,no_key,no_letter,-1.0,False,38,1
real_testM20S1,279,experiment,36,←,no_key,no_letter,-1.0,False,38,1
real_testM20S1,280,experiment,66,↑,no_key,no_letter,-1.0,False,38,1
real_testM20S1,281,experiment,99,←,no_key,no_letter,-1.0,False,38,0
real_testM20S1,282,experiment,58,→,no_key,no_letter,-1.0,False,38,1
real_testM20S1,283,experiment,48,↓,no_key,no_letter,-1.0,False,38,1
real_testM20S1,284,experiment,17,↓,no_key,no_letter,-1.0,False,38,1
real_testM20S1,285,experiment,9,→,no_key,no_letter,-1.0,False,38,1
real_testM20S1,286,experiment,42,↑,no_key,no_letter,-1.0,False,38,1
real_testM20S1,287,experiment,95,↑,no_key,no_letter,-1.0,False,38,1
real_testM20S1,288,experiment,15,↓,no_key,no_letter,-1.0,False,38,1
real_testM20S1,289,experiment,43,↑,no_key,no_letter,-1.0,False,38,1
real_testM20S1,290,experiment,24,←,no_key,no_letter,-1.0,False,38,1
real_testM20S1,291,experiment,12,↓,no_key,no_letter,-1.0,False,38,1
real_testM20S1,292,experiment,72,←,no_key,no_letter,-1.0,False,38,1
real_testM20S1,293,experiment,83,→,no_key,no_letter,-1.0,False,38,1
real_testM20S1,294,experiment,10,→,no_key,no_letter,-1.0,False,38,1
real_testM20S1,295,experiment,62,↑,no_key,no_letter,-1.0,False,38,1
real_testM20S1,296,experiment,77,↓,no_key,no_letter,-1.0,False,38,1
real_testM20S1,297,experiment,8,→,no_key,no_letter,-1.0,False,38,1
real_testM20S1,298,experiment,71,↑,no_key,no_letter,-1.0,False,38,1
real_testM20S1,299,experiment,27,↓,no_key,no_letter,-1.0,False,38,1
real_testM20S1,300,experiment,84,←,no_key,no_letter,-1.0,False,38,1
real_testM20S1,301,experiment,78,↓,no_key,no_letter,-1.0,False,38,1
real_testM20S1,302,experiment,96,→,no_key,no_letter,-1.0,False,38,1
real_testM20S1,303,experiment,37,←,no_key,no_letter,-1.0,False,38,1
real_testM20S1,304,experiment,54,↓,no_key,no_letter,-1.0,False,38,0
real_testM20S1,305,experiment,57,↑,no_key,no_letter,-1.0,False,38,1
real_testM20S1,306,experiment,20,←,no_key,no_letter,-1.0,False,38,1
real_testM20S1,307,experiment,41,↑,no_key,no_letter,-1.0,False,38,1
real_testM20S1,308,experiment,90,↑,no_key,no_letter,-1.0,False,38,1
real_testM20S1,309,experiment,55,↓,no_key,no_letter,-1.0,False,38,1
real_testM20S1,310,experiment,89,←,no_key,no_letter,-1.0,False,38,1
real_testM20S1,311,experiment,52,↑,no_key,no_letter,-1.0,False,38,1
real_testM20S1,312,experiment,64,↑,no_key,no_letter,-1.0,False,38,1
real_testM20S1,313,experiment,1,←,no_key,no_letter,-1.0,False,38,1
real_testM20S1,314,experiment,59,→,no_key,no_letter,-1.0,False,38,1
real_testM20S1,315,experiment,47,↑,no_key,no_letter,-1.0,False,38,0
real_testM20S1,316,experiment,85,↓,no_key,no_letter,-1.0,False,38,1
real_testM20S1,317,experiment,53,↓,no_key,no_letter,-1.0,False,38,1
real_testM20S1,318,experiment,44,←,no_key,no_letter,-1.0,False,38,1
real_testM20S1,319,experiment,30,↓,no_key,no_letter,-1.0,False,38,1
real_testM20S1,320,experiment,92,↓,no_key,no_letter,-1.0,False,38,1
real_testM20S1,321,experiment,25,↓,no_key,no_letter,-1.0,False,38,1
real_testM20S1,322,experiment,3,←,no_key,no_letter,-1.0,False,38,1
real_testM20S1,323,experiment,65,↓,no_key,no_letter,-1.0,False,38,1
real_testM20S1,324,experiment,76,↑,no_key,no_letter,-1.0,False,38,1
real_testM20S1,325,experiment,70,→,no_key,no_letter,-1.0,False,38,1
real_testM20S1,326,experiment,34,↑,no_key,no_letter,-1.0,False,38,1
real_testM20S1,327,experiment,7,←,no_key,no_letter,-1.0,False,38,1
real_testM20S1,328,experiment,87,↓,no_key,no_letter,-1.0,False,38,1
real_testM20S1,329,experiment,91,↓,no_key,no_letter,-1.0,False,38,1
real_testM20S1,330,experiment,63,→,no_key,no_letter,-1.0,False,38,1
real_testM20S1,331,experiment,97,↑,no_key,no_letter,-1.0,False,38,1
real_testM20S1,332,experiment,6,↑,no_key,no_letter,-1.0,False,38,1
real_testM20S1,333,experiment,18,←,no_key,no_letter,-1.0,False,38,1
real_testM20S1,334,experiment,21,↓,no_key,no_letter,-1.0,False,38,1
real_testM20S1,335,experiment,26,→,no_key,no_letter,-1.0,False,38,0
real_testM20S1,336,experiment,68,→,no_key,no_letter,-1.0,False,38,1
real_testM20S1,337,experiment,13,↑,no_key,no_letter,-1.0,False,38,1
real_testM20S1,338,experiment,56,↓,no_key,no_letter,-1.0,False,38,1
real_testM20S1,339,experiment,31,←,no_key,no_letter,-1.0,False,38,1
real_testM20S1,340,experiment,45,↓,no_key,no_letter,-1.0,False,38,1
real_testM20S1,341,experiment,69,←,no_key,no_letter,-1.0,False,38,1
real_testM20S1,342,experiment,23,↓,no_key,no_letter,-1.0,False,38,1
real_testM20S1,343,experiment,46,↓,no_key,no_letter,-1.0,False,38,1
real_testM20S1,344,experiment,32,↓,no_key,no_letter,-1.0,False,38,1
real_testM20S1,345,experiment,11,←,no_key,no_letter,-1.0,False,38,1
real_testM20S1,346,experiment,49,→,no_key,no_letter,-1.0,False,38,1
real_testM20S1,347,experiment,19,↓,no_key,no_letter,-1.0,False,38,1
real_testM20S1,348,experiment,2,→,no_key,no_letter,-1.0,False,38,1
real_testM20S1,349,experiment,81,↑,no_key,no_letter,-1.0,False,38,1
real_testM20S1,350,training,66,←,no_key,no_letter,-1.0,False,39,0
real_testM20S1,351,training,61,→,no_key,no_letter,-1.0,False,39,1
real_testM20S1,352,experiment,56,←,no_key,no_letter,-1.0,False,39,1
real_testM20S1,353,experiment,33,↓,no_key,no_letter,-1.0,False,39,1
real_testM20S1,354,experiment,49,→,no_key,no_letter,-1.0,False,39,1
real_testM20S1,355,experiment,30,↓,no_key,no_letter,-1.0,False,39,0
real_testM20S1,356,experiment,32,←,no_key,no_letter,-1.0,False,39,1
real_testM20S1,357,experiment,17,←,no_key,no_letter,-1.0,False,39,1
real_testM20S1,358,experiment,82,←,no_key,no_letter,-1.0,False,39,1
real_testM20S1,359,experiment,1,↓,no_key,no_letter,-1.0,False,39,1
real_testM20S1,360,experiment,90,↓,no_key,no_letter,-1.0,False,39,1
real_testM20S1,361,experiment,31,↑,no_key,no_letter,-1.0,False,39,1
real_testM20S1,362,experiment,10,→,no_key,no_letter,-1.0,False,39,1
real_testM20S1,363,experiment,24,→,no_key,no_letter,-1.0,False,39,1
real_testM20S1,364,experiment,79,→,no_key,no_letter,-1.0,False,39,1
real_testM20S1,365,experiment,70,←,no_key,no_letter,-1.0,False,39,1
real_testM20S1,366,experiment,25,↓,no_key,no_letter,-1.0,False,39,1
real_testM20S1,367,experiment,92,↓,no_key,no_letter,-1.0,False,39,1
real_testM20S1,368,experiment,81,→,no_key,no_letter,-1.0,False,39,1
real_testM20S1,369,experiment,36,→,no_key,no_letter,-1.0,False,39,1
real_testM20S1,370,experiment,53,→,no_key,no_letter,-1.0,False,39,1
real_testM20S1,371,experiment,99,←,no_key,no_letter,-1.0,False,39,0
real_testM20S1,372,experiment,63,←,no_key,no_letter,-1.0,False,39,1
real_testM20S1,373,experiment,97,↑,no_key,no_letter,-1.0,False,39,1
real_testM20S1,374,experiment,78,←,no_key,no_letter,-1.0,False,39,1
real_testM20S1,375,experiment,18,←,no_key,no_letter,-1.0,False,39,1
real_testM20S1,376,experiment,35,←,no_key,no_letter,-1.0,False,39,1
real_testM20S1,377,experiment,48,→,no_key,no_letter,-1.0,False,39,0
real_testM20S1,378,experiment,55,↑,no_key,no_letter,-1.0,False,39,1
real_testM20S1,379,experiment,41,←,no_key,no_letter,-1.0,False,39,0
real_testM20S1,380,experiment,101,↑,no_key,no_letter,-1.0,False,39,0
real_testM20S1,381,experiment,96,→,no_key,no_letter,-1.0,False,39,1
real_testM20S1,382,experiment,15,→,no_key,no_letter,-1.0,False,39,1
real_testM20S1,383,experiment,8,→,no_key,no_letter,-1.0,False,39,1
real_testM20S1,384,experiment,75,←,no_key,no_letter,-1.0,False,39,1
real_testM20S1,385,experiment,13,↑,no_key,no_letter,-1.0,False,39,1
real_testM20S1,386,experiment,47,←,no_key,no_letter,-1.0,False,39,1
real_testM20S1,387,experiment,60,↑,no_key,no_letter,-1.0,False,39,1
real_testM20S1,388,experiment,67,↓,no_key,no_letter,-1.0,False,39,1
real_testM20S1,389,experiment,77,→,no_key,no_letter,-1.0,False,39,1
real_testM20S1,390,experiment,14,↓,no_key,no_letter,-1.0,False,39,1
real_testM20S1,391,experiment,50,↓,no_key,no_letter,-1.0,False,39,1
real_testM20S1,392,experiment,58,↑,no_key,no_letter,-1.0,False,39,1
real_testM20S1,393,experiment,71,↓,no_key,no_letter,-1.0,False,39,1
real_testM20S1,394,experiment,54,↑,no_key,no_letter,-1.0,False,39,1
real_testM20S1,395,experiment,37,↑,no_key,no_letter,-1.0,False,39,1
real_testM20S1,396,experiment,93,↑,no_key,no_letter,-1.0,False,39,1
real_testM20S1,397,experiment,89,→,no_key,no_letter,-1.0,False,39,1
real_testM20S1,398,experiment,3,←,no_key,no_letter,-1.0,False,39,1
real_testM20S1,399,experiment,38,↓,no_key,no_letter,-1.0,False,39,1
real_testM20S1,400,experiment,6,↑,no_key,no_letter,-1.0,False,39,1
real_testM20S1,401,experiment,42,↑,no_key,no_letter,-1.0,False,39,0
real_testM20S1,402,experiment,80,↓,no_key,no_letter,-1.0,False,39,1
real_testM20S1,403,experiment,43,↓,no_key,no_letter,-1.0,False,39,1
real_testM20S1,404,experiment,73,→,no_key,no_letter,-1.0,False,39,1
real_testM20S1,405,experiment,69,↑,no_key,no_letter,-1.0,False,39,1
real_testM20S1,406,experiment,5,↑,no_key,no_letter,-1.0,False,39,0
real_testM20S1,407,experiment,98,←,no_key,no_letter,-1.0,False,39,1
real_testM20S1,408,experiment,64,↑,no_key,no_letter,-1.0,False,39,1
real_testM20S1,409,experiment,59,→,no_key,no_letter,-1.0,False,39,1
real_testM20S1,410,experiment,45,↑,no_key,no_letter,-1.0,False,39,1
real_testM20S1,411,experiment,68,→,no_key,no_letter,-1.0,False,39,0
real_testM20S1,412,experiment,26,↑,no_key,no_letter,-1.0,False,39,1
real_testM20S1,413,experiment,72,→,no_key,no_letter,-1.0,False,39,1
real_testM20S1,414,experiment,66,→,no_key,no_letter,-1.0,False,39,1
real_testM20S1,415,experiment,20,↑,no_key,no_letter,-1.0,False,39,1
real_testM20S1,416,experiment,76,↓,no_key,no_letter,-1.0,False,39,1
real_testM20S1,417,experiment,51,→,no_key,no_letter,-1.0,False,39,1
real_testM20S1,418,experiment,46,↓,no_key,no_letter,-1.0,False,39,1
real_testM20S1,419,experiment,57,→,no_key,no_letter,-1.0,False,39,1
real_testM20S1,420,experiment,22,←,no_key,no_letter,-1.0,False,39,1
real_testM20S1,421,experiment,88,↓,no_key,no_letter,-1.0,False,39,1
real_testM20S1,422,experiment,39,←,no_key,no_letter,-1.0,False,39,1
real_testM20S1,423,experiment,86,←,no_key,no_letter,-1.0,False,39,1
real_testM20S1,424,experiment,7,↑,no_key,no_letter,-1.0,False,39,1
real_testM20S1,425,experiment,65,↓,no_key,no_letter,-1.0,False,39,1
real_testM20S1,426,experiment,44,←,no_key,no_letter,-1.0,False,39,1
real_testM20S1,427,experiment,19,↓,no_key,no_letter,-1.0,False,39,1
real_testM20S1,428,experiment,40,↓,no_key,no_letter,-1.0,False,39,1
real_testM20S1,429,experiment,74,↓,no_key,no_letter,-1.0,False,39,1
real_testM20S1,430,experiment,100,↓,no_key,no_letter,-1.0,False,39,1
real_testM20S1,431,experiment,21,→,no_key,no_letter,-1.0,False,39,1
real_testM20S1,432,experiment,23,↓,no_key,no_letter,-1.0,False,39,1
real_testM20S1,433,experiment,61,↑,no_key,no_letter,-1.0,False,39,1
real_testM20S1,434,experiment,62,↓,no_key,no_letter,-1.0,False,39,1
real_testM20S1,435,experiment,52,←,no_key,no_letter,-1.0,False,39,1
real_testM20S1,436,experiment,12,→,no_key,no_letter,-1.0,False,39,1
real_testM20S1,437,experiment,84,→,no_key,no_letter,-1.0,False,39,1
real_testM20S1,438,experiment,11,↓,no_key,no_letter,-1.0,False,39,1
real_testM20S1,439,experiment,83,↑,no_key,no_letter,-1.0,False,39,1
real_testM20S1,440,experiment,29,↓,no_key,no_letter,-1.0,False,39,1
real_testM20S1,441,experiment,28,↑,no_key,no_letter,-1.0,False,39,1
real_testM20S1,442,experiment,34,←,no_key,no_letter,-1.0,False,39,1
real_testM20S1,443,experiment,16,↓,no_key,no_letter,-1.0,False,39,1
real_testM20S1,444,experiment,27,↓,no_key,no_letter,-1.0,False,39,1
real_testM20S1,445,experiment,9,↑,no_key,no_letter,-1.0,False,39,1
real_testM20S1,446,experiment,95,←,no_key,no_letter,-1.0,False,39,1
real_testM20S1,447,experiment,91,↓,no_key,no_letter,-1.0,False,39,1
real_testM20S1,448,experiment,4,↓,no_key,no_letter,-1.0,False,39,1
real_testM20S1,449,experiment,2,↑,no_key,no_letter,-1.0,False,39,1
real_testM20S1,450,experiment,85,←,no_key,no_letter,-1.0,False,39,1
real_testM20S1,451,experiment,94,↓,no_key,no_letter,-1.0,False,39,1
real_testM20S1,452,experiment,87,→,no_key,no_letter,-1.0,False,39,1
real_testM20S1,453,training,32,↓,no_key,no_letter,-1.0,False,40,0
real_testM20S1,454,training,10,←,no_key,no_letter,-1.0,False,40,1
real_testM20S1,455,experiment,38,→,no_key,no_letter,-1.0,False,40,1
real_testM20S1,456,experiment,73,↓,no_key,no_letter,-1.0,False,40,1
real_testM20S1,457,experiment,99,←,no_key,no_letter,-1.0,False,40,1
real_testM20S1,458,experiment,100,↓,no_key,no_letter,-1.0,False,40,0
real_testM20S1,459,experiment,79,→,no_key,no_letter,-1.0,False,40,0
real_testM20S1,460,experiment,25,↑,no_key,no_letter,-1.0,False,40,1
real_testM20S1,461,experiment,85,↓,no_key,no_letter,-1.0,False,40,1
real_testM20S1,462,experiment,30,↓,no_key,no_letter,-1.0,False,40,1
real_testM20S1,463,experiment,60,→,no_key,no_letter,-1.0,False,40,1
real_testM20S1,464,experiment,21,↑,no_key,no_letter,-1.0,False,40,1
real_testM20S1,465,experiment,80,←,no_key,no_letter,-1.0,False,40,1
real_testM20S1,466,experiment,75,→,no_key,no_letter,-1.0,False,40,1
real_testM20S1,467,experiment,45,↑,no_key,no_letter,-1.0,False,40,1
real_testM20S1,468,experiment,56,↓,no_key,no_letter,-1.0,False,40,1
real_testM20S1,469,experiment,88,↓,no_key,no_letter,-1.0,False,40,1
real_testM20S1,470,experiment,87,←,no_key,no_letter,-1.0,False,40,0
real_testM20S1,471,experiment,31,→,no_key,no_letter,-1.0,False,40,1
real_testM20S1,472,experiment,72,↓,no_key,no_letter,-1.0,False,40,1
real_testM20S1,473,experiment,96,↑,no_key,no_letter,-1.0,False,40,1
real_testM20S1,474,experiment,41,←,no_key,no_letter,-1.0,False,40,1
real_testM20S1,475,experiment,43,↓,no_key,no_letter,-1.0,False,40,1
real_testM20S1,476,experiment,4,↑,no_key,no_letter,-1.0,False,40,1
real_testM20S1,477,experiment,35,←,no_key,no_letter,-1.0,False,40,1
real_testM20S1,478,experiment,11,↓,no_key,no_letter,-1.0,False,40,1
real_testM20S1,479,experiment,90,→,no_key,no_letter,-1.0,False,40,1
real_testM20S1,480,experiment,15,↓,no_key,no_letter,-1.0,False,40,1
real_testM20S1,481,experiment,77,↑,no_key,no_letter,-1.0,False,40,1
real_testM20S1,482,experiment,76,←,no_key,no_letter,-1.0,False,40,1
real_testM20S1,483,experiment,47,→,no_key,no_letter,-1.0,False,40,1
real_testM20S1,484,experiment,84,→,no_key,no_letter,-1.0,False,40,1
real_testM20S1,485,experiment,12,↑,no_key,no_letter,-1.0,False,40,1
real_testM20S1,486,experiment,50,↑,no_key,no_letter,-1.0,False,40,1
real_testM20S1,487,experiment,19,→,no_key,no_letter,-1.0,False,40,0
real_testM20S1,488,experiment,81,↑,no_key,no_letter,-1.0,False,40,1
real_testM20S1,489,experiment,14,←,no_key,no_letter,-1.0,False,40,1
real_testM20S1,490,experiment,23,→,no_key,no_letter,-1.0,False,40,1
real_testM20S1,491,experiment,42,←,no_key,no_letter,-1.0,False,40,1
real_testM20S1,492,experiment,58,↓,no_key,no_letter,-1.0,False,40,1
real_testM20S1,493,experiment,2,↑,no_key,no_letter,-1.0,False,40,1
real_testM20S1,494,experiment,32,↑,no_key,no_letter,-1.0,False,40,1
real_testM20S1,495,experiment,39,→,no_key,no_letter,-1.0,False,40,1
real_testM20S1,496,experiment,1,↑,no_key,no_letter,-1.0,False,40,1
real_testM20S1,497,experiment,68,↑,no_key,no_letter,-1.0,False,40,1
real_testM20S1,498,experiment,48,←,no_key,no_letter,-1.0,False,40,0
real_testM20S1,499,experiment,70,←,no_key,no_letter,-1.0,False,40,1
real_testM20S1,500,experiment,57,↑,no_key,no_letter,-1.0,False,40,1
real_testM20S1,501,experiment,101,→,no_key,no_letter,-1.0,False,40,1
real_testM20S1,502,experiment,63,↑,no_key,no_letter,-1.0,False,40,1
real_testM20S1,503,experiment,55,→,no_key,no_letter,-1.0,False,40,1
real_testM20S1,504,experiment,92,↑,no_key,no_letter,-1.0,False,40,1
real_testM20S1,505,experiment,97,→,no_key,no_letter,-1.0,False,40,1
real_testM20S1,506,experiment,91,→,no_key,no_letter,-1.0,False,40,1
real_testM20S1,507,experiment,82,↑,no_key,no_letter,-1.0,False,40,1
real_testM20S1,508,experiment,6,↑,no_key,no_letter,-1.0,False,40,1
real_testM20S1,509,experiment,28,↑,no_key,no_letter,-1.0,False,40,1
real_testM20S1,510,experiment,53,→,no_key,no_letter,-1.0,False,40,1
real_testM20S1,511,experiment,3,←,no_key,no_letter,-1.0,False,40,1
real_testM20S1,512,experiment,44,→,no_key,no_letter,-1.0,False,40,1
real_testM20S1,513,experiment,74,↓,no_key,no_letter,-1.0,False,40,1
real_testM20S1,514,experiment,13,→,no_key,no_letter,-1.0,False,40,1
real_testM20S1,515,experiment,98,↑,no_key,no_letter,-1.0,False,40,1
real_testM20S1,516,experiment,71,←,no_key,no_letter,-1.0,False,40,1
real_testM20S1,517,experiment,78,←,no_key,no_letter,-1.0,False,40,0
real_testM20S1,518,experiment,54,→,no_key,no_letter,-1.0,False,40,1
real_testM20S1,519,experiment,27,↑,no_key,no_letter,-1.0,False,40,1
real_testM20S1,520,experiment,46,←,no_key,no_letter,-1.0,False,40,1
real_testM20S1,521,experiment,51,←,no_key,no_letter,-1.0,False,40,1
real_testM20S1,522,experiment,33,←,no_key,no_letter,-1.0,False,40,1
real_testM20S1,523,experiment,40,→,no_key,no_letter,-1.0,False,40,1
real_testM20S1,524,experiment,5,→,no_key,no_letter,-1.0,False,40,1
real_testM20S1,525,experiment,66,↑,no_key,no_letter,-1.0,False,40,1
real_testM20S1,526,experiment,61,↑,no_key,no_letter,-1.0,False,40,1
real_testM20S1,527,experiment,94,←,no_key,no_letter,-1.0,False,40,1
real_testM20S1,528,experiment,37,↑,no_key,no_letter,-1.0,False,40,1
real_testM20S1,529,experiment,64,↑,no_key,no_letter,-1.0,False,40,1
real_testM20S1,530,experiment,67,→,no_key,no_letter,-1.0,False,40,1
real_testM20S1,531,experiment,20,↓,no_key,no_letter,-1.0,False,40,1
real_testM20S1,532,experiment,52,↓,no_key,no_letter,-1.0,False,40,1
real_testM20S1,533,experiment,69,↑,no_key,no_letter,-1.0,False,40,1
real_testM20S1,534,experiment,59,→,no_key,no_letter,-1.0,False,40,1
real_testM20S1,535,experiment,86,←,no_key,no_letter,-1.0,False,40,1
real_testM20S1,536,experiment,10,←,no_key,no_letter,-1.0,False,40,1
real_testM20S1,537,experiment,22,←,no_key,no_letter,-1.0,False,40,1
real_testM20S1,538,experiment,49,↑,no_key,no_letter,-1.0,False,40,1
real_testM20S1,539,experiment,36,→,no_key,no_letter,-1.0,False,40,1
real_testM20S1,540,experiment,89,↓,no_key,no_letter,-1.0,False,40,1
real_testM20S1,541,experiment,93,↑,no_key,no_letter,-1.0,False,40,1
real_testM20S1,542,experiment,65,↑,no_key,no_letter,-1.0,False,40,1
real_testM20S1,543,experiment,26,←,no_key,no_letter,-1.0,False,40,1
real_testM20S1,544,experiment,7,↑,no_key,no_letter,-1.0,False,40,1
real_testM20S1,545,experiment,8,↑,no_key,no_letter,-1.0,False,40,1
real_testM20S1,546,experiment,95,←,no_key,no_letter,-1.0,False,40,1
real_testM20S1,547,experiment,62,→,no_key,no_letter,-1.0,False,40,1
real_testM20S1,548,experiment,17,↓,no_key,no_letter,-1.0,False,40,1
real_testM20S1,549,experiment,9,←,no_key,no_letter,-1.0,False,40,1
real_testM20S1,550,experiment,18,↑,no_key,no_letter,-1.0,False,40,1
real_testM20S1,551,experiment,29,↑,no_key,no_letter,-1.0,False,40,0
real_testM20S1,552,experiment,24,←,no_key,no_letter,-1.0,False,40,1
real_testM20S1,553,experiment,34,↑,no_key,no_letter,-1.0,False,40,1
real_testM20S1,554,experiment,83,←,no_key,no_letter,-1.0,False,40,1
real_testM20S1,555,experiment,16,↓,no_key,no_letter,-1.0,False,40,0
real_testM20S1,556,training,3,↓,no_key,no_letter,-1.0,False,41,0
real_testM20S1,557,training,31,↑,no_key,no_letter,-1.0,False,41,1
real_testM20S1,558,experiment,12,↑,no_key,no_letter,-1.0,False,41,1
real_testM20S1,559,experiment,75,→,no_key,no_letter,-1.0,False,41,1
real_testM20S1,560,experiment,55,↑,no_key,no_letter,-1.0,False,41,1
real_testM20S1,561,experiment,18,←,no_key,no_letter,-1.0,False,41,1
real_testM20S1,562,experiment,38,↓,no_key,no_letter,-1.0,False,41,1
real_testM20S1,563,experiment,76,←,no_key,no_letter,-1.0,False,41,1
real_testM20S1,564,experiment,78,←,no_key,no_letter,-1.0,False,41,1
real_testM20S1,565,experiment,25,→,no_key,no_letter,-1.0,False,41,1
real_testM20S1,566,experiment,101,↑,no_key,no_letter,-1.0,False,41,1
real_testM20S1,567,experiment,92,→,no_key,no_letter,-1.0,False,41,1
real_testM20S1,568,experiment,61,→,no_key,no_letter,-1.0,False,41,1
real_testM20S1,569,experiment,22,↑,no_key,no_letter,-1.0,False,41,1
real_testM20S1,570,experiment,95,↓,no_key,no_letter,-1.0,False,41,1
real_testM20S1,571,experiment,60,←,no_key,no_letter,-1.0,False,41,1
real_testM20S1,572,experiment,44,→,no_key,no_letter,-1.0,False,41,1
real_testM20S1,573,experiment,31,→,no_key,no_letter,-1.0,False,41,1
real_testM20S1,574,experiment,46,↓,no_key,no_letter,-1.0,False,41,1
real_testM20S1,575,experiment,3,→,no_key,no_letter,-1.0,False,41,1
real_testM20S1,576,experiment,6,↓,no_key,no_letter,-1.0,False,41,1
real_testM20S1,577,experiment,43,↑,no_key,no_letter,-1.0,False,41,1
real_testM20S1,578,experiment,97,←,no_key,no_letter,-1.0,False,41,1
real_testM20S1,579,experiment,100,←,no_key,no_letter,-1.0,False,41,1
real_testM20S1,580,experiment,83,←,no_key,no_letter,-1.0,False,41,1
real_testM20S1,581,experiment,35,←,no_key,no_letter,-1.0,False,41,1
real_testM20S1,582,experiment,52,↓,no_key,no_letter,-1.0,False,41,1
real_testM20S1,583,experiment,27,→,no_key,no_letter,-1.0,False,41,1
real_testM20S1,584,experiment,73,→,no_key,no_letter,-1.0,False,41,1
real_testM20S1,585,experiment,1,→,no_key,no_letter,-1.0,False,41,1
real_testM20S1,586,experiment,33,→,no_key,no_letter,-1.0,False,41,0
real_testM20S1,587,experiment,37,→,no_key,no_letter,-1.0,False,41,0
real_testM20S1,588,experiment,56,→,no_key,no_letter,-1.0,False,41,1
real_testM20S1,589,experiment,4,←,no_key,no_letter,-1.0,False,41,1
real_testM20S1,590,experiment,5,↓,no_key,no_letter,-1.0,False,41,1
real_testM20S1,591,experiment,30,↑,no_key,no_letter,-1.0,False,41,1
real_testM20S1,592,experiment,94,→,no_key,no_letter,-1.0,False,41,1
real_testM20S1,593,experiment,20,↓,no_key,no_letter,-1.0,False,41,1
real_testM20S1,594,experiment,2,←,no_key,no_letter,-1.0,False,41,1
real_testM20S1,595,experiment,54,↓,no_key,no_letter,-1.0,False,41,1
real_testM20S1,596,experiment,85,→,no_key,no_letter,-1.0,False,41,1
real_testM20S1,597,experiment,45,↓,no_key,no_letter,-1.0,False,41,1
real_testM20S1,598,experiment,14,↓,no_key,no_letter,-1.0,False,41,1
real_testM20S1,599,experiment,80,←,no_key,no_letter,-1.0,False,41,1
real_testM20S1,600,experiment,13,↓,no_key,no_letter,-1.0,False,41,1
real_testM20S1,601,experiment,34,→,no_key,no_letter,-1.0,False,41,1
real_testM20S1,602,experiment,71,→,no_key,no_letter,-1.0,False,41,1
real_testM20S1,603,experiment,26,→,no_key,no_letter,-1.0,False,41,1
real_testM20S1,604,experiment,23,↑,no_key,no_letter,-1.0,False,41,1
real_testM20S1,605,experiment,91,↑,no_key,no_letter,-1.0,False,41,1
real_testM20S1,606,experiment,72,↑,no_key,no_letter,-1.0,False,41,1
real_testM20S1,607,experiment,10,→,no_key,no_letter,-1.0,False,41,1
real_testM20S1,608,experiment,8,↓,no_key,no_letter,-1.0,False,41,1
real_testM20S1,609,experiment,16,↓,no_key,no_letter,-1.0,False,41,1
real_testM20S1,610,experiment,84,↑,no_key,no_letter,-1.0,False,41,1
real_testM20S1,611,experiment,88,→,no_key,no_letter,-1.0,False,41,1
real_testM20S1,612,experiment,42,→,no_key,no_letter,-1.0,False,41,1
real_testM20S1,613,experiment,68,↑,no_key,no_letter,-1.0,False,41,1
real_testM20S1,614,experiment,59,↑,no_key,no_letter,-1.0,False,41,1
real_testM20S1,615,experiment,41,→,no_key,no_letter,-1.0,False,41,1
real_testM20S1,616,experiment,62,→,no_key,no_letter,-1.0,False,41,1
real_testM20S1,617,experiment,64,↓,no_key,no_letter,-1.0,False,41,1
real_testM20S1,618,experiment,50,↑,no_key,no_letter,-1.0,False,41,1
real_testM20S1,619,experiment,70,→,no_key,no_letter,-1.0,False,41,1
real_testM20S1,620,experiment,69,←,no_key,no_letter,-1.0,False,41,1
real_testM20S1,621,experiment,87,←,no_key,no_letter,-1.0,False,41,1
real_testM20S1,622,experiment,67,↑,no_key,no_letter,-1.0,False,41,1
real_testM20S1,623,experiment,90,↑,no_key,no_letter,-1.0,False,41,1
real_testM20S1,624,experiment,49,↑,no_key,no_letter,-1.0,False,41,1
real_testM20S1,625,experiment,96,↑,no_key,no_letter,-1.0,False,41,1
real_testM20S1,626,experiment,74,↓,no_key,no_letter,-1.0,False,41,1
real_testM20S1,627,experiment,32,↓,no_key,no_letter,-1.0,False,41,1
real_testM20S1,628,experiment,39,↑,no_key,no_letter,-1.0,False,41,0
real_testM20S1,629,experiment,28,←,no_key,no_letter,-1.0,False,41,1
real_testM20S1,630,experiment,77,↑,no_key,no_letter,-1.0,False,41,1
real_testM20S1,631,experiment,65,↑,no_key,no_letter,-1.0,False,41,0
real_testM20S1,632,experiment,58,←,no_key,no_letter,-1.0,False,41,1
real_testM20S1,633,experiment,9,↓,no_key,no_letter,-1.0,False,41,1
real_testM20S1,634,experiment,93,↓,no_key,no_letter,-1.0,False,41,1
real_testM20S1,635,experiment,79,↑,no_key,no_letter,-1.0,False,41,1
real_testM20S1,636,experiment,57,↓,no_key,no_letter,-1.0,False,41,1
real_testM20S1,637,experiment,47,→,no_key,no_letter,-1.0,False,41,1
real_testM20S1,638,experiment,66,←,no_key,no_letter,-1.0,False,41,1
real_testM20S1,639,experiment,82,↑,no_key,no_letter,-1.0,False,41,1
real_testM20S1,640,experiment,21,←,no_key,no_letter,-1.0,False,41,1
real_testM20S1,641,experiment,36,↓,no_key,no_letter,-1.0,False,41,1
real_testM20S1,642,experiment,53,→,no_key,no_letter,-1.0,False,41,1
real_testM20S1,643,experiment,63,→,no_key,no_letter,-1.0,False,41,1
real_testM20S1,644,experiment,48,→,no_key,no_letter,-1.0,False,41,1
real_testM20S1,645,experiment,7,←,no_key,no_letter,-1.0,False,41,1
real_testM20S1,646,experiment,81,←,no_key,no_letter,-1.0,False,41,1
real_testM20S1,647,experiment,11,↓,no_key,no_letter,-1.0,False,41,1
real_testM20S1,648,experiment,99,↓,no_key,no_letter,-1.0,False,41,1
real_testM20S1,649,experiment,19,←,no_key,no_letter,-1.0,False,41,1
real_testM20S1,650,experiment,24,↑,no_key,no_letter,-1.0,False,41,1
real_testM20S1,651,experiment,40,↑,no_key,no_letter,-1.0,False,41,1
real_testM20S1,652,experiment,15,→,no_key,no_letter,-1.0,False,41,1
real_testM20S1,653,experiment,89,←,no_key,no_letter,-1.0,False,41,1
real_testM20S1,654,experiment,86,→,no_key,no_letter,-1.0,False,41,0
real_testM20S1,655,experiment,51,→,no_key,no_letter,-1.0,False,41,1
real_testM20S1,656,experiment,98,←,no_key,no_letter,-1.0,False,41,1
real_testM20S1,657,experiment,17,↓,no_key,no_letter,-1.0,False,41,1
real_testM20S1,658,experiment,29,←,no_key,no_letter,-1.0,False,41,1
real_testM20S1,659,training,25,←,no_key,no_letter,-1.0,False,42,0
real_testM20S1,660,training,91,←,no_key,no_letter,-1.0,False,42,1
real_testM20S1,661,experiment,91,↓,no_key,no_letter,-1.0,False,42,1
real_testM20S1,662,experiment,1,←,no_key,no_letter,-1.0,False,42,1
real_testM20S1,663,experiment,79,↑,no_key,no_letter,-1.0,False,42,0
real_testM20S1,664,experiment,84,→,no_key,no_letter,-1.0,False,42,1
real_testM20S1,665,experiment,70,←,no_key,no_letter,-1.0,False,42,1
real_testM20S1,666,experiment,76,↓,no_key,no_letter,-1.0,False,42,1
real_testM20S1,667,experiment,58,→,no_key,no_letter,-1.0,False,42,1
real_testM20S1,668,experiment,22,↑,no_key,no_letter,-1.0,False,42,1
real_testM20S1,669,experiment,30,←,no_key,no_letter,-1.0,False,42,1
real_testM20S1,670,experiment,42,→,no_key,no_letter,-1.0,False,42,1
real_testM20S1,671,experiment,12,↓,no_key,no_letter,-1.0,False,42,1
real_testM20S1,672,experiment,24,↑,no_key,no_letter,-1.0,False,42,0
real_testM20S1,673,experiment,88,↑,no_key,no_letter,-1.0,False,42,1
real_testM20S1,674,experiment,33,↑,no_key,no_letter,-1.0,False,42,1
real_testM20S1,675,experiment,44,←,no_key,no_letter,-1.0,False,42,1
real_testM20S1,676,experiment,3,↑,no_key,no_letter,-1.0,False,42,1
real_testM20S1,677,experiment,13,↑,no_key,no_letter,-1.0,False,42,1
real_testM20S1,678,experiment,69,→,no_key,no_letter,-1.0,False,42,1
real_testM20S1,679,experiment,6,→,no_key,no_letter,-1.0,False,42,1
real_testM20S1,680,experiment,73,↑,no_key,no_letter,-1.0,False,42,1
real_testM20S1,681,experiment,83,↓,no_key,no_letter,-1.0,False,42,1
real_testM20S1,682,experiment,72,←,no_key,no_letter,-1.0,False,42,0
real_testM20S1,683,experiment,51,↑,no_key,no_letter,-1.0,False,42,1
real_testM20S1,684,experiment,23,↓,no_key,no_letter,-1.0,False,42,1
real_testM20S1,685,experiment,68,↓,no_key,no_letter,-1.0,False,42,1
real_testM20S1,686,experiment,93,←,no_key,no_letter,-1.0,False,42,1
real_testM20S1,687,experiment,50,↑,no_key,no_letter,-1.0,False,42,1
real_testM20S1,688,experiment,14,←,no_key,no_letter,-1.0,False,42,1
real_testM20S1,689,experiment,15,↑,no_key,no_letter,-1.0,False,42,1
real_testM20S1,690,experiment,75,←,no_key,no_letter,-1.0,False,42,1
real_testM20S1,691,experiment,9,↑,no_key,no_letter,-1.0,False,42,1
real_testM20S1,692,experiment,66,→,no_key,no_letter,-1.0,False,42,1
real_testM20S1,693,experiment,5,→,no_key,no_letter,-1.0,False,42,1
real_testM20S1,694,experiment,41,↓,no_key,no_letter,-1.0,False,42,1
real_testM20S1,695,experiment,18,→,no_key,no_letter,-1.0,False,42,1
real_testM20S1,696,experiment,19,→,no_key,no_letter,-1.0,False,42,1
real_testM20S1,697,experiment,29,↑,no_key,no_letter,-1.0,False,42,1
real_testM20S1,698,experiment,48,↓,no_key,no_letter,-1.0,False,42,1
real_testM20S1,699,experiment,11,→,no_key,no_letter,-1.0,False,42,1
real_testM20S1,700,experiment,62,←,no_key,no_letter,-1.0,False,42,1
real_testM20S1,701,experiment,64,↑,no_key,no_letter,-1.0,False,42,1
real_testM20S1,702,experiment,52,←,no_key,no_letter,-1.0,False,42,1
real_testM20S1,703,experiment,16,←,no_key,no_letter,-1.0,False,42,1
real_testM20S1,704,experiment,53,↑,no_key,no_letter,-1.0,False,42,1
real_testM20S1,705,experiment,17,↑,no_key,no_letter,-1.0,False,42,0
real_testM20S1,706,experiment,43,↓,no_key,no_letter,-1.0,False,42,1
real_testM20S1,707,experiment,74,←,no_key,no_letter,-1.0,False,42,1
real_testM20S1,708,experiment,82,→,no_key,no_letter,-1.0,False,42,1
real_testM20S1,709,experiment,38,←,no_key,no_letter,-1.0,False,42,1
real_testM20S1,710,experiment,49,↑,no_key,no_letter,-1.0,False,42,1
real_testM20S1,711,experiment,99,→,no_key,no_letter,-1.0,False,42,1
real_testM20S1,712,experiment,77,↑,no_key,no_letter,-1.0,False,42,1
real_testM20S1,713,experiment,21,→,no_key,no_letter,-1.0,False,42,1
real_testM20S1,714,experiment,63,←,no_key,no_letter,-1.0,False,42,1
real_testM20S1,715,experiment,87,←,no_key,no_letter,-1.0,False,42,1
real_testM20S1,716,experiment,31,→,no_key,no_letter,-1.0,False,42,1
real_testM20S1,717,experiment,7,→,no_key,no_letter,-1.0,False,42,1
real_testM20S1,718,experiment,86,←,no_key,no_letter,-1.0,False,42,1
real_testM20S1,719,experiment,97,→,no_key,no_letter,-1.0,False,42,1
real_testM20S1,720,experiment,67,←,no_key,no_letter,-1.0,False,42,1
real_testM20S1,721,experiment,95,↓,no_key,no_letter,-1.0,False,42,1
real_testM20S1,722,experiment,94,←,no_key,no_letter,-1.0,False,42,1
real_testM20S1,723,experiment,92,→,no_key,no_letter,-1.0,False,42,1
real_testM20S1,724,experiment,98,←,no_key,no_letter,-1.0,False,42,1
real_testM20S1,725,experiment,61,↓,no_key,no_letter,-1.0,False,42,1
real_testM20S1,726,experiment,32,→,no_key,no_letter,-1.0,False,42,1
real_testM20S1,727,experiment,26,↑,no_key,no_letter,-1.0,False,42,1
real_testM20S1,728,experiment,65,←,no_key,no_letter,-1.0,False,42,1
real_testM20S1,729,experiment,57,→,no_key,no_letter,-1.0,False,42,1
real_testM20S1,730,experiment,60,↓,no_key,no_letter,-1.0,False,42,1
real_testM20S1,731,experiment,10,↑,no_key,no_letter,-1.0,False,42,1
real_testM20S1,732,experiment,2,↑,no_key,no_letter,-1.0,False,42,0
real_testM20S1,733,experiment,47,←,no_key,no_letter,-1.0,False,42,1
real_testM20S1,734,experiment,54,↑,no_key,no_letter,-1.0,False,42,1
real_testM20S1,735,experiment,37,→,no_key,no_letter,-1.0,False,42,1
real_testM20S1,736,experiment,55,↑,no_key,no_letter,-1.0,False,42,1
real_testM20S1,737,experiment,34,→,no_key,no_letter,-1.0,False,42,1
real_testM20S1,738,experiment,46,→,no_key,no_letter,-1.0,False,42,1
real_testM20S1,739,experiment,8,↓,no_key,no_letter,-1.0,False,42,1
real_testM20S1,740,experiment,90,↓,no_key,no_letter,-1.0,False,42,1
real_testM20S1,741,experiment,56,↑,no_key,no_letter,-1.0,False,42,1
real_testM20S1,742,experiment,78,→,no_key,no_letter,-1.0,False,42,1
real_testM20S1,743,experiment,20,↑,no_key,no_letter,-1.0,False,42,1
real_testM20S1,744,experiment,45,←,no_key,no_letter,-1.0,False,42,1
real_testM20S1,745,experiment,28,↓,no_key,no_letter,-1.0,False,42,1
real_testM20S1,746,experiment,59,←,no_key,no_letter,-1.0,False,42,1
real_testM20S1,747,experiment,40,↑,no_key,no_letter,-1.0,False,42,1
real_testM20S1,748,experiment,89,→,no_key,no_letter,-1.0,False,42,1
real_testM20S1,749,experiment,101,↓,no_key,no_letter,-1.0,False,42,1
real_testM20S1,750,experiment,100,↓,no_key,no_letter,-1.0,False,42,1
real_testM20S1,751,experiment,80,↓,no_key,no_letter,-1.0,False,42,1
real_testM20S1,752,experiment,27,↑,no_key,no_letter,-1.0,False,42,1
real_testM20S1,753,experiment,81,←,no_key,no_letter,-1.0,False,42,1
real_testM20S1,754,experiment,71,↓,no_key,no_letter,-1.0,False,42,1
real_testM20S1,755,experiment,35,↑,no_key,no_letter,-1.0,False,42,1
real_testM20S1,756,experiment,25,←,no_key,no_letter,-1.0,False,42,1
real_testM20S1,757,experiment,4,→,no_key,no_letter,-1.0,False,42,1
real_testM20S1,758,experiment,85,↓,no_key,no_letter,-1.0,False,42,1
real_testM20S1,759,experiment,96,←,no_key,no_letter,-1.0,False,42,1
real_testM20S1,760,experiment,39,↑,no_key,no_letter,-1.0,False,42,1
real_testM20S1,761,experiment,36,↓,no_key,no_letter,-1.0,False,42,1
real_testM20S1,762,training,74,→,no_key,no_letter,-1.0,False,43,0
real_testM20S1,763,training,73,↑,no_key,no_letter,-1.0,False,43,1
real_testM20S1,764,experiment,21,→,no_key,no_letter,-1.0,False,43,1
real_testM20S1,765,experiment,9,↑,no_key,no_letter,-1.0,False,43,1
real_testM20S1,766,experiment,12,↓,no_key,no_letter,-1.0,False,43,1
real_testM20S1,767,experiment,7,↑,no_key,no_letter,-1.0,False,43,1
real_testM20S1,768,experiment,83,→,no_key,no_letter,-1.0,False,43,1
real_testM20S1,769,experiment,18,←,no_key,no_letter,-1.0,False,43,1
real_testM20S1,770,experiment,69,↑,no_key,no_letter,-1.0,False,43,1
real_testM20S1,771,experiment,44,↑,no_key,no_letter,-1.0,False,43,1
real_testM20S1,772,experiment,42,↑,no_key,no_letter,-1.0,False,43,1
real_testM20S1,773,experiment,25,→,no_key,no_letter,-1.0,False,43,1
real_testM20S1,774,experiment,99,↓,no_key,no_letter,-1.0,False,43,1
real_testM20S1,775,experiment,1,←,no_key,no_letter,-1.0,False,43,1
real_testM20S1,776,experiment,72,↑,no_key,no_letter,-1.0,False,43,1
real_testM20S1,777,experiment,27,→,no_key,no_letter,-1.0,False,43,0
real_testM20S1,778,experiment,88,←,no_key,no_letter,-1.0,False,43,0
real_testM20S1,779,experiment,64,→,no_key,no_letter,-1.0,False,43,1
real_testM20S1,780,experiment,10,↑,no_key,no_letter,-1.0,False,43,1
real_testM20S1,781,experiment,60,↑,no_key,no_letter,-1.0,False,43,1
real_testM20S1,782,experiment,77,→,no_key,no_letter,-1.0,False,43,1
real_testM20S1,783,experiment,74,↓,no_key,no_letter,-1.0,False,43,1
real_testM20S1,784,experiment,61,↓,no_key,no_letter,-1.0,False,43,0
real_testM20S1,785,experiment,41,→,no_key,no_letter,-1.0,False,43,1
real_testM20S1,786,experiment,6,↑,no_key,no_letter,-1.0,False,43,1
real_testM20S1,787,experiment,28,←,no_key,no_letter,-1.0,False,43,1
real_testM20S1,788,experiment,32,↓,no_key,no_letter,-1.0,False,43,1
real_testM20S1,789,experiment,40,↑,no_key,no_letter,-1.0,False,43,1
real_testM20S1,790,experiment,70,↓,no_key,no_letter,-1.0,False,43,1
real_testM20S1,791,experiment,8,↑,no_key,no_letter,-1.0,False,43,1
real_testM20S1,792,experiment,35,↑,no_key,no_letter,-1.0,False,43,1
real_testM20S1,793,experiment,87,↓,no_key,no_letter,-1.0,False,43,1
real_testM20S1,794,experiment,81,↓,no_key,no_letter,-1.0,False,43,1
real_testM20S1,795,experiment,43,↑,no_key,no_letter,-1.0,False,43,1
real_testM20S1,796,experiment,52,←,no_key,no_letter,-1.0,False,43,1
real_testM20S1,797,experiment,13,↑,no_key,no_letter,-1.0,False,43,1
real_testM20S1,798,experiment,68,←,no_key,no_letter,-1.0,False,43,1
real_testM20S1,799,experiment,36,←,no_key,no_letter,-1.0,False,43,1
real_testM20S1,800,experiment,3,↑,no_key,no_letter,-1.0,False,43,1
real_testM20S1,801,experiment,45,←,no_key,no_letter,-1.0,False,43,1
real_testM20S1,802,experiment,31,←,no_key,no_letter,-1.0,False,43,1
real_testM20S1,803,experiment,63,←,no_key,no_letter,-1.0,False,43,1
real_testM20S1,804,experiment,98,←,no_key,no_letter,-1.0,False,43,1
real_testM20S1,805,experiment,2,↓,no_key,no_letter,-1.0,False,43,1
real_testM20S1,806,experiment,78,↓,no_key,no_letter,-1.0,False,43,1
real_testM20S1,807,experiment,79,←,no_key,no_letter,-1.0,False,43,1
real_testM20S1,808,experiment,26,→,no_key,no_letter,-1.0,False,43,0
real_testM20S1,809,experiment,16,↑,no_key,no_letter,-1.0,False,43,1
real_testM20S1,810,experiment,20,↑,no_key,no_letter,-1.0,False,43,0
real_testM20S1,811,experiment,76,←,no_key,no_letter,-1.0,False,43,1
real_testM20S1,812,experiment,91,↓,no_key,no_letter,-1.0,False,43,1
real_testM20S1,813,experiment,49,↑,no_key,no_letter,-1.0,False,43,1
real_testM20S1,814,experiment,82,↑,no_key,no_letter,-1.0,False,43,1
real_testM20S1,815,experiment,53,↑,no_key,no_letter,-1.0,False,43,1
real_testM20S1,816,experiment,51,→,no_key,no_letter,-1.0,False,43,1
real_testM20S1,817,experiment,65,→,no_key,no_letter,-1.0,False,43,1
real_testM20S1,818,experiment,96,↓,no_key,no_letter,-1.0,False,43,1
real_testM20S1,819,experiment,84,←,no_key,no_letter,-1.0,False,43,1
real_testM20S1,820,experiment,56,→,no_key,no_letter,-1.0,False,43,1
real_testM20S1,821,experiment,97,↑,no_key,no_letter,-1.0,False,43,1
real_testM20S1,822,experiment,14,↑,no_key,no_letter,-1.0,False,43,1
real_testM20S1,823,experiment,67,↑,no_key,no_letter,-1.0,False,43,1
real_testM20S1,824,experiment,92,→,no_key,no_letter,-1.0,False,43,1
real_testM20S1,825,experiment,66,→,no_key,no_letter,-1.0,False,43,1
real_testM20S1,826,experiment,17,↑,no_key,no_letter,-1.0,False,43,1
real_testM20S1,827,experiment,22,↓,no_key,no_letter,-1.0,False,43,1
real_testM20S1,828,experiment,100,↑,no_key,no_letter,-1.0,False,43,1
real_testM20S1,829,experiment,30,←,no_key,no_letter,-1.0,False,43,1
real_testM20S1,830,experiment,93,←,no_key,no_letter,-1.0,False,43,1
real_testM20S1,831,experiment,5,←,no_key,no_letter,-1.0,False,43,1
real_testM20S1,832,experiment,62,←,no_key,no_letter,-1.0,False,43,1
real_testM20S1,833,experiment,73,←,no_key,no_letter,-1.0,False,43,1
real_testM20S1,834,experiment,15,→,no_key,no_letter,-1.0,False,43,1
real_testM20S1,835,experiment,90,↑,no_key,no_letter,-1.0,False,43,1
real_testM20S1,836,experiment,94,↓,no_key,no_letter,-1.0,False,43,1
real_testM20S1,837,experiment,95,→,no_key,no_letter,-1.0,False,43,1
real_testM20S1,838,experiment,54,↓,no_key,no_letter,-1.0,False,43,1
real_testM20S1,839,experiment,85,→,no_key,no_letter,-1.0,False,43,1
real_testM20S1,840,experiment,4,→,no_key,no_letter,-1.0,False,43,1
real_testM20S1,841,experiment,46,↑,no_key,no_letter,-1.0,False,43,1
real_testM20S1,842,experiment,50,→,no_key,no_letter,-1.0,False,43,1
real_testM20S1,843,experiment,29,↓,no_key,no_letter,-1.0,False,43,1
real_testM20S1,844,experiment,86,↑,no_key,no_letter,-1.0,False,43,1
real_testM20S1,845,experiment,89,→,no_key,no_letter,-1.0,False,43,1
real_testM20S1,846,experiment,37,↓,no_key,no_letter,-1.0,False,43,0
real_testM20S1,847,experiment,75,↑,no_key,no_letter,-1.0,False,43,1
real_testM20S1,848,experiment,101,↓,no_key,no_letter,-1.0,False,43,1
real_testM20S1,849,experiment,24,→,no_key,no_letter,-1.0,False,43,1
real_testM20S1,850,experiment,55,←,no_key,no_letter,-1.0,False,43,1
real_testM20S1,851,experiment,48,↑,no_key,no_letter,-1.0,False,43,1
real_testM20S1,852,experiment,38,←,no_key,no_letter,-1.0,False,43,1
real_testM20S1,853,experiment,80,→,no_key,no_letter,-1.0,False,43,1
real_testM20S1,854,experiment,11,↑,no_key,no_letter,-1.0,False,43,1
real_testM20S1,855,experiment,19,↑,no_key,no_letter,-1.0,False,43,1
real_testM20S1,856,experiment,59,→,no_key,no_letter,-1.0,False,43,1
real_testM20S1,857,experiment,58,↑,no_key,no_letter,-1.0,False,43,1
real_testM20S1,858,experiment,47,←,no_key,no_letter,-1.0,False,43,1
real_testM20S1,859,experiment,57,↑,no_key,no_letter,-1.0,False,43,1
real_testM20S1,860,experiment,39,↑,no_key,no_letter,-1.0,False,43,1
real_testM20S1,861,experiment,34,←,no_key,no_letter,-1.0,False,43,1
real_testM20S1,862,experiment,71,→,no_key,no_letter,-1.0,False,43,0
real_testM20S1,863,experiment,23,↑,no_key,no_letter,-1.0,False,43,1
real_testM20S1,864,experiment,33,←,no_key,no_letter,-1.0,False,43,1
real_testM20S1,865,training,22,←,no_key,no_letter,-1.0,False,44,0
real_testM20S1,866,training,97,↑,no_key,no_letter,-1.0,False,44,1
real_testM20S1,867,experiment,72,→,no_key,no_letter,-1.0,False,44,1
real_testM20S1,868,experiment,13,↓,no_key,no_letter,-1.0,False,44,1
real_testM20S1,869,experiment,98,↓,no_key,no_letter,-1.0,False,44,1
real_testM20S1,870,experiment,94,→,no_key,no_letter,-1.0,False,44,1
real_testM20S1,871,experiment,27,←,no_key,no_letter,-1.0,False,44,1
real_testM20S1,872,experiment,57,↑,no_key,no_letter,-1.0,False,44,1
real_testM20S1,873,experiment,41,↑,no_key,no_letter,-1.0,False,44,1
real_testM20S1,874,experiment,28,←,no_key,no_letter,-1.0,False,44,0
real_testM20S1,875,experiment,19,↓,no_key,no_letter,-1.0,False,44,1
real_testM20S1,876,experiment,40,→,no_key,no_letter,-1.0,False,44,1
real_testM20S1,877,experiment,39,←,no_key,no_letter,-1.0,False,44,1
real_testM20S1,878,experiment,9,→,no_key,no_letter,-1.0,False,44,1
real_testM20S1,879,experiment,61,↑,no_key,no_letter,-1.0,False,44,1
real_testM20S1,880,experiment,5,↑,no_key,no_letter,-1.0,False,44,1
real_testM20S1,881,experiment,33,↓,no_key,no_letter,-1.0,False,44,1
real_testM20S1,882,experiment,100,→,no_key,no_letter,-1.0,False,44,1
real_testM20S1,883,experiment,21,↑,no_key,no_letter,-1.0,False,44,1
real_testM20S1,884,experiment,79,→,no_key,no_letter,-1.0,False,44,1
real_testM20S1,885,experiment,70,↓,no_key,no_letter,-1.0,False,44,0
real_testM20S1,886,experiment,31,←,no_key,no_letter,-1.0,False,44,1
real_testM20S1,887,experiment,86,↓,no_key,no_letter,-1.0,False,44,1
real_testM20S1,888,experiment,14,↓,no_key,no_letter,-1.0,False,44,1
real_testM20S1,889,experiment,85,←,no_key,no_letter,-1.0,False,44,1
real_testM20S1,890,experiment,87,←,no_key,no_letter,-1.0,False,44,1
real_testM20S1,891,experiment,58,↓,no_key,no_letter,-1.0,False,44,1
real_testM20S1,892,experiment,97,←,no_key,no_letter,-1.0,False,44,1
real_testM20S1,893,experiment,43,↓,no_key,no_letter,-1.0,False,44,1
real_testM20S1,894,experiment,64,→,no_key,no_letter,-1.0,False,44,1
real_testM20S1,895,experiment,60,←,no_key,no_letter,-1.0,False,44,1
real_testM20S1,896,experiment,53,←,no_key,no_letter,-1.0,False,44,1
real_testM20S1,897,experiment,25,↑,no_key,no_letter,-1.0,False,44,0
real_testM20S1,898,experiment,67,→,no_key,no_letter,-1.0,False,44,1
real_testM20S1,899,experiment,73,↓,no_key,no_letter,-1.0,False,44,1
real_testM20S1,900,experiment,68,↑,no_key,no_letter,-1.0,False,44,1
real_testM20S1,901,experiment,88,↑,no_key,no_letter,-1.0,False,44,1
real_testM20S1,902,experiment,82,↑,no_key,no_letter,-1.0,False,44,1
real_testM20S1,903,experiment,42,←,no_key,no_letter,-1.0,False,44,1
real_testM20S1,904,experiment,83,↓,no_key,no_letter,-1.0,False,44,1
real_testM20S1,905,experiment,76,←,no_key,no_letter,-1.0,False,44,1
real_testM20S1,906,experiment,46,→,no_key,no_letter,-1.0,False,44,1
real_testM20S1,907,experiment,37,↑,no_key,no_letter,-1.0,False,44,1
real_testM20S1,908,experiment,44,↑,no_key,no_letter,-1.0,False,44,1
real_testM20S1,909,experiment,75,→,no_key,no_letter,-1.0,False,44,0
real_testM20S1,910,experiment,12,←,no_key,no_letter,-1.0,False,44,1
real_testM20S1,911,experiment,24,↓,no_key,no_letter,-1.0,False,44,1
real_testM20S1,912,experiment,32,↑,no_key,no_letter,-1.0,False,44,1
real_testM20S1,913,experiment,91,→,no_key,no_letter,-1.0,False,44,1
real_testM20S1,914,experiment,7,↑,no_key,no_letter,-1.0,False,44,1
real_testM20S1,915,experiment,95,↑,no_key,no_letter,-1.0,False,44,1
real_testM20S1,916,experiment,69,↑,no_key,no_letter,-1.0,False,44,1
real_testM20S1,917,experiment,74,↑,no_key,no_letter,-1.0,False,44,0
real_testM20S1,918,experiment,55,→,no_key,no_letter,-1.0,False,44,1
real_testM20S1,919,experiment,15,→,no_key,no_letter,-1.0,False,44,1
real_testM20S1,920,experiment,47,←,no_key,no_letter,-1.0,False,44,0
real_testM20S1,921,experiment,71,←,no_key,no_letter,-1.0,False,44,1
real_testM20S1,922,experiment,35,→,no_key,no_letter,-1.0,False,44,1
real_testM20S1,923,experiment,20,→,no_key,no_letter,-1.0,False,44,1
real_testM20S1,924,experiment,4,↓,no_key,no_letter,-1.0,False,44,1
real_testM20S1,925,experiment,93,←,no_key,no_letter,-1.0,False,44,1
real_testM20S1,926,experiment,81,→,no_key,no_letter,-1.0,False,44,1
real_testM20S1,927,experiment,101,→,no_key,no_letter,-1.0,False,44,1
real_testM20S1,928,experiment,23,↓,no_key,no_letter,-1.0,False,44,1
real_testM20S1,929,experiment,52,↑,no_key,no_letter,-1.0,False,44,1
real_testM20S1,930,experiment,16,←,no_key,no_letter,-1.0,False,44,1
real_testM20S1,931,experiment,80,↑,no_key,no_letter,-1.0,False,44,1
real_testM20S1,932,experiment,17,↑,no_key,no_letter,-1.0,False,44,1
real_testM20S1,933,experiment,8,↑,no_key,no_letter,-1.0,False,44,1
real_testM20S1,934,experiment,78,→,no_key,no_letter,-1.0,False,44,1
real_testM20S1,935,experiment,30,↑,no_key,no_letter,-1.0,False,44,1
real_testM20S1,936,experiment,56,→,no_key,no_letter,-1.0,False,44,1
real_testM20S1,937,experiment,1,↑,no_key,no_letter,-1.0,False,44,0
real_testM20S1,938,experiment,62,→,no_key,no_letter,-1.0,False,44,1
real_testM20S1,939,experiment,11,↓,no_key,no_letter,-1.0,False,44,1
real_testM20S1,940,experiment,89,→,no_key,no_letter,-1.0,False,44,1
real_testM20S1,941,experiment,66,↓,no_key,no_letter,-1.0,False,44,1
real_testM20S1,942,experiment,29,→,no_key,no_letter,-1.0,False,44,1
real_testM20S1,943,experiment,99,↑,no_key,no_letter,-1.0,False,44,1
real_testM20S1,944,experiment,51,←,no_key,no_letter,-1.0,False,44,1
real_testM20S1,945,experiment,96,←,no_key,no_letter,-1.0,False,44,1
real_testM20S1,946,experiment,63,←,no_key,no_letter,-1.0,False,44,1
real_testM20S1,947,experiment,45,↑,no_key,no_letter,-1.0,False,44,1
real_testM20S1,948,experiment,18,→,no_key,no_letter,-1.0,False,44,1
real_testM20S1,949,experiment,59,→,no_key,no_letter,-1.0,False,44,1
real_testM20S1,950,experiment,3,↑,no_key,no_letter,-1.0,False,44,1
real_testM20S1,951,experiment,26,←,no_key,no_letter,-1.0,False,44,1
real_testM20S1,952,experiment,38,↑,no_key,no_letter,-1.0,False,44,1
real_testM20S1,953,experiment,2,↑,no_key,no_letter,-1.0,False,44,1
real_testM20S1,954,experiment,10,↑,no_key,no_letter,-1.0,False,44,1
real_testM20S1,955,experiment,54,↑,no_key,no_letter,-1.0,False,44,1
real_testM20S1,956,experiment,49,↑,no_key,no_letter,-1.0,False,44,1
real_testM20S1,957,experiment,92,←,no_key,no_letter,-1.0,False,44,1
real_testM20S1,958,experiment,48,→,no_key,no_letter,-1.0,False,44,1
real_testM20S1,959,experiment,6,↑,no_key,no_letter,-1.0,False,44,1
real_testM20S1,960,experiment,65,↓,no_key,no_letter,-1.0,False,44,1
real_testM20S1,961,experiment,34,↑,no_key,no_letter,-1.0,False,44,1
real_testM20S1,962,experiment,77,↑,no_key,no_letter,-1.0,False,44,1
real_testM20S1,963,experiment,90,←,no_key,no_letter,-1.0,False,44,1
real_testM20S1,964,experiment,84,←,no_key,no_letter,-1.0,False,44,1
real_testM20S1,965,experiment,22,←,no_key,no_letter,-1.0,False,44,1
real_testM20S1,966,experiment,36,↑,no_key,no_letter,-1.0,False,44,0
real_testM20S1,967,experiment,50,↑,no_key,no_letter,-1.0,False,44,1
real_testM20S1,968,training,17,↑,no_key,no_letter,-1.0,False,44,0
real_testM20S1,969,training,24,↑,no_key,no_letter,-1.0,False,44,0
real_testM20S1,970,experiment,70,↓,no_key,no_letter,-1.0,False,44,1
real_testM20S1,971,experiment,25,←,no_key,no_letter,-1.0,False,44,1
real_testM20S1,972,experiment,80,←,no_key,no_letter,-1.0,False,44,1
real_testM20S1,973,experiment,88,←,no_key,no_letter,-1.0,False,44,1
real_testM20S1,974,experiment,84,↑,no_key,no_letter,-1.0,False,44,1
real_testM20S1,975,experiment,47,←,no_key,no_letter,-1.0,False,44,1
real_testM20S1,976,experiment,98,↑,no_key,no_letter,-1.0,False,44,1
real_testM20S1,977,experiment,101,↓,no_key,no_letter,-1.0,False,44,1
real_testM20S1,978,experiment,4,→,no_key,no_letter,-1.0,False,44,1
real_testM20S1,979,experiment,3,←,no_key,no_letter,-1.0,False,44,1
real_testM20S1,980,experiment,93,↑,no_key,no_letter,-1.0,False,44,1
real_testM20S1,981,experiment,65,←,no_key,no_letter,-1.0,False,44,1
real_testM20S1,982,experiment,63,←,no_key,no_letter,-1.0,False,44,1
real_testM20S1,983,experiment,76,↑,no_key,no_letter,-1.0,False,44,1
real_testM20S1,984,experiment,79,→,no_key,no_letter,-1.0,False,44,1
real_testM20S1,985,experiment,6,↓,no_key,no_letter,-1.0,False,44,1
real_testM20S1,986,experiment,86,↓,no_key,no_letter,-1.0,False,44,1
real_testM20S1,987,experiment,78,↓,no_key,no_letter,-1.0,False,44,1
real_testM20S1,988,experiment,94,↓,no_key,no_letter,-1.0,False,44,1
real_testM20S1,989,experiment,13,↑,no_key,no_letter,-1.0,False,44,1
real_testM20S1,990,experiment,36,←,no_key,no_letter,-1.0,False,44,1
real_testM20S1,991,experiment,32,↑,no_key,no_letter,-1.0,False,44,1
real_testM20S1,992,experiment,34,↓,no_key,no_letter,-1.0,False,44,1
real_testM20S1,993,experiment,35,←,no_key,no_letter,-1.0,False,44,1
real_testM20S1,994,experiment,17,↑,no_key,no_letter,-1.0,False,44,1
real_testM20S1,995,experiment,60,↓,no_key,no_letter,-1.0,False,44,0
real_testM20S1,996,experiment,16,→,no_key,no_letter,-1.0,False,44,1
real_testM20S1,997,experiment,29,←,no_key,no_letter,-1.0,False,44,1
real_testM20S1,998,experiment,2,↑,no_key,no_letter,-1.0,False,44,1
real_testM20S1,999,experiment,49,↑,no_key,no_letter,-1.0,False,44,1
real_testM20S1,1000,experiment,92,↑,no_key,no_letter,-1.0,False,44,1
real_testM20S1,1001,experiment,61,↓,no_key,no_letter,-1.0,False,44,1
real_testM20S1,1002,experiment,20,↓,no_key,no_letter,-1.0,False,44,1
real_testM20S1,1003,experiment,15,↑,no_key,no_letter,-1.0,False,44,1
real_testM20S1,1004,experiment,40,→,no_key,no_letter,-1.0,False,44,1
real_testM20S1,1005,experiment,66,→,no_key,no_letter,-1.0,False,44,1
real_testM20S1,1006,experiment,82,←,no_key,no_letter,-1.0,False,44,1
real_testM20S1,1007,experiment,62,←,no_key,no_letter,-1.0,False,44,1
real_testM20S1,1008,experiment,56,↑,no_key,no_letter,-1.0,False,44,1
real_testM20S1,1009,experiment,12,↑,no_key,no_letter,-1.0,False,44,1
real_testM20S1,1010,experiment,11,↓,no_key,no_letter,-1.0,False,44,1
real_testM20S1,1011,experiment,50,←,no_key,no_letter,-1.0,False,44,1
real_testM20S1,1012,experiment,14,←,no_key,no_letter,-1.0,False,44,1
real_testM20S1,1013,experiment,73,←,no_key,no_letter,-1.0,False,44,0
real_testM20S1,1014,experiment,19,↓,no_key,no_letter,-1.0,False,44,0
real_testM20S1,1015,experiment,81,→,no_key,no_letter,-1.0,False,44,1
real_testM20S1,1016,experiment,5,→,no_key,no_letter,-1.0,False,44,1
real_testM20S1,1017,experiment,51,→,no_key,no_letter,-1.0,False,44,1
real_testM20S1,1018,experiment,57,→,no_key,no_letter,-1.0,False,44,1
real_testM20S1,1019,experiment,28,→,no_key,no_letter,-1.0,False,44,1
real_testM20S1,1020,experiment,83,←,no_key,no_letter,-1.0,False,44,1
real_testM20S1,1021,experiment,77,↓,no_key,no_letter,-1.0,False,44,1
real_testM20S1,1022,experiment,67,↓,no_key,no_letter,-1.0,False,44,1
real_testM20S1,1023,experiment,46,→,no_key,no_letter,-1.0,False,44,1
real_testM20S1,1024,experiment,69,→,no_key,no_letter,-1.0,False,44,1
real_testM20S1,1025,experiment,64,↓,no_key,no_letter,-1.0,False,44,1
real_testM20S1,1026,experiment,68,→,no_key,no_letter,-1.0,False,44,1
real_testM20S1,1027,experiment,72,↑,no_key,no_letter,-1.0,False,44,1
real_testM20S1,1028,experiment,7,←,no_key,no_letter,-1.0,False,44,1
real_testM20S1,1029,experiment,33,→,no_key,no_letter,-1.0,False,44,1
real_testM20S1,1030,experiment,10,→,no_key,no_letter,-1.0,False,44,0
real_testM20S1,1031,experiment,100,↑,no_key,no_letter,-1.0,False,44,1
real_testM20S1,1032,experiment,24,→,no_key,no_letter,-1.0,False,44,1
real_testM20S1,1033,experiment,8,←,no_key,no_letter,-1.0,False,44,1
real_testM20S1,1034,experiment,22,←,no_key,no_letter,-1.0,False,44,1
real_testM20S1,1035,experiment,89,→,no_key,no_letter,-1.0,False,44,1
real_testM20S1,1036,experiment,91,↑,no_key,no_letter,-1.0,False,44,1
real_testM20S1,1037,experiment,30,→,no_key,no_letter,-1.0,False,44,1
real_testM20S1,1038,experiment,48,→,no_key,no_letter,-1.0,False,44,0
real_testM20S1,1039,experiment,38,←,no_key,no_letter,-1.0,False,44,1
real_testM20S1,1040,experiment,54,↑,no_key,no_letter,-1.0,False,44,1
real_testM20S1,1041,experiment,41,↑,no_key,no_letter,-1.0,False,44,1
real_testM20S1,1042,experiment,26,←,no_key,no_letter,-1.0,False,44,0
real_testM20S1,1043,experiment,58,→,no_key,no_letter,-1.0,False,44,1
real_testM20S1,1044,experiment,59,↑,no_key,no_letter,-1.0,False,44,0
real_testM20S1,1045,experiment,75,→,no_key,no_letter,-1.0,False,44,1
real_testM20S1,1046,experiment,39,↓,no_key,no_letter,-1.0,False,44,1
real_testM20S1,1047,experiment,53,→,no_key,no_letter,-1.0,False,44,1
real_testM20S1,1048,experiment,45,↑,no_key,no_letter,-1.0,False,44,1
real_testM20S1,1049,experiment,1,←,no_key,no_letter,-1.0,False,44,1
real_testM20S1,1050,experiment,27,→,no_key,no_letter,-1.0,False,44,1
real_testM20S1,1051,experiment,85,↓,no_key,no_letter,-1.0,False,44,1
real_testM20S1,1052,experiment,90,←,no_key,no_letter,-1.0,False,44,1
real_testM20S1,1053,experiment,97,↑,no_key,no_letter,-1.0,False,44,1
real_testM20S1,1054,experiment,74,↓,no_key,no_letter,-1.0,False,44,1
real_testM20S1,1055,experiment,55,↓,no_key,no_letter,-1.0,False,44,1
real_testM20S1,1056,experiment,23,←,no_key,no_letter,-1.0,False,44,1
real_testM20S1,1057,experiment,96,→,no_key,no_letter,-1.0,False,44,1
real_testM20S1,1058,experiment,42,←,no_key,no_letter,-1.0,False,44,1
real_testM20S1,1059,experiment,21,↑,no_key,no_letter,-1.0,False,44,1
real_testM20S1,1060,experiment,9,→,no_key,no_letter,-1.0,False,44,1
real_testM20S1,1061,experiment,43,→,no_key,no_letter,-1.0,False,44,0
real_testM20S1,1062,experiment,37,↓,no_key,no_letter,-1.0,False,44,1
real_testM20S1,1063,experiment,87,↑,no_key,no_letter,-1.0,False,44,1
real_testM20S1,1064,experiment,99,→,no_key,no_letter,-1.0,False,44,1
real_testM20S1,1065,experiment,44,↑,no_key,no_letter,-1.0,False,44,1
real_testM20S1,1066,experiment,71,→,no_key,no_letter,-1.0,False,44,1
real_testM20S1,1067,experiment,95,↓,no_key,no_letter,-1.0,False,44,1
real_testM20S1,1068,experiment,31,→,no_key,no_letter,-1.0,False,44,0
real_testM20S1,1069,experiment,52,↓,no_key,no_letter,-1.0,False,44,1
real_testM20S1,1070,experiment,18,↑,no_key,no_letter,-1.0,False,44,1
real_testM20S1,1071,training,4,↑,no_key,no_letter,-1.0,False,44,0
real_testM20S1,1072,training,6,↑,no_key,no_letter,-1.0,False,44,1
real_testM20S1,1073,experiment,90,↓,no_key,no_letter,-1.0,False,44,1
real_testM20S1,1074,experiment,62,←,no_key,no_letter,-1.0,False,44,1
real_testM20S1,1075,experiment,50,↓,no_key,no_letter,-1.0,False,44,1
real_testM20S1,1076,experiment,39,↓,no_key,no_letter,-1.0,False,44,1
real_testM20S1,1077,experiment,52,↑,no_key,no_letter,-1.0,False,44,1
real_testM20S1,1078,experiment,64,↑,no_key,no_letter,-1.0,False,44,1
real_testM20S1,1079,experiment,59,↓,no_key,no_letter,-1.0,False,44,1
real_testM20S1,1080,experiment,68,←,no_key,no_letter,-1.0,False,44,0
real_testM20S1,1081,experiment,56,↓,no_key,no_letter,-1.0,False,44,1
real_testM20S1,1082,experiment,75,↓,no_key,no_letter,-1.0,False,44,1
real_testM20S1,1083,experiment,60,↓,no_key,no_letter,-1.0,False,44,1
real_testM20S1,1084,experiment,17,→,no_key,no_letter,-1.0,False,44,1
real_testM20S1,1085,experiment,6,←,no_key,no_letter,-1.0,False,44,1
real_testM20S1,1086,experiment,78,→,no_key,no_letter,-1.0,False,44,1
real_testM20S1,1087,experiment,63,↑,no_key,no_letter,-1.0,False,44,1
real_testM20S1,1088,experiment,96,←,no_key,no_letter,-1.0,False,44,1
real_testM20S1,1089,experiment,74,↑,no_key,no_letter,-1.0,False,44,1
real_testM20S1,1090,experiment,12,↑,no_key,no_letter,-1.0,False,44,1
real_testM20S1,1091,experiment,94,←,no_key,no_letter,-1.0,False,44,1
real_testM20S1,1092,experiment,95,→,no_key,no_letter,-1.0,False,44,1
real_testM20S1,1093,experiment,73,→,no_key,no_letter,-1.0,False,44,1
real_testM20S1,1094,experiment,69,→,no_key,no_letter,-1.0,False,44,1
real_testM20S1,1095,experiment,8,↑,no_key,no_letter,-1.0,False,44,1
real_testM20S1,1096,experiment,70,←,no_key,no_letter,-1.0,False,44,1
real_testM20S1,1097,experiment,33,←,no_key,no_letter,-1.0,False,44,1
real_testM20S1,1098,experiment,88,↓,no_key,no_letter,-1.0,False,44,1
real_testM20S1,1099,experiment,7,→,no_key,no_letter,-1.0,False,44,1
real_testM20S1,1100,experiment,86,←,no_key,no_letter,-1.0,False,44,1
real_testM20S1,1101,experiment,67,↓,no_key,no_letter,-1.0,False,44,1
real_testM20S1,1102,experiment,100,←,no_key,no_letter,-1.0,False,44,0
real_testM20S1,1103,experiment,80,↑,no_key,no_letter,-1.0,False,44,1
real_testM20S1,1104,experiment,27,←,no_key,no_letter,-1.0,False,44,1
real_testM20S1,1105,experiment,97,→,no_key,no_letter,-1.0,False,44,1
real_testM20S1,1106,experiment,24,→,no_key,no_letter,-1.0,False,44,1
real_testM20S1,1107,experiment,46,→,no_key,no_letter,-1.0,False,44,1
real_testM20S1,1108,experiment,101,←,no_key,no_letter,-1.0,False,44,1
real_testM20S1,1109,experiment,5,→,no_key,no_letter,-1.0,False,44,1
real_testM20S1,1110,experiment,11,→,no_key,no_letter,-1.0,False,44,1
real_testM20S1,1111,experiment,49,→,no_key,no_letter,-1.0,False,44,0
real_testM20S1,1112,experiment,84,→,no_key,no_letter,-1.0,False,44,1
real_testM20S1,1113,experiment,51,↓,no_key,no_letter,-1.0,False,44,1
real_testM20S1,1114,experiment,76,↓,no_key,no_letter,-1.0,False,44,1
real_testM20S1,1115,experiment,23,↓,no_key,no_letter,-1.0,False,44,1
real_testM20S1,1116,experiment,99,↑,no_key,no_letter,-1.0,False,44,1
real_testM20S1,1117,experiment,41,←,no_key,no_letter,-1.0,False,44,1
real_testM20S1,1118,experiment,15,→,no_key,no_letter,-1.0,False,44,1
real_testM20S1,1119,experiment,10,↑,no_key,no_letter,-1.0,False,44,1
real_testM20S1,1120,experiment,89,←,no_key,no_letter,-1.0,False,44,1
real_testM20S1,1121,experiment,31,←,no_key,no_letter,-1.0,False,44,1
real_testM20S1,1122,experiment,93,↑,no_key,no_letter,-1.0,False,44,1
real_testM20S1,1123,experiment,40,↑,no_key,no_letter,-1.0,False,44,1
real_testM20S1,1124,experiment,48,←,no_key,no_letter,-1.0,False,44,1
real_testM20S1,1125,experiment,47,↓,no_key,no_letter,-1.0,False,44,1
real_testM20S1,1126,experiment,79,←,no_key,no_letter,-1.0,False,44,1
real_testM20S1,1127,experiment,9,←,no_key,no_letter,-1.0,False,44,1
real_testM20S1,1128,experiment,1,↓,no_key,no_letter,-1.0,False,44,1
real_testM20S1,1129,experiment,35,↓,no_key,no_letter,-1.0,False,44,1
real_testM20S1,1130,experiment,43,↓,no_key,no_letter,-1.0,False,44,1
real_testM20S1,1131,experiment,4,→,no_key,no_letter,-1.0,False,44,1
real_testM20S1,1132,experiment,14,↓,no_key,no_letter,-1.0,False,44,1
real_testM20S1,1133,experiment,29,↓,no_key,no_letter,-1.0,False,44,1
real_testM20S1,1134,experiment,81,→,no_key,no_letter,-1.0,False,44,0
real_testM20S1,1135,experiment,57,↓,no_key,no_letter,-1.0,False,44,1
real_testM20S1,1136,experiment,82,←,no_key,no_letter,-1.0,False,44,1
real_testM20S1,1137,experiment,13,→,no_key,no_letter,-1.0,False,44,1
real_testM20S1,1138,experiment,58,↑,no_key,no_letter,-1.0,False,44,1
real_testM20S1,1139,experiment,2,→,no_key,no_letter,-1.0,False,44,1
real_testM20S1,1140,experiment,61,↓,no_key,no_letter,-1.0,False,44,1
real_testM20S1,1141,experiment,36,↓,no_key,no_letter,-1.0,False,44,1
real_testM20S1,1142,experiment,18,→,no_key,no_letter,-1.0,False,44,1
real_testM20S1,1143,experiment,71,→,no_key,no_letter,-1.0,False,44,1
real_testM20S1,1144,experiment,28,↓,no_key,no_letter,-1.0,False,44,1
real_testM20S1,1145,experiment,98,↓,no_key,no_letter,-1.0,False,44,1
real_testM20S1,1146,experiment,26,→,no_key,no_letter,-1.0,False,44,1
real_testM20S1,1147,experiment,85,←,no_key,no_letter,-1.0,False,44,1
real_testM20S1,1148,experiment,3,←,no_key,no_letter,-1.0,False,44,1
real_testM20S1,1149,experiment,91,↑,no_key,no_letter,-1.0,False,44,1
real_testM20S1,1150,experiment,38,↑,no_key,no_letter,-1.0,False,44,1
real_testM20S1,1151,experiment,87,→,no_key,no_letter,-1.0,False,44,1
real_testM20S1,1152,experiment,92,→,no_key,no_letter,-1.0,False,44,1
real_testM20S1,1153,experiment,65,←,no_key,no_letter,-1.0,False,44,1
real_testM20S1,1154,experiment,54,↓,no_key,no_letter,-1.0,False,44,1
real_testM20S1,1155,experiment,37,↑,no_key,no_letter,-1.0,False,44,1
real_testM20S1,1156,experiment,32,→,no_key,no_letter,-1.0,False,44,1
real_testM20S1,1157,experiment,55,↑,no_key,no_letter,-1.0,False,44,1
real_testM20S1,1158,experiment,83,↓,no_key,no_letter,-1.0,False,44,1
real_testM20S1,1159,experiment,21,←,no_key,no_letter,-1.0,False,44,1
real_testM20S1,1160,experiment,66,↓,no_key,no_letter,-1.0,False,44,1
real_testM20S1,1161,experiment,20,↑,no_key,no_letter,-1.0,False,44,1
real_testM20S1,1162,experiment,53,↓,no_key,no_letter,-1.0,False,44,1
real_testM20S1,1163,experiment,72,↓,no_key,no_letter,-1.0,False,44,1
real_testM20S1,1164,experiment,77,→,no_key,no_letter,-1.0,False,44,1
real_testM20S1,1165,experiment,42,↓,no_key,no_letter,-1.0,False,44,1
real_testM20S1,1166,experiment,25,←,no_key,no_letter,-1.0,False,44,1
real_testM20S1,1167,experiment,19,→,no_key,no_letter,-1.0,False,44,1
real_testM20S1,1168,experiment,16,→,no_key,no_letter,-1.0,False,44,1
real_testM20S1,1169,experiment,44,↓,no_key,no_letter,-1.0,False,44,1
real_testM20S1,1170,experiment,34,←,no_key,no_letter,-1.0,False,44,1
real_testM20S1,1171,experiment,45,←,no_key,no_letter,-1.0,False,44,1
real_testM20S1,1172,experiment,22,↑,no_key,no_letter,-1.0,False,44,1
real_testM20S1,1173,experiment,30,←,no_key,no_letter,-1.0,False,44,1
real_testM20S1,1174,training,72,→,no_key,no_letter,-1.0,False,44,0
real_testM20S1,1175,training,19,←,no_key,no_letter,-1.0,False,44,1
real_testM20S1,1176,experiment,77,→,no_key,no_letter,-1.0,False,44,1
real_testM20S1,1177,experiment,8,←,no_key,no_letter,-1.0,False,44,1
real_testM20S1,1178,experiment,39,↑,no_key,no_letter,-1.0,False,44,1
real_testM20S1,1179,experiment,23,←,no_key,no_letter,-1.0,False,44,1
real_testM20S1,1180,experiment,56,→,no_key,no_letter,-1.0,False,44,1
real_testM20S1,1181,experiment,69,↑,no_key,no_letter,-1.0,False,44,1
real_testM20S1,1182,experiment,60,←,no_key,no_letter,-1.0,False,44,1
real_testM20S1,1183,experiment,45,↑,no_key,no_letter,-1.0,False,44,1
real_testM20S1,1184,experiment,18,←,no_key,no_letter,-1.0,False,44,1
real_testM20S1,1185,experiment,10,↓,no_key,no_letter,-1.0,False,44,1
real_testM20S1,1186,experiment,50,↑,no_key,no_letter,-1.0,False,44,1
real_testM20S1,1187,experiment,7,↑,no_key,no_letter,-1.0,False,44,1
real_testM20S1,1188,experiment,30,→,no_key,no_letter,-1.0,False,44,1
real_testM20S1,1189,experiment,11,↑,no_key,no_letter,-1.0,False,44,1
real_testM20S1,1190,experiment,25,↑,no_key,no_letter,-1.0,False,44,1
real_testM20S1,1191,experiment,48,←,no_key,no_letter,-1.0,False,44,1
real_testM20S1,1192,experiment,96,→,no_key,no_letter,-1.0,False,44,1
real_testM20S1,1193,experiment,99,→,no_key,no_letter,-1.0,False,44,1
real_testM20S1,1194,experiment,62,↓,no_key,no_letter,-1.0,False,44,1
real_testM20S1,1195,experiment,46,↓,no_key,no_letter,-1.0,False,44,1
real_testM20S1,1196,experiment,21,↓,no_key,no_letter,-1.0,False,44,1
real_testM20S1,1197,experiment,71,→,no_key,no_letter,-1.0,False,44,1
real_testM20S1,1198,experiment,53,↓,no_key,no_letter,-1.0,False,44,1
real_testM20S1,1199,experiment,83,↓,no_key,no_letter,-1.0,False,44,1
real_testM20S1,1200,experiment,95,→,no_key,no_letter,-1.0,False,44,1
real_testM20S1,1201,experiment,84,←,no_key,no_letter,-1.0,False,44,1
real_testM20S1,1202,experiment,100,↓,no_key,no_letter,-1.0,False,44,1
real_testM20S1,1203,experiment,92,↑,no_key,no_letter,-1.0,False,44,1
real_testM20S1,1204,experiment,88,←,no_key,no_letter,-1.0,False,44,1
real_testM20S1,1205,experiment,24,→,no_key,no_letter,-1.0,False,44,1
real_testM20S1,1206,experiment,61,→,no_key,no_letter,-1.0,False,44,1
real_testM20S1,1207,experiment,26,←,no_key,no_letter,-1.0,False,44,0
real_testM20S1,1208,experiment,15,↓,no_key,no_letter,-1.0,False,44,0
real_testM20S1,1209,experiment,75,↓,no_key,no_letter,-1.0,False,44,1
real_testM20S1,1210,experiment,86,→,no_key,no_letter,-1.0,False,44,1
real_testM20S1,1211,experiment,49,→,no_key,no_letter,-1.0,False,44,1
real_testM20S1,1212,experiment,3,↓,no_key,no_letter,-1.0,False,44,1
real_testM20S1,1213,experiment,80,↑,no_key,no_letter,-1.0,False,44,1
real_testM20S1,1214,experiment,6,←,no_key,no_letter,-1.0,False,44,1
real_testM20S1,1215,experiment,81,→,no_key,no_letter,-1.0,False,44,1
real_testM20S1,1216,experiment,38,←,no_key,no_letter,-1.0,False,44,1
real_testM20S1,1217,experiment,16,↓,no_key,no_letter,-1.0,False,44,1
real_testM20S1,1218,experiment,73,→,no_key,no_letter,-1.0,False,44,1
real_testM20S1,1219,experiment,51,←,no_key,no_letter,-1.0,False,44,1
real_testM20S1,1220,experiment,59,←,no_key,no_letter,-1.0,False,44,1
real_testM20S1,1221,experiment,27,→,no_key,no_letter,-1.0,False,44,1
real_testM20S1,1222,experiment,29,←,no_key,no_letter,-1.0,False,44,1
real_testM20S1,1223,experiment,101,→,no_key,no_letter,-1.0,False,44,1
real_testM20S1,1224,experiment,5,↑,no_key,no_letter,-1.0,False,44,1
real_testM20S1,1225,experiment,1,←,no_key,no_letter,-1.0,False,44,1
real_testM20S1,1226,experiment,19,←,no_key,no_letter,-1.0,False,44,1
real_testM20S1,1227,experiment,93,↑,no_key,no_letter,-1.0,False,44,1
real_testM20S1,1228,experiment,37,↓,no_key,no_letter,-1.0,False,44,1
real_testM20S1,1229,experiment,76,←,no_key,no_letter,-1.0,False,44,1
real_testM20S1,1230,experiment,87,→,no_key,no_letter,-1.0,False,44,1
real_testM20S1,1231,experiment,17,↓,no_key,no_letter,-1.0,False,44,1
real_testM20S1,1232,experiment,78,↑,no_key,no_letter,-1.0,False,44,1
real_testM20S1,1233,experiment,32,↓,no_key,no_letter,-1.0,False,44,1
real_testM20S1,1234,experiment,90,↑,no_key,no_letter,-1.0,False,44,1
real_testM20S1,1235,experiment,34,↑,no_key,no_letter,-1.0,False,44,1
real_testM20S1,1236,experiment,58,←,no_key,no_letter,-1.0,False,44,1
real_testM20S1,1237,experiment,13,↑,no_key,no_letter,-1.0,False,44,0
real_testM20S1,1238,experiment,82,↓,no_key,no_letter,-1.0,False,44,1
real_testM20S1,1239,experiment,14,↓,no_key,no_letter,-1.0,False,44,1
real_testM20S1,1240,experiment,91,←,no_key,no_letter,-1.0,False,44,1
real_testM20S1,1241,experiment,64,↓,no_key,no_letter,-1.0,False,44,1
real_testM20S1,1242,experiment,79,←,no_key,no_letter,-1.0,False,44,1
real_testM20S1,1243,experiment,98,←,no_key,no_letter,-1.0,False,44,1
real_testM20S1,1244,experiment,41,↓,no_key,no_letter,-1.0,False,44,1
real_testM20S1,1245,experiment,36,↓,no_key,no_letter,-1.0,False,44,1
real_testM20S1,1246,experiment,97,↑,no_key,no_letter,-1.0,False,44,1
real_testM20S1,1247,experiment,66,↓,no_key,no_letter,-1.0,False,44,1
real_testM20S1,1248,experiment,28,→,no_key,no_letter,-1.0,False,44,1
real_testM20S1,1249,experiment,4,↑,no_key,no_letter,-1.0,False,44,1
real_testM20S1,1250,experiment,52,↑,no_key,no_letter,-1.0,False,44,0
real_testM20S1,1251,experiment,72,→,no_key,no_letter,-1.0,False,44,1
real_testM20S1,1252,experiment,9,→,no_key,no_letter,-1.0,False,44,1
real_testM20S1,1253,experiment,68,↑,no_key,no_letter,-1.0,False,44,1
real_testM20S1,1254,experiment,22,↑,no_key,no_letter,-1.0,False,44,1
real_testM20S1,1255,experiment,44,↓,no_key,no_letter,-1.0,False,44,1
real_testM20S1,1256,experiment,54,↓,no_key,no_letter,-1.0,False,44,0
real_testM20S1,1257,experiment,43,↓,no_key,no_letter,-1.0,False,44,1
real_testM20S1,1258,experiment,40,→,no_key,no_letter,-1.0,False,44,1
real_testM20S1,1259,experiment,12,←,no_key,no_letter,-1.0,False,44,0
real_testM20S1,1260,experiment,74,→,no_key,no_letter,-1.0,False,44,1
real_testM20S1,1261,experiment,85,←,no_key,no_letter,-1.0,False,44,0
real_testM20S1,1262,experiment,35,↑,no_key,no_letter,-1.0,False,44,1
real_testM20S1,1263,experiment,55,↑,no_key,no_letter,-1.0,False,44,1
real_testM20S1,1264,experiment,63,←,no_key,no_letter,-1.0,False,44,1
real_testM20S1,1265,experiment,33,↑,no_key,no_letter,-1.0,False,44,1
real_testM20S1,1266,experiment,65,↓,no_key,no_letter,-1.0,False,44,1
real_testM20S1,1267,experiment,42,↑,no_key,no_letter,-1.0,False,44,1
real_testM20S1,1268,experiment,89,←,no_key,no_letter,-1.0,False,44,1
real_testM20S1,1269,experiment,20,←,no_key,no_letter,-1.0,False,44,1
real_testM20S1,1270,experiment,2,↓,no_key,no_letter,-1.0,False,44,1
real_testM20S1,1271,experiment,31,→,no_key,no_letter,-1.0,False,44,1
real_testM20S1,1272,experiment,70,→,no_key,no_letter,-1.0,False,44,1
real_testM20S1,1273,experiment,47,→,no_key,no_letter,-1.0,False,44,1
real_testM20S1,1274,experiment,67,←,no_key,no_letter,-1.0,False,44,1
real_testM20S1,1275,experiment,57,→,no_key,no_letter,-1.0,False,44,1
real_testM20S1,1276,experiment,94,←,no_key,no_letter,-1.0,False,44,1
real_testM20S1,1277,training,64,↑,no_key,no_letter,-1.0,False,44,0
real_testM20S1,1278,training,69,←,no_key,no_letter,-1.0,False,44,1
real_testM20S1,1279,experiment,11,←,no_key,no_letter,-1.0,False,44,0
real_testM20S1,1280,experiment,65,↓,no_key,no_letter,-1.0,False,44,1
real_testM20S1,1281,experiment,50,←,no_key,no_letter,-1.0,False,44,1
real_testM20S1,1282,experiment,4,↑,no_key,no_letter,-1.0,False,44,1
real_testM20S1,1283,experiment,38,←,no_key,no_letter,-1.0,False,44,1
real_testM20S1,1284,experiment,26,→,no_key,no_letter,-1.0,False,44,1
real_testM20S1,1285,experiment,24,→,no_key,no_letter,-1.0,False,44,0
real_testM20S1,1286,experiment,29,→,no_key,no_letter,-1.0,False,44,1
real_testM20S1,1287,experiment,74,→,no_key,no_letter,-1.0,False,44,1
real_testM20S1,1288,experiment,35,↑,no_key,no_letter,-1.0,False,44,1
real_testM20S1,1289,experiment,86,→,no_key,no_letter,-1.0,False,44,1
real_testM20S1,1290,experiment,73,↓,no_key,no_letter,-1.0,False,44,1
real_testM20S1,1291,experiment,75,↑,no_key,no_letter,-1.0,False,44,1
real_testM20S1,1292,experiment,91,↓,no_key,no_letter,-1.0,False,44,1
real_testM20S1,1293,experiment,45,→,no_key,no_letter,-1.0,False,44,1
real_testM20S1,1294,experiment,59,↑,no_key,no_letter,-1.0,False,44,1
real_testM20S1,1295,experiment,57,→,no_key,no_letter,-1.0,False,44,1
real_testM20S1,1296,experiment,101,↑,no_key,no_letter,-1.0,False,44,1
real_testM20S1,1297,experiment,21,→,no_key,no_letter,-1.0,False,44,1
real_testM20S1,1298,experiment,82,→,no_key,no_letter,-1.0,False,44,1
real_testM20S1,1299,experiment,33,→,no_key,no_letter,-1.0,False,44,1
real_testM20S1,1300,experiment,6,←,no_key,no_letter,-1.0,False,44,1
real_testM20S1,1301,experiment,77,↓,no_key,no_letter,-1.0,False,44,1
real_testM20S1,1302,experiment,53,→,no_key,no_letter,-1.0,False,44,1
real_testM20S1,1303,experiment,7,→,no_key,no_letter,-1.0,False,44,1
real_testM20S1,1304,experiment,68,←,no_key,no_letter,-1.0,False,44,1
real_testM20S1,1305,experiment,32,↓,no_key,no_letter,-1.0,False,44,1
real_testM20S1,1306,experiment,30,↓,no_key,no_letter,-1.0,False,44,1
real_testM20S1,1307,experiment,72,←,no_key,no_letter,-1.0,False,44,1
real_testM20S1,1308,experiment,100,←,no_key,no_letter,-1.0,False,44,1
real_testM20S1,1309,experiment,96,↓,no_key,no_letter,-1.0,False,44,1
real_testM20S1,1310,experiment,36,←,no_key,no_letter,-1.0,False,44,0
real_testM20S1,1311,experiment,42,→,no_key,no_letter,-1.0,False,44,1
real_testM20S1,1312,experiment,95,→,no_key,no_letter,-1.0,False,44,1
real_testM20S1,1313,experiment,54,→,no_key,no_letter,-1.0,False,44,1
real_testM20S1,1314,experiment,44,→,no_key,no_letter,-1.0,False,44,1
real_testM20S1,1315,experiment,51,↓,no_key,no_letter,-1.0,False,44,1
real_testM20S1,1316,experiment,62,→,no_key,no_letter,-1.0,False,44,1
real_testM20S1,1317,experiment,80,←,no_key,no_letter,-1.0,False,44,1
real_testM20S1,1318,experiment,93,→,no_key,no_letter,-1.0,False,44,1
real_testM20S1,1319,experiment,39,↓,no_key,no_letter,-1.0,False,44,1
real_testM20S1,1320,experiment,31,↓,no_key,no_letter,-1.0,False,44,1
real_testM20S1,1321,experiment,8,←,no_key,no_letter,-1.0,False,44,1
real_testM20S1,1322,experiment,78,←,no_key,no_letter,-1.0,False,44,1
real_testM20S1,1323,experiment,40,↑,no_key,no_letter,-1.0,False,44,1
real_testM20S1,1324,experiment,87,←,no_key,no_letter,-1.0,False,44,1
real_testM20S1,1325,experiment,61,→,no_key,no_letter,-1.0,False,44,1
real_testM20S1,1326,experiment,63,↓,no_key,no_letter,-1.0,False,44,1
real_testM20S1,1327,experiment,2,←,no_key,no_letter,-1.0,False,44,1
real_testM20S1,1328,experiment,49,→,no_key,no_letter,-1.0,False,44,1
real_testM20S1,1329,experiment,15,←,no_key,no_letter,-1.0,False,44,1
real_testM20S1,1330,experiment,5,↑,no_key,no_letter,-1.0,False,44,1
real_testM20S1,1331,experiment,83,→,no_key,no_letter,-1.0,False,44,1
real_testM20S1,1332,experiment,17,↑,no_key,no_letter,-1.0,False,44,1
real_testM20S1,1333,experiment,60,↓,no_key,no_letter,-1.0,False,44,1
real_testM20S1,1334,experiment,69,↑,no_key,no_letter,-1.0,False,44,1
real_testM20S1,1335,experiment,1,↓,no_key,no_letter,-1.0,False,44,1
real_testM20S1,1336,experiment,34,←,no_key,no_letter,-1.0,False,44,1
real_testM20S1,1337,experiment,3,↑,no_key,no_letter,-1.0,False,44,1
real_testM20S1,1338,experiment,88,↓,no_key,no_letter,-1.0,False,44,0
real_testM20S1,1339,experiment,64,→,no_key,no_letter,-1.0,False,44,1
real_testM20S1,1340,experiment,56,↓,no_key,no_letter,-1.0,False,44,1
real_testM20S1,1341,experiment,89,→,no_key,no_letter,-1.0,False,44,0
real_testM20S1,1342,experiment,55,→,no_key,no_letter,-1.0,False,44,1
real_testM20S1,1343,experiment,12,↓,no_key,no_letter,-1.0,False,44,1
real_testM20S1,1344,experiment,85,←,no_key,no_letter,-1.0,False,44,1
real_testM20S1,1345,experiment,99,←,no_key,no_letter,-1.0,False,44,1
real_testM20S1,1346,experiment,76,←,no_key,no_letter,-1.0,False,44,1
real_testM20S1,1347,experiment,14,→,no_key,no_letter,-1.0,False,44,1
real_testM20S1,1348,experiment,79,↓,no_key,no_letter,-1.0,False,44,1
real_testM20S1,1349,experiment,47,↑,no_key,no_letter,-1.0,False,44,1
real_testM20S1,1350,experiment,98,←,no_key,no_letter,-1.0,False,44,1
real_testM20S1,1351,experiment,20,↓,no_key,no_letter,-1.0,False,44,1
real_testM20S1,1352,experiment,10,←,no_key,no_letter,-1.0,False,44,0
real_testM20S1,1353,experiment,94,←,no_key,no_letter,-1.0,False,44,1
real_testM20S1,1354,experiment,67,↓,no_key,no_letter,-1.0,False,44,0
real_testM20S1,1355,experiment,58,→,no_key,no_letter,-1.0,False,44,1
real_testM20S1,1356,experiment,43,→,no_key,no_letter,-1.0,False,44,1
real_testM20S1,1357,experiment,84,↓,no_key,no_letter,-1.0,False,44,1
real_testM20S1,1358,experiment,9,→,no_key,no_letter,-1.0,False,44,1
real_testM20S1,1359,experiment,25,←,no_key,no_letter,-1.0,False,44,1
real_testM20S1,1360,experiment,97,←,no_key,no_letter,-1.0,False,44,1
real_testM20S1,1361,experiment,71,→,no_key,no_letter,-1.0,False,44,1
real_testM20S1,1362,experiment,19,→,no_key,no_letter,-1.0,False,44,1
real_testM20S1,1363,experiment,41,→,no_key,no_letter,-1.0,False,44,0
real_testM20S1,1364,experiment,52,↓,no_key,no_letter,-1.0,False,44,1
real_testM20S1,1365,experiment,46,→,no_key,no_letter,-1.0,False,44,1
real_testM20S1,1366,experiment,16,↑,no_key,no_letter,-1.0,False,44,1
real_testM20S1,1367,experiment,28,←,no_key,no_letter,-1.0,False,44,1
real_testM20S1,1368,experiment,13,↑,no_key,no_letter,-1.0,False,44,0
real_testM20S1,1369,experiment,27,→,no_key,no_letter,-1.0,False,44,0
real_testM20S1,1370,experiment,18,↓,no_key,no_letter,-1.0,False,44,1
real_testM20S1,1371,experiment,70,↓,no_key,no_letter,-1.0,False,44,1
real_testM20S1,1372,experiment,48,→,no_key,no_letter,-1.0,False,44,1
real_testM20S1,1373,experiment,66,↑,no_key,no_letter,-1.0,False,44,0
real_testM20S1,1374,experiment,81,↓,no_key,no_letter,-1.0,False,44,1
real_testM20S1,1375,experiment,92,↓,no_key,no_letter,-1.0,False,44,0
real_testM20S1,1376,experiment,90,↓,no_key,no_letter,-1.0,False,44,1
real_testM20S1,1377,experiment,23,→,no_key,no_letter,-1.0,False,44,1
real_testM20S1,1378,experiment,22,↑,no_key,no_letter,-1.0,False,44,1
real_testM20S1,1379,experiment,37,→,no_key,no_letter,-1.0,False,44,1
real_testM20S1,1380,training,49,←,no_key,no_letter,-1.0,False,44,0
real_testM20S1,1381,training,61,↓,no_key,no_letter,-1.0,False,44,1
real_testM20S1,1382,experiment,28,→,no_key,no_letter,-1.0,False,44,1
real_testM20S1,1383,experiment,36,↑,no_key,no_letter,-1.0,False,44,1
real_testM20S1,1384,experiment,66,↑,no_key,no_letter,-1.0,False,44,1
real_testM20S1,1385,experiment,6,↑,no_key,no_letter,-1.0,False,44,1
real_testM20S1,1386,experiment,23,←,no_key,no_letter,-1.0,False,44,1
real_testM20S1,1387,experiment,99,↓,no_key,no_letter,-1.0,False,44,1
real_testM20S1,1388,experiment,35,↑,no_key,no_letter,-1.0,False,44,1
real_testM20S1,1389,experiment,19,↑,no_key,no_letter,-1.0,False,44,1
real_testM20S1,1390,experiment,16,↑,no_key,no_letter,-1.0,False,44,1
real_testM20S1,1391,experiment,8,↑,no_key,no_letter,-1.0,False,44,0
real_testM20S1,1392,experiment,18,↑,no_key,no_letter,-1.0,False,44,1
real_testM20S1,1393,experiment,57,↓,no_key,no_letter,-1.0,False,44,1
real_testM20S1,1394,experiment,85,←,no_key,no_letter,-1.0,False,44,1
real_testM20S1,1395,experiment,12,←,no_key,no_letter,-1.0,False,44,1
real_testM20S1,1396,experiment,51,↓,no_key,no_letter,-1.0,False,44,1
real_testM20S1,1397,experiment,80,←,no_key,no_letter,-1.0,False,44,0
real_testM20S1,1398,experiment,68,↓,no_key,no_letter,-1.0,False,44,1
real_testM20S1,1399,experiment,22,↓,no_key,no_letter,-1.0,False,44,1
real_testM20S1,1400,experiment,26,←,no_key,no_letter,-1.0,False,44,0
real_testM20S1,1401,experiment,92,↑,no_key,no_letter,-1.0,False,44,1
real_testM20S1,1402,experiment,21,↑,no_key,no_letter,-1.0,False,44,1
real_testM20S1,1403,experiment,33,↓,no_key,no_letter,-1.0,False,44,1
real_testM20S1,1404,experiment,3,→,no_key,no_letter,-1.0,False,44,1
real_testM20S1,1405,experiment,97,↑,no_key,no_letter,-1.0,False,44,1
real_testM20S1,1406,experiment,98,↑,no_key,no_letter,-1.0,False,44,0
real_testM20S1,1407,experiment,71,↑,no_key,no_letter,-1.0,False,44,1
real_testM20S1,1408,experiment,63,↑,no_key,no_letter,-1.0,False,44,1
real_testM20S1,1409,experiment,95,↓,no_key,no_letter,-1.0,False,44,1
real_testM20S1,1410,experiment,30,↓,no_key,no_letter,-1.0,False,44,0
real_testM20S1,1411,experiment,2,←,no_key,no_letter,-1.0,False,44,1
real_testM20S1,1412,experiment,56,↑,no_key,no_letter,-1.0,False,44,1
real_testM20S1,1413,experiment,43,←,no_key,no_letter,-1.0,False,44,1
real_testM20S1,1414,experiment,73,↑,no_key,no_letter,-1.0,False,44,1
real_testM20S1,1415,experiment,34,↓,no_key,no_letter,-1.0,False,44,1
real_testM20S1,1416,experiment,82,↑,no_key,no_letter,-1.0,False,44,1
real_testM20S1,1417,experiment,13,→,no_key,no_letter,-1.0,False,44,1
real_testM20S1,1418,experiment,75,→,no_key,no_letter,-1.0,False,44,1
real_testM20S1,1419,experiment,17,←,no_key,no_letter,-1.0,False,44,0
real_testM20S1,1420,experiment,1,↑,no_key,no_letter,-1.0,False,44,1
real_testM20S1,1421,experiment,70,←,no_key,no_letter,-1.0,False,44,1
real_testM20S1,1422,experiment,81,→,no_key,no_letter,-1.0,False,44,0
real_testM20S1,1423,experiment,40,↑,no_key,no_letter,-1.0,False,44,1
