PART_ID,Trial_no,Trial_type,CSI,Stim_letter,Key_pressed,letter_choose,Rt,Corr,Stimulus Time,nDropped
test_100M20S1,1,training,120,→,no_key,no_letter,-1.0,False,60,0
test_100M20S1,2,training,120,→,no_key,no_letter,-1.0,False,60,1
test_100M20S1,3,training,120,→,no_key,no_letter,-1.0,False,60,1
test_100M20S1,4,training,120,→,no_key,no_letter,-1.0,False,60,1
test_100M20S1,5,training,120,↓,no_key,no_letter,-1.0,False,60,1
test_100M20S1,6,training,120,→,no_key,no_letter,-1.0,False,60,1
test_100M20S1,7,training,120,↓,no_key,no_letter,-1.0,False,60,1
test_100M20S1,8,training,120,←,no_key,no_letter,-1.0,False,60,1
test_100M20S1,9,training,120,←,no_key,no_letter,-1.0,False,60,1
test_100M20S1,10,training,120,↑,no_key,no_letter,-1.0,False,60,1
test_100M20S1,11,training,120,←,no_key,no_letter,-1.0,False,60,1
test_100M20S1,12,training,120,↓,no_key,no_letter,-1.0,False,60,1
test_100M20S1,13,training,120,↑,no_key,no_letter,-1.0,False,60,1
test_100M20S1,14,training,120,←,no_key,no_letter,-1.0,False,60,1
test_100M20S1,15,training,120,→,no_key,no_letter,-1.0,False,60,1
test_100M20S1,16,training,120,↓,no_key,no_letter,-1.0,False,60,1
test_100M20S1,17,training,120,↑,no_key,no_letter,-1.0,False,60,1
test_100M20S1,18,training,120,→,no_key,no_letter,-1.0,False,60,1
test_100M20S1,19,training,120,↑,no_key,no_letter,-1.0,False,60,1
test_100M20S1,20,training,120,↑,no_key,no_letter,-1.0,False,60,1
test_100M20S1,21,no_adaptation,120,←,no_key,no_letter,-1.0,False,36,0
test_100M20S1,22,no_adaptation,120,↓,no_key,no_letter,-1.0,False,36,0
test_100M20S1,23,no_adaptation,120,←,no_key,no_letter,-1.0,False,36,0
test_100M20S1,24,no_adaptation,120,↓,no_key,no_letter,-1.0,False,36,0
test_100M20S1,25,no_adaptation,120,↑,no_key,no_letter,-1.0,False,36,0
test_100M20S1,26,no_adaptation,120,↓,no_key,no_letter,-1.0,False,36,0
test_100M20S1,27,no_adaptation,120,←,no_key,no_letter,-1.0,False,36,0
test_100M20S1,28,no_adaptation,120,←,no_key,no_letter,-1.0,False,36,0
test_100M20S1,29,no_adaptation,120,↓,no_key,no_letter,-1.0,False,36,0
test_100M20S1,30,no_adaptation,120,←,no_key,no_letter,-1.0,False,36,0
test_100M20S1,31,no_adaptation,120,↓,no_key,no_letter,-1.0,False,36,0
test_100M20S1,32,no_adaptation,120,↓,no_key,no_letter,-1.0,False,36,0
test_100M20S1,33,no_adaptation,120,↑,no_key,no_letter,-1.0,False,36,0
test_100M20S1,34,no_adaptation,120,←,no_key,no_letter,-1.0,False,36,0
test_100M20S1,35,no_adaptation,120,→,no_key,no_letter,-1.0,False,36,0
test_100M20S1,36,no_adaptation,120,←,no_key,no_letter,-1.0,False,36,0
test_100M20S1,37,no_adaptation,120,←,no_key,no_letter,-1.0,False,36,0
test_100M20S1,38,no_adaptation,120,↑,no_key,no_letter,-1.0,False,36,0
test_100M20S1,39,no_adaptation,120,↑,no_key,no_letter,-1.0,False,36,0
test_100M20S1,40,no_adaptation,120,←,no_key,no_letter,-1.0,False,36,0
test_100M20S1,41,no_adaptation,120,↑,no_key,no_letter,-1.0,False,36,0
test_100M20S1,42,no_adaptation,120,↓,no_key,no_letter,-1.0,False,36,0
test_100M20S1,43,no_adaptation,120,←,no_key,no_letter,-1.0,False,36,0
test_100M20S1,44,no_adaptation,120,↓,no_key,no_letter,-1.0,False,36,0
test_100M20S1,45,no_adaptation,120,↑,no_key,no_letter,-1.0,False,36,0
test_100M20S1,46,no_adaptation,120,←,no_key,no_letter,-1.0,False,36,0
test_100M20S1,47,no_adaptation,120,→,no_key,no_letter,-1.0,False,36,0
test_100M20S1,48,no_adaptation,120,→,no_key,no_letter,-1.0,False,36,0
test_100M20S1,49,no_adaptation,120,←,no_key,no_letter,-1.0,False,36,0
test_100M20S1,50,no_adaptation,120,↓,no_key,no_letter,-1.0,False,36,0
test_100M20S1,51,no_adaptation,120,←,no_key,no_letter,-1.0,False,36,0
test_100M20S1,52,no_adaptation,120,↓,no_key,no_letter,-1.0,False,36,0
test_100M20S1,53,no_adaptation,120,←,no_key,no_letter,-1.0,False,36,0
test_100M20S1,54,no_adaptation,120,↑,no_key,no_letter,-1.0,False,36,0
test_100M20S1,55,no_adaptation,120,↓,no_key,no_letter,-1.0,False,36,0
test_100M20S1,56,no_adaptation,120,↓,no_key,no_letter,-1.0,False,36,0
test_100M20S1,57,no_adaptation,120,→,no_key,no_letter,-1.0,False,36,0
test_100M20S1,58,no_adaptation,120,←,no_key,no_letter,-1.0,False,36,0
test_100M20S1,59,no_adaptation,120,↓,no_key,no_letter,-1.0,False,36,0
test_100M20S1,60,no_adaptation,120,↓,no_key,no_letter,-1.0,False,36,0
test_100M20S1,61,no_adaptation,120,→,no_key,no_letter,-1.0,False,36,0
test_100M20S1,62,no_adaptation,120,→,no_key,no_letter,-1.0,False,36,0
test_100M20S1,63,no_adaptation,120,↑,no_key,no_letter,-1.0,False,36,0
test_100M20S1,64,no_adaptation,120,←,no_key,no_letter,-1.0,False,36,0
test_100M20S1,65,no_adaptation,120,→,no_key,no_letter,-1.0,False,36,0
test_100M20S1,66,no_adaptation,120,→,no_key,no_letter,-1.0,False,36,0
test_100M20S1,67,no_adaptation,120,↑,no_key,no_letter,-1.0,False,36,0
test_100M20S1,68,no_adaptation,120,↑,no_key,no_letter,-1.0,False,36,0
test_100M20S1,69,no_adaptation,120,↑,no_key,no_letter,-1.0,False,36,0
test_100M20S1,70,no_adaptation,120,←,no_key,no_letter,-1.0,False,36,0
test_100M20S1,71,no_adaptation,120,↓,no_key,no_letter,-1.0,False,36,0
test_100M20S1,72,no_adaptation,120,→,no_key,no_letter,-1.0,False,36,0
test_100M20S1,73,no_adaptation,120,↑,no_key,no_letter,-1.0,False,36,0
test_100M20S1,74,no_adaptation,120,↓,no_key,no_letter,-1.0,False,36,0
test_100M20S1,75,no_adaptation,120,→,no_key,no_letter,-1.0,False,36,0
test_100M20S1,76,no_adaptation,120,→,no_key,no_letter,-1.0,False,36,0
test_100M20S1,77,no_adaptation,120,→,no_key,no_letter,-1.0,False,36,0
test_100M20S1,78,no_adaptation,120,↓,no_key,no_letter,-1.0,False,36,0
test_100M20S1,79,no_adaptation,120,←,no_key,no_letter,-1.0,False,36,0
test_100M20S1,80,no_adaptation,120,→,no_key,no_letter,-1.0,False,36,0
test_100M20S1,81,no_adaptation,120,→,no_key,no_letter,-1.0,False,36,0
test_100M20S1,82,no_adaptation,120,←,no_key,no_letter,-1.0,False,36,0
test_100M20S1,83,no_adaptation,120,↓,no_key,no_letter,-1.0,False,36,0
test_100M20S1,84,no_adaptation,120,←,no_key,no_letter,-1.0,False,36,0
test_100M20S1,85,no_adaptation,120,↓,no_key,no_letter,-1.0,False,36,0
test_100M20S1,86,no_adaptation,120,→,no_key,no_letter,-1.0,False,36,0
test_100M20S1,87,no_adaptation,120,↓,no_key,no_letter,-1.0,False,36,0
test_100M20S1,88,no_adaptation,120,↓,no_key,no_letter,-1.0,False,36,0
test_100M20S1,89,no_adaptation,120,↓,no_key,no_letter,-1.0,False,36,0
test_100M20S1,90,no_adaptation,120,↑,no_key,no_letter,-1.0,False,36,0
test_100M20S1,91,no_adaptation,120,→,no_key,no_letter,-1.0,False,36,0
test_100M20S1,92,no_adaptation,120,↑,no_key,no_letter,-1.0,False,36,0
test_100M20S1,93,no_adaptation,120,↑,no_key,no_letter,-1.0,False,36,0
test_100M20S1,94,no_adaptation,120,↓,no_key,no_letter,-1.0,False,36,0
test_100M20S1,95,no_adaptation,120,↓,no_key,no_letter,-1.0,False,36,0
test_100M20S1,96,no_adaptation,120,←,no_key,no_letter,-1.0,False,36,0
test_100M20S1,97,no_adaptation,120,↓,no_key,no_letter,-1.0,False,36,0
test_100M20S1,98,no_adaptation,120,↓,no_key,no_letter,-1.0,False,36,0
test_100M20S1,99,no_adaptation,120,←,no_key,no_letter,-1.0,False,36,0
test_100M20S1,100,no_adaptation,120,←,no_key,no_letter,-1.0,False,36,0
test_100M20S1,101,no_adaptation,120,↑,no_key,no_letter,-1.0,False,36,0
test_100M20S1,102,no_adaptation,120,←,no_key,no_letter,-1.0,False,36,0
test_100M20S1,103,no_adaptation,120,→,no_key,no_letter,-1.0,False,36,0
test_100M20S1,104,no_adaptation,120,↑,no_key,no_letter,-1.0,False,36,0
test_100M20S1,105,no_adaptation,120,←,no_key,no_letter,-1.0,False,36,0
test_100M20S1,106,no_adaptation,120,→,no_key,no_letter,-1.0,False,36,0
test_100M20S1,107,no_adaptation,120,←,no_key,no_letter,-1.0,False,36,0
test_100M20S1,108,no_adaptation,120,↑,no_key,no_letter,-1.0,False,36,0
test_100M20S1,109,no_adaptation,120,↑,no_key,no_letter,-1.0,False,36,0
test_100M20S1,110,no_adaptation,120,↑,no_key,no_letter,-1.0,False,36,0
test_100M20S1,111,no_adaptation,120,←,no_key,no_letter,-1.0,False,36,0
test_100M20S1,112,no_adaptation,120,→,no_key,no_letter,-1.0,False,36,0
test_100M20S1,113,no_adaptation,120,→,no_key,no_letter,-1.0,False,36,0
test_100M20S1,114,no_adaptation,120,→,no_key,no_letter,-1.0,False,36,0
test_100M20S1,115,no_adaptation,120,→,no_key,no_letter,-1.0,False,36,0
test_100M20S1,116,no_adaptation,120,↑,no_key,no_letter,-1.0,False,36,0
test_100M20S1,117,no_adaptation,120,↑,no_key,no_letter,-1.0,False,36,0
test_100M20S1,118,no_adaptation,120,↑,no_key,no_letter,-1.0,False,36,0
test_100M20S1,119,no_adaptation,120,←,no_key,no_letter,-1.0,False,36,0
test_100M20S1,120,no_adaptation,120,←,no_key,no_letter,-1.0,False,36,0
test_100M20S1,121,no_adaptation,120,↑,no_key,no_letter,-1.0,False,36,0
test_100M20S1,122,no_adaptation,120,↓,no_key,no_letter,-1.0,False,36,0
test_100M20S1,123,no_adaptation,120,↑,no_key,no_letter,-1.0,False,36,0
test_100M20S1,124,no_adaptation,120,↓,no_key,no_letter,-1.0,False,36,0
test_100M20S1,125,no_adaptation,120,→,no_key,no_letter,-1.0,False,36,0
test_100M20S1,126,no_adaptation,120,↑,no_key,no_letter,-1.0,False,36,0
test_100M20S1,127,no_adaptation,120,←,no_key,no_letter,-1.0,False,36,0
test_100M20S1,128,no_adaptation,120,↑,no_key,no_letter,-1.0,False,36,0
test_100M20S1,129,no_adaptation,120,→,no_key,no_letter,-1.0,False,36,0
test_100M20S1,130,no_adaptation,120,←,no_key,no_letter,-1.0,False,36,0
test_100M20S1,131,no_adaptation,120,←,no_key,no_letter,-1.0,False,36,0
test_100M20S1,132,no_adaptation,120,←,no_key,no_letter,-1.0,False,36,0
test_100M20S1,133,no_adaptation,120,→,no_key,no_letter,-1.0,False,36,0
test_100M20S1,134,no_adaptation,120,→,no_key,no_letter,-1.0,False,36,0
test_100M20S1,135,no_adaptation,120,←,no_key,no_letter,-1.0,False,36,0
test_100M20S1,136,no_adaptation,120,→,no_key,no_letter,-1.0,False,36,0
test_100M20S1,137,no_adaptation,120,→,no_key,no_letter,-1.0,False,36,0
test_100M20S1,138,no_adaptation,120,↑,no_key,no_letter,-1.0,False,36,0
test_100M20S1,139,no_adaptation,120,←,no_key,no_letter,-1.0,False,36,0
test_100M20S1,140,no_adaptation,120,→,no_key,no_letter,-1.0,False,36,0
test_100M20S1,141,no_adaptation,120,↑,no_key,no_letter,-1.0,False,36,0
test_100M20S1,142,no_adaptation,120,→,no_key,no_letter,-1.0,False,36,0
test_100M20S1,143,no_adaptation,120,↑,no_key,no_letter,-1.0,False,36,0
test_100M20S1,144,no_adaptation,120,←,no_key,no_letter,-1.0,False,36,0
test_100M20S1,145,no_adaptation,120,→,no_key,no_letter,-1.0,False,36,0
test_100M20S1,146,no_adaptation,120,↑,no_key,no_letter,-1.0,False,36,0
test_100M20S1,147,no_adaptation,120,→,no_key,no_letter,-1.0,False,36,0
test_100M20S1,148,no_adaptation,120,←,no_key,no_letter,-1.0,False,36,0
test_100M20S1,149,no_adaptation,120,→,no_key,no_letter,-1.0,False,36,0
test_100M20S1,150,no_adaptation,120,↓,no_key,no_letter,-1.0,False,36,0
test_100M20S1,151,no_adaptation,120,↓,no_key,no_letter,-1.0,False,36,0
test_100M20S1,152,no_adaptation,120,↑,no_key,no_letter,-1.0,False,36,0
test_100M20S1,153,no_adaptation,120,↓,no_key,no_letter,-1.0,False,36,0
test_100M20S1,154,no_adaptation,120,↑,no_key,no_letter,-1.0,False,36,0
test_100M20S1,155,no_adaptation,120,→,no_key,no_letter,-1.0,False,36,0
test_100M20S1,156,no_adaptation,120,↓,no_key,no_letter,-1.0,False,36,0
test_100M20S1,157,no_adaptation,120,↓,no_key,no_letter,-1.0,False,36,0
test_100M20S1,158,no_adaptation,120,←,no_key,no_letter,-1.0,False,36,0
test_100M20S1,159,no_adaptation,120,→,no_key,no_letter,-1.0,False,36,0
test_100M20S1,160,no_adaptation,120,↓,no_key,no_letter,-1.0,False,36,0
test_100M20S1,161,no_adaptation,120,↓,no_key,no_letter,-1.0,False,36,0
test_100M20S1,162,no_adaptation,120,→,no_key,no_letter,-1.0,False,36,0
test_100M20S1,163,no_adaptation,120,←,no_key,no_letter,-1.0,False,36,0
test_100M20S1,164,no_adaptation,120,↑,no_key,no_letter,-1.0,False,36,0
test_100M20S1,165,no_adaptation,120,→,no_key,no_letter,-1.0,False,36,0
test_100M20S1,166,no_adaptation,120,→,no_key,no_letter,-1.0,False,36,0
test_100M20S1,167,no_adaptation,120,↑,no_key,no_letter,-1.0,False,36,0
test_100M20S1,168,no_adaptation,120,↓,no_key,no_letter,-1.0,False,36,0
test_100M20S1,169,no_adaptation,120,←,no_key,no_letter,-1.0,False,36,0
test_100M20S1,170,no_adaptation,120,←,no_key,no_letter,-1.0,False,36,0
test_100M20S1,171,no_adaptation,120,→,no_key,no_letter,-1.0,False,36,0
test_100M20S1,172,no_adaptation,120,↓,no_key,no_letter,-1.0,False,36,0
test_100M20S1,173,no_adaptation,120,←,no_key,no_letter,-1.0,False,36,0
test_100M20S1,174,no_adaptation,120,←,no_key,no_letter,-1.0,False,36,0
test_100M20S1,175,no_adaptation,120,↓,no_key,no_letter,-1.0,False,36,0
test_100M20S1,176,no_adaptation,120,↓,no_key,no_letter,-1.0,False,36,0
test_100M20S1,177,no_adaptation,120,↑,no_key,no_letter,-1.0,False,36,0
test_100M20S1,178,no_adaptation,120,←,no_key,no_letter,-1.0,False,36,0
test_100M20S1,179,no_adaptation,120,↓,no_key,no_letter,-1.0,False,36,0
test_100M20S1,180,no_adaptation,120,↑,no_key,no_letter,-1.0,False,36,0
test_100M20S1,181,no_adaptation,120,←,no_key,no_letter,-1.0,False,36,0
test_100M20S1,182,no_adaptation,120,←,no_key,no_letter,-1.0,False,36,0
test_100M20S1,183,no_adaptation,120,→,no_key,no_letter,-1.0,False,36,0
test_100M20S1,184,no_adaptation,120,→,no_key,no_letter,-1.0,False,36,0
test_100M20S1,185,no_adaptation,120,↓,no_key,no_letter,-1.0,False,36,0
test_100M20S1,186,no_adaptation,120,↑,no_key,no_letter,-1.0,False,36,0
test_100M20S1,187,no_adaptation,120,↓,no_key,no_letter,-1.0,False,36,0
test_100M20S1,188,no_adaptation,120,↑,no_key,no_letter,-1.0,False,36,0
test_100M20S1,189,no_adaptation,120,←,no_key,no_letter,-1.0,False,36,0
test_100M20S1,190,no_adaptation,120,→,no_key,no_letter,-1.0,False,36,0
test_100M20S1,191,no_adaptation,120,→,no_key,no_letter,-1.0,False,36,0
test_100M20S1,192,no_adaptation,120,↑,no_key,no_letter,-1.0,False,36,0
test_100M20S1,193,no_adaptation,120,→,no_key,no_letter,-1.0,False,36,0
test_100M20S1,194,no_adaptation,120,→,no_key,no_letter,-1.0,False,36,0
test_100M20S1,195,no_adaptation,120,→,no_key,no_letter,-1.0,False,36,0
test_100M20S1,196,no_adaptation,120,↑,no_key,no_letter,-1.0,False,36,0
test_100M20S1,197,no_adaptation,120,←,no_key,no_letter,-1.0,False,36,0
test_100M20S1,198,no_adaptation,120,←,no_key,no_letter,-1.0,False,36,0
test_100M20S1,199,no_adaptation,120,↓,no_key,no_letter,-1.0,False,36,0
test_100M20S1,200,no_adaptation,120,←,no_key,no_letter,-1.0,False,36,0
test_100M20S1,201,no_adaptation,120,←,no_key,no_letter,-1.0,False,36,0
test_100M20S1,202,no_adaptation,120,→,no_key,no_letter,-1.0,False,36,0
test_100M20S1,203,no_adaptation,120,↓,no_key,no_letter,-1.0,False,36,0
test_100M20S1,204,no_adaptation,120,↑,no_key,no_letter,-1.0,False,36,0
test_100M20S1,205,no_adaptation,120,→,no_key,no_letter,-1.0,False,36,0
test_100M20S1,206,no_adaptation,120,↑,no_key,no_letter,-1.0,False,36,0
test_100M20S1,207,no_adaptation,120,→,no_key,no_letter,-1.0,False,36,0
test_100M20S1,208,no_adaptation,120,→,no_key,no_letter,-1.0,False,36,0
test_100M20S1,209,no_adaptation,120,←,no_key,no_letter,-1.0,False,36,0
test_100M20S1,210,no_adaptation,120,→,no_key,no_letter,-1.0,False,36,0
test_100M20S1,211,no_adaptation,120,←,no_key,no_letter,-1.0,False,36,0
test_100M20S1,212,no_adaptation,120,↑,no_key,no_letter,-1.0,False,36,0
test_100M20S1,213,no_adaptation,120,↑,no_key,no_letter,-1.0,False,36,0
test_100M20S1,214,no_adaptation,120,→,no_key,no_letter,-1.0,False,36,0
test_100M20S1,215,no_adaptation,120,←,no_key,no_letter,-1.0,False,36,0
test_100M20S1,216,no_adaptation,120,→,no_key,no_letter,-1.0,False,36,0
test_100M20S1,217,no_adaptation,120,↓,no_key,no_letter,-1.0,False,36,0
test_100M20S1,218,no_adaptation,120,↓,no_key,no_letter,-1.0,False,36,0
test_100M20S1,219,no_adaptation,120,→,no_key,no_letter,-1.0,False,36,0
test_100M20S1,220,no_adaptation,120,↑,no_key,no_letter,-1.0,False,36,0
test_100M20S1,221,no_adaptation,120,↓,no_key,no_letter,-1.0,False,36,0
test_100M20S1,222,no_adaptation,120,↑,no_key,no_letter,-1.0,False,36,0
test_100M20S1,223,no_adaptation,120,→,no_key,no_letter,-1.0,False,36,0
test_100M20S1,224,no_adaptation,120,↑,no_key,no_letter,-1.0,False,36,0
test_100M20S1,225,no_adaptation,120,←,no_key,no_letter,-1.0,False,36,0
test_100M20S1,226,no_adaptation,120,→,no_key,no_letter,-1.0,False,36,0
test_100M20S1,227,no_adaptation,120,↑,no_key,no_letter,-1.0,False,36,0
test_100M20S1,228,no_adaptation,120,↑,no_key,no_letter,-1.0,False,36,0
test_100M20S1,229,no_adaptation,120,↓,no_key,no_letter,-1.0,False,36,0
test_100M20S1,230,no_adaptation,120,→,no_key,no_letter,-1.0,False,36,0
test_100M20S1,231,no_adaptation,120,←,no_key,no_letter,-1.0,False,36,0
test_100M20S1,232,no_adaptation,120,↑,no_key,no_letter,-1.0,False,36,0
test_100M20S1,233,no_adaptation,120,↓,no_key,no_letter,-1.0,False,36,0
test_100M20S1,234,no_adaptation,120,←,no_key,no_letter,-1.0,False,36,0
test_100M20S1,235,no_adaptation,120,→,no_key,no_letter,-1.0,False,36,0
test_100M20S1,236,no_adaptation,120,→,no_key,no_letter,-1.0,False,36,0
test_100M20S1,237,no_adaptation,120,↑,no_key,no_letter,-1.0,False,36,0
test_100M20S1,238,no_adaptation,120,→,no_key,no_letter,-1.0,False,36,0
test_100M20S1,239,no_adaptation,120,←,no_key,no_letter,-1.0,False,36,0
test_100M20S1,240,no_adaptation,120,↓,no_key,no_letter,-1.0,False,36,0
test_100M20S1,241,no_adaptation,120,→,no_key,no_letter,-1.0,False,36,0
test_100M20S1,242,no_adaptation,120,↑,no_key,no_letter,-1.0,False,36,0
test_100M20S1,243,no_adaptation,120,↓,no_key,no_letter,-1.0,False,36,0
test_100M20S1,244,no_adaptation,120,↓,no_key,no_letter,-1.0,False,36,0
test_100M20S1,245,no_adaptation,120,→,no_key,no_letter,-1.0,False,36,0
test_100M20S1,246,no_adaptation,120,←,no_key,no_letter,-1.0,False,36,0
test_100M20S1,247,no_adaptation,120,↑,no_key,no_letter,-1.0,False,36,0
test_100M20S1,248,no_adaptation,120,↓,no_key,no_letter,-1.0,False,36,0
test_100M20S1,249,no_adaptation,120,→,no_key,no_letter,-1.0,False,36,0
test_100M20S1,250,no_adaptation,120,←,no_key,no_letter,-1.0,False,36,0
test_100M20S1,251,no_adaptation,120,←,no_key,no_letter,-1.0,False,36,0
test_100M20S1,252,no_adaptation,120,→,no_key,no_letter,-1.0,False,36,0
test_100M20S1,253,no_adaptation,120,↑,no_key,no_letter,-1.0,False,36,0
test_100M20S1,254,no_adaptation,120,→,no_key,no_letter,-1.0,False,36,0
test_100M20S1,255,no_adaptation,120,←,no_key,no_letter,-1.0,False,36,0
test_100M20S1,256,no_adaptation,120,←,no_key,no_letter,-1.0,False,36,0
test_100M20S1,257,no_adaptation,120,↓,no_key,no_letter,-1.0,False,36,0
test_100M20S1,258,no_adaptation,120,↓,no_key,no_letter,-1.0,False,36,0
test_100M20S1,259,no_adaptation,120,↑,no_key,no_letter,-1.0,False,36,0
test_100M20S1,260,no_adaptation,120,→,no_key,no_letter,-1.0,False,36,0
test_100M20S1,261,no_adaptation,120,↓,no_key,no_letter,-1.0,False,36,0
test_100M20S1,262,no_adaptation,120,↓,no_key,no_letter,-1.0,False,36,0
test_100M20S1,263,no_adaptation,120,←,no_key,no_letter,-1.0,False,36,0
test_100M20S1,264,no_adaptation,120,←,no_key,no_letter,-1.0,False,36,0
test_100M20S1,265,no_adaptation,120,←,no_key,no_letter,-1.0,False,36,0
test_100M20S1,266,no_adaptation,120,←,no_key,no_letter,-1.0,False,36,0
test_100M20S1,267,no_adaptation,120,↑,no_key,no_letter,-1.0,False,36,0
test_100M20S1,268,no_adaptation,120,→,no_key,no_letter,-1.0,False,36,0
test_100M20S1,269,no_adaptation,120,↑,no_key,no_letter,-1.0,False,36,0
test_100M20S1,270,no_adaptation,120,↑,no_key,no_letter,-1.0,False,36,0
test_100M20S1,271,no_adaptation,120,↓,no_key,no_letter,-1.0,False,36,0
test_100M20S1,272,no_adaptation,120,→,no_key,no_letter,-1.0,False,36,0
test_100M20S1,273,no_adaptation,120,↑,no_key,no_letter,-1.0,False,36,0
test_100M20S1,274,no_adaptation,120,↓,no_key,no_letter,-1.0,False,36,0
test_100M20S1,275,no_adaptation,120,←,no_key,no_letter,-1.0,False,36,0
test_100M20S1,276,no_adaptation,120,↓,no_key,no_letter,-1.0,False,36,0
test_100M20S1,277,no_adaptation,120,↓,no_key,no_letter,-1.0,False,36,0
test_100M20S1,278,no_adaptation,120,←,no_key,no_letter,-1.0,False,36,0
test_100M20S1,279,no_adaptation,120,→,no_key,no_letter,-1.0,False,36,0
test_100M20S1,280,no_adaptation,120,←,no_key,no_letter,-1.0,False,36,0
test_100M20S1,281,no_adaptation,120,↓,no_key,no_letter,-1.0,False,36,0
test_100M20S1,282,no_adaptation,120,←,no_key,no_letter,-1.0,False,36,0
test_100M20S1,283,no_adaptation,120,→,no_key,no_letter,-1.0,False,36,0
test_100M20S1,284,no_adaptation,120,←,no_key,no_letter,-1.0,False,36,0
test_100M20S1,285,no_adaptation,120,→,no_key,no_letter,-1.0,False,36,0
test_100M20S1,286,no_adaptation,120,↑,no_key,no_letter,-1.0,False,36,0
test_100M20S1,287,no_adaptation,120,↑,no_key,no_letter,-1.0,False,36,0
test_100M20S1,288,no_adaptation,120,→,no_key,no_letter,-1.0,False,36,0
test_100M20S1,289,no_adaptation,120,←,no_key,no_letter,-1.0,False,36,0
test_100M20S1,290,no_adaptation,120,↑,no_key,no_letter,-1.0,False,36,0
test_100M20S1,291,no_adaptation,120,→,no_key,no_letter,-1.0,False,36,0
test_100M20S1,292,no_adaptation,120,↓,no_key,no_letter,-1.0,False,36,0
test_100M20S1,293,no_adaptation,120,↑,no_key,no_letter,-1.0,False,36,0
test_100M20S1,294,no_adaptation,120,→,no_key,no_letter,-1.0,False,36,0
test_100M20S1,295,no_adaptation,120,←,no_key,no_letter,-1.0,False,36,0
test_100M20S1,296,no_adaptation,120,↓,no_key,no_letter,-1.0,False,36,0
test_100M20S1,297,no_adaptation,120,↑,no_key,no_letter,-1.0,False,36,0
test_100M20S1,298,no_adaptation,120,↑,no_key,no_letter,-1.0,False,36,0
test_100M20S1,299,no_adaptation,120,→,no_key,no_letter,-1.0,False,36,0
test_100M20S1,300,no_adaptation,120,↓,no_key,no_letter,-1.0,False,36,0
test_100M20S1,301,no_adaptation,120,↓,no_key,no_letter,-1.0,False,36,0
test_100M20S1,302,no_adaptation,120,→,no_key,no_letter,-1.0,False,36,0
test_100M20S1,303,no_adaptation,120,←,no_key,no_letter,-1.0,False,36,0
test_100M20S1,304,no_adaptation,120,↑,no_key,no_letter,-1.0,False,36,0
test_100M20S1,305,no_adaptation,120,↓,no_key,no_letter,-1.0,False,36,0
test_100M20S1,306,no_adaptation,120,↑,no_key,no_letter,-1.0,False,36,0
test_100M20S1,307,no_adaptation,120,→,no_key,no_letter,-1.0,False,36,0
test_100M20S1,308,no_adaptation,120,↑,no_key,no_letter,-1.0,False,36,0
test_100M20S1,309,no_adaptation,120,←,no_key,no_letter,-1.0,False,36,0
test_100M20S1,310,no_adaptation,120,→,no_key,no_letter,-1.0,False,36,0
test_100M20S1,311,no_adaptation,120,→,no_key,no_letter,-1.0,False,36,0
test_100M20S1,312,no_adaptation,120,←,no_key,no_letter,-1.0,False,36,0
test_100M20S1,313,no_adaptation,120,→,no_key,no_letter,-1.0,False,36,0
test_100M20S1,314,no_adaptation,120,→,no_key,no_letter,-1.0,False,36,0
test_100M20S1,315,no_adaptation,120,→,no_key,no_letter,-1.0,False,36,0
test_100M20S1,316,no_adaptation,120,←,no_key,no_letter,-1.0,False,36,0
test_100M20S1,317,no_adaptation,120,←,no_key,no_letter,-1.0,False,36,0
test_100M20S1,318,no_adaptation,120,↓,no_key,no_letter,-1.0,False,36,0
test_100M20S1,319,no_adaptation,120,↓,no_key,no_letter,-1.0,False,36,0
test_100M20S1,320,no_adaptation,120,→,no_key,no_letter,-1.0,False,36,0
test_100M20S1,321,no_adaptation,120,→,no_key,no_letter,-1.0,False,36,0
test_100M20S1,322,no_adaptation,120,→,no_key,no_letter,-1.0,False,36,0
test_100M20S1,323,no_adaptation,120,↓,no_key,no_letter,-1.0,False,36,0
test_100M20S1,324,no_adaptation,120,→,no_key,no_letter,-1.0,False,36,0
test_100M20S1,325,no_adaptation,120,↑,no_key,no_letter,-1.0,False,36,0
test_100M20S1,326,no_adaptation,120,↓,no_key,no_letter,-1.0,False,36,0
test_100M20S1,327,no_adaptation,120,→,no_key,no_letter,-1.0,False,36,0
test_100M20S1,328,no_adaptation,120,↓,no_key,no_letter,-1.0,False,36,0
test_100M20S1,329,no_adaptation,120,↑,no_key,no_letter,-1.0,False,36,0
test_100M20S1,330,no_adaptation,120,→,no_key,no_letter,-1.0,False,36,0
test_100M20S1,331,no_adaptation,120,←,no_key,no_letter,-1.0,False,36,0
test_100M20S1,332,no_adaptation,120,←,no_key,no_letter,-1.0,False,36,0
test_100M20S1,333,no_adaptation,120,↑,no_key,no_letter,-1.0,False,36,0
test_100M20S1,334,no_adaptation,120,↑,no_key,no_letter,-1.0,False,36,0
test_100M20S1,335,no_adaptation,120,←,no_key,no_letter,-1.0,False,36,0
test_100M20S1,336,no_adaptation,120,→,no_key,no_letter,-1.0,False,36,0
test_100M20S1,337,no_adaptation,120,↑,no_key,no_letter,-1.0,False,36,0
test_100M20S1,338,no_adaptation,120,↑,no_key,no_letter,-1.0,False,36,0
test_100M20S1,339,no_adaptation,120,↓,no_key,no_letter,-1.0,False,36,0
test_100M20S1,340,no_adaptation,120,↓,no_key,no_letter,-1.0,False,36,0
test_100M20S1,341,no_adaptation,120,→,no_key,no_letter,-1.0,False,36,0
test_100M20S1,342,no_adaptation,120,↑,no_key,no_letter,-1.0,False,36,0
test_100M20S1,343,no_adaptation,120,↑,no_key,no_letter,-1.0,False,36,0
test_100M20S1,344,no_adaptation,120,→,no_key,no_letter,-1.0,False,36,0
test_100M20S1,345,no_adaptation,120,→,no_key,no_letter,-1.0,False,36,0
test_100M20S1,346,no_adaptation,120,←,no_key,no_letter,-1.0,False,36,0
test_100M20S1,347,no_adaptation,120,↓,no_key,no_letter,-1.0,False,36,0
test_100M20S1,348,no_adaptation,120,↑,no_key,no_letter,-1.0,False,36,0
test_100M20S1,349,no_adaptation,120,←,no_key,no_letter,-1.0,False,36,0
test_100M20S1,350,no_adaptation,120,←,no_key,no_letter,-1.0,False,36,0
test_100M20S1,351,no_adaptation,120,↓,no_key,no_letter,-1.0,False,36,0
test_100M20S1,352,no_adaptation,120,←,no_key,no_letter,-1.0,False,36,0
test_100M20S1,353,no_adaptation,120,→,no_key,no_letter,-1.0,False,36,0
test_100M20S1,354,no_adaptation,120,↑,no_key,no_letter,-1.0,False,36,0
test_100M20S1,355,no_adaptation,120,←,no_key,no_letter,-1.0,False,36,0
test_100M20S1,356,no_adaptation,120,←,no_key,no_letter,-1.0,False,36,0
test_100M20S1,357,no_adaptation,120,→,no_key,no_letter,-1.0,False,36,0
test_100M20S1,358,no_adaptation,120,↓,no_key,no_letter,-1.0,False,36,0
test_100M20S1,359,no_adaptation,120,↓,no_key,no_letter,-1.0,False,36,0
test_100M20S1,360,no_adaptation,120,↑,no_key,no_letter,-1.0,False,36,0
test_100M20S1,361,no_adaptation,120,→,no_key,no_letter,-1.0,False,36,0
test_100M20S1,362,no_adaptation,120,→,no_key,no_letter,-1.0,False,36,0
test_100M20S1,363,no_adaptation,120,→,no_key,no_letter,-1.0,False,36,0
test_100M20S1,364,no_adaptation,120,↓,no_key,no_letter,-1.0,False,36,0
test_100M20S1,365,no_adaptation,120,↓,no_key,no_letter,-1.0,False,36,0
test_100M20S1,366,no_adaptation,120,←,no_key,no_letter,-1.0,False,36,0
test_100M20S1,367,no_adaptation,120,→,no_key,no_letter,-1.0,False,36,0
test_100M20S1,368,no_adaptation,120,→,no_key,no_letter,-1.0,False,36,0
test_100M20S1,369,no_adaptation,120,↓,no_key,no_letter,-1.0,False,36,0
test_100M20S1,370,no_adaptation,120,←,no_key,no_letter,-1.0,False,36,0
test_100M20S1,371,no_adaptation,120,→,no_key,no_letter,-1.0,False,36,0
test_100M20S1,372,no_adaptation,120,↓,no_key,no_letter,-1.0,False,36,0
test_100M20S1,373,no_adaptation,120,→,no_key,no_letter,-1.0,False,36,0
test_100M20S1,374,no_adaptation,120,↑,no_key,no_letter,-1.0,False,36,0
test_100M20S1,375,no_adaptation,120,←,no_key,no_letter,-1.0,False,36,0
test_100M20S1,376,no_adaptation,120,↑,no_key,no_letter,-1.0,False,36,0
test_100M20S1,377,no_adaptation,120,→,no_key,no_letter,-1.0,False,36,0
test_100M20S1,378,no_adaptation,120,↓,no_key,no_letter,-1.0,False,36,0
test_100M20S1,379,no_adaptation,120,→,no_key,no_letter,-1.0,False,36,0
test_100M20S1,380,no_adaptation,120,↑,no_key,no_letter,-1.0,False,36,0
test_100M20S1,381,no_adaptation,120,↓,no_key,no_letter,-1.0,False,36,0
test_100M20S1,382,no_adaptation,120,←,no_key,no_letter,-1.0,False,36,0
test_100M20S1,383,no_adaptation,120,←,no_key,no_letter,-1.0,False,36,0
test_100M20S1,384,no_adaptation,120,→,no_key,no_letter,-1.0,False,36,0
test_100M20S1,385,no_adaptation,120,→,no_key,no_letter,-1.0,False,36,0
test_100M20S1,386,no_adaptation,120,↑,no_key,no_letter,-1.0,False,36,0
test_100M20S1,387,no_adaptation,120,↓,no_key,no_letter,-1.0,False,36,0
test_100M20S1,388,no_adaptation,120,↓,no_key,no_letter,-1.0,False,36,0
test_100M20S1,389,no_adaptation,120,↓,no_key,no_letter,-1.0,False,36,0
test_100M20S1,390,no_adaptation,120,↑,no_key,no_letter,-1.0,False,36,0
test_100M20S1,391,no_adaptation,120,↓,no_key,no_letter,-1.0,False,36,0
test_100M20S1,392,no_adaptation,120,↑,no_key,no_letter,-1.0,False,36,0
test_100M20S1,393,no_adaptation,120,↓,no_key,no_letter,-1.0,False,36,0
test_100M20S1,394,no_adaptation,120,↓,no_key,no_letter,-1.0,False,36,0
test_100M20S1,395,no_adaptation,120,↑,no_key,no_letter,-1.0,False,36,0
test_100M20S1,396,no_adaptation,120,→,no_key,no_letter,-1.0,False,36,0
test_100M20S1,397,no_adaptation,120,↑,no_key,no_letter,-1.0,False,36,0
test_100M20S1,398,no_adaptation,120,↑,no_key,no_letter,-1.0,False,36,0
test_100M20S1,399,no_adaptation,120,→,no_key,no_letter,-1.0,False,36,0
test_100M20S1,400,no_adaptation,120,↑,no_key,no_letter,-1.0,False,36,0
test_100M20S1,401,no_adaptation,120,←,no_key,no_letter,-1.0,False,36,0
test_100M20S1,402,no_adaptation,120,→,no_key,no_letter,-1.0,False,36,0
test_100M20S1,403,no_adaptation,120,→,no_key,no_letter,-1.0,False,36,0
test_100M20S1,404,no_adaptation,120,←,no_key,no_letter,-1.0,False,36,0
test_100M20S1,405,no_adaptation,120,←,no_key,no_letter,-1.0,False,36,0
test_100M20S1,406,no_adaptation,120,↓,no_key,no_letter,-1.0,False,36,0
test_100M20S1,407,no_adaptation,120,←,no_key,no_letter,-1.0,False,36,0
test_100M20S1,408,no_adaptation,120,→,no_key,no_letter,-1.0,False,36,0
test_100M20S1,409,no_adaptation,120,→,no_key,no_letter,-1.0,False,36,0
test_100M20S1,410,no_adaptation,120,↑,no_key,no_letter,-1.0,False,36,0
test_100M20S1,411,no_adaptation,120,↓,no_key,no_letter,-1.0,False,36,0
test_100M20S1,412,no_adaptation,120,↑,no_key,no_letter,-1.0,False,36,0
test_100M20S1,413,no_adaptation,120,↓,no_key,no_letter,-1.0,False,36,0
test_100M20S1,414,no_adaptation,120,←,no_key,no_letter,-1.0,False,36,0
test_100M20S1,415,no_adaptation,120,→,no_key,no_letter,-1.0,False,36,0
test_100M20S1,416,no_adaptation,120,↑,no_key,no_letter,-1.0,False,36,0
test_100M20S1,417,no_adaptation,120,←,no_key,no_letter,-1.0,False,36,0
test_100M20S1,418,no_adaptation,120,→,no_key,no_letter,-1.0,False,36,0
test_100M20S1,419,no_adaptation,120,←,no_key,no_letter,-1.0,False,36,0
test_100M20S1,420,no_adaptation,120,←,no_key,no_letter,-1.0,False,36,0
test_100M20S1,421,training,30,↑,no_key,no_letter,-1.0,False,36,0
test_100M20S1,422,training,65,→,no_key,no_letter,-1.0,False,36,1
test_100M20S1,423,experiment,87,→,no_key,no_letter,-1.0,False,36,1
test_100M20S1,424,experiment,81,←,no_key,no_letter,-1.0,False,36,1
test_100M20S1,425,experiment,26,←,no_key,no_letter,-1.0,False,36,1
test_100M20S1,426,experiment,100,→,no_key,no_letter,-1.0,False,36,0
test_100M20S1,427,experiment,21,→,no_key,no_letter,-1.0,False,36,1
test_100M20S1,428,experiment,37,←,no_key,no_letter,-1.0,False,36,1
test_100M20S1,429,experiment,17,→,no_key,no_letter,-1.0,False,36,1
test_100M20S1,430,experiment,91,↑,no_key,no_letter,-1.0,False,36,1
test_100M20S1,431,experiment,94,↑,no_key,no_letter,-1.0,False,36,1
test_100M20S1,432,experiment,5,→,no_key,no_letter,-1.0,False,36,0
test_100M20S1,433,experiment,55,←,no_key,no_letter,-1.0,False,36,1
test_100M20S1,434,experiment,11,→,no_key,no_letter,-1.0,False,36,0
test_100M20S1,435,experiment,49,←,no_key,no_letter,-1.0,False,36,1
test_100M20S1,436,experiment,25,←,no_key,no_letter,-1.0,False,36,1
test_100M20S1,437,experiment,63,→,no_key,no_letter,-1.0,False,36,1
test_100M20S1,438,experiment,96,↑,no_key,no_letter,-1.0,False,36,1
test_100M20S1,439,experiment,83,↓,no_key,no_letter,-1.0,False,36,0
test_100M20S1,440,experiment,89,←,no_key,no_letter,-1.0,False,36,1
test_100M20S1,441,experiment,72,→,no_key,no_letter,-1.0,False,36,1
test_100M20S1,442,experiment,99,↓,no_key,no_letter,-1.0,False,36,1
test_100M20S1,443,experiment,93,→,no_key,no_letter,-1.0,False,36,1
test_100M20S1,444,experiment,39,→,no_key,no_letter,-1.0,False,36,0
test_100M20S1,445,experiment,12,↑,no_key,no_letter,-1.0,False,36,1
test_100M20S1,446,experiment,50,↓,no_key,no_letter,-1.0,False,36,1
test_100M20S1,447,experiment,84,↑,no_key,no_letter,-1.0,False,36,0
test_100M20S1,448,experiment,69,←,no_key,no_letter,-1.0,False,36,1
test_100M20S1,449,experiment,8,←,no_key,no_letter,-1.0,False,36,1
test_100M20S1,450,experiment,60,→,no_key,no_letter,-1.0,False,36,1
test_100M20S1,451,experiment,36,↓,no_key,no_letter,-1.0,False,36,0
test_100M20S1,452,experiment,101,←,no_key,no_letter,-1.0,False,36,0
test_100M20S1,453,experiment,42,→,no_key,no_letter,-1.0,False,36,1
test_100M20S1,454,experiment,51,↑,no_key,no_letter,-1.0,False,36,0
test_100M20S1,455,experiment,79,→,no_key,no_letter,-1.0,False,36,1
test_100M20S1,456,experiment,53,←,no_key,no_letter,-1.0,False,36,1
test_100M20S1,457,experiment,62,→,no_key,no_letter,-1.0,False,36,1
test_100M20S1,458,experiment,75,↑,no_key,no_letter,-1.0,False,36,0
test_100M20S1,459,experiment,46,↓,no_key,no_letter,-1.0,False,36,1
test_100M20S1,460,experiment,45,↓,no_key,no_letter,-1.0,False,36,0
test_100M20S1,461,experiment,30,↑,no_key,no_letter,-1.0,False,36,0
test_100M20S1,462,experiment,66,←,no_key,no_letter,-1.0,False,36,1
test_100M20S1,463,experiment,15,↓,no_key,no_letter,-1.0,False,36,1
test_100M20S1,464,experiment,35,←,no_key,no_letter,-1.0,False,36,0
test_100M20S1,465,experiment,43,→,no_key,no_letter,-1.0,False,36,1
test_100M20S1,466,experiment,41,↑,no_key,no_letter,-1.0,False,36,1
test_100M20S1,467,experiment,29,←,no_key,no_letter,-1.0,False,36,1
test_100M20S1,468,experiment,65,↓,no_key,no_letter,-1.0,False,36,1
test_100M20S1,469,experiment,85,→,no_key,no_letter,-1.0,False,36,1
test_100M20S1,470,experiment,3,↓,no_key,no_letter,-1.0,False,36,1
test_100M20S1,471,experiment,82,↑,no_key,no_letter,-1.0,False,36,1
test_100M20S1,472,experiment,74,←,no_key,no_letter,-1.0,False,36,1
test_100M20S1,473,experiment,40,↓,no_key,no_letter,-1.0,False,36,1
test_100M20S1,474,experiment,16,↓,no_key,no_letter,-1.0,False,36,0
test_100M20S1,475,experiment,10,→,no_key,no_letter,-1.0,False,36,1
test_100M20S1,476,experiment,6,→,no_key,no_letter,-1.0,False,36,1
test_100M20S1,477,experiment,23,→,no_key,no_letter,-1.0,False,36,1
test_100M20S1,478,experiment,73,←,no_key,no_letter,-1.0,False,36,1
test_100M20S1,479,experiment,90,→,no_key,no_letter,-1.0,False,36,1
test_100M20S1,480,experiment,7,↑,no_key,no_letter,-1.0,False,36,1
test_100M20S1,481,experiment,56,→,no_key,no_letter,-1.0,False,36,1
test_100M20S1,482,experiment,4,↓,no_key,no_letter,-1.0,False,36,1
test_100M20S1,483,experiment,58,↑,no_key,no_letter,-1.0,False,36,1
test_100M20S1,484,experiment,76,←,no_key,no_letter,-1.0,False,36,1
test_100M20S1,485,experiment,61,↑,no_key,no_letter,-1.0,False,36,0
test_100M20S1,486,experiment,71,←,no_key,no_letter,-1.0,False,36,0
test_100M20S1,487,experiment,70,←,no_key,no_letter,-1.0,False,36,0
test_100M20S1,488,experiment,98,↑,no_key,no_letter,-1.0,False,36,1
test_100M20S1,489,experiment,13,↓,no_key,no_letter,-1.0,False,36,1
test_100M20S1,490,experiment,97,↑,no_key,no_letter,-1.0,False,36,1
test_100M20S1,491,experiment,33,←,no_key,no_letter,-1.0,False,36,0
test_100M20S1,492,experiment,86,↑,no_key,no_letter,-1.0,False,36,0
test_100M20S1,493,experiment,47,→,no_key,no_letter,-1.0,False,36,1
test_100M20S1,494,experiment,24,↓,no_key,no_letter,-1.0,False,36,1
test_100M20S1,495,experiment,44,↑,no_key,no_letter,-1.0,False,36,0
test_100M20S1,496,experiment,77,↑,no_key,no_letter,-1.0,False,36,1
test_100M20S1,497,experiment,31,→,no_key,no_letter,-1.0,False,36,1
test_100M20S1,498,experiment,59,→,no_key,no_letter,-1.0,False,36,1
test_100M20S1,499,experiment,9,←,no_key,no_letter,-1.0,False,36,1
test_100M20S1,500,experiment,32,←,no_key,no_letter,-1.0,False,36,1
test_100M20S1,501,experiment,95,↓,no_key,no_letter,-1.0,False,36,1
test_100M20S1,502,experiment,88,←,no_key,no_letter,-1.0,False,36,0
test_100M20S1,503,experiment,2,↑,no_key,no_letter,-1.0,False,36,1
test_100M20S1,504,experiment,34,↑,no_key,no_letter,-1.0,False,36,1
test_100M20S1,505,experiment,80,↑,no_key,no_letter,-1.0,False,36,0
test_100M20S1,506,experiment,18,↑,no_key,no_letter,-1.0,False,36,1
test_100M20S1,507,experiment,38,↓,no_key,no_letter,-1.0,False,36,0
test_100M20S1,508,experiment,1,→,no_key,no_letter,-1.0,False,36,1
test_100M20S1,509,experiment,27,↑,no_key,no_letter,-1.0,False,36,1
test_100M20S1,510,experiment,22,→,no_key,no_letter,-1.0,False,36,1
test_100M20S1,511,experiment,20,←,no_key,no_letter,-1.0,False,36,1
test_100M20S1,512,experiment,57,↑,no_key,no_letter,-1.0,False,36,0
test_100M20S1,513,experiment,52,↑,no_key,no_letter,-1.0,False,36,0
test_100M20S1,514,experiment,19,↓,no_key,no_letter,-1.0,False,36,1
test_100M20S1,515,experiment,68,↑,no_key,no_letter,-1.0,False,36,0
test_100M20S1,516,experiment,54,↑,no_key,no_letter,-1.0,False,36,0
test_100M20S1,517,experiment,67,←,no_key,no_letter,-1.0,False,36,1
test_100M20S1,518,experiment,48,↓,no_key,no_letter,-1.0,False,36,1
test_100M20S1,519,experiment,64,↑,no_key,no_letter,-1.0,False,36,0
test_100M20S1,520,experiment,14,←,no_key,no_letter,-1.0,False,36,1
test_100M20S1,521,experiment,28,→,no_key,no_letter,-1.0,False,36,1
test_100M20S1,522,experiment,92,↓,no_key,no_letter,-1.0,False,36,0
test_100M20S1,523,experiment,78,→,no_key,no_letter,-1.0,False,36,0
