PART_ID,Trial_no,Trial_type,PDI,Stim_letter,Key_pressed,letter_choose,Rt,Corr,Stimulus Time
A028K24,1,training,10,↑,no_key,no_letter,-1.0,False,30
A028K24,2,training,10,↑,up,↑,1.4872438000020338,True,30
A028K24,3,training,10,↓,down,↓,0.9167587000047206,True,30
A028K24,4,training,10,↑,down,↓,0.8100628000029246,False,30
A028K24,5,training,10,→,right,→,1.0987065000008442,True,30
A028K24,6,training,10,←,left,←,0.7467154999976628,True,30
A028K24,7,training,10,↓,down,↓,0.8329564000014216,True,30
A028K24,8,training,10,←,left,←,0.5838618999987375,True,30
A028K24,9,training,10,←,left,←,0.567035100000794,True,30
A028K24,10,training,10,↓,up,↑,1.5305116000017733,False,30
A028K24,11,training,10,→,right,→,1.5983570000025793,True,30
A028K24,12,training,10,→,right,→,1.113176900005783,True,30
A028K24,13,training,10,→,right,→,1.1958319000041229,True,30
A028K24,14,training,10,→,right,→,1.0447631999995792,True,30
A028K24,15,training,10,↓,down,↓,1.1437605999963125,True,30
A028K24,16,training,10,→,down,↓,1.483404900005553,False,30
A028K24,17,training,10,→,right,→,0.6009915000031469,True,30
A028K24,18,training,10,←,left,←,1.3241515999980038,True,30
A028K24,19,training,10,←,down,↓,1.1430060999991838,False,30
A028K24,20,training,10,←,left,←,0.6174056000018027,True,30
A028K24,21,training,10,↑,down,↓,0.996963899997354,False,18
A028K24,22,training,10,↓,left,←,1.675297200003115,False,18
A028K24,23,training,10,←,left,←,0.9345796999987215,True,18
A028K24,24,training,10,↑,up,↑,0.6318832000033581,True,18
A028K24,25,training,10,→,right,→,0.8608156999980565,True,18
A028K24,26,training,10,↑,up,↑,1.1452483000030043,True,18
A028K24,27,training,10,←,left,←,0.9184674999996787,True,18
A028K24,28,training,10,→,right,→,0.5311335000005784,True,18
A028K24,29,training,10,←,down,↓,1.2055695000017295,False,18
A028K24,30,training,10,↓,down,↓,0.8013652000008733,True,18
A028K24,31,training,96,←,down,↓,0.9731804999973974,False,15
A028K24,32,training,120,→,right,→,0.6022095000007539,True,15
A028K24,33,training,180,←,left,←,1.558365999997477,True,15
A028K24,34,experiment,108,↓,left,←,0.9669358000028296,False,15
A028K24,35,experiment,36,→,left,←,0.8994806999980938,False,15
A028K24,36,experiment,132,↑,down,↓,0.7860882000022684,False,15
A028K24,37,experiment,168,→,down,↓,0.8232776000004378,False,15
A028K24,38,experiment,48,→,right,→,0.7643879999959609,True,15
A028K24,39,experiment,72,→,left,←,0.8394232999999076,False,15
A028K24,40,experiment,12,↓,left,←,0.8924927999978536,False,15
A028K24,41,experiment,60,←,right,→,0.9397041000047466,False,15
A028K24,42,experiment,132,↑,down,↓,0.9351777999982005,False,15
A028K24,43,experiment,72,←,left,←,0.8610115999981645,True,15
A028K24,44,experiment,108,←,left,←,0.7116984000022057,True,15
A028K24,45,experiment,168,↑,down,↓,0.7794906999988598,False,15
A028K24,46,experiment,36,↑,left,←,1.8792499000046519,False,15
A028K24,47,experiment,156,←,left,←,0.6032053000017186,True,15
A028K24,48,experiment,144,↑,down,↓,0.868091700001969,False,15
A028K24,49,experiment,84,→,left,←,0.8506037999977707,False,15
A028K24,50,experiment,108,↓,left,←,1.0429973999998765,False,15
A028K24,51,experiment,48,↑,up,↑,0.8168525000000955,True,15
A028K24,52,experiment,48,←,left,←,0.6960275000019465,True,15
A028K24,53,experiment,144,→,right,→,0.911893799995596,True,15
A028K24,54,experiment,72,↑,up,↑,0.7483933000039542,True,15
A028K24,55,experiment,132,←,left,←,0.5372710999945411,True,15
A028K24,56,experiment,48,←,left,←,1.3139972999997553,True,15
A028K24,57,experiment,84,↓,left,←,1.1157922000056715,False,15
A028K24,58,experiment,96,←,left,←,0.586192700000538,True,15
A028K24,59,experiment,144,←,left,←,1.9124288999955752,True,15
A028K24,60,experiment,72,→,left,←,0.7442561999996542,False,15
A028K24,61,experiment,168,↑,down,↓,0.8023516999965068,False,15
A028K24,62,experiment,60,→,down,↓,1.380881600001885,False,15
A028K24,63,experiment,12,↓,left,←,0.9012627999982215,False,15
A028K24,64,experiment,144,↑,down,↓,1.137433099996997,False,15
A028K24,65,experiment,108,↑,right,→,1.2959380000029341,False,15
A028K24,66,experiment,168,↑,left,←,1.0933239000005415,False,15
A028K24,67,experiment,120,↑,down,↓,0.8176231000034022,False,15
A028K24,68,experiment,156,→,right,→,0.7316471000012825,True,15
A028K24,69,experiment,156,→,right,→,0.7596552000031807,True,15
A028K24,70,experiment,36,↓,up,↑,1.2076395000040065,False,15
A028K24,71,experiment,60,↓,down,↓,0.8907214999999269,True,15
A028K24,72,experiment,96,↓,right,→,1.2137056999999913,False,15
A028K24,73,experiment,120,↓,left,←,1.908886800003529,False,15
A028K24,74,experiment,84,←,left,←,0.9644956999982242,True,15
A028K24,75,experiment,96,→,right,→,0.8705288999990444,True,15
A028K24,76,experiment,12,↑,down,↓,1.045692899999267,False,15
A028K24,77,experiment,96,→,left,←,0.9360975000017788,False,15
A028K24,78,experiment,156,↑,down,↓,0.9007262000013725,False,15
A028K24,79,experiment,12,↑,up,↑,1.2996306999993976,True,15
A028K24,80,experiment,60,←,left,←,0.7778650999971433,True,15
A028K24,81,experiment,120,←,right,→,1.3810780999992858,False,15
A028K24,82,experiment,84,→,right,→,0.8718220000009751,True,15
A028K24,83,experiment,120,↓,up,↑,1.2748133999994025,False,15
A028K24,84,experiment,24,←,left,←,0.941559300001245,True,15
A028K24,85,experiment,36,↓,down,↓,0.8099621000001207,True,15
A028K24,86,experiment,180,↓,down,↓,0.7902007000011508,True,15
A028K24,87,experiment,24,↑,down,↓,0.7904358000014327,False,15
A028K24,88,experiment,132,↓,down,↓,0.8000766999975895,True,15
A028K24,89,experiment,180,←,no_key,no_letter,-1.0,False,15
A028K24,90,experiment,24,←,left,←,0.7375298000042676,True,15
A028K24,91,experiment,180,↑,left,←,1.1043483999965247,False,15
A028K24,92,experiment,24,→,left,←,1.2994762000016635,False,15
A028K24,93,experiment,180,↑,down,↓,0.8093219000002136,False,15
A028K24,94,training,180,↓,down,↓,0.739114599993627,True,16
A028K24,95,training,156,↓,down,↓,0.9659264000001713,True,16
A028K24,96,training,96,↓,down,↓,0.7758963999949628,True,16
A028K24,97,experiment,120,←,left,←,0.7762301999973715,True,16
A028K24,98,experiment,144,→,left,←,0.7229329999972833,False,16
A028K24,99,experiment,72,←,left,←,0.5572398000003886,True,16
A028K24,100,experiment,36,→,right,→,0.810567299995455,True,16
A028K24,101,experiment,96,↓,down,↓,0.66382230000454,True,16
A028K24,102,experiment,48,→,left,←,1.1951085000036983,False,16
A028K24,103,experiment,84,↑,left,←,1.1325504999986151,False,16
A028K24,104,experiment,132,↑,up,↑,1.8561598000014783,True,16
A028K24,105,experiment,156,←,left,←,1.710585100001481,True,16
A028K24,106,experiment,144,↓,down,↓,0.7807071000061114,True,16
A028K24,107,experiment,108,←,left,←,0.746423100004904,True,16
A028K24,108,experiment,120,←,left,←,0.7100787999952445,True,16
A028K24,109,experiment,120,←,left,←,0.6557496999957948,True,16
A028K24,110,experiment,36,↑,down,↓,1.0342401000016253,False,16
A028K24,111,experiment,12,→,right,→,1.3645962000009604,True,16
A028K24,112,experiment,24,←,left,←,1.1434310999975423,True,16
A028K24,113,experiment,60,↑,right,→,0.8797124000047916,False,16
A028K24,114,experiment,108,↓,down,↓,0.9037547999978415,True,16
A028K24,115,experiment,36,←,left,←,1.10159620000195,True,16
A028K24,116,experiment,156,↑,up,↑,0.857383700000355,True,16
A028K24,117,experiment,132,←,left,←,0.5334944999995059,True,16
A028K24,118,experiment,24,↓,down,↓,0.7834951999975601,True,16
A028K24,119,experiment,132,→,right,→,0.6462831999961054,True,16
A028K24,120,experiment,168,↓,down,↓,0.8829992999962997,True,16
A028K24,121,experiment,48,↑,up,↑,0.7649663999982295,True,16
A028K24,122,experiment,24,↑,up,↑,0.6675443999993149,True,16
A028K24,123,experiment,84,↓,down,↓,0.7869120000032126,True,16
A028K24,124,experiment,144,→,right,→,0.830500199997914,True,16
A028K24,125,experiment,12,←,right,→,0.9602928000022075,False,16
A028K24,126,experiment,72,←,left,←,0.685456899998826,True,16
A028K24,127,experiment,180,↓,down,↓,1.1645205000022543,True,16
A028K24,128,experiment,36,→,left,←,0.9075116000021808,False,16
A028K24,129,experiment,60,↑,up,↑,1.0803156000038143,True,16
A028K24,130,experiment,48,→,right,→,0.8539612000022316,True,16
A028K24,131,experiment,144,←,right,→,0.863611699998728,False,16
A028K24,132,experiment,180,↑,down,↓,0.7490867999949842,False,16
A028K24,133,experiment,132,→,left,←,0.695929100002104,False,16
A028K24,134,experiment,180,↓,down,↓,0.9985854999977164,True,16
A028K24,135,experiment,108,↓,down,↓,0.6800067000003764,True,16
A028K24,136,experiment,96,←,right,→,0.9928421000004164,False,16
A028K24,137,experiment,72,↑,right,→,0.9096924000041327,False,16
A028K24,138,experiment,96,↓,up,↑,1.1053628000008757,False,16
A028K24,139,experiment,12,←,down,↓,0.8619527999981074,False,16
A028K24,140,experiment,12,↑,up,↑,1.0375308000002406,True,16
A028K24,141,experiment,156,←,down,↓,1.102840199993807,False,16
A028K24,142,experiment,84,→,down,↓,0.8785513999973773,False,16
A028K24,143,experiment,108,→,right,→,0.7023317999992287,True,16
A028K24,144,experiment,168,↓,down,↓,0.6624484999993001,True,16
A028K24,145,experiment,168,↓,down,↓,0.9451241999995545,True,16
A028K24,146,experiment,84,↓,up,↑,1.0891212999995332,False,16
A028K24,147,experiment,60,↑,up,↑,1.1425689999960014,True,16
A028K24,148,experiment,120,↓,up,↑,1.1862564000039129,False,16
A028K24,149,experiment,156,↓,down,↓,0.8940849999999045,True,16
A028K24,150,experiment,24,→,no_key,no_letter,-1.0,False,16
A028K24,151,experiment,72,←,left,←,0.6811128999979701,True,16
A028K24,152,experiment,60,←,left,←,1.0449733000059496,True,16
A028K24,153,experiment,48,↓,left,←,1.3556099999987055,False,16
A028K24,154,experiment,180,↑,up,↑,1.0994777000014437,True,16
A028K24,155,experiment,168,↑,down,↓,0.8286541999987094,False,16
A028K24,156,experiment,96,↓,down,↓,0.7368571999977576,True,16
A028K24,157,training,36,↓,down,↓,1.176360500001465,True,16
A028K24,158,training,120,↑,down,↓,0.9383765000020503,False,16
A028K24,159,training,96,→,right,→,0.7000761000017519,True,16
A028K24,160,experiment,84,→,right,→,0.5342084000003524,True,16
A028K24,161,experiment,156,→,right,→,1.00690190000023,True,16
A028K24,162,experiment,24,→,left,←,1.2981695999988005,False,16
A028K24,163,experiment,48,↑,right,→,0.920881099998951,False,16
A028K24,164,experiment,36,←,left,←,0.7385462000020198,True,16
A028K24,165,experiment,108,↓,down,↓,0.6246277999962331,True,16
A028K24,166,experiment,84,←,left,←,0.8512021999995341,True,16
A028K24,167,experiment,12,→,left,←,1.133754400005273,False,16
A028K24,168,experiment,120,→,right,→,0.6094200000006822,True,16
A028K24,169,experiment,72,←,left,←,0.6043669000064256,True,16
A028K24,170,experiment,168,→,left,←,1.523174800000561,False,16
A028K24,171,experiment,180,←,left,←,0.8030966000005719,True,16
A028K24,172,experiment,36,↓,no_key,no_letter,-1.0,False,16
A028K24,173,experiment,132,↑,down,↓,0.9481001000021934,False,16
A028K24,174,experiment,60,→,right,→,0.7600397999995039,True,16
A028K24,175,experiment,12,↑,down,↓,0.7874940000037896,False,16
A028K24,176,experiment,72,↓,down,↓,0.7051542999979574,True,16
A028K24,177,experiment,180,↑,up,↑,0.6832012000013492,True,16
A028K24,178,experiment,108,←,left,←,0.9541062999996939,True,16
A028K24,179,experiment,120,←,left,←,0.5976592999941204,True,16
A028K24,180,experiment,168,→,right,→,0.8774753000034252,True,16
A028K24,181,experiment,60,↓,down,↓,0.7266661999965436,True,16
A028K24,182,experiment,108,←,left,←,0.5938324999951874,True,16
A028K24,183,experiment,144,←,left,←,1.1311421999998856,True,16
A028K24,184,experiment,36,↓,right,→,0.8990827000015997,False,16
A028K24,185,experiment,48,←,left,←,0.6881379999977071,True,16
A028K24,186,experiment,180,→,right,→,0.6462346999978763,True,16
A028K24,187,experiment,96,↓,up,↑,1.1090565000049537,False,16
A028K24,188,experiment,72,←,left,←,0.665574500002549,True,16
A028K24,189,experiment,168,→,right,→,0.9649231000003056,True,16
A028K24,190,experiment,96,→,left,←,0.7604579000035301,False,16
A028K24,191,experiment,168,↓,down,↓,0.7456287999957567,True,16
A028K24,192,experiment,36,→,left,←,0.8130261999976938,False,16
A028K24,193,experiment,60,←,left,←,1.1667283999995561,True,16
A028K24,194,experiment,144,↑,up,↑,0.5992005000007339,True,16
A028K24,195,experiment,132,↑,up,↑,0.5888151000035577,True,16
A028K24,196,experiment,144,←,left,←,0.5581482000052347,True,16
A028K24,197,experiment,156,↑,up,↑,1.0365577000047779,True,16
A028K24,198,experiment,48,↓,down,↓,0.614519199996721,True,16
A028K24,199,experiment,180,←,left,←,1.3672521999978926,True,16
A028K24,200,experiment,156,↓,down,↓,0.7617700999981025,True,16
A028K24,201,experiment,12,↓,right,→,1.7376877999995486,False,16
A028K24,202,experiment,156,→,right,→,0.8991888999953517,True,16
A028K24,203,experiment,120,→,right,→,0.8576153999965754,True,16
A028K24,204,experiment,96,↓,down,↓,0.6746157000015955,True,16
A028K24,205,experiment,96,↓,down,↓,0.5558759999985341,True,16
A028K24,206,experiment,24,↓,right,→,0.9140022000065073,False,16
A028K24,207,experiment,120,↑,right,→,0.835853099997621,False,16
A028K24,208,experiment,144,↑,down,↓,1.185721599998942,False,16
A028K24,209,experiment,132,↑,left,←,0.7692595999978948,False,16
A028K24,210,experiment,84,←,right,→,1.0311063999979524,False,16
A028K24,211,experiment,72,←,left,←,0.8009239000020898,True,16
A028K24,212,experiment,12,↑,down,↓,1.1908805999992182,False,16
A028K24,213,experiment,60,→,left,←,0.7863402000002679,False,16
A028K24,214,experiment,84,←,left,←,0.5367632999987109,True,16
A028K24,215,experiment,24,→,right,→,0.7382230000002892,True,16
A028K24,216,experiment,24,←,left,←,0.9530656999995699,True,16
A028K24,217,experiment,48,↓,down,↓,0.7225768999996944,True,16
A028K24,218,experiment,132,↑,up,↑,0.7545066000020597,True,16
A028K24,219,experiment,108,↑,up,↑,0.7566595999960555,True,16
A028K24,220,training,168,↓,down,↓,1.0239321000044583,True,16
A028K24,221,training,144,←,left,←,0.7296734999981709,True,16
A028K24,222,training,48,↓,down,↓,0.7750522999995155,True,16
A028K24,223,experiment,84,←,left,←,0.7638595000025816,True,16
A028K24,224,experiment,156,→,left,←,0.7240103999938583,False,16
A028K24,225,experiment,48,→,right,→,1.3349471000037738,True,16
A028K24,226,experiment,144,←,left,←,0.6049765999996453,True,16
A028K24,227,experiment,84,←,left,←,1.3117075000045588,True,16
A028K24,228,experiment,108,↑,up,↑,1.1118465999970795,True,16
A028K24,229,experiment,156,←,right,→,1.11554790000082,False,16
A028K24,230,experiment,108,→,right,→,0.8799123999997391,True,16
A028K24,231,experiment,120,↓,down,↓,0.8466445000012754,True,16
A028K24,232,experiment,168,←,left,←,0.7916101000009803,True,16
A028K24,233,experiment,12,↑,right,→,1.0540523999952711,False,16
A028K24,234,experiment,48,↓,down,↓,0.6709430999981123,True,16
A028K24,235,experiment,72,↑,down,↓,0.7632783000008203,False,16
A028K24,236,experiment,168,↓,down,↓,0.8019462000011117,True,16
A028K24,237,experiment,132,↑,up,↑,0.8288389000008465,True,16
A028K24,238,experiment,48,↑,down,↓,0.7229567999966093,False,16
A028K24,239,experiment,156,↑,down,↓,0.684165300001041,False,16
A028K24,240,experiment,24,→,down,↓,0.9342268999971566,False,16
A028K24,241,experiment,132,→,right,→,0.761172099999385,True,16
A028K24,242,experiment,96,→,right,→,1.1958863000036217,True,16
A028K24,243,experiment,144,↓,down,↓,0.5895971999998437,True,16
A028K24,244,experiment,84,↑,up,↑,0.6438563000046997,True,16
A028K24,245,experiment,84,←,right,→,0.8166455000027781,False,16
A028K24,246,experiment,132,↑,up,↑,0.8130115999956615,True,16
A028K24,247,experiment,132,↑,up,↑,0.7685296999989077,True,16
A028K24,248,experiment,180,↓,right,→,0.8910838000010699,False,16
A028K24,249,experiment,108,←,right,→,0.6550396000020555,False,16
A028K24,250,experiment,156,↑,down,↓,1.0609015000009094,False,16
A028K24,251,experiment,180,↑,up,↑,0.621059699995385,True,16
A028K24,252,experiment,24,→,left,←,0.6789721000022837,False,16
A028K24,253,experiment,180,↓,down,↓,0.6563319999986561,True,16
A028K24,254,experiment,144,←,left,←,0.6617871999987983,True,16
A028K24,255,experiment,36,→,right,→,0.9097763000027044,True,16
A028K24,256,experiment,12,↓,down,↓,0.8243718999947305,True,16
A028K24,257,experiment,72,↑,up,↑,0.6727604999978212,True,16
A028K24,258,experiment,168,←,left,←,0.6422875999996904,True,16
A028K24,259,experiment,60,↑,down,↓,0.7442775999952573,False,16
A028K24,260,experiment,96,←,left,←,0.7777424000014435,True,16
A028K24,261,experiment,72,↑,up,↑,0.8117598999961047,True,16
A028K24,262,experiment,120,→,right,→,0.6706709999998566,True,16
A028K24,263,experiment,120,←,right,→,1.6743558000016492,False,16
A028K24,264,experiment,36,←,left,←,0.7469196999954875,True,16
A028K24,265,experiment,168,→,right,→,0.7680655000003753,True,16
A028K24,266,experiment,180,←,left,←,0.6053011000039987,True,16
A028K24,267,experiment,144,↓,down,↓,0.7753401000009035,True,16
A028K24,268,experiment,36,↓,down,↓,1.0101761000041733,True,16
A028K24,269,experiment,24,↑,up,↑,0.7965908000041964,True,16
A028K24,270,experiment,96,↓,left,←,1.4568417999980738,False,16
A028K24,271,experiment,108,←,left,←,0.7906168999979855,True,16
A028K24,272,experiment,60,←,left,←,0.9811954000033438,True,16
A028K24,273,experiment,72,←,right,→,0.7863948999947752,False,16
A028K24,274,experiment,24,←,left,←,0.9118250999963493,True,16
A028K24,275,experiment,48,↑,down,↓,0.8253882999997586,False,16
A028K24,276,experiment,60,←,left,←,0.8342139000014868,True,16
A028K24,277,experiment,12,↓,down,↓,0.8032412999964436,True,16
A028K24,278,experiment,60,←,left,←,0.8542728999964311,True,16
A028K24,279,experiment,12,↑,up,↑,0.675841299998865,True,16
A028K24,280,experiment,36,→,right,→,0.791854000002786,True,16
A028K24,281,experiment,96,←,left,←,0.7638288000016473,True,16
A028K24,282,experiment,120,↑,down,↓,0.7599002000060864,False,16
A028K24,283,training,24,↓,down,↓,1.4778185999966809,True,16
A028K24,284,training,12,←,down,↓,0.7696094999992056,False,16
A028K24,285,training,168,→,left,←,0.9712456999986898,False,16
A028K24,286,experiment,180,→,right,→,0.7738069999977597,True,16
A028K24,287,experiment,72,→,left,←,0.7772070999999414,False,16
A028K24,288,experiment,24,→,right,→,0.9279131000002963,True,16
A028K24,289,experiment,96,↓,down,↓,0.6845253999999841,True,16
A028K24,290,experiment,12,→,right,→,1.1195872000025702,True,16
A028K24,291,experiment,48,↑,up,↑,0.7957479000033345,True,16
A028K24,292,experiment,132,→,down,↓,0.7791206000038073,False,16
A028K24,293,experiment,180,↓,down,↓,0.717021600001317,True,16
A028K24,294,experiment,144,↑,down,↓,0.6729790999961551,False,16
A028K24,295,experiment,24,←,left,←,0.6932176000045729,True,16
A028K24,296,experiment,12,←,right,→,0.8426546999980928,False,16
A028K24,297,experiment,96,↓,down,↓,0.6514890999969793,True,16
A028K24,298,experiment,156,←,left,←,0.8147657000008621,True,16
A028K24,299,experiment,96,←,left,←,0.6456294000017806,True,16
A028K24,300,experiment,156,←,left,←,0.60612140000012,True,16
A028K24,301,experiment,48,←,left,←,0.8932886000038707,True,16
A028K24,302,experiment,132,↑,up,↑,0.8194672000026912,True,16
A028K24,303,experiment,120,↓,down,↓,0.760345500006224,True,16
A028K24,304,experiment,180,→,right,→,0.9168341999975382,True,16
A028K24,305,experiment,48,↑,down,↓,0.6462735999957658,False,16
A028K24,306,experiment,120,↓,down,↓,0.683702499998617,True,16
A028K24,307,experiment,108,↑,down,↓,0.6504400000048918,False,16
A028K24,308,experiment,72,→,right,→,0.922232900004019,True,16
A028K24,309,experiment,36,↑,left,←,1.025338900006318,False,16
A028K24,310,experiment,12,↑,up,↑,1.1401065999962157,True,16
A028K24,311,experiment,108,↑,up,↑,0.8109015000009094,True,16
A028K24,312,experiment,144,↓,down,↓,0.6408028999940143,True,16
A028K24,313,experiment,36,→,up,↑,1.2563089999966905,False,16
A028K24,314,experiment,84,→,left,←,0.7585042000064277,False,16
A028K24,315,experiment,12,←,no_key,no_letter,-1.0,False,16
A028K24,316,experiment,60,→,left,←,0.9083251000047312,False,16
A028K24,317,experiment,60,↑,down,↓,0.7874034999986179,False,16
A028K24,318,experiment,132,←,left,←,0.835291800001869,True,16
A028K24,319,experiment,156,→,up,↑,0.733782199997222,False,16
A028K24,320,experiment,120,←,left,←,0.9411318999991636,True,16
A028K24,321,experiment,24,→,right,→,1.3587025999950129,True,16
A028K24,322,experiment,84,→,right,→,1.1487428000036743,True,16
A028K24,323,experiment,168,↑,up,↑,0.7278287000008277,True,16
A028K24,324,experiment,60,→,right,→,0.9072604999964824,True,16
A028K24,325,experiment,168,→,right,→,0.8697804000039469,True,16
A028K24,326,experiment,144,→,up,↑,1.0083217000064906,False,16
A028K24,327,experiment,72,↓,down,↓,0.7291055000023334,True,16
A028K24,328,experiment,96,←,up,↑,1.2356718000010005,False,16
A028K24,329,experiment,180,↓,down,↓,0.7229751999984728,True,16
A028K24,330,experiment,72,↑,up,↑,0.7911239999957616,True,16
A028K24,331,experiment,36,←,left,←,1.3744154000014532,True,16
A028K24,332,experiment,108,→,no_key,no_letter,-1.0,False,16
A028K24,333,experiment,120,↑,up,↑,0.7396727000013925,True,16
A028K24,334,experiment,132,←,left,←,0.73637929999677,True,16
A028K24,335,experiment,48,→,left,←,0.6454312999994727,False,16
A028K24,336,experiment,108,←,left,←,0.5769453000029898,True,16
A028K24,337,experiment,144,↓,down,↓,0.7318911999973352,True,16
A028K24,338,experiment,84,←,right,→,0.7801063000006252,False,16
A028K24,339,experiment,168,→,left,←,0.7002530999961891,False,16
A028K24,340,experiment,36,↓,down,↓,0.7561805000004824,True,16
A028K24,341,experiment,156,↓,right,→,0.8148271999962162,False,16
A028K24,342,experiment,168,→,right,→,0.6904963999986649,True,16
A028K24,343,experiment,24,↓,down,↓,0.6774282000042149,True,16
A028K24,344,experiment,60,←,left,←,0.7261454000035883,True,16
A028K24,345,experiment,84,←,down,↓,0.9875663999991957,False,16
A028K24,346,training,84,→,right,→,0.7903323999998975,True,16
A028K24,347,training,60,→,left,←,1.1079511000061757,False,16
A028K24,348,training,72,↑,down,↓,0.8576646000001347,False,16
A028K24,349,experiment,144,↓,down,↓,0.6069338000015705,True,16
A028K24,350,experiment,168,→,right,→,0.6764236000017263,True,16
A028K24,351,experiment,120,→,left,←,1.6709262000003946,False,16
A028K24,352,experiment,72,→,down,↓,0.6769589999967138,False,16
A028K24,353,experiment,108,↓,down,↓,0.5767414000001736,True,16
A028K24,354,experiment,36,←,left,←,0.7385452999951667,True,16
A028K24,355,experiment,84,↑,left,←,1.2930955999981961,False,16
A028K24,356,experiment,48,←,left,←,1.4155521000066074,True,16
A028K24,357,experiment,12,↓,down,↓,0.6585890999995172,True,16
A028K24,358,experiment,132,↓,down,↓,0.6280622999984189,True,16
A028K24,359,experiment,108,→,right,→,1.6409290000010515,True,16
A028K24,360,experiment,60,↓,down,↓,0.5490904999969644,True,16
A028K24,361,experiment,84,→,right,→,0.7344315999944229,True,16
A028K24,362,experiment,36,←,left,←,0.6903862000035588,True,16
A028K24,363,experiment,24,←,left,←,0.6796135000040522,True,16
A028K24,364,experiment,72,↑,down,↓,0.7571386999989045,False,16
A028K24,365,experiment,12,↑,up,↑,1.0246483000009903,True,16
A028K24,366,experiment,24,←,left,←,0.8517980999968131,True,16
A028K24,367,experiment,96,↓,down,↓,0.6251384999995935,True,16
A028K24,368,experiment,156,↓,right,→,0.9245254000052228,False,16
A028K24,369,experiment,96,↑,down,↓,0.6594325999976718,False,16
A028K24,370,experiment,108,→,right,→,0.701426799998444,True,16
A028K24,371,experiment,96,←,left,←,0.7379839999994147,True,16
A028K24,372,experiment,144,↑,left,←,1.4681991999968886,False,16
A028K24,373,experiment,48,↑,up,↑,1.1442881999973906,True,16
A028K24,374,experiment,60,↑,up,↑,0.7917858000000706,True,16
A028K24,375,experiment,144,↑,up,↑,0.7582487999970908,True,16
A028K24,376,experiment,168,↓,down,↓,0.720486099999107,True,16
A028K24,377,experiment,36,↑,down,↓,0.7249245999992127,False,16
A028K24,378,experiment,132,↓,down,↓,0.8527758999989601,True,16
A028K24,379,experiment,60,↑,down,↓,0.6653023999970173,False,16
A028K24,380,experiment,60,↓,down,↓,0.7152671000003465,True,16
A028K24,381,experiment,36,↓,down,↓,0.6855007000049227,True,16
A028K24,382,experiment,24,←,left,←,0.6630664999975124,True,16
A028K24,383,experiment,120,↓,down,↓,0.6556971999962116,True,16
A028K24,384,experiment,180,←,left,←,1.0225836999961757,True,16
A028K24,385,experiment,12,→,right,→,1.5804785000000265,True,16
A028K24,386,experiment,132,↑,down,↓,0.7011321000027237,False,16
A028K24,387,experiment,180,←,left,←,0.6829563999999664,True,16
A028K24,388,experiment,156,↑,left,←,1.2499692999990657,False,16
A028K24,389,experiment,84,↑,up,↑,0.7746265999958268,True,16
A028K24,390,experiment,132,→,right,→,0.934105799999088,True,16
A028K24,391,experiment,180,→,down,↓,0.9959038000015425,False,16
A028K24,392,experiment,72,←,left,←,0.8207939000058104,True,16
A028K24,393,experiment,24,→,right,→,1.3480792000045767,True,16
A028K24,394,experiment,168,↓,up,↑,0.9576723999998649,False,16
A028K24,395,experiment,144,→,right,→,0.8710995000001276,True,16
A028K24,396,experiment,84,↓,down,↓,0.6403986000004807,True,16
A028K24,397,experiment,168,↑,up,↑,0.7046119000006001,True,16
A028K24,398,experiment,96,↓,right,→,1.3247684000016307,False,16
A028K24,399,experiment,120,→,up,↑,0.7081289999987348,False,16
A028K24,400,experiment,120,←,left,←,1.0114265000011073,True,16
A028K24,401,experiment,12,↓,down,↓,0.8456824999957462,True,16
A028K24,402,experiment,72,↑,right,→,0.8429901999988942,False,16
A028K24,403,experiment,48,↓,down,↓,0.7603290999977617,True,16
A028K24,404,experiment,180,→,right,→,1.417940900006215,True,16
A028K24,405,experiment,48,↑,right,→,0.7123535999999149,False,16
A028K24,406,experiment,108,←,left,←,0.8413832999940496,True,16
A028K24,407,experiment,156,↓,down,↓,0.7188515000016196,True,16
A028K24,408,experiment,156,↑,up,↑,0.5907956000010017,True,16
A028K24,409,training,168,←,left,←,0.6226037999949767,True,16
A028K24,410,training,144,→,right,→,0.7651569000008749,True,16
A028K24,411,training,120,→,right,→,0.691305199994531,True,16
A028K24,412,experiment,12,←,left,←,0.9333359000011114,True,16
A028K24,413,experiment,108,↑,up,↑,0.7016969999967841,True,16
A028K24,414,experiment,24,←,right,→,0.9850309000030393,False,16
A028K24,415,experiment,120,→,right,→,1.3241160999968997,True,16
A028K24,416,experiment,60,→,down,↓,0.8396643000014592,False,16
A028K24,417,experiment,180,←,right,→,0.8357512000002316,False,16
A028K24,418,experiment,132,←,left,←,0.781178599994746,True,16
A028K24,419,experiment,108,→,up,↑,0.9786825999981374,False,16
A028K24,420,experiment,168,↓,up,↑,0.9055903000044054,False,16
A028K24,421,experiment,180,↑,down,↓,0.892178199996124,False,16
A028K24,422,experiment,156,↑,down,↓,0.7142499000037787,False,16
A028K24,423,experiment,48,↑,up,↑,0.5650231999970856,True,16
A028K24,424,experiment,144,↓,down,↓,0.657360700002755,True,16
A028K24,425,experiment,72,↓,down,↓,0.6939977000001818,True,16
A028K24,426,experiment,48,←,left,←,0.6500912999981665,True,16
A028K24,427,experiment,36,↑,down,↓,0.734425900001952,False,16
A028K24,428,experiment,144,↓,right,→,0.6571796999996877,False,16
A028K24,429,experiment,84,←,left,←,0.5979518000021926,True,16
A028K24,430,experiment,96,↓,down,↓,0.7090358999994351,True,16
A028K24,431,experiment,168,←,right,→,0.8573115000035614,False,16
A028K24,432,experiment,144,↓,down,↓,0.6408188999994309,True,16
A028K24,433,experiment,156,→,left,←,0.6554675000006682,False,16
A028K24,434,experiment,12,↑,up,↑,0.6802272999993875,True,16
A028K24,435,experiment,120,↑,down,↓,0.7113680000038585,False,16
A028K24,436,experiment,108,←,left,←,0.6518397999971057,True,16
A028K24,437,experiment,180,→,left,←,0.9163071000002674,False,16
A028K24,438,experiment,60,↓,down,↓,0.6811940999978106,True,16
A028K24,439,experiment,144,↑,up,↑,0.5514548999999533,True,16
A028K24,440,experiment,60,←,left,←,0.7362943000043742,True,16
A028K24,441,experiment,84,↑,up,↑,0.7441265000015846,True,16
A028K24,442,experiment,156,←,left,←,1.3137540000025183,True,16
A028K24,443,experiment,132,←,up,↑,0.7457382000065991,False,16
A028K24,444,experiment,84,↓,left,←,0.9096796000012546,False,16
A028K24,445,experiment,96,↓,down,↓,0.7454027999992832,True,16
A028K24,446,experiment,48,←,left,←,0.707980300001509,True,16
A028K24,447,experiment,96,→,down,↓,1.3599739000055706,False,16
A028K24,448,experiment,36,↓,down,↓,1.000164400000358,True,16
A028K24,449,experiment,96,↑,left,←,0.9497855000008713,False,16
A028K24,450,experiment,24,↓,up,↑,0.6902247999969404,False,16
A028K24,451,experiment,156,↓,down,↓,0.8424951999986661,True,16
A028K24,452,experiment,132,↓,down,↓,1.1320636000018567,True,16
A028K24,453,experiment,72,↓,right,→,1.0068639000019175,False,16
A028K24,454,experiment,84,←,right,→,1.1690024999988964,False,16
A028K24,455,experiment,36,↓,left,←,1.0548797000010381,False,16
A028K24,456,experiment,24,↓,down,↓,1.2845321999993757,True,16
A028K24,457,experiment,168,→,right,→,0.7330330000040703,True,16
A028K24,458,experiment,12,↑,up,↑,0.7651337999996031,True,16
A028K24,459,experiment,36,←,left,←,0.7879252000057022,True,16
A028K24,460,experiment,72,↑,up,↑,0.6115910000007716,True,16
A028K24,461,experiment,132,←,left,←,0.6319903999974485,True,16
A028K24,462,experiment,120,←,left,←,0.7797010999929626,True,16
A028K24,463,experiment,180,↓,down,↓,0.784609599999385,True,16
A028K24,464,experiment,24,←,left,←,0.7690377000035369,True,16
A028K24,465,experiment,108,↑,down,↓,0.8532717999987653,False,16
A028K24,466,experiment,72,↑,up,↑,0.6733005000060075,True,16
A028K24,467,experiment,168,→,right,→,0.7980457999947248,True,16
A028K24,468,experiment,60,↓,down,↓,0.6129431999943336,True,16
A028K24,469,experiment,12,→,left,←,0.9878005999999004,False,16
A028K24,470,experiment,120,↓,down,↓,0.7286616999990656,True,16
A028K24,471,experiment,48,→,left,←,1.210796899998968,False,16
A028K24,472,training,180,↑,up,↑,1.1363034000023617,True,16
A028K24,473,training,156,↑,down,↓,0.9741337999948882,False,16
A028K24,474,training,108,→,right,→,0.9675399000043399,True,16
A028K24,475,experiment,156,→,left,←,0.8794835000007879,False,16
A028K24,476,experiment,60,←,left,←,0.651228100003209,True,16
A028K24,477,experiment,120,←,left,←,1.4393586000005598,True,16
A028K24,478,experiment,24,→,right,→,0.7603467000008095,True,16
A028K24,479,experiment,12,→,right,→,0.7622083000023849,True,16
A028K24,480,experiment,96,↓,down,↓,0.7421205999999074,True,16
A028K24,481,experiment,156,→,right,→,0.8657450999962748,True,16
A028K24,482,experiment,60,↓,down,↓,0.686946200003149,True,16
A028K24,483,experiment,72,↓,down,↓,0.7102785000024596,True,16
A028K24,484,experiment,36,↓,down,↓,0.866315699997358,True,16
A028K24,485,experiment,36,↓,down,↓,0.5827097000001231,True,16
A028K24,486,experiment,108,→,right,→,0.6982225999963703,True,16
A028K24,487,experiment,36,↓,down,↓,0.5594805000000633,True,16
A028K24,488,experiment,36,↓,down,↓,0.6076705000014044,True,16
A028K24,489,experiment,168,←,left,←,0.6651382999989437,True,16
A028K24,490,experiment,60,↑,up,↑,0.6800747999950545,True,16
A028K24,491,experiment,48,→,right,→,0.6765719000031822,True,16
A028K24,492,experiment,168,→,right,→,0.6094689000019571,True,16
A028K24,493,experiment,96,←,left,←,0.5594969000012497,True,16
A028K24,494,experiment,24,←,left,←,0.5539770000032149,True,16
A028K24,495,experiment,60,↑,up,↑,0.5099009999976261,True,16
A028K24,496,experiment,180,↑,up,↑,0.805291099997703,True,16
A028K24,497,experiment,120,→,right,→,0.604668899999524,True,16
A028K24,498,experiment,48,↑,up,↑,0.8026046000013594,True,16
A028K24,499,experiment,12,←,right,→,0.8598416999957408,False,16
A028K24,500,experiment,48,↓,down,↓,0.5923401999971247,True,16
A028K24,501,experiment,84,↑,up,↑,1.151523400003498,True,16
A028K24,502,experiment,132,←,left,←,0.6105858000009903,True,16
A028K24,503,experiment,108,→,right,→,0.6580589000004693,True,16
A028K24,504,experiment,156,↑,up,↑,0.5365067000020645,True,16
A028K24,505,experiment,144,↓,up,↑,0.7104978999996092,False,16
A028K24,506,experiment,144,↓,left,←,0.7495151999974041,False,16
A028K24,507,experiment,12,→,left,←,1.2284236999985296,False,16
A028K24,508,experiment,156,→,left,←,0.7637487000029068,False,16
A028K24,509,experiment,132,↓,down,↓,0.5767090000008466,True,16
A028K24,510,experiment,168,←,left,←,0.5182141000041156,True,16
A028K24,511,experiment,120,←,down,↓,0.8453799999988405,False,16
A028K24,512,experiment,168,→,right,→,0.6659686000057263,True,16
A028K24,513,experiment,84,→,right,→,0.516389700002037,True,16
A028K24,514,experiment,180,↓,down,↓,0.6866382000007434,True,16
A028K24,515,experiment,84,↑,up,↑,0.5931914999964647,True,16
A028K24,516,experiment,108,←,right,→,0.7609300999974948,False,16
A028K24,517,experiment,72,↓,down,↓,0.665312899996934,True,16
A028K24,518,experiment,180,↑,up,↑,0.525327199997264,True,16
A028K24,519,experiment,84,←,left,←,0.6677856000023894,True,16
A028K24,520,experiment,108,←,right,→,0.7571817000061856,False,16
A028K24,521,experiment,180,↓,up,↑,0.9434993999966537,False,16
A028K24,522,experiment,72,←,left,←,0.6799686000013025,True,16
A028K24,523,experiment,24,→,right,→,1.2170845000000554,True,16
A028K24,524,experiment,96,←,right,→,1.4509755999970366,False,16
A028K24,525,experiment,120,↑,down,↓,0.7938632000004873,False,16
A028K24,526,experiment,72,→,right,→,0.7436137999975472,True,16
A028K24,527,experiment,48,↓,up,↑,0.20137460000114515,False,16
A028K24,528,experiment,132,←,left,←,0.6201005000039004,True,16
A028K24,529,experiment,96,↑,down,↓,0.8642684999940684,False,16
A028K24,530,experiment,12,↑,up,↑,0.6602525000052992,True,16
A028K24,531,experiment,132,↑,up,↑,0.8124821000019438,True,16
A028K24,532,experiment,144,→,right,→,0.8458696999950917,True,16
A028K24,533,experiment,24,↓,left,←,0.8333294999974896,False,16
A028K24,534,experiment,144,←,left,←,0.5486678000015672,True,16
A028K24,535,training,72,→,left,←,1.294026199997461,False,16
A028K24,536,training,132,↑,down,↓,0.6502346999986912,False,16
A028K24,537,training,96,←,left,←,0.4758631000004243,True,16
A028K24,538,experiment,132,→,right,→,0.5258752999943681,True,16
A028K24,539,experiment,180,→,right,→,0.5527252000028966,True,16
A028K24,540,experiment,84,↑,up,↑,0.8152456000025268,True,16
A028K24,541,experiment,108,→,right,→,0.5525559999950929,True,16
A028K24,542,experiment,96,←,left,←,0.5206065999955172,True,16
A028K24,543,experiment,36,→,right,→,0.585143500000413,True,16
A028K24,544,experiment,168,↓,down,↓,0.5985234999970999,True,16
A028K24,545,experiment,108,↓,down,↓,0.6841618000034941,True,16
A028K24,546,experiment,96,←,down,↓,0.7913311000011163,False,16
A028K24,547,experiment,36,←,left,←,0.7556884000005084,True,16
A028K24,548,experiment,120,↓,down,↓,0.7241654999961611,True,16
A028K24,549,experiment,24,→,right,→,0.8033740000028047,True,16
A028K24,550,experiment,12,→,right,→,1.3088966999930562,True,16
A028K24,551,experiment,72,←,left,←,0.664311300002737,True,16
A028K24,552,experiment,96,↓,right,→,0.880313900001056,False,16
A028K24,553,experiment,132,←,left,←,0.6819532000008621,True,16
A028K24,554,experiment,48,↑,down,↓,0.6525129999936325,False,16
A028K24,555,experiment,156,→,right,→,0.8164093000013963,True,16
A028K24,556,experiment,144,↑,up,↑,0.544847999997728,True,16
A028K24,557,experiment,156,↑,right,→,0.740597500000149,False,16
A028K24,558,experiment,36,→,left,←,1.3725701000003028,False,16
A028K24,559,experiment,180,↑,up,↑,0.7026868000029936,True,16
A028K24,560,experiment,180,→,right,→,1.1354453999956604,True,16
A028K24,561,experiment,24,↑,left,←,1.1114480000032927,False,16
A028K24,562,experiment,144,←,left,←,0.666559999997844,True,16
A028K24,563,experiment,84,→,left,←,0.6849961999978404,False,16
A028K24,564,experiment,72,↑,up,↑,0.6889544000005117,True,16
A028K24,565,experiment,60,←,right,→,1.3607293000022764,False,16
A028K24,566,experiment,180,↑,up,↑,0.6078620000043884,True,16
A028K24,567,experiment,156,↓,down,↓,0.7463731999960146,True,16
A028K24,568,experiment,144,↓,down,↓,0.6419504000004963,True,16
A028K24,569,experiment,72,↓,left,←,0.8296657999962918,False,16
A028K24,570,experiment,72,↑,up,↑,0.6841349000023911,True,16
A028K24,571,experiment,132,↓,down,↓,0.8378698999949847,True,16
A028K24,572,experiment,24,→,down,↓,0.8695708000013838,False,16
A028K24,573,experiment,156,↓,down,↓,0.7199802000031923,True,16
A028K24,574,experiment,48,↓,down,↓,0.7404399999941234,True,16
A028K24,575,experiment,12,↓,left,←,0.9274558000033721,False,16
A028K24,576,experiment,168,→,right,→,0.7132735999985016,True,16
A028K24,577,experiment,168,↓,down,↓,0.6558949999962351,True,16
A028K24,578,experiment,60,↑,up,↑,0.616191400004027,True,16
A028K24,579,experiment,108,↓,down,↓,0.5194750000009662,True,16
A028K24,580,experiment,144,↑,left,←,0.8641764999993029,False,16
A028K24,581,experiment,120,↑,left,←,1.3699554999984684,False,16
A028K24,582,experiment,36,←,left,←,0.7417649999988498,True,16
A028K24,583,experiment,120,↓,down,↓,0.7232131000055233,True,16
A028K24,584,experiment,84,→,right,→,1.1492272000032244,True,16
A028K24,585,experiment,108,←,right,→,0.9165006999974139,False,16
A028K24,586,experiment,60,↑,right,→,1.7234029000028386,False,16
A028K24,587,experiment,12,↓,down,↓,0.6594101000009687,True,16
A028K24,588,experiment,120,→,right,→,0.5845587000003434,True,16
A028K24,589,experiment,12,↓,right,→,0.9684790000028443,False,16
A028K24,590,experiment,96,↓,down,↓,0.5008638999934192,True,16
A028K24,591,experiment,48,←,left,←,0.5731613000025391,True,16
A028K24,592,experiment,168,←,left,←,0.506420400000934,True,16
A028K24,593,experiment,48,←,left,←,0.9636540000064997,True,16
A028K24,594,experiment,24,↓,down,↓,0.6617945000034524,True,16
A028K24,595,experiment,132,→,right,→,0.5544093999997131,True,16
A028K24,596,experiment,84,↑,down,↓,0.6401256999961333,False,16
A028K24,597,experiment,60,↑,up,↑,0.5901729999968666,True,16
A028K24,598,training,48,→,right,→,0.8515423999997438,True,16
A028K24,599,training,180,↑,up,↑,0.5821880000003148,True,16
A028K24,600,training,72,↑,up,↑,1.291625899997598,True,16
A028K24,601,experiment,120,←,left,←,1.1490384999997332,True,16
A028K24,602,experiment,180,→,left,←,0.9124049000020023,False,16
A028K24,603,experiment,24,↑,left,←,0.9917477000053623,False,16
A028K24,604,experiment,180,→,left,←,1.1734469000002719,False,16
A028K24,605,experiment,96,→,left,←,1.110298799998418,False,16
A028K24,606,experiment,60,↑,up,↑,0.7095657000027131,True,16
A028K24,607,experiment,108,↑,up,↑,0.6235793999949237,True,16
A028K24,608,experiment,48,→,right,→,0.8173215999995591,True,16
A028K24,609,experiment,132,↓,down,↓,0.8304057000059402,True,16
A028K24,610,experiment,48,→,right,→,0.7822008000002825,True,16
A028K24,611,experiment,144,→,left,←,0.7677925000025425,False,16
A028K24,612,experiment,144,←,right,→,1.412814499999513,False,16
A028K24,613,experiment,48,←,right,→,1.527650600000925,False,16
A028K24,614,experiment,72,→,left,←,0.6440478000004077,False,16
A028K24,615,experiment,24,↓,up,↑,0.7110437000010279,False,16
A028K24,616,experiment,72,→,right,→,0.9641297000052873,True,16
A028K24,617,experiment,120,←,left,←,0.6567304999989574,True,16
A028K24,618,experiment,60,→,left,←,0.6539150000025984,False,16
A028K24,619,experiment,108,↓,down,↓,0.9133990999980597,True,16
A028K24,620,experiment,180,→,left,←,1.455199399999401,False,16
A028K24,621,experiment,156,↑,right,→,0.8239830000020447,False,16
A028K24,622,experiment,12,←,left,←,0.6770606999998563,True,16
A028K24,623,experiment,156,←,left,←,0.7339972000045236,True,16
A028K24,624,experiment,84,↑,left,←,1.0677011000007042,False,16
A028K24,625,experiment,24,↓,down,↓,0.7937568999986979,True,16
A028K24,626,experiment,12,←,right,→,0.7563499000025331,False,16
A028K24,627,experiment,120,↑,up,↑,0.5500832000034279,True,16
A028K24,628,experiment,168,↑,up,↑,0.4815817999988212,True,16
A028K24,629,experiment,144,→,right,→,1.5575106000032974,True,16
A028K24,630,experiment,84,↓,down,↓,0.5748401999953785,True,16
A028K24,631,experiment,96,↓,down,↓,0.5491070999996737,True,16
A028K24,632,experiment,36,↓,right,→,0.8082265999983065,False,16
A028K24,633,experiment,132,←,left,←,0.7568804999973509,True,16
A028K24,634,experiment,168,↑,up,↑,0.5154075999962515,True,16
A028K24,635,experiment,24,↓,down,↓,0.760432099996251,True,16
A028K24,636,experiment,48,↑,down,↓,1.070625200001814,False,16
A028K24,637,experiment,156,←,right,→,0.9810023999962141,False,16
A028K24,638,experiment,72,↓,down,↓,0.6669585999989067,True,16
A028K24,639,experiment,96,←,left,←,0.6195614999960526,True,16
A028K24,640,experiment,168,←,left,←,1.127302699998836,True,16
A028K24,641,experiment,36,←,down,↓,0.6620742000013706,False,16
A028K24,642,experiment,84,→,right,→,0.6335434000066016,True,16
A028K24,643,experiment,144,←,left,←,0.7447255000006407,True,16
A028K24,644,experiment,132,↓,down,↓,0.5847469000000274,True,16
A028K24,645,experiment,180,↑,down,↓,0.8266863000026206,False,16
A028K24,646,experiment,60,↑,left,←,0.8067484999992303,False,16
A028K24,647,experiment,84,↓,down,↓,0.5766481000027852,True,16
A028K24,648,experiment,12,↑,up,↑,1.025981300001149,True,16
A028K24,649,experiment,36,→,right,→,0.9392538000029163,True,16
A028K24,650,experiment,96,↑,down,↓,1.3492256999961683,False,16
A028K24,651,experiment,168,↑,up,↑,0.687619900003483,True,16
A028K24,652,experiment,156,↑,right,→,1.0044070000003558,False,16
A028K24,653,experiment,108,↑,up,↑,0.5849606000047061,True,16
A028K24,654,experiment,108,←,left,←,0.6780943000048865,True,16
A028K24,655,experiment,120,←,left,←,0.7093101999998908,True,16
A028K24,656,experiment,60,←,left,←,0.6508987999986857,True,16
A028K24,657,experiment,36,←,left,←,0.8122723000051337,True,16
A028K24,658,experiment,12,↓,down,↓,0.9481142000004184,True,16
A028K24,659,experiment,132,→,left,←,0.6182480999996187,False,16
A028K24,660,experiment,72,↑,left,←,0.8093922000043676,False,16
A028K24,661,training,120,←,down,↓,1.0677966000002925,False,16
A028K24,662,training,84,→,right,→,0.6874809000000823,True,16
A028K24,663,training,144,↑,up,↑,0.5595176999995601,True,16
A028K24,664,experiment,180,←,left,←,0.6370825999983936,True,16
A028K24,665,experiment,72,→,right,→,1.2188710999980685,True,16
A028K24,666,experiment,156,↓,down,↓,0.6486325000005309,True,16
A028K24,667,experiment,156,→,left,←,0.6002213999963715,False,16
A028K24,668,experiment,180,←,left,←,0.5676743000003626,True,16
A028K24,669,experiment,60,↑,down,↓,0.658962599998631,False,16
A028K24,670,experiment,144,↓,down,↓,0.6277714999960153,True,16
A028K24,671,experiment,120,→,left,←,0.7238933999979054,False,16
A028K24,672,experiment,132,←,down,↓,0.7434860000066692,False,16
A028K24,673,experiment,180,↓,down,↓,0.63655490000383,True,16
A028K24,674,experiment,108,←,right,→,0.9568871000010404,False,16
A028K24,675,experiment,108,→,left,←,0.7702935999986948,False,16
A028K24,676,experiment,48,↑,up,↑,0.7321621000010055,True,16
A028K24,677,experiment,12,←,left,←,0.5526697000022978,True,16
A028K24,678,experiment,72,↑,down,↓,0.7149907999992138,False,16
A028K24,679,experiment,60,↑,down,↓,0.5989664999942761,False,16
A028K24,680,experiment,12,→,right,→,0.9998401999982889,True,16
A028K24,681,experiment,84,→,right,→,0.9387217000039527,True,16
A028K24,682,experiment,96,↓,down,↓,0.5845761999953538,True,16
A028K24,683,experiment,168,→,right,→,0.7216244000010192,True,16
A028K24,684,experiment,36,→,right,→,0.9753514999974868,True,16
A028K24,685,experiment,36,→,right,→,0.6060442000016337,True,16
A028K24,686,experiment,120,↓,down,↓,0.7453984999956447,True,16
A028K24,687,experiment,144,↓,down,↓,0.6013975999958348,True,16
A028K24,688,experiment,48,↓,down,↓,0.6242406999954255,True,16
A028K24,689,experiment,60,←,right,→,0.8817033999948762,False,16
A028K24,690,experiment,72,↓,right,→,0.6832246999983909,False,16
A028K24,691,experiment,48,↑,left,←,0.8575898999988567,False,16
A028K24,692,experiment,168,←,left,←,0.7072732000015094,True,16
A028K24,693,experiment,24,↓,down,↓,1.0845856000014464,True,16
A028K24,694,experiment,156,↓,down,↓,0.6267422000018996,True,16
A028K24,695,experiment,36,←,left,←,0.8699045999965165,True,16
A028K24,696,experiment,132,↑,down,↓,0.9695742999974755,False,16
A028K24,697,experiment,132,↑,up,↑,1.4045939999996335,True,16
A028K24,698,experiment,60,↓,down,↓,0.8004923999978928,True,16
A028K24,699,experiment,96,←,left,←,0.714407300001767,True,16
A028K24,700,experiment,156,↑,up,↑,0.5825300000069547,True,16
A028K24,701,experiment,120,↓,down,↓,0.619334400005755,True,16
A028K24,702,experiment,180,↓,down,↓,0.6635578999994323,True,16
A028K24,703,experiment,132,→,left,←,0.8173045000003185,False,16
A028K24,704,experiment,168,←,left,←,0.700436200000695,True,16
A028K24,705,experiment,12,↓,left,←,1.0571816000010585,False,16
A028K24,706,experiment,144,↓,right,→,1.0345784000019194,False,16
A028K24,707,experiment,36,↑,right,→,1.2145899000024656,False,16
A028K24,708,experiment,24,↓,left,←,0.8115294999952312,False,16
A028K24,709,experiment,84,←,left,←,0.5233764000004157,True,16
A028K24,710,experiment,108,↓,down,↓,0.9259471000041231,True,16
A028K24,711,experiment,96,↓,down,↓,0.5751448000009987,True,16
A028K24,712,experiment,24,↓,down,↓,0.6076976999975159,True,16
A028K24,713,experiment,120,↓,down,↓,0.5762400000021444,True,16
A028K24,714,experiment,168,←,down,↓,1.1527319000015268,False,16
A028K24,715,experiment,144,↓,down,↓,0.7507487000038964,True,16
A028K24,716,experiment,24,←,right,→,1.315958799998043,False,16
A028K24,717,experiment,72,↑,right,→,1.1018704000016442,False,16
A028K24,718,experiment,84,←,left,←,1.0201345999957994,True,16
A028K24,719,experiment,48,→,right,→,0.6947269000011147,True,16
A028K24,720,experiment,84,→,right,→,0.633748199994443,True,16
A028K24,721,experiment,108,→,right,→,0.5915861999965273,True,16
A028K24,722,experiment,96,↑,down,↓,0.7210476999971434,False,16
A028K24,723,experiment,12,↑,left,←,0.9752372000002651,False,16
A028K24,724,training,84,→,right,→,1.2140045999985887,True,16
A028K24,725,training,132,←,left,←,0.5295263999942108,True,16
A028K24,726,training,84,←,left,←,0.6433839000019361,True,16
A028K24,727,experiment,96,←,left,←,0.6469018000061624,True,16
A028K24,728,experiment,108,↑,left,←,0.6294102000028943,False,16
A028K24,729,experiment,72,↑,left,←,1.080505500001891,False,16
A028K24,730,experiment,180,↓,down,↓,0.6271415000010165,True,16
A028K24,731,experiment,96,→,left,←,0.8057276000035927,False,16
A028K24,732,experiment,36,→,right,→,0.9284048999979859,True,16
A028K24,733,experiment,180,↓,down,↓,0.6741190000029746,True,16
A028K24,734,experiment,180,↓,down,↓,0.5742888999957358,True,16
A028K24,735,experiment,72,←,left,←,0.615026500003296,True,16
A028K24,736,experiment,132,↑,down,↓,0.7061261999988346,False,16
A028K24,737,experiment,84,↓,down,↓,0.5677301999967312,True,16
A028K24,738,experiment,12,↑,up,↑,0.6412417000028654,True,16
A028K24,739,experiment,132,→,left,←,0.8874838999981876,False,16
A028K24,740,experiment,168,←,left,←,0.7034816999948816,True,16
A028K24,741,experiment,84,←,left,←,0.6286624999993364,True,16
A028K24,742,experiment,132,→,left,←,0.5973679000017,False,16
A028K24,743,experiment,108,←,left,←,0.6501213000010466,True,16
A028K24,744,experiment,156,↑,down,↓,0.6779724000007263,False,16
A028K24,745,experiment,24,←,left,←,1.3289227999994182,True,16
A028K24,746,experiment,168,→,left,←,0.7392805999988923,False,16
A028K24,747,experiment,120,↑,up,↑,0.7835014999945997,True,16
A028K24,748,experiment,132,→,right,→,0.7823312000036822,True,16
A028K24,749,experiment,72,↑,up,↑,0.8546535999994376,True,16
A028K24,750,experiment,144,↓,right,→,1.045925399994303,False,16
A028K24,751,experiment,24,←,right,→,1.3590416999941226,False,16
A028K24,752,experiment,60,←,left,←,0.5911195000007865,True,16
A028K24,753,experiment,12,↑,up,↑,1.0487568999960786,True,16
A028K24,754,experiment,12,↑,up,↑,1.0945231999940006,True,16
A028K24,755,experiment,84,→,right,→,0.7218169999978272,True,16
A028K24,756,experiment,120,←,left,←,0.5313394999975571,True,16
A028K24,757,experiment,24,↓,down,↓,0.7052857000016957,True,16
A028K24,758,experiment,48,←,left,←,0.925489799999923,True,16
A028K24,759,experiment,144,→,right,→,1.1946207000000868,True,16
A028K24,760,experiment,60,↑,up,↑,0.639291499996034,True,16
A028K24,761,experiment,168,↑,up,↑,0.5301531000004616,True,16
A028K24,762,experiment,48,↓,down,↓,0.7397219999984372,True,16
A028K24,763,experiment,48,→,right,→,0.6063636999970186,True,16
A028K24,764,experiment,96,→,right,→,0.6314740000016172,True,16
A028K24,765,experiment,48,←,left,←,0.7719642000010936,True,16
A028K24,766,experiment,120,↑,up,↑,0.8548833000022569,True,16
A028K24,767,experiment,36,→,left,←,1.5979695999994874,False,16
A028K24,768,experiment,168,→,left,←,1.1236470000003465,False,16
A028K24,769,experiment,24,↑,left,←,0.7914315999951214,False,16
A028K24,770,experiment,72,↓,down,↓,0.6330075000005309,True,16
A028K24,771,experiment,60,↑,up,↑,0.6037635000029695,True,16
A028K24,772,experiment,36,↓,down,↓,0.701232200000959,True,16
A028K24,773,experiment,96,↑,down,↓,0.7591238000022713,False,16
A028K24,774,experiment,144,↓,down,↓,0.9548614999948768,True,16
A028K24,775,experiment,156,↓,down,↓,0.5811248000027263,True,16
A028K24,776,experiment,60,↓,down,↓,1.105557900002168,True,16
A028K24,777,experiment,120,↑,down,↓,0.7311913000012282,False,16
A028K24,778,experiment,36,↑,down,↓,0.945646600004693,False,16
A028K24,779,experiment,84,→,up,↑,0.8211488000015379,False,16
A028K24,780,experiment,144,↑,up,↑,0.6910808000029647,True,16
A028K24,781,experiment,12,↓,down,↓,0.6814529000039329,True,16
A028K24,782,experiment,156,↓,left,←,1.3955650999996578,False,16
A028K24,783,experiment,108,↓,down,↓,0.7132211999996798,True,16
A028K24,784,experiment,108,↓,down,↓,1.0384044000020367,True,16
A028K24,785,experiment,180,←,right,→,0.6997814999995171,False,16
A028K24,786,experiment,156,←,right,→,1.2870597000000998,False,16
A028K24,787,training,108,→,right,→,0.9078207999991719,True,16
A028K24,788,training,108,→,right,→,0.6807705999963218,True,16
A028K24,789,training,96,↓,down,↓,0.7673040000008768,True,16
A028K24,790,experiment,12,↑,up,↑,0.6703439999982947,True,16
A028K24,791,experiment,120,↓,right,→,0.6559310000011465,False,16
A028K24,792,experiment,60,→,up,↑,0.589895199998864,False,16
A028K24,793,experiment,132,↓,down,↓,0.5675173999989056,True,16
A028K24,794,experiment,60,→,left,←,0.7753321000054711,False,16
A028K24,795,experiment,132,↑,up,↑,0.5301450999977533,True,16
A028K24,796,experiment,48,←,left,←,0.7190865000011399,True,16
A028K24,797,experiment,72,←,left,←,0.5006971999973757,True,16
A028K24,798,experiment,108,↑,up,↑,0.6324093000002904,True,16
A028K24,799,experiment,60,→,right,→,0.719928999998956,True,16
A028K24,800,experiment,132,→,right,→,0.8733238999993773,True,16
A028K24,801,experiment,108,←,left,←,0.8765070999943418,True,16
A028K24,802,experiment,72,→,right,→,0.6371493000042392,True,16
A028K24,803,experiment,180,←,left,←,0.6473164999988512,True,16
A028K24,804,experiment,180,→,right,→,1.0551045999964117,True,16
A028K24,805,experiment,12,↓,left,←,1.0005478999955812,False,16
A028K24,806,experiment,156,↑,up,↑,0.619607000000542,True,16
A028K24,807,experiment,24,→,left,←,1.4222669000009773,False,16
A028K24,808,experiment,108,↓,down,↓,0.8747905999989598,True,16
A028K24,809,experiment,84,←,left,←,0.6772579000025871,True,16
A028K24,810,experiment,84,↑,up,↑,1.126720899999782,True,16
A028K24,811,experiment,156,↓,down,↓,0.716846399998758,True,16
A028K24,812,experiment,72,↑,up,↑,0.6878394000013941,True,16
A028K24,813,experiment,96,→,right,→,0.5683849999986705,True,16
A028K24,814,experiment,36,↓,up,↑,1.1896520000009332,False,16
A028K24,815,experiment,120,↓,right,→,0.7859677000014926,False,16
A028K24,816,experiment,72,↓,down,↓,0.5912743999942904,True,16
A028K24,817,experiment,144,→,right,→,1.3187297000040417,True,16
A028K24,818,experiment,144,←,left,←,0.6457713000054355,True,16
A028K24,819,experiment,24,↑,up,↑,0.8436609999989741,True,16
A028K24,820,experiment,144,↑,up,↑,0.5825007000021287,True,16
A028K24,821,experiment,180,↑,right,→,0.7406106999987969,False,16
A028K24,822,experiment,60,→,right,→,0.7276990000027581,True,16
A028K24,823,experiment,36,↑,up,↑,0.8270870999986073,True,16
A028K24,824,experiment,156,→,right,→,0.605288799997652,True,16
A028K24,825,experiment,144,↑,right,→,0.6979942999969353,False,16
A028K24,826,experiment,84,→,right,→,0.5506739000047673,True,16
A028K24,827,experiment,36,↑,up,↑,0.568562500004191,True,16
A028K24,828,experiment,156,→,right,→,0.5810981000031461,True,16
A028K24,829,experiment,36,→,right,→,0.5911747999998624,True,16
A028K24,830,experiment,12,←,left,←,0.7988776999991387,True,16
A028K24,831,experiment,12,↓,right,→,0.8453444999977364,False,16
A028K24,832,experiment,168,↓,down,↓,0.6205904000016744,True,16
A028K24,833,experiment,96,→,right,→,0.5968980999969062,True,16
A028K24,834,experiment,24,↓,down,↓,1.082798700001149,True,16
A028K24,835,experiment,84,↓,right,→,0.7926673000038136,False,16
A028K24,836,experiment,24,↓,down,↓,0.7511210000011488,True,16
A028K24,837,experiment,132,←,left,←,0.5576538000022992,True,16
A028K24,838,experiment,168,↑,up,↑,0.7461478000041097,True,16
A028K24,839,experiment,48,↑,up,↑,0.5818336999946041,True,16
A028K24,840,experiment,96,←,down,↓,1.0742239000028349,False,16
A028K24,841,experiment,120,↓,up,↑,0.6653168000048026,False,16
A028K24,842,experiment,48,←,right,→,0.6390085999955772,False,16
A028K24,843,experiment,168,←,left,←,0.7808319000032498,True,16
A028K24,844,experiment,48,↑,up,↑,0.6465194999982486,True,16
A028K24,845,experiment,120,↑,up,↑,0.5192680999971344,True,16
A028K24,846,experiment,180,↑,down,↓,1.0092745000001742,False,16
A028K24,847,experiment,168,↑,up,↑,0.47489049999421695,True,16
A028K24,848,experiment,108,↓,right,→,1.0064124999989872,False,16
A028K24,849,experiment,96,↓,up,↑,1.0273481999975047,False,16
