PART_ID,Block_no,Trial_no,Block_type,Trial_type,CSI,Stim_letter,Key_pressed,letter_choose,Rt,Corr,Stimulus Time,Level,Reversal,Revs_count
084M31,1,1,PS,train,31,←,left,←,0.9257978000000548,True,30,-,-,-
084M31,1,2,PS,train,39,↓,down,↓,0.7267535999999382,True,30,-,-,-
084M31,1,3,PS,train,35,→,right,→,0.6172735000000102,True,30,-,-,-
084M31,1,4,PS,train,40,↑,up,↑,0.6339447000000291,True,30,-,-,-
084M31,1,5,PS,train,27,↓,down,↓,1.1567267999998876,True,30,-,-,-
084M31,1,6,PS,train,30,↑,no_key,no_letter,-1.0,False,30,-,-,-
084M31,1,7,PS,train,25,↓,down,↓,0.7043409999998858,True,30,-,-,-
084M31,1,8,PS,train,26,←,left,←,0.6006142999999611,True,30,-,-,-
084M31,1,9,PS,train,31,→,right,→,1.6574995999999373,True,30,-,-,-
084M31,1,10,PS,train,34,←,left,←,0.5507668999998714,True,30,-,-,-
084M31,2,11,AS,train,35,↑,right,→,1.4304713999999876,False,45,-,-,-
084M31,2,12,AS,train,33,→,right,→,0.41829600000005485,True,45,-,-,-
084M31,2,13,AS,train,31,←,left,←,0.451831600000105,True,45,-,-,-
084M31,2,14,AS,train,40,→,right,→,1.5207181000000674,True,45,-,-,-
084M31,2,15,AS,train,42,↑,up,↑,1.879506400000082,True,45,-,-,-
084M31,2,16,AS,train,26,→,right,→,0.5847466000000168,True,45,-,-,-
084M31,2,17,AS,train,39,↓,down,↓,1.8188769999999295,True,45,-,-,-
084M31,2,18,AS,train,41,←,left,←,0.8507220000001325,True,45,-,-,-
084M31,2,19,AS,train,50,→,right,→,0.7015042000000449,True,45,-,-,-
084M31,2,20,AS,train,27,↑,up,↑,1.3636430999999902,True,45,-,-,-
084M31,-,21,PS,adaptive,35,↓,down,↓,0.5964698999998745,True,10,0,0,0
084M31,-,22,PS,adaptive,45,→,right,→,0.6836240000000089,True,10,1,0,0
084M31,-,23,PS,adaptive,37,←,left,←,0.5579639000000043,True,9,1,0,0
084M31,-,24,PS,adaptive,49,↑,up,↑,1.3319254000000456,True,9,1,0,0
084M31,-,25,PS,adaptive,43,↓,right,→,0.9418958000001112,False,8,-1,1,1
084M31,-,26,PS,adaptive,44,→,right,→,0.521969399999989,True,9,-1,0,1
084M31,-,27,PS,adaptive,40,↓,down,↓,0.9744662999999036,True,9,1,1,2
084M31,-,28,PS,adaptive,36,→,right,→,0.6741435000001275,True,8,1,0,2
084M31,-,29,PS,adaptive,36,←,left,←,0.49683329999993475,True,8,1,0,2
084M31,-,30,PS,adaptive,50,↑,up,↑,0.6753489000000172,True,7,1,0,2
084M31,-,31,PS,adaptive,31,→,left,←,0.6035633000001326,False,7,-1,1,3
084M31,-,32,PS,adaptive,34,←,right,→,0.6267966000000342,False,8,-1,0,3
084M31,-,33,PS,adaptive,25,↓,down,↓,0.6432296999998925,True,9,-1,0,3
084M31,-,34,PS,adaptive,27,→,left,←,0.5406020000000353,False,9,-1,0,3
084M31,-,35,PS,adaptive,45,↑,right,→,0.607854899999893,False,10,-1,0,3
084M31,-,36,PS,adaptive,37,↓,down,↓,0.5131513999999697,True,11,-1,0,3
084M31,-,37,PS,adaptive,33,→,left,←,0.4545466999998098,False,11,-1,0,3
084M31,-,38,PS,adaptive,48,←,left,←,0.4535895999999866,True,12,-1,0,3
084M31,-,39,PS,adaptive,28,→,right,→,0.4445751000000655,True,12,1,1,4
084M31,-,40,AS,adaptive,29,↑,left,←,0.9366660999999112,False,20,-1,0,0
084M31,-,41,AS,adaptive,43,←,left,←,0.6280539000001681,True,21,-1,0,0
084M31,-,42,AS,adaptive,38,→,right,→,0.6715924999998606,True,21,1,1,1
084M31,-,43,AS,adaptive,25,↓,left,←,0.4672077000000172,False,20,-1,1,2
084M31,-,44,AS,adaptive,32,←,left,←,0.8219309999999496,True,21,-1,0,2
084M31,-,45,AS,adaptive,32,→,right,→,0.7864744999999402,True,21,1,1,3
084M31,-,46,AS,adaptive,27,↑,right,→,0.911927900000137,False,20,-1,1,4
084M31,1,47,PS,intra_train,46,↓,down,↓,0.6093624000000091,True,16,-,-,-
084M31,1,48,PS,intra_train,31,←,left,←,0.4692130000000816,True,16,-,-,-
084M31,1,49,PS,intra_train,40,↑,up,↑,1.88962279999987,True,16,-,-,-
084M31,1,50,PS,intra_train,30,↓,down,↓,0.8369072000000415,True,16,-,-,-
084M31,1,51,PS,intra_train,36,←,left,←,0.46993330000009337,True,16,-,-,-
084M31,1,52,PS,exp,43,→,left,←,0.7761032000000796,False,11,-1,0,0
084M31,1,53,PS,exp,48,←,left,←,0.4106552000000647,True,12,-1,0,0
084M31,1,54,PS,exp,42,↓,down,↓,0.6425028000001021,True,12,1,1,1
084M31,1,55,PS,exp,26,→,left,←,0.5687474999999722,False,11,-1,1,2
084M31,1,56,PS,exp,43,↑,up,↑,1.137300200000027,True,12,-1,0,2
084M31,1,57,PS,exp,34,↓,down,↓,0.6889464999999291,True,12,1,1,3
084M31,1,58,PS,exp,29,←,left,←,0.568936899999926,True,11,1,0,3
084M31,1,59,PS,exp,26,↑,up,↑,0.6630468999999266,True,11,1,0,3
084M31,1,60,PS,exp,38,←,left,←,0.5249568000001545,True,10,1,0,3
084M31,1,61,PS,exp,33,↓,down,↓,0.6702877000000171,True,10,1,0,3
084M31,1,62,PS,exp,37,←,left,←,0.3329103999999461,True,9,1,0,3
084M31,1,63,PS,exp,37,↓,down,↓,0.6252031999999872,True,9,1,0,3
084M31,1,64,PS,exp,49,→,left,←,0.6465927000001557,False,8,-1,1,4
084M31,1,65,PS,exp,30,↑,up,↑,0.7684302999998636,True,9,-1,0,4
084M31,1,66,PS,exp,39,→,right,→,0.6780759000000671,True,9,1,1,5
084M31,1,67,PS,exp,46,←,left,←,0.5538989000001493,True,8,1,0,5
084M31,1,68,PS,exp,31,↑,left,←,0.7365964999999051,False,8,-1,1,6
084M31,1,69,PS,exp,35,←,left,←,0.48953179999989516,True,9,-1,0,6
084M31,1,70,PS,exp,29,↑,right,→,0.869584199999963,False,9,-1,0,6
084M31,1,71,PS,exp,41,→,right,→,0.5577993000001698,True,10,-1,0,6
084M31,1,72,PS,exp,40,←,left,←,0.5176192000001265,True,10,1,1,7
084M31,1,73,PS,exp,36,↑,left,←,0.6159086999998635,False,9,-1,1,8
084M31,1,74,PS,exp,29,↓,left,←,0.5616704999999911,False,10,-1,0,8
084M31,1,75,PS,exp,44,→,right,→,0.5315003000000615,True,11,-1,0,8
084M31,1,76,PS,exp,48,↑,up,↑,0.586960099999942,True,11,1,1,9
084M31,1,77,PS,exp,46,↓,down,↓,0.8668784000001324,True,10,1,0,9
084M31,1,78,PS,exp,46,←,left,←,0.4859538999999131,True,10,1,0,9
084M31,1,79,PS,exp,30,→,right,→,0.5594739999999092,True,9,1,0,9
084M31,1,80,PS,exp,40,↓,right,→,0.6190950000000157,False,9,-1,1,10
084M31,1,81,PS,exp,34,↑,up,↑,0.6728335000000243,True,10,-1,0,10
084M31,1,82,PS,exp,37,↓,down,↓,0.6758667999999943,True,10,1,1,11
084M31,1,83,PS,exp,46,↑,up,↑,0.9070993000000271,True,9,1,0,11
084M31,1,84,PS,exp,43,←,up,↑,0.7387665999999626,False,9,-1,1,12
084M31,1,85,PS,exp,42,↑,up,↑,0.5601291999998921,True,10,-1,0,12
084M31,1,86,PS,exp,45,↓,down,↓,0.6705627000001186,True,10,1,1,13
084M31,1,87,PS,exp,49,←,left,←,0.5101741000000857,True,9,1,0,13
084M31,1,88,PS,exp,26,↓,right,→,0.6510416999999507,False,9,-1,1,14
084M31,2,89,AS,intra_train,47,←,left,←,0.4845440999999937,True,31,-,-,-
084M31,2,90,AS,intra_train,47,↑,left,←,0.8563304000001608,False,31,-,-,-
084M31,2,91,AS,intra_train,25,→,right,→,0.6173813999998856,True,31,-,-,-
084M31,2,92,AS,intra_train,42,↑,up,↑,1.0852810999999747,True,31,-,-,-
084M31,2,93,AS,intra_train,34,→,right,→,0.7816114999998263,True,31,-,-,-
084M31,2,94,AS,exp,27,↑,left,←,0.8980463000000327,False,21,-1,0,0
084M31,2,95,AS,exp,27,←,up,↑,0.8177118000000974,False,22,-1,0,0
084M31,2,96,AS,exp,33,→,left,←,0.5634196000000884,False,23,-1,0,0
084M31,2,97,AS,exp,38,↓,right,→,1.5985261999999238,False,24,-1,0,0
084M31,2,98,AS,exp,49,↑,up,↑,0.7877046000000973,True,25,-1,0,0
084M31,2,99,AS,exp,29,→,right,→,0.6183267999999771,True,25,1,1,1
084M31,2,100,AS,exp,38,↓,down,↓,0.6632242999999107,True,24,1,0,1
084M31,2,101,AS,exp,34,→,right,→,0.6870576999999685,True,24,1,0,1
084M31,2,102,AS,exp,41,←,left,←,0.8336297000000741,True,23,1,0,1
084M31,2,103,AS,exp,45,↑,up,↑,0.8369680999999218,True,23,1,0,1
084M31,2,104,AS,exp,45,↓,right,→,0.6691115999999511,False,22,-1,1,2
084M31,2,105,AS,exp,40,←,left,←,0.4673105999997915,True,23,-1,0,2
084M31,2,106,AS,exp,35,↓,left,←,0.6068241999998918,False,23,-1,0,2
084M31,2,107,AS,exp,32,↑,up,↑,0.5971157999999832,True,24,-1,0,2
084M31,2,108,AS,exp,32,→,right,→,0.8032995000000938,True,24,1,1,3
084M31,2,109,AS,exp,28,↑,up,↑,0.7308811999998852,True,23,1,0,3
084M31,2,110,AS,exp,45,→,right,→,0.5606947999999647,True,23,1,0,3
084M31,2,111,AS,exp,26,←,right,→,0.9076175000000148,False,22,-1,1,4
084M31,2,112,AS,exp,48,↓,right,→,0.5763457999998991,False,23,-1,0,4
084M31,2,113,AS,exp,47,←,left,←,0.7274598999999853,True,24,-1,0,4
084M31,2,114,AS,exp,33,→,right,→,1.8896667999999863,True,24,1,1,5
084M31,2,115,AS,exp,47,↑,left,←,0.6076178999999229,False,23,-1,1,6
084M31,2,116,AS,exp,40,→,right,→,0.5007192000000487,True,24,-1,0,6
084M31,2,117,AS,exp,34,↓,down,↓,0.7600984000000608,True,24,1,1,7
084M31,2,118,AS,exp,40,←,left,←,0.4506955999997899,True,23,1,0,7
084M31,2,119,AS,exp,26,↑,up,↑,0.48442150000005313,True,23,1,0,7
084M31,2,120,AS,exp,30,→,right,→,0.544766399999844,True,22,1,0,7
084M31,2,121,AS,exp,38,↓,down,↓,0.7034161999999924,True,22,1,0,7
084M31,2,122,AS,exp,39,→,right,→,0.4341451000000234,True,21,1,0,7
084M31,2,123,AS,exp,28,←,right,→,0.6908943999999337,False,21,-1,1,8
084M31,2,124,AS,exp,36,→,right,→,0.7419311999999536,True,22,-1,0,8
084M31,2,125,AS,exp,49,←,right,→,0.723690999999917,False,22,-1,0,8
084M31,2,126,AS,exp,38,↓,down,↓,0.7301089999998567,True,23,-1,0,8
084M31,2,127,AS,exp,32,→,right,→,0.48403529999995953,True,23,1,1,9
084M31,2,128,AS,exp,26,↓,down,↓,0.6294032999999217,True,22,1,0,9
084M31,2,129,AS,exp,30,↑,right,→,0.7770445999999538,False,22,-1,1,10
084M31,2,130,AS,exp,34,←,no_key,no_letter,-1.0,False,23,-1,0,10
084M31,2,131,AS,exp,31,→,right,→,1.8302322999998069,True,24,-1,0,10
084M31,2,132,AS,exp,26,←,right,→,0.7703853000000436,False,24,-1,0,10
084M31,2,133,AS,exp,35,↓,down,↓,0.7333320000000185,True,25,-1,0,10
084M31,2,134,AS,exp,32,→,right,→,0.5173356999998759,True,25,1,1,11
084M31,2,135,AS,exp,47,↑,right,→,0.5339759999999387,False,24,-1,1,12
084M31,2,136,AS,exp,48,↓,down,↓,0.5856478999999126,True,25,-1,0,12
084M31,2,137,AS,exp,47,←,left,←,0.7381445000000895,True,25,1,1,13
084M31,2,138,AS,exp,27,↓,left,←,0.890881600000057,False,24,-1,1,14
084M31,3,139,AS,intra_train,47,←,left,←,0.5844390999998268,True,31,-,-,-
084M31,3,140,AS,intra_train,37,↑,up,↑,0.8686682999998538,True,31,-,-,-
084M31,3,141,AS,intra_train,43,→,right,→,0.699508299999934,True,31,-,-,-
084M31,3,142,AS,intra_train,30,↓,down,↓,0.9431883999998263,True,31,-,-,-
084M31,3,143,AS,intra_train,35,→,right,→,0.736039799999844,True,31,-,-,-
084M31,3,144,AS,exp,41,←,left,←,0.708594999999832,True,21,0,0,0
084M31,3,145,AS,exp,41,→,right,→,0.5658987000001616,True,21,1,0,0
084M31,3,146,AS,exp,43,↓,down,↓,0.766237399999909,True,20,1,0,0
084M31,3,147,AS,exp,26,↑,up,↑,1.1350832999999056,True,20,1,0,0
084M31,3,148,AS,exp,50,↓,down,↓,0.6287847999999485,True,19,1,0,0
084M31,3,149,AS,exp,37,↑,up,↑,0.6230372999998508,True,19,1,0,0
084M31,3,150,AS,exp,40,←,left,←,0.973813199999995,True,18,1,0,0
084M31,3,151,AS,exp,43,↓,down,↓,0.6949816999999712,True,18,1,0,0
084M31,3,152,AS,exp,46,→,right,→,0.6848935000000438,True,17,1,0,0
084M31,3,153,AS,exp,41,←,left,←,0.548290599999973,True,17,1,0,0
084M31,3,154,AS,exp,47,↑,right,→,0.7039664999999786,False,16,-1,1,1
084M31,3,155,AS,exp,36,←,left,←,0.6310175000000982,True,17,-1,0,1
084M31,3,156,AS,exp,42,↑,left,←,0.717639699999836,False,17,-1,0,1
084M31,3,157,AS,exp,28,→,right,→,0.8043637000000672,True,18,-1,0,1
084M31,3,158,AS,exp,47,←,left,←,0.5185802000000876,True,18,1,1,2
084M31,3,159,AS,exp,30,↑,no_key,no_letter,-1.0,False,17,-1,1,3
084M31,3,160,AS,exp,46,→,right,→,0.5512628000001314,True,18,-1,0,3
084M31,3,161,AS,exp,49,↑,up,↑,0.8236445999998523,True,18,1,1,4
084M31,3,162,AS,exp,36,→,right,→,0.9848113999998986,True,17,1,0,4
084M31,3,163,AS,exp,42,↑,up,↑,0.46404919999986305,True,17,1,0,4
084M31,3,164,AS,exp,31,←,up,↑,0.6722680999998829,False,16,-1,1,5
084M31,3,165,AS,exp,45,↑,right,→,0.755862999999863,False,17,-1,0,5
084M31,3,166,AS,exp,38,←,left,←,0.5974524999999176,True,18,-1,0,5
084M31,3,167,AS,exp,47,→,right,→,0.584696699999995,True,18,1,1,6
084M31,3,168,AS,exp,48,←,right,→,0.6372871999999461,False,17,-1,1,7
084M31,3,169,AS,exp,38,↑,up,↑,0.5480665000000045,True,18,-1,0,7
084M31,3,170,AS,exp,50,↓,left,←,0.5653932000000168,False,18,-1,0,7
084M31,3,171,AS,exp,43,←,left,←,0.6505088000001251,True,19,-1,0,7
084M31,3,172,AS,exp,50,↓,down,↓,0.6810789999999542,True,19,1,1,8
084M31,3,173,AS,exp,43,→,down,↓,1.4218077000000449,False,18,-1,1,9
084M31,3,174,AS,exp,37,←,left,←,0.41717319999997926,True,19,-1,0,9
084M31,3,175,AS,exp,40,→,right,→,0.9544043999999303,True,19,1,1,10
084M31,3,176,AS,exp,25,↓,down,↓,0.7322681000000557,True,18,1,0,10
084M31,3,177,AS,exp,36,→,right,→,0.5347357000000557,True,18,1,0,10
084M31,3,178,AS,exp,32,↓,down,↓,0.6804568000000017,True,17,1,0,10
084M31,3,179,AS,exp,35,↑,up,↑,0.6524961999998595,True,17,1,0,10
084M31,3,180,AS,exp,46,→,right,→,0.5360952999999427,True,16,1,0,10
084M31,3,181,AS,exp,48,↓,right,→,0.5899405000000115,False,16,-1,1,11
084M31,3,182,AS,exp,39,←,left,←,1.3537900999999692,True,17,-1,0,11
084M31,3,183,AS,exp,37,↓,right,→,0.9699960000000374,False,17,-1,0,11
084M31,3,184,AS,exp,34,←,up,↑,0.7722509000000173,False,18,-1,0,11
084M31,3,185,AS,exp,38,↓,right,→,0.5219994999999926,False,19,-1,0,11
084M31,3,186,AS,exp,25,↑,up,↑,0.5695526999998037,True,20,-1,0,11
084M31,3,187,AS,exp,38,←,left,←,0.8421361999999135,True,20,1,1,12
084M31,3,188,AS,exp,29,↓,down,↓,0.6952645999999731,True,19,1,0,12
084M31,3,189,AS,exp,43,→,right,→,0.6086868000002141,True,19,1,0,12
084M31,3,190,AS,exp,41,←,left,←,1.008756600000197,True,18,1,0,12
084M31,3,191,AS,exp,45,↓,left,←,0.8057070000004387,False,18,-1,1,13
084M31,3,192,AS,exp,41,←,left,←,0.5075894999999946,True,19,-1,0,13
084M31,3,193,AS,exp,25,↓,right,→,0.7443257000004451,False,19,-1,0,13
084M31,3,194,AS,exp,29,→,right,→,0.3674504999999044,True,20,-1,0,13
084M31,3,195,AS,exp,26,↓,right,→,0.5122154999999111,False,20,-1,0,13
084M31,3,196,AS,exp,40,→,left,←,0.48418390000006184,False,21,-1,0,13
084M31,3,197,AS,exp,45,←,left,←,0.49975199999971665,True,22,-1,0,13
084M31,3,198,AS,exp,40,→,right,→,1.6864129000000503,True,22,1,1,14
084M31,4,199,PS,intra_train,39,↓,down,↓,0.6123016999999891,True,16,-,-,-
084M31,4,200,PS,intra_train,38,←,left,←,0.47313679999979286,True,16,-,-,-
084M31,4,201,PS,intra_train,32,↑,right,→,0.49725630000011734,False,16,-,-,-
084M31,4,202,PS,intra_train,25,→,right,→,0.5760487000002286,True,16,-,-,-
084M31,4,203,PS,intra_train,34,↑,up,↑,0.5831296999999722,True,16,-,-,-
084M31,4,204,PS,exp,33,←,left,←,0.4975183999999899,True,11,0,0,0
084M31,4,205,PS,exp,31,↓,down,↓,0.6097611999998662,True,11,1,0,0
084M31,4,206,PS,exp,49,↑,up,↑,0.61099460000014,True,10,1,0,0
084M31,4,207,PS,exp,25,↓,left,←,0.6096463999997468,False,10,-1,1,1
084M31,4,208,PS,exp,31,→,left,←,0.38348869999981616,False,11,-1,0,1
084M31,4,209,PS,exp,40,←,left,←,0.6861257999998998,True,12,-1,0,1
084M31,4,210,PS,exp,49,↓,down,↓,0.6530351000001247,True,12,1,1,2
084M31,4,211,PS,exp,31,←,right,→,0.6831817999996019,False,11,-1,1,3
084M31,4,212,PS,exp,50,↓,down,↓,0.5904452999998284,True,12,-1,0,3
084M31,4,213,PS,exp,46,↑,up,↑,0.9068090999999185,True,12,1,1,4
084M31,4,214,PS,exp,46,→,right,→,0.5368836000002375,True,11,1,0,4
084M31,4,215,PS,exp,39,↓,up,↑,0.6342323000003489,False,11,-1,1,5
084M31,4,216,PS,exp,39,→,right,→,0.5820975000001454,True,12,-1,0,5
084M31,4,217,PS,exp,35,←,left,←,0.6110770999998749,True,12,1,1,6
084M31,4,218,PS,exp,28,→,right,→,0.4189134000002923,True,11,1,0,6
084M31,4,219,PS,exp,29,↓,down,↓,0.642645999999786,True,11,1,0,6
084M31,4,220,PS,exp,48,↑,up,↑,0.6241946999998618,True,10,1,0,6
084M31,4,221,PS,exp,43,←,left,←,0.5095139999998537,True,10,1,0,6
084M31,4,222,PS,exp,36,↓,down,↓,0.5932121000000734,True,9,1,0,6
084M31,4,223,PS,exp,39,←,up,↑,0.6561513999999988,False,9,-1,1,7
084M31,4,224,PS,exp,44,→,right,→,0.5922484999996414,True,10,-1,0,7
084M31,4,225,PS,exp,47,↓,down,↓,0.6805188000003,True,10,1,1,8
084M31,4,226,PS,exp,38,→,right,→,0.5601093000000219,True,9,1,0,8
084M31,4,227,PS,exp,39,↑,up,↑,0.6132394000001113,True,9,1,0,8
084M31,4,228,PS,exp,29,↓,left,←,0.5912425999999869,False,8,-1,1,9
084M31,4,229,PS,exp,43,←,left,←,0.3892990999997892,True,9,-1,0,9
084M31,4,230,PS,exp,32,↓,right,→,0.5320314999999027,False,9,-1,0,9
084M31,4,231,PS,exp,26,→,right,→,0.5855176999998548,True,10,-1,0,9
084M31,4,232,PS,exp,25,↑,right,→,0.5190277000001515,False,10,-1,0,9
084M31,4,233,PS,exp,36,→,left,←,0.35848669999995764,False,11,-1,0,9
084M31,4,234,PS,exp,43,↑,up,↑,0.6044302000000243,True,12,-1,0,9
084M31,4,235,PS,exp,48,→,right,→,0.5988728000002084,True,12,1,1,10
084M31,4,236,PS,exp,45,↓,down,↓,0.8382846999998037,True,11,1,0,10
084M31,4,237,PS,exp,25,→,right,→,0.5807302999996864,True,11,1,0,10
084M31,4,238,PS,exp,26,↓,right,→,0.5809948999999506,False,10,-1,1,11
084M31,4,239,PS,exp,37,↑,up,↑,0.5187756000000263,True,11,-1,0,11
084M31,4,240,PS,exp,45,←,left,←,0.5478127999999742,True,11,1,1,12
084M31,4,241,PS,exp,43,→,right,→,0.4974365000002763,True,10,1,0,12
084M31,4,242,PS,exp,28,↑,up,↑,0.6746801999997842,True,10,1,0,12
084M31,4,243,PS,exp,29,→,up,↑,0.630604499999663,False,9,-1,1,13
084M31,4,244,PS,exp,28,↑,up,↑,0.5460198999999193,True,10,-1,0,13
084M31,4,245,PS,exp,49,↓,down,↓,0.6835040999999364,True,10,1,1,14
084M31,5,246,PS,intra_train,43,↑,up,↑,0.5752907999999479,True,16,-,-,-
084M31,5,247,PS,intra_train,39,←,left,←,0.5089430999996694,True,16,-,-,-
084M31,5,248,PS,intra_train,50,↓,down,↓,0.6739212000002226,True,16,-,-,-
084M31,5,249,PS,intra_train,43,←,left,←,0.49354570000014064,True,16,-,-,-
084M31,5,250,PS,intra_train,33,↓,down,↓,0.594570400000066,True,16,-,-,-
084M31,5,251,PS,exp,38,↑,up,↑,0.5425006999998914,True,11,0,0,0
084M31,5,252,PS,exp,33,↓,down,↓,0.6459770999999819,True,11,1,0,0
084M31,5,253,PS,exp,50,←,left,←,0.5136677000000418,True,10,1,0,0
084M31,5,254,PS,exp,27,→,right,→,0.7052063000000999,True,10,1,0,0
084M31,5,255,PS,exp,40,←,left,←,0.656939599999987,True,9,1,0,0
084M31,5,256,PS,exp,47,↑,right,→,0.5870368000000781,False,9,-1,1,1
084M31,5,257,PS,exp,25,↓,left,←,0.694511600000169,False,10,-1,0,1
084M31,5,258,PS,exp,49,←,left,←,0.6039707999998427,True,11,-1,0,1
084M31,5,259,PS,exp,31,↓,right,→,0.7553656000000046,False,11,-1,0,1
084M31,5,260,PS,exp,41,↑,up,↑,0.6972043000000667,True,12,-1,0,1
084M31,5,261,PS,exp,32,→,right,→,0.5835792000002584,True,12,1,1,2
084M31,5,262,PS,exp,27,↑,up,↑,0.5442584000002171,True,11,1,0,2
084M31,5,263,PS,exp,42,→,up,↑,0.792853599999944,False,11,-1,1,3
084M31,5,264,PS,exp,48,↓,down,↓,0.794192700000167,True,12,-1,0,3
084M31,5,265,PS,exp,31,→,right,→,0.5444800999998733,True,12,1,1,4
084M31,5,266,PS,exp,44,↓,down,↓,0.6998779999998987,True,11,1,0,4
084M31,5,267,PS,exp,49,→,right,→,0.537873700000091,True,11,1,0,4
084M31,5,268,PS,exp,37,↑,up,↑,0.5784390999997413,True,10,1,0,4
084M31,5,269,PS,exp,43,↓,right,→,0.5430393999999978,False,10,-1,1,5
084M31,5,270,PS,exp,35,→,right,→,0.5893015999999989,True,11,-1,0,5
084M31,5,271,PS,exp,28,↑,right,→,0.5910198000001401,False,11,-1,0,5
084M31,5,272,PS,exp,42,←,left,←,0.5196906999999555,True,12,-1,0,5
084M31,5,273,PS,exp,50,↑,right,→,0.518995399999767,False,12,-1,0,5
084M31,5,274,PS,exp,38,↓,down,↓,0.6821684999999889,True,13,-1,0,5
084M31,5,275,PS,exp,29,↑,up,↑,0.5190719000001991,True,13,1,1,6
084M31,5,276,PS,exp,28,↓,down,↓,0.7477168999998867,True,12,1,0,6
084M31,5,277,PS,exp,28,→,right,→,0.45097949999990306,True,12,1,0,6
084M31,5,278,PS,exp,29,↓,right,→,0.6658198000000084,False,11,-1,1,7
084M31,5,279,PS,exp,50,←,right,→,0.6338174000002255,False,12,-1,0,7
084M31,5,280,PS,exp,38,↑,left,←,0.30058099999996557,False,13,-1,0,7
084M31,5,281,PS,exp,50,↓,down,↓,0.7541353000001436,True,14,-1,0,7
084M31,5,282,PS,exp,44,←,left,←,0.5729865000002974,True,14,1,1,8
084M31,5,283,PS,exp,28,↓,down,↓,0.7648365000000013,True,13,1,0,8
084M31,5,284,PS,exp,50,→,right,→,0.5368705999999293,True,13,1,0,8
084M31,5,285,PS,exp,49,↓,down,↓,0.6443670000003294,True,12,1,0,8
084M31,5,286,PS,exp,41,→,right,→,0.7570295000000442,True,12,1,0,8
084M31,5,287,PS,exp,33,←,left,←,0.5386165999998411,True,11,1,0,8
084M31,5,288,PS,exp,41,→,right,→,0.4713845000001129,True,11,1,0,8
084M31,5,289,PS,exp,35,↑,up,↑,0.5161960999998882,True,10,1,0,8
084M31,5,290,PS,exp,30,←,left,←,0.492602799999986,True,10,1,0,8
084M31,5,291,PS,exp,35,↑,right,→,0.5361469999998008,False,9,-1,1,9
084M31,5,292,PS,exp,26,↓,down,↓,0.5749848000000384,True,10,-1,0,9
084M31,5,293,PS,exp,25,↑,up,↑,0.5275455999999394,True,10,1,1,10
084M31,5,294,PS,exp,33,↓,down,↓,0.6035853000003044,True,9,1,0,10
084M31,5,295,PS,exp,28,→,right,→,0.56718439999986,True,9,1,0,10
084M31,5,296,PS,exp,27,↓,down,↓,0.5914392999998199,True,8,1,0,10
084M31,5,297,PS,exp,38,→,right,→,0.4921678000000611,True,8,1,0,10
084M31,5,298,PS,exp,39,↓,down,↓,0.5946564999999282,True,7,1,0,10
084M31,5,299,PS,exp,44,←,left,←,0.5466416999997818,True,7,1,0,10
084M31,5,300,PS,exp,50,↓,right,→,0.7003228000003219,False,6,-1,1,11
084M31,5,301,PS,exp,39,→,left,←,0.47607730000027004,False,7,-1,0,11
084M31,5,302,PS,exp,34,↓,down,↓,0.599134800000229,True,8,-1,0,11
084M31,5,303,PS,exp,43,→,right,→,0.5499643999996806,True,8,1,1,12
084M31,5,304,PS,exp,39,↓,up,↑,0.6595892000000276,False,7,-1,1,13
084M31,5,305,PS,exp,50,→,right,→,0.7607145000001765,True,8,-1,0,13
084M31,5,306,PS,exp,35,↑,right,→,0.4978701000000001,False,8,-1,0,13
084M31,5,307,PS,exp,29,←,left,←,0.5307576999998673,True,9,-1,0,13
084M31,5,308,PS,exp,47,↓,down,↓,0.5882500000002437,True,9,1,1,14
084M31,6,309,AS,intra_train,37,←,left,←,0.617772000000059,True,31,-,-,-
084M31,6,310,AS,intra_train,47,↑,up,↑,0.7839685000003556,True,31,-,-,-
084M31,6,311,AS,intra_train,46,↓,down,↓,0.5509302000000389,True,31,-,-,-
084M31,6,312,AS,intra_train,36,←,no_key,no_letter,-1.0,False,31,-,-,-
084M31,6,313,AS,intra_train,34,↓,down,↓,0.8358075999999528,True,31,-,-,-
084M31,6,314,AS,exp,25,↑,up,↑,0.617799599999671,True,21,0,0,0
084M31,6,315,AS,exp,38,→,right,→,0.7139046000002054,True,21,1,0,0
084M31,6,316,AS,exp,29,↓,down,↓,0.7099323000002187,True,20,1,0,0
084M31,6,317,AS,exp,36,↑,up,↑,0.5465490999999929,True,20,1,0,0
084M31,6,318,AS,exp,32,→,right,→,1.65992899999992,True,19,1,0,0
084M31,6,319,AS,exp,29,↓,down,↓,0.7041001000002325,True,19,1,0,0
084M31,6,320,AS,exp,27,←,left,←,0.9529806999998982,True,18,1,0,0
084M31,6,321,AS,exp,41,↓,right,→,0.9033777999998165,False,18,-1,1,1
084M31,6,322,AS,exp,30,→,right,→,0.6673340000002099,True,19,-1,0,1
084M31,6,323,AS,exp,46,↓,down,↓,0.7653235999996468,True,19,1,1,2
084M31,6,324,AS,exp,47,←,left,←,0.5283677999996144,True,18,1,0,2
084M31,6,325,AS,exp,26,↑,right,→,0.8332319999999527,False,18,-1,1,3
084M31,6,326,AS,exp,46,→,right,→,0.5791972000001806,True,19,-1,0,3
084M31,6,327,AS,exp,28,←,right,→,0.5015644000000066,False,19,-1,0,3
084M31,6,328,AS,exp,34,↓,right,→,0.36738340000010794,False,20,-1,0,3
084M31,6,329,AS,exp,30,→,right,→,0.6806710999999268,True,21,-1,0,3
084M31,6,330,AS,exp,46,↑,up,↑,0.7488158999999541,True,21,1,1,4
084M31,6,331,AS,exp,38,←,right,→,0.4673103000000083,False,20,-1,1,5
084M31,6,332,AS,exp,42,↓,down,↓,0.8428782000000865,True,21,-1,0,5
084M31,6,333,AS,exp,40,←,left,←,0.695110200000272,True,21,1,1,6
084M31,6,334,AS,exp,36,↑,up,↑,0.4340470999995887,True,20,1,0,6
084M31,6,335,AS,exp,42,←,right,→,0.5641977999998744,False,20,-1,1,7
084M31,6,336,AS,exp,35,→,right,→,0.8032263000000057,True,21,-1,0,7
084M31,6,337,AS,exp,39,←,left,←,0.5267510999997285,True,21,1,1,8
084M31,6,338,AS,exp,40,↑,up,↑,0.5104627999999138,True,20,1,0,8
084M31,6,339,AS,exp,35,→,right,→,0.5612995999999839,True,20,1,0,8
084M31,6,340,AS,exp,42,←,right,→,0.45046220000040194,False,19,-1,1,9
084M31,6,341,AS,exp,42,↑,left,←,0.3839562999996815,False,20,-1,0,9
084M31,6,342,AS,exp,27,→,right,→,0.6894852000000355,True,21,-1,0,9
084M31,6,343,AS,exp,25,↑,up,↑,0.598558299999695,True,21,1,1,10
084M31,6,344,AS,exp,40,→,right,→,0.4671867999995811,True,20,1,0,10
084M31,6,345,AS,exp,46,↓,down,↓,0.5852952000000187,True,20,1,0,10
084M31,6,346,AS,exp,48,→,right,→,0.5366992999997819,True,19,1,0,10
084M31,6,347,AS,exp,43,↑,up,↑,0.3840248999999858,True,19,1,0,10
084M31,6,348,AS,exp,33,→,right,→,0.4167752999996992,True,18,1,0,10
084M31,6,349,AS,exp,34,←,left,←,0.5279857000000447,True,18,1,0,10
084M31,6,350,AS,exp,48,→,right,→,0.4973011000001861,True,17,1,0,10
084M31,6,351,AS,exp,33,↑,up,↑,0.40041930000006687,True,17,1,0,10
084M31,6,352,AS,exp,47,←,left,←,0.44480190000012954,True,16,1,0,10
084M31,6,353,AS,exp,44,↓,down,↓,0.5759781000001567,True,16,1,0,10
084M31,6,354,AS,exp,35,←,left,←,0.4319519999999102,True,15,1,0,10
084M31,6,355,AS,exp,27,↑,up,↑,1.254564500000015,True,15,1,0,10
084M31,6,356,AS,exp,33,↓,right,→,0.7056354000001193,False,14,-1,1,11
084M31,6,357,AS,exp,32,←,right,→,0.7946968999999626,False,15,-1,0,11
084M31,6,358,AS,exp,28,→,left,←,0.5209737999998652,False,16,-1,0,11
084M31,6,359,AS,exp,38,←,right,→,0.3674642999999378,False,17,-1,0,11
084M31,6,360,AS,exp,25,→,right,→,0.49550330000010945,True,18,-1,0,11
084M31,6,361,AS,exp,44,↑,up,↑,0.5149622000003546,True,18,1,1,12
084M31,6,362,AS,exp,37,→,right,→,0.4558265000000574,True,17,1,0,12
084M31,6,363,AS,exp,37,↑,right,→,0.5995579999998881,False,17,-1,1,13
084M31,6,364,AS,exp,28,←,right,→,0.4007715000002463,False,18,-1,0,13
084M31,6,365,AS,exp,46,↑,up,↑,0.41725769999993645,True,19,-1,0,13
084M31,6,366,AS,exp,35,→,right,→,1.4764807999999903,True,19,1,1,14
084M31,7,367,AS,intra_train,46,↓,down,↓,0.8732921000000715,True,31,-,-,-
084M31,7,368,AS,intra_train,30,→,right,→,0.7429037000001699,True,31,-,-,-
084M31,7,369,AS,intra_train,43,↓,down,↓,0.6502795999999762,True,31,-,-,-
084M31,7,370,AS,intra_train,40,→,right,→,0.7164690999998129,True,31,-,-,-
084M31,7,371,AS,intra_train,45,←,left,←,0.5838564999999107,True,31,-,-,-
084M31,7,372,AS,exp,36,↓,down,↓,0.6113867999997638,True,21,0,0,0
084M31,7,373,AS,exp,46,→,right,→,0.4839243000001261,True,21,1,0,0
084M31,7,374,AS,exp,42,←,left,←,0.5122903000001315,True,20,1,0,0
084M31,7,375,AS,exp,50,↑,right,→,0.7898085000001629,False,20,-1,1,1
084M31,7,376,AS,exp,44,←,left,←,0.4173458999998729,True,21,-1,0,1
084M31,7,377,AS,exp,47,↑,up,↑,0.6393499999999221,True,21,1,1,2
084M31,7,378,AS,exp,36,←,right,→,0.4672176999997646,False,20,-1,1,3
084M31,7,379,AS,exp,32,→,left,←,0.433967500000108,False,21,-1,0,3
084M31,7,380,AS,exp,30,↑,right,→,0.6650182999997014,False,22,-1,0,3
084M31,7,381,AS,exp,28,↓,down,↓,0.8819025000002512,True,23,-1,0,3
084M31,7,382,AS,exp,41,←,left,←,0.8085152000003291,True,23,1,1,4
084M31,7,383,AS,exp,37,→,right,→,0.4507874000000811,True,22,1,0,4
084M31,7,384,AS,exp,38,↓,down,↓,2.0104615000000194,True,22,1,0,4
084M31,7,385,AS,exp,42,→,right,→,0.7929081000002043,True,21,1,0,4
084M31,7,386,AS,exp,32,↑,up,↑,1.1016152999995938,True,21,1,0,4
084M31,7,387,AS,exp,45,↓,down,↓,0.6070408000000498,True,20,1,0,4
084M31,7,388,AS,exp,50,←,no_key,no_letter,-1.0,False,20,-1,1,5
084M31,7,389,AS,exp,25,↓,down,↓,0.8885977999998431,True,21,-1,0,5
084M31,7,390,AS,exp,45,→,right,→,1.2950909000001047,True,21,1,1,6
084M31,7,391,AS,exp,37,↓,down,↓,0.7166126000001896,True,20,1,0,6
084M31,7,392,AS,exp,29,↑,right,→,0.9631650999999692,False,20,-1,1,7
084M31,7,393,AS,exp,32,↓,down,↓,0.7900777999998354,True,21,-1,0,7
084M31,7,394,AS,exp,42,←,left,←,0.7341265000000021,True,21,1,1,8
084M31,7,395,AS,exp,29,↓,down,↓,0.7135454999997819,True,20,1,0,8
084M31,7,396,AS,exp,34,↑,up,↑,0.5325238000000354,True,20,1,0,8
084M31,7,397,AS,exp,41,↓,right,→,0.5348496000001433,False,19,-1,1,9
084M31,7,398,AS,exp,34,↑,up,↑,0.6525468000004366,True,20,-1,0,9
084M31,7,399,AS,exp,50,→,right,→,0.572552099999939,True,20,1,1,10
084M31,7,400,AS,exp,41,↑,up,↑,0.6954851000000417,True,19,1,0,10
084M31,7,401,AS,exp,33,→,right,→,0.6798850999998649,True,19,1,0,10
084M31,7,402,AS,exp,29,↓,down,↓,0.5724206999998387,True,18,1,0,10
084M31,7,403,AS,exp,46,←,right,→,0.8294808999999077,False,18,-1,1,11
084M31,7,404,AS,exp,35,→,right,→,0.5183474999998907,True,19,-1,0,11
084M31,7,405,AS,exp,34,←,right,→,0.486246200000096,False,19,-1,0,11
084M31,7,406,AS,exp,31,↑,up,↑,0.6270746999998664,True,20,-1,0,11
084M31,7,407,AS,exp,38,↓,up,↑,0.8261578999999983,False,20,-1,0,11
084M31,7,408,AS,exp,31,↑,up,↑,0.55678910000006,True,21,-1,0,11
084M31,7,409,AS,exp,25,↓,up,↑,0.560743900000034,False,21,-1,0,11
084M31,7,410,AS,exp,27,→,right,→,0.6826216999997996,True,22,-1,0,11
084M31,7,411,AS,exp,32,←,left,←,1.6923946000001706,True,22,1,1,12
084M31,7,412,AS,exp,44,→,right,→,0.6987364000001435,True,21,1,0,12
084M31,7,413,AS,exp,39,↑,up,↑,0.5187028000000282,True,21,1,0,12
084M31,7,414,AS,exp,46,←,right,→,0.8344215000001896,False,20,-1,1,13
084M31,7,415,AS,exp,31,↑,left,←,0.9503860999998324,False,21,-1,0,13
084M31,7,416,AS,exp,42,→,right,→,1.6302644999996119,True,22,-1,0,13
084M31,7,417,AS,exp,50,↓,left,←,1.069982600000003,False,22,-1,0,13
084M31,7,418,AS,exp,44,←,right,→,1.5665076999998746,False,23,-1,0,13
084M31,7,419,AS,exp,31,↓,left,←,0.5173072000002321,False,24,-1,0,13
084M31,7,420,AS,exp,43,→,right,→,0.5509637999998631,True,25,-1,0,13
084M31,7,421,AS,exp,31,←,left,←,0.8992479999997158,True,25,1,1,14
084M31,8,422,PS,intra_train,35,→,right,→,0.6004920999998831,True,16,-,-,-
084M31,8,423,PS,intra_train,32,↓,down,↓,0.5751319999999396,True,16,-,-,-
084M31,8,424,PS,intra_train,50,←,right,→,0.5053053000001455,False,16,-,-,-
084M31,8,425,PS,intra_train,25,↓,down,↓,0.6403730999995787,True,16,-,-,-
084M31,8,426,PS,intra_train,40,←,left,←,0.5597695999999814,True,16,-,-,-
084M31,8,427,PS,exp,30,↑,up,↑,0.5239762999999584,True,11,0,0,0
084M31,8,428,PS,exp,41,↓,down,↓,0.5883240999996815,True,11,1,0,0
084M31,8,429,PS,exp,34,↑,up,↑,0.5491894000001594,True,10,1,0,0
084M31,8,430,PS,exp,42,←,right,→,0.4738740000002508,False,10,-1,1,1
084M31,8,431,PS,exp,44,↑,up,↑,0.5232897000000776,True,11,-1,0,1
084M31,8,432,PS,exp,43,←,up,↑,0.5971479000004365,False,11,-1,0,1
084M31,8,433,PS,exp,40,↓,down,↓,0.4764426000001549,True,12,-1,0,1
084M31,8,434,PS,exp,50,→,right,→,0.6347630000000208,True,12,1,1,2
084M31,8,435,PS,exp,49,←,left,←,0.5538931999999477,True,11,1,0,2
084M31,8,436,PS,exp,39,↑,up,↑,0.46737080000002607,True,11,1,0,2
084M31,8,437,PS,exp,42,→,up,↑,0.5783469999996669,False,10,-1,1,3
084M31,8,438,PS,exp,30,↑,left,←,0.5868272000002435,False,11,-1,0,3
084M31,8,439,PS,exp,26,→,right,→,0.4551504000000932,True,12,-1,0,3
084M31,8,440,PS,exp,30,↓,down,↓,0.6226563000000169,True,12,1,1,4
084M31,8,441,PS,exp,39,←,right,→,0.4318759000002501,False,11,-1,1,5
084M31,8,442,PS,exp,33,↓,down,↓,0.6240201999999044,True,12,-1,0,5
084M31,8,443,PS,exp,46,←,left,←,0.43493179999995846,True,12,1,1,6
084M31,8,444,PS,exp,41,↑,up,↑,0.5575020999999651,True,11,1,0,6
084M31,8,445,PS,exp,28,↓,right,→,0.5601873999999043,False,11,-1,1,7
084M31,8,446,PS,exp,33,↑,up,↑,0.4206835999998475,True,12,-1,0,7
084M31,8,447,PS,exp,32,↓,down,↓,0.622464200000195,True,12,1,1,8
084M31,8,448,PS,exp,47,→,right,→,0.7706296000001203,True,11,1,0,8
084M31,8,449,PS,exp,29,↓,down,↓,0.603321699999924,True,11,1,0,8
084M31,8,450,PS,exp,36,→,right,→,0.44347490000018297,True,10,1,0,8
084M31,8,451,PS,exp,44,↓,down,↓,0.6444446999998945,True,10,1,0,8
084M31,8,452,PS,exp,35,←,left,←,0.5096788000000743,True,9,1,0,8
084M31,8,453,PS,exp,32,↓,down,↓,0.817512799999804,True,9,1,0,8
084M31,8,454,PS,exp,28,→,right,→,0.47143980000009833,True,8,1,0,8
084M31,8,455,PS,exp,50,←,left,←,0.5280170000000908,True,8,1,0,8
084M31,8,456,PS,exp,30,→,right,→,0.6107142000000749,True,7,1,0,8
084M31,8,457,PS,exp,37,↓,down,↓,0.5954586999996536,True,7,1,0,8
084M31,8,458,PS,exp,50,→,right,→,0.5422843000001194,True,6,1,0,8
084M31,8,459,PS,exp,30,↑,left,←,0.8645934000001034,False,6,-1,1,9
084M31,8,460,PS,exp,44,↓,right,→,0.574250099999972,False,7,-1,0,9
084M31,8,461,PS,exp,40,→,right,→,0.6345587000000705,True,8,-1,0,9
084M31,8,462,PS,exp,45,↑,left,←,0.37919160000001284,False,8,-1,0,9
084M31,8,463,PS,exp,38,→,right,→,0.4399940000002971,True,9,-1,0,9
084M31,8,464,PS,exp,46,←,up,↑,0.4890623000001142,False,9,-1,0,9
084M31,8,465,PS,exp,34,→,right,→,0.5547941999998329,True,10,-1,0,9
084M31,8,466,PS,exp,31,↓,right,→,0.5706167999996978,False,10,-1,0,9
084M31,8,467,PS,exp,44,←,left,←,0.5625046000000111,True,11,-1,0,9
084M31,8,468,PS,exp,39,↑,up,↑,0.4601981999999225,True,11,1,1,10
084M31,8,469,PS,exp,38,↓,up,↑,0.5234503000001496,False,10,-1,1,11
084M31,8,470,PS,exp,42,↑,up,↑,0.4530550999998013,True,11,-1,0,11
084M31,8,471,PS,exp,46,↓,down,↓,0.6751987000002373,True,11,1,1,12
084M31,8,472,PS,exp,32,↑,up,↑,0.4778886000003695,True,10,1,0,12
084M31,8,473,PS,exp,43,←,left,←,0.4851150999998026,True,10,1,0,12
084M31,8,474,PS,exp,41,→,right,→,0.4769332000000759,True,9,1,0,12
084M31,8,475,PS,exp,50,↑,up,↑,0.4368262000002687,True,9,1,0,12
084M31,8,476,PS,exp,38,←,right,→,0.573293399999784,False,8,-1,1,13
084M31,8,477,PS,exp,37,↑,up,↑,0.4701734000000215,True,9,-1,0,13
084M31,8,478,PS,exp,43,↓,down,↓,0.5369371000001593,True,9,1,1,14
