PART_ID,Block_no,Trial_no,Block_type,Trial_type,CSI,Stim_letter,Key_pressed,letter_choose,Rt,Corr,Stimulus Time,Level,Reversal,Revs_count
086M34,1,1,PS,train,32,↓,down,↓,1.3870470999972895,True,30,-,-,-
086M34,1,2,PS,train,26,↑,no_key,no_letter,-1.0,False,30,-,-,-
086M34,1,3,PS,train,34,↓,down,↓,0.6172353000001749,True,30,-,-,-
086M34,1,4,PS,train,38,↑,no_key,no_letter,-1.0,False,30,-,-,-
086M34,1,5,PS,train,43,←,down,↓,0.33447890000388725,False,30,-,-,-
086M34,1,6,PS,train,26,↓,no_key,no_letter,-1.0,False,30,-,-,-
086M34,1,7,PS,train,38,→,right,→,0.742302099999506,True,30,-,-,-
086M34,1,8,PS,train,33,↑,up,↑,0.6845052999997279,True,30,-,-,-
086M34,1,9,PS,train,37,→,right,→,0.7478837999951793,True,30,-,-,-
086M34,1,10,PS,train,49,↓,down,↓,0.6339163999946322,True,30,-,-,-
086M34,2,11,AS,train,35,↑,up,↑,1.0612670999980764,True,45,-,-,-
086M34,2,12,AS,train,25,→,right,→,0.6679608999984339,True,45,-,-,-
086M34,2,13,AS,train,31,↑,up,↑,0.9181681000045501,True,45,-,-,-
086M34,2,14,AS,train,25,←,no_key,no_letter,-1.0,False,45,-,-,-
086M34,2,15,AS,train,35,↓,down,↓,0.8338437999991584,True,45,-,-,-
086M34,2,16,AS,train,44,←,left,←,0.6511862999977893,True,45,-,-,-
086M34,2,17,AS,train,45,↑,up,↑,0.8339223000002676,True,45,-,-,-
086M34,2,18,AS,train,46,→,right,→,1.016981599997962,True,45,-,-,-
086M34,2,19,AS,train,34,←,left,←,1.040162400000554,True,45,-,-,-
086M34,2,20,AS,train,38,↓,down,↓,0.8838673999998719,True,45,-,-,-
086M34,-,21,PS,adaptive,38,←,left,←,0.6988448999982211,True,10,0,0,0
086M34,-,22,PS,adaptive,48,↑,no_key,no_letter,-1.0,False,10,-1,0,0
086M34,-,23,PS,adaptive,45,←,left,←,0.5052622000002884,True,11,-1,0,0
086M34,-,24,PS,adaptive,36,↑,no_key,no_letter,-1.0,False,11,-1,0,0
086M34,-,25,PS,adaptive,48,↓,down,↓,0.5564283999992767,True,12,-1,0,0
086M34,-,26,PS,adaptive,38,←,left,←,0.6104584999993676,True,12,1,1,1
086M34,-,27,PS,adaptive,43,↑,no_key,no_letter,-1.0,False,11,-1,1,2
086M34,-,28,PS,adaptive,48,↓,down,↓,0.5600722000017413,True,12,-1,0,2
086M34,-,29,PS,adaptive,26,←,no_key,no_letter,-1.0,False,12,-1,0,2
086M34,-,30,PS,adaptive,34,↓,no_key,no_letter,-1.0,False,13,-1,0,2
086M34,-,31,PS,adaptive,28,↑,up,↑,0.4795446999996784,True,14,-1,0,2
086M34,-,32,PS,adaptive,33,→,no_key,no_letter,-1.0,False,14,-1,0,2
086M34,-,33,PS,adaptive,41,↓,down,↓,0.5078890000004321,True,15,-1,0,2
086M34,-,34,PS,adaptive,39,→,right,→,1.1284272999982932,True,15,1,1,3
086M34,-,35,PS,adaptive,43,↑,up,↑,0.45314459999644896,True,14,1,0,3
086M34,-,36,PS,adaptive,32,↓,down,↓,0.4568398000046727,True,14,1,0,3
086M34,-,37,PS,adaptive,39,←,up,↑,0.6633281000031275,False,13,-1,1,4
086M34,-,38,AS,adaptive,32,→,down,↓,0.5731980999989901,False,20,-1,0,0
086M34,-,39,AS,adaptive,33,←,left,←,0.530207399999199,True,21,-1,0,0
086M34,-,40,AS,adaptive,29,↑,up,↑,0.7063207999963197,True,21,1,1,1
086M34,-,41,AS,adaptive,32,←,left,←,0.5931306000056793,True,20,1,0,1
086M34,-,42,AS,adaptive,49,↓,down,↓,0.5479085000042687,True,20,1,0,1
086M34,-,43,AS,adaptive,41,→,right,→,0.698766000001342,True,19,1,0,1
086M34,-,44,AS,adaptive,41,↓,left,←,0.5178263999987394,False,19,-1,1,2
086M34,-,45,AS,adaptive,46,→,right,→,0.6538342999992892,True,20,-1,0,2
086M34,-,46,AS,adaptive,26,↑,right,→,0.6179993999976432,False,20,-1,0,2
086M34,-,47,AS,adaptive,50,↓,down,↓,0.483904500004428,True,21,-1,0,2
086M34,-,48,AS,adaptive,33,←,right,→,0.48393639999994775,False,21,-1,0,2
086M34,-,49,AS,adaptive,38,↓,down,↓,0.6424894000010681,True,22,-1,0,2
086M34,-,50,AS,adaptive,26,→,right,→,0.6350731999991694,True,22,1,1,3
086M34,-,51,AS,adaptive,31,↑,left,←,0.45068950000131736,False,21,-1,1,4
086M34,1,52,AS,intra_train,38,↓,right,→,0.5504609999989043,False,33,-,-,-
086M34,1,53,AS,intra_train,31,←,right,→,0.4846181999964756,False,33,-,-,-
086M34,1,54,AS,intra_train,26,↓,down,↓,1.3192726999986917,True,33,-,-,-
086M34,1,55,AS,intra_train,47,↑,up,↑,0.6672491999997874,True,33,-,-,-
086M34,1,56,AS,intra_train,48,↓,down,↓,0.8248829000003752,True,33,-,-,-
086M34,1,57,AS,exp,42,←,left,←,0.38375639999867417,True,22,0,0,0
086M34,1,58,AS,exp,30,↑,down,↓,0.7563909000018612,False,22,-1,0,0
086M34,1,59,AS,exp,42,↓,down,↓,0.4176976000017021,True,23,-1,0,0
086M34,1,60,AS,exp,43,←,left,←,0.4338888999991468,True,23,1,1,1
086M34,1,61,AS,exp,38,→,right,→,0.655104699995718,True,22,1,0,1
086M34,1,62,AS,exp,41,←,left,←,0.6226147999987006,True,22,1,0,1
086M34,1,63,AS,exp,29,→,right,→,0.7247817000024952,True,21,1,0,1
086M34,1,64,AS,exp,42,↓,down,↓,0.4671692999982042,True,21,1,0,1
086M34,1,65,AS,exp,26,→,right,→,0.7725076999995508,True,20,1,0,1
086M34,1,66,AS,exp,29,↓,down,↓,0.5924735000007786,True,20,1,0,1
086M34,1,67,AS,exp,30,←,left,←,0.4504683000050136,True,19,1,0,1
086M34,1,68,AS,exp,26,→,right,→,0.5270311999993282,True,19,1,0,1
086M34,1,69,AS,exp,26,↓,down,↓,0.527629700001853,True,18,1,0,1
086M34,1,70,AS,exp,28,→,no_key,no_letter,-1.0,False,18,-1,1,2
086M34,1,71,AS,exp,31,↑,up,↑,0.5970655999990413,True,19,-1,0,2
086M34,1,72,AS,exp,28,→,right,→,0.6313898000007612,True,19,1,1,3
086M34,1,73,AS,exp,34,↓,down,↓,0.4985196999987238,True,18,1,0,3
086M34,1,74,AS,exp,44,←,left,←,0.5828237000023364,True,18,1,0,3
086M34,1,75,AS,exp,28,↓,right,→,0.9242115000015474,False,17,-1,1,4
086M34,1,76,AS,exp,33,↑,up,↑,0.7437432000006083,True,18,-1,0,4
086M34,1,77,AS,exp,33,←,down,↓,0.6771233999970718,False,18,-1,0,4
086M34,1,78,AS,exp,44,↓,right,→,0.5549215000064578,False,19,-1,0,4
086M34,1,79,AS,exp,39,↑,up,↑,0.4343836999978521,True,20,-1,0,4
086M34,1,80,AS,exp,46,↓,down,↓,0.5777114000011352,True,20,1,1,5
086M34,1,81,AS,exp,40,→,right,→,0.7015558999992209,True,19,1,0,5
086M34,1,82,AS,exp,33,↓,left,←,0.632635100002517,False,19,-1,1,6
086M34,1,83,AS,exp,42,←,down,↓,0.3840505000043777,False,20,-1,0,6
086M34,1,84,AS,exp,45,→,right,→,0.7113811999952304,True,21,-1,0,6
086M34,1,85,AS,exp,43,↑,up,↑,0.5264501000056043,True,21,1,1,7
086M34,1,86,AS,exp,35,↓,down,↓,0.41730740000639344,True,20,1,0,7
086M34,1,87,AS,exp,40,→,right,→,0.6456399000016972,True,20,1,0,7
086M34,1,88,AS,exp,40,↓,down,↓,0.6055898999984493,True,19,1,0,7
086M34,1,89,AS,exp,46,↑,up,↑,0.4909389000022202,True,19,1,0,7
086M34,1,90,AS,exp,29,←,down,↓,0.9213894999993499,False,18,-1,1,8
086M34,1,91,AS,exp,44,→,right,→,0.6465238000018871,True,19,-1,0,8
086M34,1,92,AS,exp,44,↑,right,→,0.5800018000009004,False,19,-1,0,8
086M34,1,93,AS,exp,31,←,left,←,0.9733762999967439,True,20,-1,0,8
086M34,1,94,AS,exp,34,↓,down,↓,1.066124500001024,True,20,1,1,9
086M34,1,95,AS,exp,37,←,left,←,0.5668721000038204,True,19,1,0,9
086M34,1,96,AS,exp,29,↓,down,↓,0.8645163999972283,True,19,1,0,9
086M34,1,97,AS,exp,25,←,right,→,1.0779182000042056,False,18,-1,1,10
086M34,1,98,AS,exp,36,↑,up,↑,0.5417373000018415,True,19,-1,0,10
086M34,1,99,AS,exp,46,←,right,→,0.7378556999974535,False,19,-1,0,10
086M34,1,100,AS,exp,37,↑,right,→,0.4673456000018632,False,20,-1,0,10
086M34,1,101,AS,exp,41,→,no_key,no_letter,-1.0,False,21,-1,0,10
086M34,1,102,AS,exp,29,↑,up,↑,0.5394721999982721,True,22,-1,0,10
086M34,1,103,AS,exp,50,→,right,→,0.6353929000033531,True,22,1,1,11
086M34,1,104,AS,exp,36,←,down,↓,0.7716968999957317,False,21,-1,1,12
086M34,1,105,AS,exp,45,→,no_key,no_letter,-1.0,False,22,-1,0,12
086M34,1,106,AS,exp,39,↑,no_key,no_letter,-1.0,False,23,-1,0,12
086M34,1,107,AS,exp,38,↓,down,↓,0.5339931999988039,True,24,-1,0,12
086M34,1,108,AS,exp,41,→,right,→,0.6697281000015209,True,24,1,1,13
086M34,1,109,AS,exp,28,↓,no_key,no_letter,-1.0,False,23,-1,1,14
086M34,2,110,PS,intra_train,29,→,left,←,0.7229593000010937,False,21,-,-,-
086M34,2,111,PS,intra_train,26,←,left,←,0.6336671999961254,True,21,-,-,-
086M34,2,112,PS,intra_train,31,→,no_key,no_letter,-1.0,False,21,-,-,-
086M34,2,113,PS,intra_train,37,←,no_key,no_letter,-1.0,False,21,-,-,-
086M34,2,114,PS,intra_train,38,→,no_key,no_letter,-1.0,False,21,-,-,-
086M34,2,115,PS,exp,49,↓,down,↓,0.8004564000002574,True,14,0,0,0
086M34,2,116,PS,exp,27,↑,no_key,no_letter,-1.0,False,14,-1,0,0
086M34,2,117,PS,exp,40,→,no_key,no_letter,-1.0,False,15,-1,0,0
086M34,2,118,PS,exp,42,←,no_key,no_letter,-1.0,False,16,-1,0,0
086M34,2,119,PS,exp,26,→,right,→,0.6150168999956804,True,17,-1,0,0
086M34,2,120,PS,exp,35,←,left,←,0.6285638000044855,True,17,1,1,1
086M34,2,121,PS,exp,39,↓,right,→,0.44200529999943683,False,16,-1,1,2
086M34,2,122,PS,exp,30,→,no_key,no_letter,-1.0,False,17,-1,0,2
086M34,2,123,PS,exp,46,↑,no_key,no_letter,-1.0,False,18,-1,0,2
086M34,2,124,PS,exp,28,→,no_key,no_letter,-1.0,False,19,-1,0,2
086M34,2,125,PS,exp,39,←,no_key,no_letter,-1.0,False,20,-1,0,2
086M34,2,126,PS,exp,40,→,no_key,no_letter,-1.0,False,21,-1,0,2
086M34,2,127,PS,exp,33,↓,down,↓,0.5828436000010697,True,22,-1,0,2
086M34,2,128,PS,exp,44,←,no_key,no_letter,-1.0,False,22,-1,0,2
086M34,2,129,PS,exp,47,↓,down,↓,0.5520638000016334,True,23,-1,0,2
086M34,2,130,PS,exp,40,←,left,←,0.4343399999997928,True,23,1,1,3
086M34,2,131,PS,exp,40,↓,down,↓,0.5006395000018529,True,22,1,0,3
086M34,2,132,PS,exp,44,←,right,→,0.6272930999984965,False,22,-1,1,4
086M34,2,133,PS,exp,29,↑,no_key,no_letter,-1.0,False,23,-1,0,4
086M34,2,134,PS,exp,34,←,left,←,0.46734960000321735,True,24,-1,0,4
086M34,2,135,PS,exp,28,↑,up,↑,0.5343951000031666,True,24,1,1,5
086M34,2,136,PS,exp,42,←,left,←,0.8086480000056326,True,23,1,0,5
086M34,2,137,PS,exp,47,↓,down,↓,0.5005253999988781,True,23,1,0,5
086M34,2,138,PS,exp,41,→,no_key,no_letter,-1.0,False,22,-1,1,6
086M34,2,139,PS,exp,30,↑,no_key,no_letter,-1.0,False,23,-1,0,6
086M34,2,140,PS,exp,26,→,right,→,0.5337739000024158,True,24,-1,0,6
086M34,2,141,PS,exp,33,←,left,←,0.7697195000000647,True,24,1,1,7
086M34,2,142,PS,exp,48,→,right,→,0.6286476000022958,True,23,1,0,7
086M34,2,143,PS,exp,27,↓,no_key,no_letter,-1.0,False,23,-1,1,8
086M34,2,144,PS,exp,44,←,left,←,0.6653246999994735,True,24,-1,0,8
086M34,2,145,PS,exp,41,↓,down,↓,0.6594923000011477,True,24,1,1,9
086M34,2,146,PS,exp,38,←,no_key,no_letter,-1.0,False,23,-1,1,10
086M34,2,147,PS,exp,45,→,right,→,0.7159957000039867,True,24,-1,0,10
086M34,2,148,PS,exp,42,↑,up,↑,0.8154786000013701,True,24,1,1,11
086M34,2,149,PS,exp,30,←,left,←,0.756736399998772,True,23,1,0,11
086M34,2,150,PS,exp,48,↓,down,↓,0.862388399997144,True,23,1,0,11
086M34,2,151,PS,exp,47,→,right,→,0.9607430000032764,True,22,1,0,11
086M34,2,152,PS,exp,43,←,left,←,1.2404509000043618,True,22,1,0,11
086M34,2,153,PS,exp,27,↑,up,↑,0.6471885999999358,True,21,1,0,11
086M34,2,154,PS,exp,40,↓,down,↓,0.5311824999953387,True,21,1,0,11
086M34,2,155,PS,exp,48,←,left,←,0.7128436999992118,True,20,1,0,11
086M34,2,156,PS,exp,47,↓,right,→,1.2080296999993152,False,20,-1,1,12
086M34,2,157,PS,exp,40,←,no_key,no_letter,-1.0,False,21,-1,0,12
086M34,2,158,PS,exp,33,→,right,→,0.6665395000018179,True,22,-1,0,12
086M34,2,159,PS,exp,38,←,left,←,0.6370931999990717,True,22,1,1,13
086M34,2,160,PS,exp,42,↓,down,↓,0.6360236000036821,True,21,1,0,13
086M34,2,161,PS,exp,33,←,left,←,0.527541099996597,True,21,1,0,13
086M34,2,162,PS,exp,25,→,no_key,no_letter,-1.0,False,20,-1,1,14
086M34,3,163,PS,intra_train,39,↑,up,↑,0.4338170000046375,True,21,-,-,-
086M34,3,164,PS,intra_train,32,→,no_key,no_letter,-1.0,False,21,-,-,-
086M34,3,165,PS,intra_train,47,↓,no_key,no_letter,-1.0,False,21,-,-,-
086M34,3,166,PS,intra_train,49,←,left,←,0.6084711000003153,True,21,-,-,-
086M34,3,167,PS,intra_train,36,↓,down,↓,0.5188441999998759,True,21,-,-,-
086M34,3,168,PS,exp,26,→,right,→,0.5726123999993433,True,14,0,0,0
086M34,3,169,PS,exp,46,↓,down,↓,0.46635950000199955,True,14,1,0,0
086M34,3,170,PS,exp,39,←,right,→,0.53586859999632,False,13,-1,1,1
086M34,3,171,PS,exp,50,↓,down,↓,0.5037591000000248,True,14,-1,0,1
086M34,3,172,PS,exp,41,→,right,→,0.48086160000093514,True,14,1,1,2
086M34,3,173,PS,exp,28,↓,no_key,no_letter,-1.0,False,13,-1,1,3
086M34,3,174,PS,exp,30,↑,up,↑,0.5295467000032659,True,14,-1,0,3
086M34,3,175,PS,exp,41,→,right,→,0.503240599995479,True,14,1,1,4
086M34,3,176,PS,exp,32,↑,no_key,no_letter,-1.0,False,13,-1,1,5
086M34,3,177,PS,exp,43,→,right,→,0.4646694000039133,True,14,-1,0,5
086M34,3,178,PS,exp,38,←,down,↓,0.5656167000051937,False,14,-1,0,5
086M34,3,179,PS,exp,42,→,right,→,0.5005165000038687,True,15,-1,0,5
086M34,3,180,PS,exp,26,←,left,←,0.6710152000014205,True,15,1,1,6
086M34,3,181,PS,exp,31,↓,down,↓,0.49197329999879,True,14,1,0,6
086M34,3,182,PS,exp,33,→,right,→,0.5287113000013051,True,14,1,0,6
086M34,3,183,PS,exp,37,↑,up,↑,0.5449269999953685,True,13,1,0,6
086M34,3,184,PS,exp,34,↓,no_key,no_letter,-1.0,False,13,-1,1,7
086M34,3,185,PS,exp,30,→,right,→,0.47654590000456665,True,14,-1,0,7
086M34,3,186,PS,exp,33,←,left,←,0.7150538999994751,True,14,1,1,8
086M34,3,187,PS,exp,26,↓,up,↑,0.6950104999996256,False,13,-1,1,9
086M34,3,188,PS,exp,38,↑,no_key,no_letter,-1.0,False,14,-1,0,9
086M34,3,189,PS,exp,25,↓,no_key,no_letter,-1.0,False,15,-1,0,9
086M34,3,190,PS,exp,36,←,no_key,no_letter,-1.0,False,16,-1,0,9
086M34,3,191,PS,exp,50,↓,up,↑,0.3671732000002521,False,17,-1,0,9
086M34,3,192,PS,exp,46,→,right,→,0.4339613999982248,True,18,-1,0,9
086M34,3,193,PS,exp,44,↑,no_key,no_letter,-1.0,False,18,-1,0,9
086M34,3,194,PS,exp,44,←,left,←,0.542737700001453,True,19,-1,0,9
086M34,3,195,PS,exp,28,↓,down,↓,0.45075809999980265,True,19,1,1,10
086M34,3,196,PS,exp,44,→,right,→,0.5921212999965064,True,18,1,0,10
086M34,3,197,PS,exp,50,↓,no_key,no_letter,-1.0,False,18,-1,1,11
086M34,3,198,PS,exp,33,→,no_key,no_letter,-1.0,False,19,-1,0,11
086M34,3,199,PS,exp,32,←,no_key,no_letter,-1.0,False,20,-1,0,11
086M34,3,200,PS,exp,34,↓,right,→,0.46784759999718517,False,21,-1,0,11
086M34,3,201,PS,exp,37,↑,up,↑,0.6354445000033593,True,22,-1,0,11
086M34,3,202,PS,exp,46,→,right,→,0.4840025000012247,True,22,1,1,12
086M34,3,203,PS,exp,39,↓,no_key,no_letter,-1.0,False,21,-1,1,13
086M34,3,204,PS,exp,30,→,no_key,no_letter,-1.0,False,22,-1,0,13
086M34,3,205,PS,exp,32,↓,down,↓,0.5707448999964981,True,23,-1,0,13
086M34,3,206,PS,exp,47,←,no_key,no_letter,-1.0,False,23,-1,0,13
086M34,3,207,PS,exp,49,↑,down,↓,0.5005568999986281,False,24,-1,0,13
086M34,3,208,PS,exp,47,←,no_key,no_letter,-1.0,False,25,-1,0,13
086M34,3,209,PS,exp,39,→,right,→,0.5504998000033083,True,26,-1,0,13
086M34,3,210,PS,exp,37,↓,no_key,no_letter,-1.0,False,26,-1,0,13
086M34,3,211,PS,exp,27,↑,no_key,no_letter,-1.0,False,27,-1,0,13
086M34,3,212,PS,exp,25,←,left,←,0.8343643999978667,True,28,-1,0,13
086M34,3,213,PS,exp,35,↓,up,↑,0.7041980999929365,False,28,-1,0,13
086M34,3,214,PS,exp,45,→,right,→,0.6739879000015208,True,29,-1,0,13
086M34,3,215,PS,exp,26,←,left,←,0.7505114999949001,True,29,1,1,14
086M34,4,216,AS,intra_train,47,↑,left,←,0.4346704999989015,False,33,-,-,-
086M34,4,217,AS,intra_train,40,→,no_key,no_letter,-1.0,False,33,-,-,-
086M34,4,218,AS,intra_train,50,↓,right,→,0.5011927999948966,False,33,-,-,-
086M34,4,219,AS,intra_train,38,↑,up,↑,0.5336209000015515,True,33,-,-,-
086M34,4,220,AS,intra_train,28,→,left,←,0.8146315999983926,False,33,-,-,-
086M34,4,221,AS,exp,43,↑,right,→,0.4339749999999185,False,22,-1,0,0
086M34,4,222,AS,exp,42,↓,up,↑,0.6203768999985186,False,23,-1,0,0
086M34,4,223,AS,exp,33,←,down,↓,0.2845809999998892,False,24,-1,0,0
086M34,4,224,AS,exp,25,→,right,→,0.678506299998844,True,25,-1,0,0
086M34,4,225,AS,exp,45,↓,down,↓,0.7549473000035505,True,25,1,1,1
086M34,4,226,AS,exp,38,←,left,←,0.5005569999993895,True,24,1,0,1
086M34,4,227,AS,exp,32,↓,down,↓,0.533799299999373,True,24,1,0,1
086M34,4,228,AS,exp,29,→,right,→,0.5899809999973513,True,23,1,0,1
086M34,4,229,AS,exp,41,↑,up,↑,0.4339029999973718,True,23,1,0,1
086M34,4,230,AS,exp,30,↓,no_key,no_letter,-1.0,False,22,-1,1,2
086M34,4,231,AS,exp,32,←,left,←,0.5970505000004778,True,23,-1,0,2
086M34,4,232,AS,exp,28,↑,up,↑,0.655725300006452,True,23,1,1,3
086M34,4,233,AS,exp,27,→,right,→,0.8712174999964191,True,22,1,0,3
086M34,4,234,AS,exp,44,←,left,←,0.9339044999942416,True,22,1,0,3
086M34,4,235,AS,exp,42,↓,down,↓,0.7701707000014721,True,21,1,0,3
086M34,4,236,AS,exp,41,↑,up,↑,0.6023568000018713,True,21,1,0,3
086M34,4,237,AS,exp,36,↓,down,↓,0.5921821000010823,True,20,1,0,3
086M34,4,238,AS,exp,29,←,left,←,0.6663713999951142,True,20,1,0,3
086M34,4,239,AS,exp,34,↓,down,↓,0.6403151000049547,True,19,1,0,3
086M34,4,240,AS,exp,26,←,left,←,0.6065988999980618,True,19,1,0,3
086M34,4,241,AS,exp,27,↑,up,↑,0.5425476999953389,True,18,1,0,3
086M34,4,242,AS,exp,37,←,left,←,0.49851370000396855,True,18,1,0,3
086M34,4,243,AS,exp,33,↓,down,↓,0.7341755000015837,True,17,1,0,3
086M34,4,244,AS,exp,44,→,no_key,no_letter,-1.0,False,17,-1,1,4
086M34,4,245,AS,exp,41,←,left,←,0.5366711000024225,True,18,-1,0,4
086M34,4,246,AS,exp,34,↑,up,↑,0.6091812000013306,True,18,1,1,5
086M34,4,247,AS,exp,34,↓,no_key,no_letter,-1.0,False,17,-1,1,6
086M34,4,248,AS,exp,40,→,right,→,0.6331859999991138,True,18,-1,0,6
086M34,4,249,AS,exp,40,←,left,←,0.4910124000016367,True,18,1,1,7
086M34,4,250,AS,exp,34,→,right,→,0.5591651999930036,True,17,1,0,7
086M34,4,251,AS,exp,43,←,left,←,0.773383300002024,True,17,1,0,7
086M34,4,252,AS,exp,29,↑,no_key,no_letter,-1.0,False,16,-1,1,8
086M34,4,253,AS,exp,32,↓,down,↓,0.6239591999983531,True,17,-1,0,8
086M34,4,254,AS,exp,37,↑,no_key,no_letter,-1.0,False,17,-1,0,8
086M34,4,255,AS,exp,50,←,left,←,0.6520843000034802,True,18,-1,0,8
086M34,4,256,AS,exp,42,↓,down,↓,0.7533719999992172,True,18,1,1,9
086M34,4,257,AS,exp,28,→,right,→,0.634621999997762,True,17,1,0,9
086M34,4,258,AS,exp,43,↑,up,↑,0.5775284999981523,True,17,1,0,9
086M34,4,259,AS,exp,45,→,right,→,0.8189689000064391,True,16,1,0,9
086M34,4,260,AS,exp,46,↑,up,↑,0.5846308000036515,True,16,1,0,9
086M34,4,261,AS,exp,34,↓,down,↓,0.7036167000042042,True,15,1,0,9
086M34,4,262,AS,exp,44,←,right,→,0.7670580000049085,False,15,-1,1,10
086M34,4,263,AS,exp,47,→,right,→,0.5352611999987857,True,16,-1,0,10
086M34,4,264,AS,exp,30,↑,up,↑,0.6621281000043382,True,16,1,1,11
086M34,4,265,AS,exp,26,→,right,→,0.7289872000037576,True,15,1,0,11
086M34,4,266,AS,exp,49,←,right,→,0.5552379000000656,False,15,-1,1,12
086M34,4,267,AS,exp,29,↑,no_key,no_letter,-1.0,False,16,-1,0,12
086M34,4,268,AS,exp,39,↓,up,↑,0.8289344999939203,False,17,-1,0,12
086M34,4,269,AS,exp,37,←,left,←,0.5314138999965508,True,18,-1,0,12
086M34,4,270,AS,exp,47,→,no_key,no_letter,-1.0,False,18,-1,0,12
086M34,4,271,AS,exp,27,←,left,←,0.5358857000028365,True,19,-1,0,12
086M34,4,272,AS,exp,27,↑,no_key,no_letter,-1.0,False,19,-1,0,12
086M34,4,273,AS,exp,45,←,left,←,0.8257192999953986,True,20,-1,0,12
086M34,4,274,AS,exp,28,↑,up,↑,0.653437799999665,True,20,1,1,13
086M34,4,275,AS,exp,40,↓,down,↓,0.5011189000069862,True,19,1,0,13
086M34,4,276,AS,exp,28,↑,up,↑,0.5450568000014755,True,19,1,0,13
086M34,4,277,AS,exp,34,↓,down,↓,0.6173483000020497,True,18,1,0,13
086M34,4,278,AS,exp,30,↑,up,↑,0.5481392999936361,True,18,1,0,13
086M34,4,279,AS,exp,33,↓,up,↑,0.5701107999993837,False,17,-1,1,14
086M34,5,280,AS,intra_train,41,←,no_key,no_letter,-1.0,False,33,-,-,-
086M34,5,281,AS,intra_train,27,→,right,→,0.6839594999983092,True,33,-,-,-
086M34,5,282,AS,intra_train,45,↑,up,↑,0.7208562999949208,True,33,-,-,-
086M34,5,283,AS,intra_train,31,←,left,←,0.6172974000000977,True,33,-,-,-
086M34,5,284,AS,intra_train,35,→,right,→,0.5337961000041105,True,33,-,-,-
086M34,5,285,AS,exp,36,↓,up,↑,0.5573026999991271,False,22,-1,0,0
086M34,5,286,AS,exp,43,←,left,←,0.5774308999971254,True,23,-1,0,0
086M34,5,287,AS,exp,41,↑,up,↑,0.4505347000012989,True,23,1,1,1
086M34,5,288,AS,exp,36,→,right,→,0.6063615000020945,True,22,1,0,1
086M34,5,289,AS,exp,34,↓,down,↓,0.6292954999953508,True,22,1,0,1
086M34,5,290,AS,exp,47,→,right,→,0.45053130000451347,True,21,1,0,1
086M34,5,291,AS,exp,32,↓,no_key,no_letter,-1.0,False,21,-1,1,2
086M34,5,292,AS,exp,30,→,right,→,0.5550817999974242,True,22,-1,0,2
086M34,5,293,AS,exp,42,↓,no_key,no_letter,-1.0,False,22,-1,0,2
086M34,5,294,AS,exp,33,↑,no_key,no_letter,-1.0,False,23,-1,0,2
086M34,5,295,AS,exp,34,↓,down,↓,0.6547563999993145,True,24,-1,0,2
086M34,5,296,AS,exp,38,↑,up,↑,0.6885500999997021,True,24,1,1,3
086M34,5,297,AS,exp,39,↓,up,↑,0.6972733000002336,False,23,-1,1,4
086M34,5,298,AS,exp,31,→,no_key,no_letter,-1.0,False,24,-1,0,4
086M34,5,299,AS,exp,38,←,left,←,0.5172979999988456,True,25,-1,0,4
086M34,5,300,AS,exp,38,↑,up,↑,0.4172898000033456,True,25,1,1,5
086M34,5,301,AS,exp,41,→,right,→,0.5003596000024118,True,24,1,0,5
086M34,5,302,AS,exp,42,←,left,←,0.5339152000015019,True,24,1,0,5
086M34,5,303,AS,exp,31,→,right,→,0.5623403999998118,True,23,1,0,5
086M34,5,304,AS,exp,36,↓,down,↓,0.4671567999976105,True,23,1,0,5
086M34,5,305,AS,exp,26,→,no_key,no_letter,-1.0,False,22,-1,1,6
086M34,5,306,AS,exp,27,↓,no_key,no_letter,-1.0,False,23,-1,0,6
086M34,5,307,AS,exp,44,←,left,←,0.5933636000045226,True,24,-1,0,6
086M34,5,308,AS,exp,34,↓,down,↓,0.5172065000006114,True,24,1,1,7
086M34,5,309,AS,exp,33,←,left,←,0.6097247000070638,True,23,1,0,7
086M34,5,310,AS,exp,42,→,right,→,0.5175983000008273,True,23,1,0,7
086M34,5,311,AS,exp,26,↓,down,↓,0.6567186999964179,True,22,1,0,7
086M34,5,312,AS,exp,26,←,no_key,no_letter,-1.0,False,22,-1,1,8
086M34,5,313,AS,exp,31,→,right,→,0.4838391000012052,True,23,-1,0,8
086M34,5,314,AS,exp,31,↓,down,↓,0.500674999995681,True,23,1,1,9
086M34,5,315,AS,exp,41,←,left,←,0.6106572999997297,True,22,1,0,9
086M34,5,316,AS,exp,26,↑,up,↑,0.4505150000040885,True,22,1,0,9
086M34,5,317,AS,exp,49,←,left,←,0.5475377000038861,True,21,1,0,9
086M34,5,318,AS,exp,25,↑,up,↑,0.45053829999960726,True,21,1,0,9
086M34,5,319,AS,exp,29,←,no_key,no_letter,-1.0,False,20,-1,1,10
086M34,5,320,AS,exp,50,→,right,→,0.6119975000037812,True,21,-1,0,10
086M34,5,321,AS,exp,41,↓,down,↓,0.5286113000038313,True,21,1,1,11
086M34,5,322,AS,exp,31,←,left,←,0.5054996000035317,True,20,1,0,11
086M34,5,323,AS,exp,28,↑,up,↑,0.5604192000027979,True,20,1,0,11
086M34,5,324,AS,exp,27,→,right,→,0.5545420999987982,True,19,1,0,11
086M34,5,325,AS,exp,42,↑,up,↑,0.6144394000002649,True,19,1,0,11
086M34,5,326,AS,exp,50,→,right,→,0.5302995999954874,True,18,1,0,11
086M34,5,327,AS,exp,29,←,left,←,0.5374604000026011,True,18,1,0,11
086M34,5,328,AS,exp,44,→,right,→,0.5589743999953498,True,17,1,0,11
086M34,5,329,AS,exp,42,↓,down,↓,0.5209025000003749,True,17,1,0,11
086M34,5,330,AS,exp,36,←,left,←,0.6749763999978313,True,16,1,0,11
086M34,5,331,AS,exp,49,↓,down,↓,0.4930151000007754,True,16,1,0,11
086M34,5,332,AS,exp,28,←,left,←,0.5802970999939134,True,15,1,0,11
086M34,5,333,AS,exp,44,→,right,→,0.6466351999988547,True,15,1,0,11
086M34,5,334,AS,exp,49,←,left,←,0.602003899999545,True,14,1,0,11
086M34,5,335,AS,exp,26,↓,left,←,0.8577820999998949,False,14,-1,1,12
086M34,5,336,AS,exp,38,↑,up,↑,0.4986897999988287,True,15,-1,0,12
086M34,5,337,AS,exp,38,→,right,→,0.7222732000009273,True,15,1,1,13
086M34,5,338,AS,exp,48,↓,down,↓,0.5276010999950813,True,14,1,0,13
086M34,5,339,AS,exp,41,↑,up,↑,0.4618673000004492,True,14,1,0,13
086M34,5,340,AS,exp,43,←,right,→,0.6506415000039851,False,13,-1,1,14
086M34,6,341,PS,intra_train,48,↑,up,↑,0.6913239000059548,True,21,-,-,-
086M34,6,342,PS,intra_train,49,↓,down,↓,0.5185524999978952,True,21,-,-,-
086M34,6,343,PS,intra_train,43,→,right,→,0.5848144999981741,True,21,-,-,-
086M34,6,344,PS,intra_train,29,←,left,←,0.6989969999995083,True,21,-,-,-
086M34,6,345,PS,intra_train,46,↓,no_key,no_letter,-1.0,False,21,-,-,-
086M34,6,346,PS,exp,27,↑,no_key,no_letter,-1.0,False,14,-1,0,0
086M34,6,347,PS,exp,44,←,left,←,0.5970927000016673,True,15,-1,0,0
086M34,6,348,PS,exp,28,↑,no_key,no_letter,-1.0,False,15,-1,0,0
086M34,6,349,PS,exp,40,↓,down,↓,0.5455239000002621,True,16,-1,0,0
086M34,6,350,PS,exp,38,→,right,→,0.6050286000026972,True,16,1,1,1
086M34,6,351,PS,exp,27,↑,up,↑,0.47915719999582507,True,15,1,0,1
086M34,6,352,PS,exp,46,→,right,→,0.5737728999956744,True,15,1,0,1
086M34,6,353,PS,exp,47,↓,down,↓,0.4777454999930342,True,14,1,0,1
086M34,6,354,PS,exp,37,→,right,→,0.5255150000011781,True,14,1,0,1
086M34,6,355,PS,exp,35,↑,up,↑,0.48889510000299197,True,13,1,0,1
086M34,6,356,PS,exp,32,→,right,→,0.6624186999979429,True,13,1,0,1
086M34,6,357,PS,exp,41,↓,down,↓,0.5106329000045662,True,12,1,0,1
086M34,6,358,PS,exp,43,→,right,→,0.505264100000204,True,12,1,0,1
086M34,6,359,PS,exp,38,↓,no_key,no_letter,-1.0,False,11,-1,1,2
086M34,6,360,PS,exp,50,↑,up,↑,0.5781241000004229,True,12,-1,0,2
086M34,6,361,PS,exp,35,←,no_key,no_letter,-1.0,False,12,-1,0,2
086M34,6,362,PS,exp,41,→,right,→,0.48432929999398766,True,13,-1,0,2
086M34,6,363,PS,exp,37,←,no_key,no_letter,-1.0,False,13,-1,0,2
086M34,6,364,PS,exp,44,↓,down,↓,0.484605499994359,True,14,-1,0,2
086M34,6,365,PS,exp,39,←,left,←,0.6548846000005142,True,14,1,1,3
086M34,6,366,PS,exp,49,↓,right,→,0.498733499996888,False,13,-1,1,4
086M34,6,367,PS,exp,26,→,right,→,0.4701349000024493,True,14,-1,0,4
086M34,6,368,PS,exp,35,↓,no_key,no_letter,-1.0,False,14,-1,0,4
086M34,6,369,PS,exp,37,→,right,→,0.5528875000018161,True,15,-1,0,4
086M34,6,370,PS,exp,50,←,left,←,0.7145062999989023,True,15,1,1,5
086M34,6,371,PS,exp,42,→,right,→,0.6299648999993224,True,14,1,0,5
086M34,6,372,PS,exp,41,↓,down,↓,0.4836063999973703,True,14,1,0,5
086M34,6,373,PS,exp,27,↑,up,↑,0.43862480000098003,True,13,1,0,5
086M34,6,374,PS,exp,34,←,left,←,0.57572380000056,True,13,1,0,5
086M34,6,375,PS,exp,45,→,right,→,0.41101390000403626,True,12,1,0,5
086M34,6,376,PS,exp,31,↓,right,→,0.6123694000052637,False,12,-1,1,6
086M34,6,377,PS,exp,47,→,right,→,0.4661268000054406,True,13,-1,0,6
086M34,6,378,PS,exp,26,↓,down,↓,0.5607175000041025,True,13,1,1,7
086M34,6,379,PS,exp,30,→,right,→,0.5258287000033306,True,12,1,0,7
086M34,6,380,PS,exp,37,↑,up,↑,0.4497393999990891,True,12,1,0,7
086M34,6,381,PS,exp,27,←,left,←,0.5757234999982757,True,11,1,0,7
086M34,6,382,PS,exp,49,↑,up,↑,0.5006974999996601,True,11,1,0,7
086M34,6,383,PS,exp,42,→,right,→,0.5440902000045753,True,10,1,0,7
086M34,6,384,PS,exp,50,↑,up,↑,0.46472630000062054,True,10,1,0,7
086M34,6,385,PS,exp,31,↓,down,↓,0.4127507000011974,True,9,1,0,7
086M34,6,386,PS,exp,37,↑,right,→,0.45434479999676114,False,9,-1,1,8
086M34,6,387,PS,exp,48,↓,down,↓,0.4970926999958465,True,10,-1,0,8
086M34,6,388,PS,exp,46,←,down,↓,0.5674820000058389,False,10,-1,0,8
086M34,6,389,PS,exp,31,↑,no_key,no_letter,-1.0,False,11,-1,0,8
086M34,6,390,PS,exp,49,↓,down,↓,0.5390213999999105,True,12,-1,0,8
086M34,6,391,PS,exp,32,←,left,←,0.5471657000016421,True,12,1,1,9
086M34,6,392,PS,exp,35,↓,down,↓,0.5065216000002692,True,11,1,0,9
086M34,6,393,PS,exp,25,←,left,←,0.5249078000051668,True,11,1,0,9
086M34,6,394,PS,exp,36,↓,right,→,0.750157999995281,False,10,-1,1,10
086M34,6,395,PS,exp,45,↑,no_key,no_letter,-1.0,False,11,-1,0,10
086M34,6,396,PS,exp,34,←,left,←,0.624857199996768,True,12,-1,0,10
086M34,6,397,PS,exp,25,↑,right,→,0.6273393000010401,False,12,-1,0,10
086M34,6,398,PS,exp,37,←,left,←,0.5231743999975151,True,13,-1,0,10
086M34,6,399,PS,exp,26,↑,no_key,no_letter,-1.0,False,13,-1,0,10
086M34,6,400,PS,exp,46,←,left,←,0.41573480000079144,True,14,-1,0,10
086M34,6,401,PS,exp,42,→,right,→,0.5527140999984113,True,14,1,1,11
086M34,6,402,PS,exp,35,←,left,←,0.5268772999988869,True,13,1,0,11
086M34,6,403,PS,exp,47,→,right,→,0.4989244000025792,True,13,1,0,11
086M34,6,404,PS,exp,48,↑,up,↑,0.4486830000023474,True,12,1,0,11
086M34,6,405,PS,exp,45,←,left,←,0.6107675000021118,True,12,1,0,11
086M34,6,406,PS,exp,46,→,left,←,0.723966699995799,False,11,-1,1,12
086M34,6,407,PS,exp,30,↑,up,↑,0.4300006999983452,True,12,-1,0,12
086M34,6,408,PS,exp,28,←,no_key,no_letter,-1.0,False,12,-1,0,12
086M34,6,409,PS,exp,42,↑,up,↑,0.44789220000529895,True,13,-1,0,12
086M34,6,410,PS,exp,47,→,right,→,0.7093531999998959,True,13,1,1,13
086M34,6,411,PS,exp,44,↓,down,↓,0.5697883999964688,True,12,1,0,13
086M34,6,412,PS,exp,49,↑,up,↑,0.4484378999986802,True,12,1,0,13
086M34,6,413,PS,exp,48,←,left,←,0.7355200000019977,True,11,1,0,13
086M34,6,414,PS,exp,42,↑,no_key,no_letter,-1.0,False,11,-1,1,14
086M34,7,415,PS,intra_train,41,←,left,←,0.3504834999985178,True,21,-,-,-
086M34,7,416,PS,intra_train,39,↓,down,↓,0.5721665000019129,True,21,-,-,-
086M34,7,417,PS,intra_train,33,←,left,←,0.64238689999911,True,21,-,-,-
086M34,7,418,PS,intra_train,38,↓,down,↓,0.5254885000031209,True,21,-,-,-
086M34,7,419,PS,intra_train,28,←,left,←,0.7954759999993257,True,21,-,-,-
086M34,7,420,PS,exp,36,↓,down,↓,0.543578199998592,True,14,0,0,0
086M34,7,421,PS,exp,45,→,right,→,0.5971476999984588,True,14,1,0,0
086M34,7,422,PS,exp,25,←,no_key,no_letter,-1.0,False,13,-1,1,1
086M34,7,423,PS,exp,25,→,no_key,no_letter,-1.0,False,14,-1,0,1
086M34,7,424,PS,exp,25,↓,down,↓,0.5574898999984725,True,15,-1,0,1
086M34,7,425,PS,exp,32,↑,up,↑,0.4698339999958989,True,15,1,1,2
086M34,7,426,PS,exp,37,↓,down,↓,0.5058595000009518,True,14,1,0,2
086M34,7,427,PS,exp,37,←,left,←,0.5561286000011023,True,14,1,0,2
086M34,7,428,PS,exp,35,↑,up,↑,0.46507389999896986,True,13,1,0,2
086M34,7,429,PS,exp,39,←,left,←,0.5431403999973554,True,13,1,0,2
086M34,7,430,PS,exp,38,→,right,→,0.5664410999961547,True,12,1,0,2
086M34,7,431,PS,exp,50,↑,up,↑,0.4123092999943765,True,12,1,0,2
086M34,7,432,PS,exp,25,→,right,→,0.5865904000020237,True,11,1,0,2
086M34,7,433,PS,exp,36,←,no_key,no_letter,-1.0,False,11,-1,1,3
086M34,7,434,PS,exp,30,↑,up,↑,0.3954345000020112,True,12,-1,0,3
086M34,7,435,PS,exp,31,↓,down,↓,0.48966680000012275,True,12,1,1,4
086M34,7,436,PS,exp,46,↑,up,↑,0.5470373999996809,True,11,1,0,4
086M34,7,437,PS,exp,41,←,left,←,0.6395458999977564,True,11,1,0,4
086M34,7,438,PS,exp,25,↑,up,↑,0.4036402999990969,True,10,1,0,4
086M34,7,439,PS,exp,30,→,right,→,0.5851897999964422,True,10,1,0,4
086M34,7,440,PS,exp,40,↓,down,↓,0.527054499994847,True,9,1,0,4
086M34,7,441,PS,exp,47,↑,up,↑,0.5208463999952073,True,9,1,0,4
086M34,7,442,PS,exp,29,→,no_key,no_letter,-1.0,False,8,-1,1,5
086M34,7,443,PS,exp,34,←,left,←,0.6113934000022709,True,9,-1,0,5
086M34,7,444,PS,exp,33,↓,no_key,no_letter,-1.0,False,9,-1,0,5
086M34,7,445,PS,exp,31,↑,up,↑,0.4098617999989074,True,10,-1,0,5
086M34,7,446,PS,exp,50,→,right,→,0.5343754999994417,True,10,1,1,6
086M34,7,447,PS,exp,29,↓,down,↓,0.49155590000009397,True,9,1,0,6
086M34,7,448,PS,exp,34,↑,no_key,no_letter,-1.0,False,9,-1,1,7
086M34,7,449,PS,exp,46,←,left,←,0.6784802999973181,True,10,-1,0,7
086M34,7,450,PS,exp,48,→,right,→,0.5904988000038429,True,10,1,1,8
086M34,7,451,PS,exp,32,←,no_key,no_letter,-1.0,False,9,-1,1,9
086M34,7,452,PS,exp,36,↑,up,↑,0.45472760000120616,True,10,-1,0,9
086M34,7,453,PS,exp,49,←,left,←,0.5060960999981035,True,10,1,1,10
086M34,7,454,PS,exp,38,→,right,→,0.6267499000023236,True,9,1,0,10
086M34,7,455,PS,exp,31,←,left,←,0.5575314999950933,True,9,1,0,10
086M34,7,456,PS,exp,28,↓,down,↓,0.5011106999954791,True,8,1,0,10
086M34,7,457,PS,exp,36,←,left,←,0.4635705999971833,True,8,1,0,10
086M34,7,458,PS,exp,37,↓,no_key,no_letter,-1.0,False,7,-1,1,11
086M34,7,459,PS,exp,33,→,no_key,no_letter,-1.0,False,8,-1,0,11
086M34,7,460,PS,exp,35,↓,down,↓,0.5294100999963121,True,9,-1,0,11
086M34,7,461,PS,exp,40,←,left,←,0.5417864999981248,True,9,1,1,12
086M34,7,462,PS,exp,47,→,right,→,0.5288395999959903,True,8,1,0,12
086M34,7,463,PS,exp,49,←,left,←,0.591641899998649,True,8,1,0,12
086M34,7,464,PS,exp,46,↑,left,←,0.7512139000027673,False,7,-1,1,13
086M34,7,465,PS,exp,49,↓,down,↓,0.5908456000033766,True,8,-1,0,13
086M34,7,466,PS,exp,50,←,left,←,0.5189529999988736,True,8,1,1,14
086M34,8,467,AS,intra_train,43,↑,up,↑,0.5177594000051613,True,33,-,-,-
086M34,8,468,AS,intra_train,38,→,right,→,0.6338770000002114,True,33,-,-,-
086M34,8,469,AS,intra_train,43,↓,right,→,0.40126800000143703,False,33,-,-,-
086M34,8,470,AS,intra_train,30,←,left,←,0.5010850000035134,True,33,-,-,-
086M34,8,471,AS,intra_train,39,→,left,←,0.40116139999736333,False,33,-,-,-
086M34,8,472,AS,exp,30,↑,up,↑,0.7974981000006665,True,22,0,0,0
086M34,8,473,AS,exp,39,←,left,←,0.5504604000016116,True,22,1,0,0
086M34,8,474,AS,exp,31,↓,down,↓,0.6223421999966376,True,21,1,0,0
086M34,8,475,AS,exp,42,→,right,→,0.6488180000014836,True,21,1,0,0
086M34,8,476,AS,exp,50,↓,no_key,no_letter,-1.0,False,20,-1,1,1
086M34,8,477,AS,exp,40,→,right,→,0.6204768000025069,True,21,-1,0,1
086M34,8,478,AS,exp,50,↓,down,↓,0.7291339000003063,True,21,1,1,2
086M34,8,479,AS,exp,50,↑,up,↑,0.586498800003028,True,20,1,0,2
086M34,8,480,AS,exp,35,→,right,→,0.6088868999941042,True,20,1,0,2
086M34,8,481,AS,exp,35,←,left,←,0.604760999995051,True,19,1,0,2
086M34,8,482,AS,exp,50,↓,down,↓,0.5454800000006799,True,19,1,0,2
086M34,8,483,AS,exp,44,↑,no_key,no_letter,-1.0,False,18,-1,1,3
086M34,8,484,AS,exp,32,←,left,←,0.7454561999984435,True,19,-1,0,3
086M34,8,485,AS,exp,47,↓,down,↓,0.6736912999986089,True,19,1,1,4
086M34,8,486,AS,exp,31,←,left,←,0.5565014999956475,True,18,1,0,4
086M34,8,487,AS,exp,35,→,left,←,0.5715831000052276,False,18,-1,1,5
086M34,8,488,AS,exp,38,↑,up,↑,0.588763600004313,True,19,-1,0,5
086M34,8,489,AS,exp,40,→,right,→,0.722387499998149,True,19,1,1,6
086M34,8,490,AS,exp,48,↓,no_key,no_letter,-1.0,False,18,-1,1,7
086M34,8,491,AS,exp,26,↑,up,↑,0.9380238000012469,True,19,-1,0,7
086M34,8,492,AS,exp,43,→,right,→,0.5139363999987836,True,19,1,1,8
086M34,8,493,AS,exp,43,↓,down,↓,0.6889800000062678,True,18,1,0,8
086M34,8,494,AS,exp,47,↑,up,↑,0.6087933000017074,True,18,1,0,8
086M34,8,495,AS,exp,50,←,left,←,0.6613591000059387,True,17,1,0,8
086M34,8,496,AS,exp,34,↓,down,↓,0.5827014999958919,True,17,1,0,8
086M34,8,497,AS,exp,36,→,right,→,0.5686999000026844,True,16,1,0,8
086M34,8,498,AS,exp,31,↑,up,↑,0.625607999994827,True,16,1,0,8
086M34,8,499,AS,exp,40,↓,up,↑,0.7867140000016661,False,15,-1,1,9
086M34,8,500,AS,exp,36,↑,up,↑,0.475456000000122,True,16,-1,0,9
086M34,8,501,AS,exp,36,←,left,←,0.8175694000019575,True,16,1,1,10
086M34,8,502,AS,exp,33,↑,up,↑,0.44917150000401307,True,15,1,0,10
086M34,8,503,AS,exp,36,→,right,→,0.5282846999980393,True,15,1,0,10
086M34,8,504,AS,exp,46,↓,no_key,no_letter,-1.0,False,14,-1,1,11
086M34,8,505,AS,exp,27,→,right,→,0.48480120000022,True,15,-1,0,11
086M34,8,506,AS,exp,33,↑,no_key,no_letter,-1.0,False,15,-1,0,11
086M34,8,507,AS,exp,39,↓,down,↓,0.5999672000034479,True,16,-1,0,11
086M34,8,508,AS,exp,44,←,left,←,0.5722146999978577,True,16,1,1,12
086M34,8,509,AS,exp,31,→,right,→,0.5802299000060884,True,15,1,0,12
086M34,8,510,AS,exp,50,←,no_key,no_letter,-1.0,False,15,-1,1,13
086M34,8,511,AS,exp,41,↑,no_key,no_letter,-1.0,False,16,-1,0,13
086M34,8,512,AS,exp,35,←,left,←,0.7824175000059768,True,17,-1,0,13
086M34,8,513,AS,exp,32,→,no_key,no_letter,-1.0,False,17,-1,0,13
086M34,8,514,AS,exp,29,↑,up,↑,0.6808660000024247,True,18,-1,0,13
086M34,8,515,AS,exp,43,→,right,→,0.5011986999961664,True,18,1,1,14
