PART_ID,Block_no,Trial_no,Block_type,Trial_type,CSI,Stim_letter,Key_pressed,letter_choose,Rt,Corr,Stimulus Time,Level,Reversal,Revs_count
096M27,1,1,PS,train,35,←,left,←,0.6337298999999916,True,30,-,-,-
096M27,1,2,PS,train,38,→,right,→,0.55052969999997,True,30,-,-,-
096M27,1,3,PS,train,40,↓,down,↓,0.6171858999999813,True,30,-,-,-
096M27,1,4,PS,train,25,→,right,→,0.5504404999999792,True,30,-,-,-
096M27,1,5,PS,train,36,↓,down,↓,0.5504043999999908,True,30,-,-,-
096M27,1,6,PS,train,26,↑,up,↑,0.6170883000000345,True,30,-,-,-
096M27,1,7,PS,train,33,→,right,→,0.5336417999999981,True,30,-,-,-
096M27,1,8,PS,train,38,↓,down,↓,0.6934566000000473,True,30,-,-,-
096M27,1,9,PS,train,39,→,right,→,0.4837180000000103,True,30,-,-,-
096M27,1,10,PS,train,39,←,left,←,0.5171105999999668,True,30,-,-,-
096M27,2,11,AS,train,27,→,right,→,0.701172500000041,True,45,-,-,-
096M27,2,12,AS,train,28,↑,up,↑,0.97949890000001,True,45,-,-,-
096M27,2,13,AS,train,31,↓,up,↑,0.6345671999999922,False,45,-,-,-
096M27,2,14,AS,train,50,←,left,←,0.6011437999999885,True,45,-,-,-
096M27,2,15,AS,train,32,→,right,→,0.6009555999999634,True,45,-,-,-
096M27,2,16,AS,train,28,↑,down,↓,0.6679083000000219,False,45,-,-,-
096M27,2,17,AS,train,26,→,right,→,0.6846691000000078,True,45,-,-,-
096M27,2,18,AS,train,41,↑,up,↑,0.7838232000000289,True,45,-,-,-
096M27,2,19,AS,train,34,←,left,←,0.6348459999999818,True,45,-,-,-
096M27,2,20,AS,train,27,→,right,→,0.5178098000000091,True,45,-,-,-
096M27,-,21,PS,adaptive,49,↓,no_key,no_letter,-1.0,False,10,-1,0,0
096M27,-,22,PS,adaptive,26,→,right,→,0.4097499999999741,True,11,-1,0,0
096M27,-,23,PS,adaptive,29,↓,up,↑,0.41778659999999945,False,11,-1,0,0
096M27,-,24,PS,adaptive,29,↑,up,↑,1.8096168999999804,True,12,-1,0,0
096M27,-,25,PS,adaptive,37,→,right,→,0.6262821000000258,True,12,1,1,1
096M27,-,26,PS,adaptive,49,↑,up,↑,0.5818486000000007,True,11,1,0,1
096M27,-,27,PS,adaptive,35,↓,down,↓,0.5319586999999615,True,11,1,0,1
096M27,-,28,PS,adaptive,50,↑,up,↑,0.44481980000000476,True,10,1,0,1
096M27,-,29,PS,adaptive,39,→,right,→,0.48410899999998946,True,10,1,0,1
096M27,-,30,PS,adaptive,47,←,left,←,0.4656203999999775,True,9,1,0,1
096M27,-,31,PS,adaptive,34,→,right,→,0.4925913999999807,True,9,1,0,1
096M27,-,32,PS,adaptive,47,↑,up,↑,0.694476399999985,True,8,1,0,1
096M27,-,33,PS,adaptive,27,→,right,→,0.3774870999999962,True,8,1,0,1
096M27,-,34,PS,adaptive,28,↑,no_key,no_letter,-1.0,False,7,-1,1,2
096M27,-,35,PS,adaptive,36,←,left,←,0.37561649999997826,True,8,-1,0,2
096M27,-,36,PS,adaptive,47,→,right,→,0.41557549999998855,True,8,1,1,3
096M27,-,37,PS,adaptive,36,↓,down,↓,0.5580871000000229,True,7,1,0,3
096M27,-,38,PS,adaptive,48,→,right,→,0.44043349999998327,True,7,1,0,3
096M27,-,39,PS,adaptive,44,←,right,→,0.7441253999999731,False,6,-1,1,4
096M27,-,40,AS,adaptive,41,→,right,→,0.5145219000000338,True,20,0,0,0
096M27,-,41,AS,adaptive,40,↓,down,↓,0.6632988000000068,True,20,1,0,0
096M27,-,42,AS,adaptive,48,→,right,→,1.3110899999999788,True,19,1,0,0
096M27,-,43,AS,adaptive,34,↑,up,↑,0.5153060000000096,True,19,1,0,0
096M27,-,44,AS,adaptive,40,↓,up,↑,0.6122356000000195,False,18,-1,1,1
096M27,-,45,AS,adaptive,39,←,left,←,0.5713602999999807,True,19,-1,0,1
096M27,-,46,AS,adaptive,46,→,right,→,0.5574555000000032,True,19,1,1,2
096M27,-,47,AS,adaptive,50,↑,up,↑,0.5305516000000239,True,18,1,0,2
096M27,-,48,AS,adaptive,41,→,left,←,1.1545376999999917,False,18,-1,1,3
096M27,-,49,AS,adaptive,41,←,right,→,1.067043799999965,False,19,-1,0,3
096M27,-,50,AS,adaptive,29,↑,up,↑,0.5218664999999874,True,20,-1,0,3
096M27,-,51,AS,adaptive,25,→,right,→,0.5997927999999888,True,20,1,1,4
096M27,1,52,PS,intra_train,36,↓,down,↓,0.5532799000000068,True,10,-,-,-
096M27,1,53,PS,intra_train,25,←,left,←,0.49618710000004285,True,10,-,-,-
096M27,1,54,PS,intra_train,46,↑,up,↑,0.48827479999999923,True,10,-,-,-
096M27,1,55,PS,intra_train,45,↓,down,↓,0.5292725999999561,True,10,-,-,-
096M27,1,56,PS,intra_train,26,→,right,→,0.5329072999999767,True,10,-,-,-
096M27,1,57,PS,exp,35,↑,down,↓,0.7914874000000509,False,7,-1,0,0
096M27,1,58,PS,exp,35,↓,down,↓,0.7266549000000282,True,8,-1,0,0
096M27,1,59,PS,exp,26,↑,up,↑,0.5869209000000524,True,8,1,1,1
096M27,1,60,PS,exp,39,←,up,↑,0.642001099999959,False,7,-1,1,2
096M27,1,61,PS,exp,34,→,right,→,0.43436719999999696,True,8,-1,0,2
096M27,1,62,PS,exp,35,←,left,←,0.6880754000000024,True,8,1,1,3
096M27,1,63,PS,exp,27,↑,left,←,0.6708836000000247,False,7,-1,1,4
096M27,1,64,PS,exp,25,→,left,←,0.6849149999999895,False,8,-1,0,4
096M27,1,65,PS,exp,31,↓,right,→,0.6055549000000156,False,9,-1,0,4
096M27,1,66,PS,exp,34,↑,up,↑,0.5285374000000047,True,10,-1,0,4
096M27,1,67,PS,exp,32,→,right,→,0.5561285999999654,True,10,1,1,5
096M27,1,68,PS,exp,30,↓,down,↓,0.5878736000000231,True,9,1,0,5
096M27,1,69,PS,exp,33,→,right,→,0.34887670000000526,True,9,1,0,5
096M27,1,70,PS,exp,32,↓,right,→,1.1282135000000153,False,8,-1,1,6
096M27,1,71,PS,exp,30,←,right,→,0.6012629999999604,False,9,-1,0,6
096M27,1,72,PS,exp,27,↓,right,→,0.39348389999997835,False,10,-1,0,6
096M27,1,73,PS,exp,33,↑,right,→,0.43670179999998027,False,11,-1,0,6
096M27,1,74,PS,exp,33,↓,down,↓,0.5551414999999906,True,12,-1,0,6
096M27,1,75,PS,exp,47,↑,up,↑,0.4267774999999574,True,12,1,1,7
096M27,1,76,PS,exp,49,↓,down,↓,0.5307288000000199,True,11,1,0,7
096M27,1,77,PS,exp,48,↑,up,↑,0.5526700000000346,True,11,1,0,7
096M27,1,78,PS,exp,27,←,left,←,0.5935460000000035,True,10,1,0,7
096M27,1,79,PS,exp,33,→,right,→,0.43183019999997896,True,10,1,0,7
096M27,1,80,PS,exp,27,←,left,←,0.32134460000003173,True,9,1,0,7
096M27,1,81,PS,exp,37,↑,up,↑,0.47993839999998045,True,9,1,0,7
096M27,1,82,PS,exp,45,←,left,←,0.4803071999999702,True,8,1,0,7
096M27,1,83,PS,exp,43,→,right,→,0.3731453999999985,True,8,1,0,7
096M27,1,84,PS,exp,50,←,left,←,0.3600117000000296,True,7,1,0,7
096M27,1,85,PS,exp,38,↓,left,←,0.5888449000000264,False,7,-1,1,8
096M27,1,86,PS,exp,35,←,left,←,0.4223595000000273,True,8,-1,0,8
096M27,1,87,PS,exp,25,→,right,→,0.5439393999999993,True,8,1,1,9
096M27,1,88,PS,exp,30,↓,down,↓,0.5394119000000046,True,7,1,0,9
096M27,1,89,PS,exp,38,←,right,→,0.7730116999999836,False,7,-1,1,10
096M27,1,90,PS,exp,33,→,right,→,0.49921519999998054,True,8,-1,0,10
096M27,1,91,PS,exp,40,←,right,→,0.3131571000000122,False,8,-1,0,10
096M27,1,92,PS,exp,47,↓,down,↓,0.5925654000000122,True,9,-1,0,10
096M27,1,93,PS,exp,36,→,right,→,0.4935524999999643,True,9,1,1,11
096M27,1,94,PS,exp,43,↓,down,↓,0.5146531999999979,True,8,1,0,11
096M27,1,95,PS,exp,32,←,left,←,0.5266310999999178,True,8,1,0,11
096M27,1,96,PS,exp,47,↓,right,→,0.6674684999999272,False,7,-1,1,12
096M27,1,97,PS,exp,34,←,left,←,0.5463176000000658,True,8,-1,0,12
096M27,1,98,PS,exp,43,↑,right,→,0.5757988999999952,False,8,-1,0,12
096M27,1,99,PS,exp,48,→,right,→,0.52305350000006,True,9,-1,0,12
096M27,1,100,PS,exp,44,↓,left,←,0.4841867000000093,False,9,-1,0,12
096M27,1,101,PS,exp,45,→,left,←,0.39605940000001283,False,10,-1,0,12
096M27,1,102,PS,exp,44,↑,up,↑,0.5256213000000116,True,11,-1,0,12
096M27,1,103,PS,exp,43,↓,down,↓,0.5727063000000499,True,11,1,1,13
096M27,1,104,PS,exp,27,→,left,←,1.0893647000000328,False,10,-1,1,14
096M27,2,105,AS,intra_train,30,↑,up,↑,0.7847056000000521,True,28,-,-,-
096M27,2,106,AS,intra_train,42,↓,down,↓,0.7693509000000631,True,28,-,-,-
096M27,2,107,AS,intra_train,50,↑,up,↑,0.6835605999999643,True,28,-,-,-
096M27,2,108,AS,intra_train,42,↓,down,↓,0.7791716000000406,True,28,-,-,-
096M27,2,109,AS,intra_train,44,↑,up,↑,1.5114022000000205,True,28,-,-,-
096M27,2,110,AS,exp,49,←,right,→,1.1851874999999836,False,19,-1,0,0
096M27,2,111,AS,exp,43,↓,down,↓,0.7899148000000196,True,20,-1,0,0
096M27,2,112,AS,exp,38,←,left,←,0.5497912000000724,True,20,1,1,1
096M27,2,113,AS,exp,39,↑,up,↑,0.5468372999999929,True,19,1,0,1
096M27,2,114,AS,exp,29,↓,down,↓,0.6258837999999969,True,19,1,0,1
096M27,2,115,AS,exp,41,↑,up,↑,0.5939078999999765,True,18,1,0,1
096M27,2,116,AS,exp,33,←,left,←,0.5472171999999773,True,18,1,0,1
096M27,2,117,AS,exp,37,↓,down,↓,0.6125189000000546,True,17,1,0,1
096M27,2,118,AS,exp,41,←,left,←,0.4839031999999861,True,17,1,0,1
096M27,2,119,AS,exp,50,→,right,→,0.5182429000000184,True,16,1,0,1
096M27,2,120,AS,exp,26,↑,up,↑,0.5412872000000561,True,16,1,0,1
096M27,2,121,AS,exp,34,←,left,←,0.48299919999999474,True,15,1,0,1
096M27,2,122,AS,exp,33,↓,down,↓,0.623411400000009,True,15,1,0,1
096M27,2,123,AS,exp,44,↑,up,↑,0.5864559999999983,True,14,1,0,1
096M27,2,124,AS,exp,31,→,right,→,0.4821169000000509,True,14,1,0,1
096M27,2,125,AS,exp,47,←,left,←,0.5397692000000234,True,13,1,0,1
096M27,2,126,AS,exp,41,→,left,←,0.6167764000000489,False,13,-1,1,2
096M27,2,127,AS,exp,29,↓,down,↓,0.6712359000000561,True,14,-1,0,2
096M27,2,128,AS,exp,45,↑,down,↓,0.8657027000000426,False,14,-1,0,2
096M27,2,129,AS,exp,42,←,left,←,0.43040460000008807,True,15,-1,0,2
096M27,2,130,AS,exp,28,↑,right,→,0.383632900000066,False,15,-1,0,2
096M27,2,131,AS,exp,38,→,right,→,0.5752552999999807,True,16,-1,0,2
096M27,2,132,AS,exp,33,↑,up,↑,0.3837316000000328,True,16,1,1,3
096M27,2,133,AS,exp,42,↓,up,↑,0.5053008000001,False,15,-1,1,4
096M27,2,134,AS,exp,25,↑,left,←,0.537430699999959,False,16,-1,0,4
096M27,2,135,AS,exp,37,↓,up,↑,0.3503967999999986,False,17,-1,0,4
096M27,2,136,AS,exp,39,→,left,←,0.43377220000002126,False,18,-1,0,4
096M27,2,137,AS,exp,31,↓,down,↓,1.698842300000024,True,19,-1,0,4
096M27,2,138,AS,exp,26,→,right,→,0.5286131999999952,True,19,1,1,5
096M27,2,139,AS,exp,49,↓,down,↓,0.805420799999979,True,18,1,0,5
096M27,2,140,AS,exp,40,←,left,←,1.4141288999999233,True,18,1,0,5
096M27,2,141,AS,exp,49,↑,up,↑,0.5712585999999646,True,17,1,0,5
096M27,2,142,AS,exp,32,→,left,←,0.5533290999999281,False,17,-1,1,6
096M27,2,143,AS,exp,26,↑,up,↑,0.4856885000000375,True,18,-1,0,6
096M27,2,144,AS,exp,37,→,right,→,0.4783055999999988,True,18,1,1,7
096M27,2,145,AS,exp,31,↑,up,↑,0.6236286999999265,True,17,1,0,7
096M27,2,146,AS,exp,35,→,left,←,0.5162338999999747,False,17,-1,1,8
096M27,2,147,AS,exp,34,←,left,←,0.5448327999999947,True,18,-1,0,8
096M27,2,148,AS,exp,34,↓,down,↓,0.5882978000000776,True,18,1,1,9
096M27,2,149,AS,exp,41,→,right,→,0.5661689999999453,True,17,1,0,9
096M27,2,150,AS,exp,26,←,right,→,0.52453509999998,False,17,-1,1,10
096M27,2,151,AS,exp,43,↑,left,←,0.5117242999999689,False,18,-1,0,10
096M27,2,152,AS,exp,47,→,left,←,0.416856800000005,False,19,-1,0,10
096M27,2,153,AS,exp,35,↓,down,↓,0.7248757999999498,True,20,-1,0,10
096M27,2,154,AS,exp,28,→,right,→,1.324744199999941,True,20,1,1,11
096M27,2,155,AS,exp,41,↑,down,↓,0.5079342999999881,False,19,-1,1,12
096M27,2,156,AS,exp,46,→,right,→,0.5738536999999724,True,20,-1,0,12
096M27,2,157,AS,exp,33,↓,down,↓,0.7046083999999837,True,20,1,1,13
096M27,2,158,AS,exp,35,→,right,→,0.6534684999999172,True,19,1,0,13
096M27,2,159,AS,exp,28,↓,down,↓,1.4003989000000274,True,19,1,0,13
096M27,2,160,AS,exp,38,→,right,→,0.9506740000000491,True,18,1,0,13
096M27,2,161,AS,exp,43,←,left,←,0.6621261000000231,True,18,1,0,13
096M27,2,162,AS,exp,44,→,right,→,0.9411466999999902,True,17,1,0,13
096M27,2,163,AS,exp,35,↓,down,↓,0.7416852999999719,True,17,1,0,13
096M27,2,164,AS,exp,50,↑,up,↑,0.7471130999999787,True,16,1,0,13
096M27,2,165,AS,exp,28,↓,down,↓,0.7906143999999813,True,16,1,0,13
096M27,2,166,AS,exp,27,→,right,→,0.7478073000000904,True,15,1,0,13
096M27,2,167,AS,exp,29,↓,down,↓,0.5816444999999248,True,15,1,0,13
096M27,2,168,AS,exp,39,→,right,→,0.5878589999999804,True,14,1,0,13
096M27,2,169,AS,exp,31,↓,down,↓,0.9206226000000015,True,14,1,0,13
096M27,2,170,AS,exp,31,↑,up,↑,0.7293893999999455,True,13,1,0,13
096M27,2,171,AS,exp,34,↓,down,↓,0.6597193999999718,True,13,1,0,13
096M27,2,172,AS,exp,28,↑,right,→,0.9013216999999258,False,12,-1,1,14
096M27,3,173,AS,intra_train,42,←,left,←,0.5338565000000699,True,28,-,-,-
096M27,3,174,AS,intra_train,46,↑,up,↑,1.157904099999996,True,28,-,-,-
096M27,3,175,AS,intra_train,30,↓,down,↓,0.6822537000000466,True,28,-,-,-
096M27,3,176,AS,intra_train,48,↑,up,↑,0.6004563000000189,True,28,-,-,-
096M27,3,177,AS,intra_train,28,→,right,→,0.6339748999999983,True,28,-,-,-
096M27,3,178,AS,exp,41,↑,up,↑,0.6606472999999369,True,19,0,0,0
096M27,3,179,AS,exp,27,←,left,←,0.6337893999999551,True,19,1,0,0
096M27,3,180,AS,exp,40,↑,up,↑,0.722988100000066,True,18,1,0,0
096M27,3,181,AS,exp,28,↓,down,↓,0.6235156000000188,True,18,1,0,0
096M27,3,182,AS,exp,32,→,right,→,0.5878104000000803,True,17,1,0,0
096M27,3,183,AS,exp,47,↑,up,↑,1.0982775999999603,True,17,1,0,0
096M27,3,184,AS,exp,34,→,right,→,0.527628600000071,True,16,1,0,0
096M27,3,185,AS,exp,35,↓,down,↓,0.5757611999999881,True,16,1,0,0
096M27,3,186,AS,exp,48,↑,up,↑,0.681478499999912,True,15,1,0,0
096M27,3,187,AS,exp,49,←,left,←,0.5060674000000063,True,15,1,0,0
096M27,3,188,AS,exp,45,→,right,→,0.6307263999999577,True,14,1,0,0
096M27,3,189,AS,exp,37,↓,down,↓,0.5175440000000435,True,14,1,0,0
096M27,3,190,AS,exp,27,←,right,→,0.42964290000008987,False,13,-1,1,1
096M27,3,191,AS,exp,45,↓,down,↓,0.535784299999932,True,14,-1,0,1
096M27,3,192,AS,exp,32,↑,up,↑,0.4846994000000677,True,14,1,1,2
096M27,3,193,AS,exp,37,↓,down,↓,0.3898815000000013,True,13,1,0,2
096M27,3,194,AS,exp,30,↑,up,↑,0.5407894999999598,True,13,1,0,2
096M27,3,195,AS,exp,44,→,right,→,0.5793513999999504,True,12,1,0,2
096M27,3,196,AS,exp,39,↑,right,→,0.6063600999999608,False,12,-1,1,3
096M27,3,197,AS,exp,39,↓,down,↓,0.430144700000028,True,13,-1,0,3
096M27,3,198,AS,exp,44,←,right,→,0.6165865000000395,False,13,-1,0,3
096M27,3,199,AS,exp,41,↑,up,↑,0.4194989999999734,True,14,-1,0,3
096M27,3,200,AS,exp,34,→,right,→,0.4110451000000239,True,14,1,1,4
096M27,3,201,AS,exp,31,←,down,↓,0.6426176999999598,False,13,-1,1,5
096M27,3,202,AS,exp,49,↓,down,↓,0.5852352000000565,True,14,-1,0,5
096M27,3,203,AS,exp,42,→,left,←,0.47903999999994085,False,14,-1,0,5
096M27,3,204,AS,exp,32,↓,down,↓,0.44756760000007034,True,15,-1,0,5
096M27,3,205,AS,exp,38,←,left,←,0.42330010000000584,True,15,1,1,6
096M27,3,206,AS,exp,46,→,right,→,0.49945100000002185,True,14,1,0,6
096M27,3,207,AS,exp,39,←,left,←,0.4814263000000665,True,14,1,0,6
096M27,3,208,AS,exp,50,↓,up,↑,0.5114821999999322,False,13,-1,1,7
096M27,3,209,AS,exp,44,→,left,←,0.5629616999999598,False,14,-1,0,7
096M27,3,210,AS,exp,31,←,left,←,0.48143849999996746,True,15,-1,0,7
096M27,3,211,AS,exp,46,→,left,←,0.4437720000000809,False,15,-1,0,7
096M27,3,212,AS,exp,50,↑,up,↑,0.5891767999999047,True,16,-1,0,7
096M27,3,213,AS,exp,27,→,right,→,0.532969200000025,True,16,1,1,8
096M27,3,214,AS,exp,33,↓,right,→,0.8076819000000341,False,15,-1,1,9
096M27,3,215,AS,exp,28,←,left,←,0.5197591999999531,True,16,-1,0,9
096M27,3,216,AS,exp,32,↓,down,↓,0.6525210999999445,True,16,1,1,10
096M27,3,217,AS,exp,32,→,right,→,0.6501638999999386,True,15,1,0,10
096M27,3,218,AS,exp,48,←,left,←,1.4555385000001024,True,15,1,0,10
096M27,3,219,AS,exp,32,→,left,←,0.577596299999982,False,14,-1,1,11
096M27,3,220,AS,exp,32,↑,up,↑,0.5386819999999943,True,15,-1,0,11
096M27,3,221,AS,exp,40,←,left,←,0.4865896999999677,True,15,1,1,12
096M27,3,222,AS,exp,37,→,right,→,0.6085814000000482,True,14,1,0,12
096M27,3,223,AS,exp,49,↓,down,↓,0.6168954000000895,True,14,1,0,12
096M27,3,224,AS,exp,50,←,left,←,0.6217082999999093,True,13,1,0,12
096M27,3,225,AS,exp,31,↑,up,↑,0.6079877999999326,True,13,1,0,12
096M27,3,226,AS,exp,41,↓,down,↓,0.6681111000000328,True,12,1,0,12
096M27,3,227,AS,exp,33,←,left,←,0.475381000000084,True,12,1,0,12
096M27,3,228,AS,exp,41,↓,down,↓,0.6963945999999623,True,11,1,0,12
096M27,3,229,AS,exp,30,→,up,↑,0.5637106000000358,False,11,-1,1,13
096M27,3,230,AS,exp,44,↑,up,↑,0.5649866999999631,True,12,-1,0,13
096M27,3,231,AS,exp,42,→,left,←,0.43005300000004354,False,12,-1,0,13
096M27,3,232,AS,exp,42,←,right,→,0.46978869999998096,False,13,-1,0,13
096M27,3,233,AS,exp,26,↑,up,↑,0.5386636000000635,True,14,-1,0,13
096M27,3,234,AS,exp,45,←,left,←,0.5609716999999819,True,14,1,1,14
096M27,4,235,PS,intra_train,33,↓,down,↓,1.1518791999999394,True,10,-,-,-
096M27,4,236,PS,intra_train,36,←,left,←,0.5266714999999067,True,10,-,-,-
096M27,4,237,PS,intra_train,47,→,right,→,0.48453380000000834,True,10,-,-,-
096M27,4,238,PS,intra_train,34,↑,up,↑,0.5115766999999778,True,10,-,-,-
096M27,4,239,PS,intra_train,41,→,right,→,0.499416999999994,True,10,-,-,-
096M27,4,240,PS,exp,37,↓,left,←,0.7898387000000184,False,7,-1,0,0
096M27,4,241,PS,exp,42,←,right,→,0.4078554999999824,False,8,-1,0,0
096M27,4,242,PS,exp,26,→,up,↑,0.440849500000013,False,9,-1,0,0
096M27,4,243,PS,exp,26,←,right,→,0.5107371999999941,False,10,-1,0,0
096M27,4,244,PS,exp,50,→,right,→,0.4987270999999964,True,11,-1,0,0
096M27,4,245,PS,exp,28,↓,down,↓,0.947712700000011,True,11,1,1,1
096M27,4,246,PS,exp,44,↑,up,↑,0.508404100000007,True,10,1,0,1
096M27,4,247,PS,exp,25,→,right,→,0.4555496000000403,True,10,1,0,1
096M27,4,248,PS,exp,45,←,left,←,0.6115319999998974,True,9,1,0,1
096M27,4,249,PS,exp,49,↓,down,↓,0.5280622999999878,True,9,1,0,1
096M27,4,250,PS,exp,45,→,right,→,0.6267047000000048,True,8,1,0,1
096M27,4,251,PS,exp,33,←,left,←,0.4624268000000029,True,8,1,0,1
096M27,4,252,PS,exp,28,↑,down,↓,0.8303036999999449,False,7,-1,1,2
096M27,4,253,PS,exp,29,→,right,→,0.8542290000000321,True,8,-1,0,2
096M27,4,254,PS,exp,42,↓,left,←,0.524022500000001,False,8,-1,0,2
096M27,4,255,PS,exp,31,↑,up,↑,0.705250699999965,True,9,-1,0,2
096M27,4,256,PS,exp,43,→,up,↑,0.8366005000000314,False,9,-1,0,2
096M27,4,257,PS,exp,34,↓,up,↑,0.6443342999999686,False,10,-1,0,2
096M27,4,258,PS,exp,43,↑,up,↑,0.4720161000000189,True,11,-1,0,2
096M27,4,259,PS,exp,32,↓,down,↓,0.5158176999999569,True,11,1,1,3
096M27,4,260,PS,exp,44,↑,up,↑,0.5657714000000169,True,10,1,0,3
096M27,4,261,PS,exp,26,→,right,→,0.5318455999999969,True,10,1,0,3
096M27,4,262,PS,exp,31,↓,right,→,0.5673662000000377,False,9,-1,1,4
096M27,4,263,PS,exp,30,→,right,→,0.4797105999999758,True,10,-1,0,4
096M27,4,264,PS,exp,28,←,left,←,0.5651646999999684,True,10,1,1,5
096M27,4,265,PS,exp,40,↑,up,↑,0.5034860000000663,True,9,1,0,5
096M27,4,266,PS,exp,33,→,right,→,0.4282596000000467,True,9,1,0,5
096M27,4,267,PS,exp,25,↓,down,↓,0.6961160000000746,True,8,1,0,5
096M27,4,268,PS,exp,32,→,down,↓,0.577161599999954,False,8,-1,1,6
096M27,4,269,PS,exp,45,↓,down,↓,0.6450597000000471,True,9,-1,0,6
096M27,4,270,PS,exp,34,↑,up,↑,0.46049599999992097,True,9,1,1,7
096M27,4,271,PS,exp,25,↓,right,→,0.5491171000001032,False,8,-1,1,8
096M27,4,272,PS,exp,32,↑,up,↑,0.502149000000145,True,9,-1,0,8
096M27,4,273,PS,exp,49,→,right,→,0.5074615999999423,True,9,1,1,9
096M27,4,274,PS,exp,32,↓,left,←,0.549418100000139,False,8,-1,1,10
096M27,4,275,PS,exp,45,→,right,→,0.5037919999999758,True,9,-1,0,10
096M27,4,276,PS,exp,41,↑,up,↑,0.4868265000000065,True,9,1,1,11
096M27,4,277,PS,exp,49,↓,down,↓,0.5466306000000714,True,8,1,0,11
096M27,4,278,PS,exp,46,→,right,→,0.47424739999996746,True,8,1,0,11
096M27,4,279,PS,exp,29,↓,down,↓,0.4854676999998446,True,7,1,0,11
096M27,4,280,PS,exp,41,→,right,→,0.42819120000012845,True,7,1,0,11
096M27,4,281,PS,exp,42,←,left,←,0.477714399999968,True,6,1,0,11
096M27,4,282,PS,exp,38,↑,up,↑,0.5310715000000528,True,6,1,0,11
096M27,4,283,PS,exp,49,↓,down,↓,0.4387606999998752,True,5,1,0,11
096M27,4,284,PS,exp,35,←,left,←,0.49723040000003493,True,5,1,0,11
096M27,4,285,PS,exp,29,→,down,↓,0.5584896999998819,False,4,-1,1,12
096M27,4,286,PS,exp,33,↑,left,←,0.5971874000001662,False,5,-1,0,12
096M27,4,287,PS,exp,39,←,down,↓,0.4614189000001261,False,6,-1,0,12
096M27,4,288,PS,exp,26,↑,left,←,0.5929828000000725,False,7,-1,0,12
096M27,4,289,PS,exp,34,←,left,←,0.42775319999987005,True,8,-1,0,12
096M27,4,290,PS,exp,33,↓,left,←,0.6662919000000329,False,8,-1,0,12
096M27,4,291,PS,exp,41,↑,down,↓,0.8498284999998305,False,9,-1,0,12
096M27,4,292,PS,exp,44,↓,down,↓,0.4261203999999452,True,10,-1,0,12
096M27,4,293,PS,exp,47,↑,up,↑,0.5417241999998623,True,10,1,1,13
096M27,4,294,PS,exp,41,↓,down,↓,0.612312299999985,True,9,1,0,13
096M27,4,295,PS,exp,26,→,right,→,0.4480369000000337,True,9,1,0,13
096M27,4,296,PS,exp,30,↓,down,↓,0.4749636000001374,True,8,1,0,13
096M27,4,297,PS,exp,34,←,left,←,0.42253200000004654,True,8,1,0,13
096M27,4,298,PS,exp,27,→,right,→,0.5426694000000225,True,7,1,0,13
096M27,4,299,PS,exp,36,←,left,←,0.5055826999998771,True,7,1,0,13
096M27,4,300,PS,exp,37,↓,left,←,0.6288180000001375,False,6,-1,1,14
096M27,5,301,PS,intra_train,29,↑,up,↑,0.44041489999995065,True,10,-,-,-
096M27,5,302,PS,intra_train,29,←,left,←,0.4625069999999596,True,10,-,-,-
096M27,5,303,PS,intra_train,43,→,right,→,0.4825705000000653,True,10,-,-,-
096M27,5,304,PS,intra_train,45,←,left,←,0.45213650000005146,True,10,-,-,-
096M27,5,305,PS,intra_train,46,↑,up,↑,0.42618609999999535,True,10,-,-,-
096M27,5,306,PS,exp,34,←,left,←,0.3986847000001035,True,7,0,0,0
096M27,5,307,PS,exp,36,↓,left,←,0.5213575999998739,False,7,-1,0,0
096M27,5,308,PS,exp,29,↑,up,↑,0.3886797000000115,True,8,-1,0,0
096M27,5,309,PS,exp,33,↓,right,→,0.6108131000000867,False,8,-1,0,0
096M27,5,310,PS,exp,27,←,left,←,1.1472163999999339,True,9,-1,0,0
096M27,5,311,PS,exp,27,↑,left,←,0.5688109000000168,False,9,-1,0,0
096M27,5,312,PS,exp,36,←,left,←,0.3991978999999901,True,10,-1,0,0
096M27,5,313,PS,exp,46,↑,no_key,no_letter,-1.0,False,10,-1,0,0
096M27,5,314,PS,exp,33,←,left,←,0.3635369000000992,True,11,-1,0,0
096M27,5,315,PS,exp,25,→,right,→,0.4130752000000939,True,11,1,1,1
096M27,5,316,PS,exp,26,↑,no_key,no_letter,-1.0,False,10,-1,1,2
096M27,5,317,PS,exp,35,→,right,→,0.4883070000000771,True,11,-1,0,2
096M27,5,318,PS,exp,30,↓,down,↓,0.5725496000000021,True,11,1,1,3
096M27,5,319,PS,exp,27,→,right,→,0.4232130000000325,True,10,1,0,3
096M27,5,320,PS,exp,25,←,left,←,0.3808160000000953,True,10,1,0,3
096M27,5,321,PS,exp,32,↑,up,↑,0.5263322000000699,True,9,1,0,3
096M27,5,322,PS,exp,50,→,right,→,0.4250514000000294,True,9,1,0,3
096M27,5,323,PS,exp,48,↓,down,↓,0.5687358999998651,True,8,1,0,3
096M27,5,324,PS,exp,27,→,right,→,0.4682778999999755,True,8,1,0,3
096M27,5,325,PS,exp,34,←,right,→,0.4637198999998873,False,7,-1,1,4
096M27,5,326,PS,exp,44,↑,up,↑,0.4528949000000466,True,8,-1,0,4
096M27,5,327,PS,exp,32,→,down,↓,0.673294100000021,False,8,-1,0,4
096M27,5,328,PS,exp,35,←,left,←,0.5120170000000144,True,9,-1,0,4
096M27,5,329,PS,exp,38,↑,up,↑,0.6794976999999562,True,9,1,1,5
096M27,5,330,PS,exp,41,↓,down,↓,0.6853118999999879,True,8,1,0,5
096M27,5,331,PS,exp,42,←,left,←,0.541309100000035,True,8,1,0,5
096M27,5,332,PS,exp,45,↓,down,↓,0.6158250000000862,True,7,1,0,5
096M27,5,333,PS,exp,50,←,left,←,0.5151822000000266,True,7,1,0,5
096M27,5,334,PS,exp,37,→,right,→,0.732125300000007,True,6,1,0,5
096M27,5,335,PS,exp,48,←,left,←,0.573836700000129,True,6,1,0,5
096M27,5,336,PS,exp,35,↑,left,←,0.6118404999999711,False,5,-1,1,6
096M27,5,337,PS,exp,30,←,left,←,0.42021790000012516,True,6,-1,0,6
096M27,5,338,PS,exp,50,→,left,←,0.5599508999998761,False,6,-1,0,6
096M27,5,339,PS,exp,29,←,right,→,0.5357272000001103,False,7,-1,0,6
096M27,5,340,PS,exp,50,↑,left,←,0.5449581000000308,False,8,-1,0,6
096M27,5,341,PS,exp,35,←,left,←,0.4306482000001779,True,9,-1,0,6
096M27,5,342,PS,exp,49,→,right,→,0.4775514000000385,True,9,1,1,7
096M27,5,343,PS,exp,36,←,left,←,0.5132725999999366,True,8,1,0,7
096M27,5,344,PS,exp,50,↑,up,↑,1.0244017999998505,True,8,1,0,7
096M27,5,345,PS,exp,26,←,down,↓,0.7340818000000127,False,7,-1,1,8
096M27,5,346,PS,exp,44,↓,down,↓,0.4589501000000382,True,8,-1,0,8
096M27,5,347,PS,exp,48,←,left,←,0.6160409000001437,True,8,1,1,9
096M27,5,348,PS,exp,27,↑,up,↑,0.6610171999998329,True,7,1,0,9
096M27,5,349,PS,exp,29,←,right,→,0.7400225999999748,False,7,-1,1,10
096M27,5,350,PS,exp,28,→,left,←,0.6437376000001223,False,8,-1,0,10
096M27,5,351,PS,exp,48,↑,left,←,0.3849989000000278,False,9,-1,0,10
096M27,5,352,PS,exp,36,→,right,→,0.49131690000012895,True,10,-1,0,10
096M27,5,353,PS,exp,31,←,left,←,0.4036590000000615,True,10,1,1,11
096M27,5,354,PS,exp,43,↑,up,↑,0.4699890999997933,True,9,1,0,11
096M27,5,355,PS,exp,43,→,right,→,0.4636103999998795,True,9,1,0,11
096M27,5,356,PS,exp,41,↑,up,↑,0.6210548000001381,True,8,1,0,11
096M27,5,357,PS,exp,46,↓,down,↓,0.5078114000000369,True,8,1,0,11
096M27,5,358,PS,exp,33,↑,left,←,0.4587930000000142,False,7,-1,1,12
096M27,5,359,PS,exp,33,↓,left,←,0.719296600000007,False,8,-1,0,12
096M27,5,360,PS,exp,44,→,right,→,0.4760985999998866,True,9,-1,0,12
096M27,5,361,PS,exp,48,↑,up,↑,0.5299939999999879,True,9,1,1,13
096M27,5,362,PS,exp,43,→,up,↑,0.5648820000001251,False,8,-1,1,14
096M27,6,363,AS,intra_train,26,↓,down,↓,1.5396780000000945,True,28,-,-,-
096M27,6,364,AS,intra_train,49,↑,up,↑,1.2127273000000969,True,28,-,-,-
096M27,6,365,AS,intra_train,45,↓,down,↓,0.6536638999998559,True,28,-,-,-
096M27,6,366,AS,intra_train,50,→,right,→,0.5171477999999752,True,28,-,-,-
096M27,6,367,AS,intra_train,43,↑,up,↑,0.5505164999999579,True,28,-,-,-
096M27,6,368,AS,exp,33,→,right,→,0.609146600000031,True,19,0,0,0
096M27,6,369,AS,exp,44,←,left,←,0.503485499999897,True,19,1,0,0
096M27,6,370,AS,exp,26,↑,up,↑,0.5693066999999701,True,18,1,0,0
096M27,6,371,AS,exp,46,←,left,←,0.5044192000000294,True,18,1,0,0
096M27,6,372,AS,exp,26,↓,down,↓,0.7204420000000482,True,17,1,0,0
096M27,6,373,AS,exp,40,↑,up,↑,0.9742352000000665,True,17,1,0,0
096M27,6,374,AS,exp,47,→,left,←,0.4383574000000863,False,16,-1,1,1
096M27,6,375,AS,exp,30,←,right,→,0.5250896999998531,False,17,-1,0,1
096M27,6,376,AS,exp,42,↑,up,↑,0.40060319999997773,True,18,-1,0,1
096M27,6,377,AS,exp,29,↓,down,↓,0.5041396000001441,True,18,1,1,2
096M27,6,378,AS,exp,39,→,right,→,0.5313281999999617,True,17,1,0,2
096M27,6,379,AS,exp,35,←,right,→,0.4750923999999941,False,17,-1,1,3
096M27,6,380,AS,exp,27,→,left,←,1.614500800000087,False,18,-1,0,3
096M27,6,381,AS,exp,33,←,left,←,0.6403817999998864,True,19,-1,0,3
096M27,6,382,AS,exp,46,↑,up,↑,1.230983599999945,True,19,1,1,4
096M27,6,383,AS,exp,28,↓,down,↓,0.47736170000007405,True,18,1,0,4
096M27,6,384,AS,exp,48,←,up,↑,0.604126499999893,False,18,-1,1,5
096M27,6,385,AS,exp,33,↓,down,↓,0.7804404999999406,True,19,-1,0,5
096M27,6,386,AS,exp,49,←,left,←,0.986834399999907,True,19,1,1,6
096M27,6,387,AS,exp,35,↑,up,↑,0.9206195000001571,True,18,1,0,6
096M27,6,388,AS,exp,27,←,left,←,0.5602438000000802,True,18,1,0,6
096M27,6,389,AS,exp,49,→,right,→,0.5881789000000026,True,17,1,0,6
096M27,6,390,AS,exp,30,←,left,←,0.6013025000002017,True,17,1,0,6
096M27,6,391,AS,exp,45,↑,up,↑,0.7478553999999349,True,16,1,0,6
096M27,6,392,AS,exp,26,↓,up,↑,0.6855015999999523,False,16,-1,1,7
096M27,6,393,AS,exp,50,→,right,→,0.61883859999989,True,17,-1,0,7
096M27,6,394,AS,exp,49,↑,up,↑,0.5762219000000641,True,17,1,1,8
096M27,6,395,AS,exp,35,↓,down,↓,0.5645713000001251,True,16,1,0,8
096M27,6,396,AS,exp,32,↑,up,↑,0.63407959999995,True,16,1,0,8
096M27,6,397,AS,exp,50,←,left,←,0.795084000000088,True,15,1,0,8
096M27,6,398,AS,exp,47,→,right,→,0.44238439999980983,True,15,1,0,8
096M27,6,399,AS,exp,28,←,left,←,0.663938700000017,True,14,1,0,8
096M27,6,400,AS,exp,31,→,left,←,0.6039929999999458,False,14,-1,1,9
096M27,6,401,AS,exp,40,↓,up,↑,0.44881370000007337,False,15,-1,0,9
096M27,6,402,AS,exp,37,→,left,←,0.44537719999993897,False,16,-1,0,9
096M27,6,403,AS,exp,33,←,left,←,1.5801417999998648,True,17,-1,0,9
096M27,6,404,AS,exp,34,↓,down,↓,0.5881077000001369,True,17,1,1,10
096M27,6,405,AS,exp,29,←,left,←,1.0343774999998914,True,16,1,0,10
096M27,6,406,AS,exp,33,→,left,←,0.5543530999998438,False,16,-1,1,11
096M27,6,407,AS,exp,36,↓,down,↓,0.5602271000000201,True,17,-1,0,11
096M27,6,408,AS,exp,49,↑,up,↑,0.6742323000000852,True,17,1,1,12
096M27,6,409,AS,exp,43,↓,down,↓,0.6605988999999681,True,16,1,0,12
096M27,6,410,AS,exp,47,→,right,→,0.7104789999998502,True,16,1,0,12
096M27,6,411,AS,exp,28,↑,down,↓,0.5866747000000032,False,15,-1,1,13
096M27,6,412,AS,exp,43,←,left,←,0.5794027999997979,True,16,-1,0,13
096M27,6,413,AS,exp,28,↑,up,↑,0.5051734999999553,True,16,1,1,14
096M27,7,414,AS,intra_train,41,→,right,→,1.1754084000001512,True,28,-,-,-
096M27,7,415,AS,intra_train,28,↑,up,↑,0.7465064999998958,True,28,-,-,-
096M27,7,416,AS,intra_train,34,↓,down,↓,0.8136967999998888,True,28,-,-,-
096M27,7,417,AS,intra_train,42,←,left,←,1.1696064000000206,True,28,-,-,-
096M27,7,418,AS,intra_train,29,↓,down,↓,0.7057677999998759,True,28,-,-,-
096M27,7,419,AS,exp,45,↑,up,↑,0.7717089999998734,True,19,0,0,0
096M27,7,420,AS,exp,33,←,right,→,0.5171391999999742,False,19,-1,0,0
096M27,7,421,AS,exp,44,→,left,←,0.6257095999999365,False,20,-1,0,0
096M27,7,422,AS,exp,38,↓,down,↓,0.7685125000000426,True,21,-1,0,0
096M27,7,423,AS,exp,38,→,right,→,0.5488929000000553,True,21,1,1,1
096M27,7,424,AS,exp,43,←,left,←,0.5722592999998142,True,20,1,0,1
096M27,7,425,AS,exp,32,↓,down,↓,0.5333527999998751,True,20,1,0,1
096M27,7,426,AS,exp,34,→,right,→,0.5934726999998929,True,19,1,0,1
096M27,7,427,AS,exp,47,←,left,←,0.5109096999999565,True,19,1,0,1
096M27,7,428,AS,exp,47,↑,up,↑,0.655467900000076,True,18,1,0,1
096M27,7,429,AS,exp,36,←,left,←,0.5529943999999887,True,18,1,0,1
096M27,7,430,AS,exp,44,→,right,→,0.6800324000000728,True,17,1,0,1
096M27,7,431,AS,exp,29,←,left,←,0.593873799999983,True,17,1,0,1
096M27,7,432,AS,exp,35,↑,up,↑,0.7244705000000522,True,16,1,0,1
096M27,7,433,AS,exp,34,←,left,←,0.5058148000000529,True,16,1,0,1
096M27,7,434,AS,exp,29,↑,up,↑,0.6244355999999698,True,15,1,0,1
096M27,7,435,AS,exp,40,↓,down,↓,0.5676304000000982,True,15,1,0,1
096M27,7,436,AS,exp,44,↑,up,↑,0.6239146000000346,True,14,1,0,1
096M27,7,437,AS,exp,43,↓,down,↓,0.5125229000000218,True,14,1,0,1
096M27,7,438,AS,exp,34,→,left,←,0.5190671000000293,False,13,-1,1,2
096M27,7,439,AS,exp,29,←,left,←,0.597773400000051,True,14,-1,0,2
096M27,7,440,AS,exp,31,↓,down,↓,0.46916719999990164,True,14,1,1,3
096M27,7,441,AS,exp,40,→,right,→,0.4789051999998719,True,13,1,0,3
096M27,7,442,AS,exp,46,←,left,←,0.4132233999998789,True,13,1,0,3
096M27,7,443,AS,exp,31,↑,down,↓,0.5927034000001186,False,12,-1,1,4
096M27,7,444,AS,exp,41,↓,down,↓,0.46750269999984084,True,13,-1,0,4
096M27,7,445,AS,exp,27,←,left,←,0.5534847999999783,True,13,1,1,5
096M27,7,446,AS,exp,43,→,left,←,0.5717306999999892,False,12,-1,1,6
096M27,7,447,AS,exp,42,←,left,←,0.47146010000005845,True,13,-1,0,6
096M27,7,448,AS,exp,44,↑,up,↑,0.6663148000000092,True,13,1,1,7
096M27,7,449,AS,exp,43,←,right,→,0.6585887999999613,False,12,-1,1,8
096M27,7,450,AS,exp,28,→,right,→,0.4939683000000059,True,13,-1,0,8
096M27,7,451,AS,exp,28,↑,up,↑,0.5697999999999865,True,13,1,1,9
096M27,7,452,AS,exp,25,↓,down,↓,0.5483762999999726,True,12,1,0,9
096M27,7,453,AS,exp,27,→,right,→,0.48871500000018386,True,12,1,0,9
096M27,7,454,AS,exp,48,↑,up,↑,0.47727039999995213,True,11,1,0,9
096M27,7,455,AS,exp,32,←,left,←,0.49452930000006745,True,11,1,0,9
096M27,7,456,AS,exp,48,→,left,←,0.5511421999999584,False,10,-1,1,10
096M27,7,457,AS,exp,28,↓,up,↑,0.5827266999999665,False,11,-1,0,10
096M27,7,458,AS,exp,28,→,right,→,0.543521900000087,True,12,-1,0,10
096M27,7,459,AS,exp,43,↓,down,↓,0.5791398999999728,True,12,1,1,11
096M27,7,460,AS,exp,45,↑,up,↑,0.4773661000001539,True,11,1,0,11
096M27,7,461,AS,exp,28,→,right,→,0.4828500000000986,True,11,1,0,11
096M27,7,462,AS,exp,39,↓,down,↓,0.4457969000000048,True,10,1,0,11
096M27,7,463,AS,exp,28,→,right,→,0.546484099999816,True,10,1,0,11
096M27,7,464,AS,exp,37,↑,up,↑,0.4913088999999218,True,9,1,0,11
096M27,7,465,AS,exp,39,↓,down,↓,0.4638251000001219,True,9,1,0,11
096M27,7,466,AS,exp,25,←,right,→,0.5171307999999044,False,8,-1,1,12
096M27,7,467,AS,exp,42,→,right,→,0.6152320999999574,True,9,-1,0,12
096M27,7,468,AS,exp,34,←,left,←,0.5219422999998642,True,9,1,1,13
096M27,7,469,AS,exp,49,→,left,←,0.5525517999999465,False,8,-1,1,14
096M27,8,470,PS,intra_train,47,↓,down,↓,0.5973120999999537,True,10,-,-,-
096M27,8,471,PS,intra_train,29,↑,up,↑,0.5318351999999322,True,10,-,-,-
096M27,8,472,PS,intra_train,38,↓,down,↓,0.46531759999993483,True,10,-,-,-
096M27,8,473,PS,intra_train,25,←,left,←,0.547330600000123,True,10,-,-,-
096M27,8,474,PS,intra_train,26,↑,up,↑,0.7245609999999942,True,10,-,-,-
096M27,8,475,PS,exp,42,↓,down,↓,0.5837862000000769,True,7,0,0,0
096M27,8,476,PS,exp,27,→,left,←,0.43027550000010706,False,7,-1,0,0
096M27,8,477,PS,exp,48,←,right,→,0.726653400000032,False,8,-1,0,0
096M27,8,478,PS,exp,26,→,left,←,0.5569367000000511,False,9,-1,0,0
096M27,8,479,PS,exp,39,←,left,←,0.4208591999999953,True,10,-1,0,0
096M27,8,480,PS,exp,28,↑,left,←,0.7679611000000932,False,10,-1,0,0
096M27,8,481,PS,exp,37,←,left,←,0.4778882999999041,True,11,-1,0,0
096M27,8,482,PS,exp,32,↑,up,↑,0.6278052000000116,True,11,1,1,1
096M27,8,483,PS,exp,50,↓,down,↓,0.4809473000000253,True,10,1,0,1
096M27,8,484,PS,exp,29,↑,up,↑,0.5281664999999975,True,10,1,0,1
096M27,8,485,PS,exp,48,→,right,→,0.4697758999998314,True,9,1,0,1
096M27,8,486,PS,exp,31,←,left,←,0.3938170999999784,True,9,1,0,1
096M27,8,487,PS,exp,45,→,right,→,0.6378656000001683,True,8,1,0,1
096M27,8,488,PS,exp,32,↑,up,↑,0.6236042999998972,True,8,1,0,1
096M27,8,489,PS,exp,49,↓,down,↓,0.5703504000000521,True,7,1,0,1
096M27,8,490,PS,exp,27,→,right,→,0.4314865999999711,True,7,1,0,1
096M27,8,491,PS,exp,39,↑,up,↑,0.5924224000000322,True,6,1,0,1
096M27,8,492,PS,exp,33,→,up,↑,0.49899109999978464,False,6,-1,1,2
096M27,8,493,PS,exp,42,↓,up,↑,0.5601859999999306,False,7,-1,0,2
096M27,8,494,PS,exp,29,→,right,→,0.4328611999999339,True,8,-1,0,2
096M27,8,495,PS,exp,47,↑,left,←,0.6238550000000487,False,8,-1,0,2
096M27,8,496,PS,exp,41,→,right,→,0.38883179999993445,True,9,-1,0,2
096M27,8,497,PS,exp,44,↑,up,↑,0.6295616000002155,True,9,1,1,3
096M27,8,498,PS,exp,36,↓,down,↓,0.4486552999999276,True,8,1,0,3
096M27,8,499,PS,exp,34,→,right,→,0.4662597999999889,True,8,1,0,3
096M27,8,500,PS,exp,27,↓,right,→,0.6104958999999326,False,7,-1,1,4
096M27,8,501,PS,exp,27,←,left,←,0.48624309999991056,True,8,-1,0,4
096M27,8,502,PS,exp,28,↑,up,↑,0.8157757999999831,True,8,1,1,5
096M27,8,503,PS,exp,31,↓,down,↓,0.539750500000082,True,7,1,0,5
096M27,8,504,PS,exp,37,↑,up,↑,0.5198163000000022,True,7,1,0,5
096M27,8,505,PS,exp,46,↓,down,↓,0.5267257000000427,True,6,1,0,5
096M27,8,506,PS,exp,41,↑,down,↓,0.6361102000000756,False,6,-1,1,6
096M27,8,507,PS,exp,46,←,left,←,0.4016271999998935,True,7,-1,0,6
096M27,8,508,PS,exp,45,→,right,→,0.6813606999999138,True,7,1,1,7
096M27,8,509,PS,exp,30,↑,right,→,0.6661450999999943,False,6,-1,1,8
096M27,8,510,PS,exp,46,→,up,↑,0.7013322000000244,False,7,-1,0,8
096M27,8,511,PS,exp,49,↓,down,↓,0.5574555000000601,True,8,-1,0,8
096M27,8,512,PS,exp,44,↑,up,↑,0.6484344000000419,True,8,1,1,9
096M27,8,513,PS,exp,37,←,left,←,0.4711774999998397,True,7,1,0,9
096M27,8,514,PS,exp,44,→,right,→,0.4352933000000121,True,7,1,0,9
096M27,8,515,PS,exp,49,←,left,←,0.6123211000001447,True,6,1,0,9
096M27,8,516,PS,exp,44,→,up,↑,0.7861069999999017,False,6,-1,1,10
096M27,8,517,PS,exp,39,←,left,←,0.5584357999998701,True,7,-1,0,10
096M27,8,518,PS,exp,25,↓,down,↓,0.5722445999999763,True,7,1,1,11
096M27,8,519,PS,exp,39,→,left,←,0.6123347000000194,False,6,-1,1,12
096M27,8,520,PS,exp,38,←,left,←,0.368822899999941,True,7,-1,0,12
096M27,8,521,PS,exp,29,→,right,→,0.5691340999999284,True,7,1,1,13
096M27,8,522,PS,exp,35,←,down,↓,0.6121760999999424,False,6,-1,1,14
