PART_ID,Block_no,Trial_no,Block_type,Trial_type,CSI,Stim_letter,Key_pressed,letter_choose,Rt,Corr,Stimulus Time,Level,Reversal,Revs_count
112M20,1,1,PS,train,36,→,right,→,0.9515664000064135,True,30,-,-,-
112M20,1,2,PS,train,26,←,left,←,0.8183164999936707,True,30,-,-,-
112M20,1,3,PS,train,33,↓,down,↓,0.9762489999993704,True,30,-,-,-
112M20,1,4,PS,train,38,←,left,←,0.6998507999815047,True,30,-,-,-
112M20,1,5,PS,train,30,↓,down,↓,0.6908168999943882,True,30,-,-,-
112M20,1,6,PS,train,31,←,left,←,1.5264214999624528,True,30,-,-,-
112M20,1,7,PS,train,28,→,right,→,0.6886316000018269,True,30,-,-,-
112M20,1,8,PS,train,41,←,left,←,0.7053684999700636,True,30,-,-,-
112M20,1,9,PS,train,33,→,right,→,0.6173076000413857,True,30,-,-,-
112M20,1,10,PS,train,43,↓,down,↓,0.7692410000017844,True,30,-,-,-
112M20,2,11,AS,train,50,←,left,←,0.6344844999839552,True,45,-,-,-
112M20,2,12,AS,train,50,↓,down,↓,0.6844239999772981,True,45,-,-,-
112M20,2,13,AS,train,49,→,right,→,0.6011611999711022,True,45,-,-,-
112M20,2,14,AS,train,38,↓,down,↓,0.7011679999995977,True,45,-,-,-
112M20,2,15,AS,train,33,←,left,←,0.733809299999848,True,45,-,-,-
112M20,2,16,AS,train,43,→,right,→,0.6844496999983676,True,45,-,-,-
112M20,2,17,AS,train,43,↑,up,↑,0.7839181000017561,True,45,-,-,-
112M20,2,18,AS,train,34,←,left,←,0.6844254999887198,True,45,-,-,-
112M20,2,19,AS,train,46,↓,down,↓,0.7504756999551319,True,45,-,-,-
112M20,2,20,AS,train,31,←,left,←,0.6178990000043996,True,45,-,-,-
112M20,-,21,PS,adaptive,46,→,right,→,0.6810109000070952,True,10,0,0,0
112M20,-,22,PS,adaptive,30,↓,left,←,1.2406157000223175,False,10,-1,0,0
112M20,-,23,PS,adaptive,41,→,right,→,0.5986010000342503,True,11,-1,0,0
112M20,-,24,PS,adaptive,41,↑,up,↑,0.7817907999851741,True,11,1,1,1
112M20,-,25,PS,adaptive,39,←,left,←,0.5976402999949642,True,10,1,0,1
112M20,-,26,PS,adaptive,40,↑,up,↑,0.5963247999898158,True,10,1,0,1
112M20,-,27,PS,adaptive,45,←,left,←,0.6462443000054918,True,9,1,0,1
112M20,-,28,PS,adaptive,48,→,left,←,0.9491087000351399,False,9,-1,1,2
112M20,-,29,PS,adaptive,45,↓,down,↓,0.6790609000017866,True,10,-1,0,2
112M20,-,30,PS,adaptive,33,←,left,←,0.5500796000123955,True,10,1,1,3
112M20,-,31,PS,adaptive,43,↓,down,↓,0.6390401999815367,True,9,1,0,3
112M20,-,32,PS,adaptive,45,→,right,→,0.6671274999971502,True,9,1,0,3
112M20,-,33,PS,adaptive,25,↑,up,↑,0.5931967000360601,True,8,1,0,3
112M20,-,34,PS,adaptive,30,↓,down,↓,0.7628153000259772,True,8,1,0,3
112M20,-,35,PS,adaptive,35,↑,up,↑,0.6127884999732487,True,7,1,0,3
112M20,-,36,PS,adaptive,50,←,left,←,0.5326206000172533,True,7,1,0,3
112M20,-,37,PS,adaptive,33,→,right,→,1.2652488999883644,True,6,1,0,3
112M20,-,38,PS,adaptive,28,↓,down,↓,0.778459399996791,True,6,1,0,3
112M20,-,39,PS,adaptive,25,↑,up,↑,0.6506930000032298,True,5,1,0,3
112M20,-,40,PS,adaptive,28,→,left,←,0.6057158000185154,False,5,-1,1,4
112M20,-,41,AS,adaptive,36,←,left,←,0.6023174000438303,True,20,0,0,0
112M20,-,42,AS,adaptive,43,↑,up,↑,0.6525919000268914,True,20,1,0,0
112M20,-,43,AS,adaptive,50,↓,down,↓,0.685181500040926,True,19,1,0,0
112M20,-,44,AS,adaptive,31,←,left,←,0.6855179000413045,True,19,1,0,0
112M20,-,45,AS,adaptive,39,→,left,←,0.97158800001489,False,18,-1,1,1
112M20,-,46,AS,adaptive,47,←,left,←,0.6275150000001304,True,19,-1,0,1
112M20,-,47,AS,adaptive,35,↓,down,↓,0.704103900003247,True,19,1,1,2
112M20,-,48,AS,adaptive,46,←,left,←,0.7125367999542505,True,18,1,0,2
112M20,-,49,AS,adaptive,43,↓,down,↓,0.6556725000264123,True,18,1,0,2
112M20,-,50,AS,adaptive,40,↑,up,↑,0.6690493999631144,True,17,1,0,2
112M20,-,51,AS,adaptive,27,←,left,←,0.7417684000101872,True,17,1,0,2
112M20,-,52,AS,adaptive,31,→,right,→,0.943562500004191,True,16,1,0,2
112M20,-,53,AS,adaptive,39,↑,up,↑,0.598447100026533,True,16,1,0,2
112M20,-,54,AS,adaptive,29,←,left,←,0.6594650000333786,True,15,1,0,2
112M20,-,55,AS,adaptive,27,↑,up,↑,0.5814863999839872,True,15,1,0,2
112M20,-,56,AS,adaptive,28,←,left,←,0.8388365000137128,True,14,1,0,2
112M20,-,57,AS,adaptive,49,→,right,→,0.6393235999858007,True,14,1,0,2
112M20,-,58,AS,adaptive,48,↓,down,↓,0.6906023999908939,True,13,1,0,2
112M20,-,59,AS,adaptive,33,↑,up,↑,0.6287490000249818,True,13,1,0,2
112M20,-,60,AS,adaptive,45,↓,down,↓,0.9433046000194736,True,12,1,0,2
112M20,-,61,AS,adaptive,34,↑,up,↑,0.619648199994117,True,12,1,0,2
112M20,-,62,AS,adaptive,27,↓,up,↑,1.339217100001406,False,11,-1,1,3
112M20,-,63,AS,adaptive,33,↑,up,↑,0.6480991000426002,True,12,-1,0,3
112M20,-,64,AS,adaptive,30,←,left,←,0.567687599977944,True,12,1,1,4
112M20,1,65,PS,intra_train,44,→,right,→,0.6138128999737091,True,9,-,-,-
112M20,1,66,PS,intra_train,26,←,left,←,0.6464436000096612,True,9,-,-,-
112M20,1,67,PS,intra_train,49,→,right,→,1.1836239999975078,True,9,-,-,-
112M20,1,68,PS,intra_train,29,↓,left,←,0.7133948000264354,False,9,-,-,-
112M20,1,69,PS,intra_train,48,→,right,→,0.6283820000244305,True,9,-,-,-
112M20,1,70,PS,exp,30,←,left,←,0.5905279999715276,True,6,0,0,0
112M20,1,71,PS,exp,50,↑,up,↑,0.9352273999829777,True,6,1,0,0
112M20,1,72,PS,exp,27,↓,right,→,1.3067305000149645,False,5,-1,1,1
112M20,1,73,PS,exp,38,→,right,→,0.7221262999810278,True,6,-1,0,1
112M20,1,74,PS,exp,39,↓,down,↓,0.676517200015951,True,6,1,1,2
112M20,1,75,PS,exp,46,↑,up,↑,0.6121440000133589,True,5,1,0,2
112M20,1,76,PS,exp,28,↓,down,↓,0.6920411000028253,True,5,1,0,2
112M20,1,77,PS,exp,32,↑,up,↑,0.9132336999755353,True,4,1,0,2
112M20,1,78,PS,exp,27,→,right,→,0.7867426999728195,True,4,1,0,2
112M20,1,79,PS,exp,50,←,left,←,0.6232884000055492,True,3,1,0,2
112M20,1,80,PS,exp,30,↓,right,→,1.176868700014893,False,3,-1,1,3
112M20,1,81,PS,exp,49,→,down,↓,0.9115645000129007,False,4,-1,0,3
112M20,1,82,PS,exp,30,↑,up,↑,0.599476000003051,True,5,-1,0,3
112M20,1,83,PS,exp,26,←,left,←,0.6392117000068538,True,5,1,1,4
112M20,1,84,PS,exp,35,→,right,→,0.5914494999451563,True,4,1,0,4
112M20,1,85,PS,exp,38,↑,left,←,0.9879000000073574,False,4,-1,1,5
112M20,1,86,PS,exp,34,→,right,→,0.6866469000233337,True,5,-1,0,5
112M20,1,87,PS,exp,29,←,right,→,1.651295099989511,False,5,-1,0,5
112M20,1,88,PS,exp,26,↓,left,←,0.8465313999913633,False,6,-1,0,5
112M20,1,89,PS,exp,32,→,right,→,0.5913075000280514,True,7,-1,0,5
112M20,1,90,PS,exp,31,←,left,←,0.7302570000174455,True,7,1,1,6
112M20,1,91,PS,exp,31,↑,down,↓,1.60467620001873,False,6,-1,1,7
112M20,1,92,PS,exp,32,→,left,←,0.7921683000167832,False,7,-1,0,7
112M20,1,93,PS,exp,26,←,up,↑,0.904330600053072,False,8,-1,0,7
112M20,1,94,PS,exp,42,↓,down,↓,0.8751489000278525,True,9,-1,0,7
112M20,1,95,PS,exp,34,→,right,→,0.7005458000348881,True,9,1,1,8
112M20,1,96,PS,exp,40,↓,down,↓,0.8581997999572195,True,8,1,0,8
112M20,1,97,PS,exp,50,←,left,←,0.5833162000053562,True,8,1,0,8
112M20,1,98,PS,exp,30,→,right,→,0.7004188999999315,True,7,1,0,8
112M20,1,99,PS,exp,30,↓,down,↓,0.6124960000161082,True,7,1,0,8
112M20,1,100,PS,exp,29,↑,left,←,1.5876011999789625,False,6,-1,1,9
112M20,1,101,PS,exp,44,→,right,→,0.5475514000281692,True,7,-1,0,9
112M20,1,102,PS,exp,33,←,left,←,0.9201227000448853,True,7,1,1,10
112M20,1,103,PS,exp,42,↑,up,↑,1.290529099991545,True,6,1,0,10
112M20,1,104,PS,exp,35,←,left,←,0.6382838999852538,True,6,1,0,10
112M20,1,105,PS,exp,37,↑,up,↑,0.9427373000071384,True,5,1,0,10
112M20,1,106,PS,exp,39,←,left,←,0.9593480000039563,True,5,1,0,10
112M20,1,107,PS,exp,43,↓,no_key,no_letter,-1.0,False,4,-1,1,11
112M20,1,108,PS,exp,31,←,left,←,0.9500660999910906,True,5,-1,0,11
112M20,1,109,PS,exp,43,→,right,→,0.6734981000190601,True,5,1,1,12
112M20,1,110,PS,exp,44,↑,down,↓,0.8720867999945767,False,4,-1,1,13
112M20,1,111,PS,exp,38,→,left,←,0.725015300035011,False,5,-1,0,13
112M20,1,112,PS,exp,30,←,down,↓,1.5887216000119224,False,6,-1,0,13
112M20,1,113,PS,exp,41,↑,up,↑,0.6119616000214592,True,7,-1,0,13
112M20,1,114,PS,exp,30,←,down,↓,0.9536435999907553,False,7,-1,0,13
112M20,1,115,PS,exp,27,→,right,→,0.6314020000281744,True,8,-1,0,13
112M20,1,116,PS,exp,38,←,left,←,0.6244069000240415,True,8,1,1,14
112M20,2,117,AS,intra_train,42,↑,left,←,1.055125200015027,False,16,-,-,-
112M20,2,118,AS,intra_train,45,→,right,→,0.6280612000264227,True,16,-,-,-
112M20,2,119,AS,intra_train,48,↑,up,↑,0.8418046999722719,True,16,-,-,-
112M20,2,120,AS,intra_train,42,←,left,←,0.5427139999810606,True,16,-,-,-
112M20,2,121,AS,intra_train,45,↑,up,↑,0.7979551000171341,True,16,-,-,-
112M20,2,122,AS,exp,46,←,left,←,0.5851551999803632,True,11,0,0,0
112M20,2,123,AS,exp,30,↑,right,→,0.7941512000397779,False,11,-1,0,0
112M20,2,124,AS,exp,27,→,up,↑,0.8381269999663346,False,12,-1,0,0
112M20,2,125,AS,exp,33,↓,down,↓,0.64769349998096,True,13,-1,0,0
112M20,2,126,AS,exp,50,←,left,←,0.5655341999954544,True,13,1,1,1
112M20,2,127,AS,exp,32,↓,up,↑,1.365386099962052,False,12,-1,1,2
112M20,2,128,AS,exp,45,→,left,←,0.8304434000165202,False,13,-1,0,2
112M20,2,129,AS,exp,35,↑,up,↑,0.674938399984967,True,14,-1,0,2
112M20,2,130,AS,exp,27,→,right,→,0.6302065000054426,True,14,1,1,3
112M20,2,131,AS,exp,50,↑,up,↑,0.7698581999866292,True,13,1,0,3
112M20,2,132,AS,exp,33,↓,down,↓,0.5707079999847338,True,13,1,0,3
112M20,2,133,AS,exp,49,→,left,←,0.6499535000184551,False,12,-1,1,4
112M20,2,134,AS,exp,26,↑,up,↑,0.593017700011842,True,13,-1,0,4
112M20,2,135,AS,exp,34,←,left,←,0.5909800999797881,True,13,1,1,5
112M20,2,136,AS,exp,27,↑,up,↑,0.715630599996075,True,12,1,0,5
112M20,2,137,AS,exp,50,→,right,→,0.6668463000096381,True,12,1,0,5
112M20,2,138,AS,exp,49,↑,down,↓,1.2586547000100836,False,11,-1,1,6
112M20,2,139,AS,exp,30,←,up,↑,1.1508923000073992,False,12,-1,0,6
112M20,2,140,AS,exp,34,→,left,←,0.7207898000488058,False,13,-1,0,6
112M20,2,141,AS,exp,42,↑,up,↑,0.5657191000063904,True,14,-1,0,6
112M20,2,142,AS,exp,37,←,left,←,0.600129900034517,True,14,1,1,7
112M20,2,143,AS,exp,42,↓,down,↓,1.1937782000168227,True,13,1,0,7
112M20,2,144,AS,exp,26,←,left,←,0.6806204000022262,True,13,1,0,7
112M20,2,145,AS,exp,30,→,left,←,0.6009289000066929,False,12,-1,1,8
112M20,2,146,AS,exp,44,↓,up,↑,0.5800560000352561,False,13,-1,0,8
112M20,2,147,AS,exp,41,←,left,←,0.5996310000191443,True,14,-1,0,8
112M20,2,148,AS,exp,42,↑,up,↑,0.5213198999990709,True,14,1,1,9
112M20,2,149,AS,exp,44,→,down,↓,0.9683494999771938,False,13,-1,1,10
112M20,2,150,AS,exp,45,↓,down,↓,0.7587997000082396,True,14,-1,0,10
112M20,2,151,AS,exp,34,→,right,→,0.6051126000238582,True,14,1,1,11
112M20,2,152,AS,exp,43,↓,up,↑,0.7517497999942861,False,13,-1,1,12
112M20,2,153,AS,exp,38,↑,up,↑,1.0800400999723934,True,14,-1,0,12
112M20,2,154,AS,exp,30,↓,down,↓,0.7169541000039317,True,14,1,1,13
112M20,2,155,AS,exp,34,↑,up,↑,0.7662584999925457,True,13,1,0,13
112M20,2,156,AS,exp,30,↓,down,↓,0.6744276999961585,True,13,1,0,13
112M20,2,157,AS,exp,27,←,left,←,0.6319555999943987,True,12,1,0,13
112M20,2,158,AS,exp,31,↑,up,↑,0.7416825999971479,True,12,1,0,13
112M20,2,159,AS,exp,45,→,right,→,0.6942329999874346,True,11,1,0,13
112M20,2,160,AS,exp,43,←,left,←,0.665220299968496,True,11,1,0,13
112M20,2,161,AS,exp,47,↑,right,→,1.0062611000030302,False,10,-1,1,14
112M20,3,162,AS,intra_train,49,→,right,→,0.5170278999721631,True,16,-,-,-
112M20,3,163,AS,intra_train,41,↑,up,↑,0.49805880000349134,True,16,-,-,-
112M20,3,164,AS,intra_train,44,←,left,←,0.9317321000271477,True,16,-,-,-
112M20,3,165,AS,intra_train,47,↓,down,↓,0.5969296999974176,True,16,-,-,-
112M20,3,166,AS,intra_train,28,←,left,←,0.5497089000418782,True,16,-,-,-
112M20,3,167,AS,exp,38,↑,right,→,1.1665908000431955,False,11,-1,0,0
112M20,3,168,AS,exp,31,↓,up,↑,0.7426610999973491,False,12,-1,0,0
112M20,3,169,AS,exp,48,←,left,←,0.5757968999678269,True,13,-1,0,0
112M20,3,170,AS,exp,33,↑,up,↑,0.5633426999556832,True,13,1,1,1
112M20,3,171,AS,exp,47,←,left,←,0.5554854999645613,True,12,1,0,1
112M20,3,172,AS,exp,44,→,right,→,0.7417260999791324,True,12,1,0,1
112M20,3,173,AS,exp,50,←,left,←,0.6662001000368036,True,11,1,0,1
112M20,3,174,AS,exp,36,→,right,→,0.6043405999662355,True,11,1,0,1
112M20,3,175,AS,exp,33,↑,up,↑,0.5242468999931589,True,10,1,0,1
112M20,3,176,AS,exp,29,←,left,←,0.6981805000104941,True,10,1,0,1
112M20,3,177,AS,exp,47,→,left,←,0.6368061999673955,False,9,-1,1,2
112M20,3,178,AS,exp,50,↑,up,↑,0.5383072000113316,True,10,-1,0,2
112M20,3,179,AS,exp,29,→,right,→,0.5315350000164472,True,10,1,1,3
112M20,3,180,AS,exp,28,↑,up,↑,0.5955678999889642,True,9,1,0,3
112M20,3,181,AS,exp,50,←,left,←,0.653226199967321,True,9,1,0,3
112M20,3,182,AS,exp,45,↓,up,↑,0.6405052999616601,False,8,-1,1,4
112M20,3,183,AS,exp,44,→,right,→,0.8480188000248745,True,9,-1,0,4
112M20,3,184,AS,exp,47,↓,down,↓,0.5059420000179671,True,9,1,1,5
112M20,3,185,AS,exp,30,↑,right,→,0.8400126000051387,False,8,-1,1,6
112M20,3,186,AS,exp,49,↓,down,↓,1.7637055999948643,True,9,-1,0,6
112M20,3,187,AS,exp,27,↑,up,↑,0.6787808000226505,True,9,1,1,7
112M20,3,188,AS,exp,44,←,left,←,0.6266684000147507,True,8,1,0,7
112M20,3,189,AS,exp,33,→,right,→,0.5759287999826483,True,8,1,0,7
112M20,3,190,AS,exp,42,↓,left,←,1.0620946999988519,False,7,-1,1,8
112M20,3,191,AS,exp,40,→,down,↓,1.2000783000257798,False,8,-1,0,8
112M20,3,192,AS,exp,25,↑,up,↑,0.6117007000138983,True,9,-1,0,8
112M20,3,193,AS,exp,30,←,left,←,0.650114800024312,True,9,1,1,9
112M20,3,194,AS,exp,47,↑,up,↑,0.7429318000213243,True,8,1,0,9
112M20,3,195,AS,exp,41,↓,down,↓,0.8744009000365622,True,8,1,0,9
112M20,3,196,AS,exp,33,←,left,←,0.6489132000133395,True,7,1,0,9
112M20,3,197,AS,exp,26,→,right,→,0.6130265999818221,True,7,1,0,9
112M20,3,198,AS,exp,32,←,left,←,0.72262239997508,True,6,1,0,9
112M20,3,199,AS,exp,49,↓,down,↓,0.8377861000481062,True,6,1,0,9
112M20,3,200,AS,exp,36,↑,up,↑,0.6211346999625675,True,5,1,0,9
112M20,3,201,AS,exp,40,↓,left,←,0.6509786000242457,False,5,-1,1,10
112M20,3,202,AS,exp,26,↑,right,→,0.7675836000125855,False,6,-1,0,10
112M20,3,203,AS,exp,25,→,down,↓,0.7778866000007838,False,7,-1,0,10
112M20,3,204,AS,exp,38,↓,left,←,1.3740011000190862,False,8,-1,0,10
112M20,3,205,AS,exp,47,←,left,←,0.8101037999731489,True,9,-1,0,10
112M20,3,206,AS,exp,36,↑,up,↑,0.6150654999655671,True,9,1,1,11
112M20,3,207,AS,exp,27,→,down,↓,1.1765025000204332,False,8,-1,1,12
112M20,3,208,AS,exp,30,←,left,←,0.6880693000275642,True,9,-1,0,12
112M20,3,209,AS,exp,42,↓,right,→,0.9930006000213325,False,9,-1,0,12
112M20,3,210,AS,exp,39,→,right,→,0.821985799993854,True,10,-1,0,12
112M20,3,211,AS,exp,32,↑,up,↑,0.6020596000016667,True,10,1,1,13
112M20,3,212,AS,exp,44,↓,down,↓,0.5034884000197053,True,9,1,0,13
112M20,3,213,AS,exp,43,→,right,→,0.931243299972266,True,9,1,0,13
112M20,3,214,AS,exp,29,↓,down,↓,0.7998923999839462,True,8,1,0,13
112M20,3,215,AS,exp,41,→,right,→,0.6933250000001863,True,8,1,0,13
112M20,3,216,AS,exp,32,↑,up,↑,1.0380957999732345,True,7,1,0,13
112M20,3,217,AS,exp,32,←,left,←,1.0374660000088625,True,7,1,0,13
112M20,3,218,AS,exp,35,→,right,→,0.6743626000243239,True,6,1,0,13
112M20,3,219,AS,exp,44,↑,up,↑,0.6248678999836557,True,6,1,0,13
112M20,3,220,AS,exp,37,←,left,←,1.1167681000079028,True,5,1,0,13
112M20,3,221,AS,exp,46,↓,down,↓,1.0692208999535069,True,5,1,0,13
112M20,3,222,AS,exp,31,↑,up,↑,0.9120253999717534,True,4,1,0,13
112M20,3,223,AS,exp,36,↓,left,←,0.8183067999780178,False,4,-1,1,14
112M20,4,224,PS,intra_train,25,←,left,←,0.7342593999928795,True,9,-,-,-
112M20,4,225,PS,intra_train,27,↑,up,↑,0.5535510000190698,True,9,-,-,-
112M20,4,226,PS,intra_train,27,←,left,←,0.5444647999829613,True,9,-,-,-
112M20,4,227,PS,intra_train,49,↓,down,↓,0.5480711000273004,True,9,-,-,-
112M20,4,228,PS,intra_train,46,←,right,→,0.613328300009016,False,9,-,-,-
112M20,4,229,PS,exp,47,↓,left,←,0.6630301999975927,False,6,-1,0,0
112M20,4,230,PS,exp,39,←,left,←,0.6618215999915265,True,7,-1,0,0
112M20,4,231,PS,exp,40,↓,down,↓,0.6143675000057556,True,7,1,1,1
112M20,4,232,PS,exp,45,→,left,←,0.6544685999979265,False,6,-1,1,2
112M20,4,233,PS,exp,36,↓,down,↓,0.6956581000122242,True,7,-1,0,2
112M20,4,234,PS,exp,43,↑,up,↑,0.5708829000359401,True,7,1,1,3
112M20,4,235,PS,exp,28,↓,down,↓,0.5409774000290781,True,6,1,0,3
112M20,4,236,PS,exp,40,→,right,→,0.7935695999767631,True,6,1,0,3
112M20,4,237,PS,exp,34,↓,down,↓,0.5422954999958165,True,5,1,0,3
112M20,4,238,PS,exp,32,←,left,←,0.6227062999969348,True,5,1,0,3
112M20,4,239,PS,exp,43,↑,right,→,0.7937965000164695,False,4,-1,1,4
112M20,4,240,PS,exp,34,→,right,→,0.6127024000161327,True,5,-1,0,4
112M20,4,241,PS,exp,33,↓,left,←,0.6154359999927692,False,5,-1,0,4
112M20,4,242,PS,exp,25,←,left,←,1.1511178000364453,True,6,-1,0,4
112M20,4,243,PS,exp,32,→,right,→,0.67561299999943,True,6,1,1,5
112M20,4,244,PS,exp,38,↓,down,↓,0.66480650001904,True,5,1,0,5
112M20,4,245,PS,exp,31,→,right,→,0.5606340999947861,True,5,1,0,5
112M20,4,246,PS,exp,28,←,right,→,0.5943446999881417,False,4,-1,1,6
112M20,4,247,PS,exp,40,→,up,↑,0.884843300038483,False,5,-1,0,6
112M20,4,248,PS,exp,43,↓,left,←,1.0617855999735184,False,6,-1,0,6
112M20,4,249,PS,exp,31,←,left,←,1.221216399979312,True,7,-1,0,6
112M20,4,250,PS,exp,46,↓,down,↓,0.8056640000431798,True,7,1,1,7
112M20,4,251,PS,exp,25,←,left,←,1.0061443999875337,True,6,1,0,7
112M20,4,252,PS,exp,35,→,right,→,0.5909944999730214,True,6,1,0,7
112M20,4,253,PS,exp,49,↓,right,→,1.559811900020577,False,5,-1,1,8
112M20,4,254,PS,exp,26,←,up,↑,0.6888406000216492,False,6,-1,0,8
112M20,4,255,PS,exp,28,↑,up,↑,0.6044368000002578,True,7,-1,0,8
112M20,4,256,PS,exp,29,→,right,→,0.5589711000211537,True,7,1,1,9
112M20,4,257,PS,exp,44,↓,down,↓,0.7990055000409484,True,6,1,0,9
112M20,4,258,PS,exp,35,→,left,←,0.9240491000236943,False,6,-1,1,10
112M20,4,259,PS,exp,34,←,up,↑,0.640718000009656,False,7,-1,0,10
112M20,4,260,PS,exp,28,↓,left,←,0.8250536000123248,False,8,-1,0,10
112M20,4,261,PS,exp,33,→,right,→,0.5842866000020877,True,9,-1,0,10
112M20,4,262,PS,exp,41,↓,down,↓,0.5618238000315614,True,9,1,1,11
112M20,4,263,PS,exp,32,↑,no_key,no_letter,-1.0,False,8,-1,1,12
112M20,4,264,PS,exp,27,←,left,←,0.5455793000292033,True,9,-1,0,12
112M20,4,265,PS,exp,31,↓,down,↓,0.5452225999906659,True,9,1,1,13
112M20,4,266,PS,exp,34,→,right,→,0.5027840999537148,True,8,1,0,13
112M20,4,267,PS,exp,34,←,left,←,1.1417814999585971,True,8,1,0,13
112M20,4,268,PS,exp,28,↑,up,↑,0.4790845999959856,True,7,1,0,13
112M20,4,269,PS,exp,49,↓,down,↓,0.4733328999718651,True,7,1,0,13
112M20,4,270,PS,exp,37,←,left,←,0.4637150000198744,True,6,1,0,13
112M20,4,271,PS,exp,30,↓,down,↓,0.5361857999814674,True,6,1,0,13
112M20,4,272,PS,exp,30,→,right,→,0.612723600002937,True,5,1,0,13
112M20,4,273,PS,exp,39,←,right,→,0.6182588000083342,False,5,-1,1,14
112M20,5,274,PS,intra_train,49,→,right,→,0.4847883000038564,True,9,-,-,-
112M20,5,275,PS,intra_train,29,↑,up,↑,0.549240300024394,True,9,-,-,-
112M20,5,276,PS,intra_train,43,↓,down,↓,0.6001736000180244,True,9,-,-,-
112M20,5,277,PS,intra_train,25,←,left,←,0.543468399962876,True,9,-,-,-
112M20,5,278,PS,intra_train,45,→,right,→,0.4679681999841705,True,9,-,-,-
112M20,5,279,PS,exp,40,↑,down,↓,0.6065216000424698,False,6,-1,0,0
112M20,5,280,PS,exp,31,←,left,←,0.5143277000170201,True,7,-1,0,0
112M20,5,281,PS,exp,31,↑,up,↑,0.7965966999763623,True,7,1,1,1
112M20,5,282,PS,exp,32,↓,down,↓,0.4653909999760799,True,6,1,0,1
112M20,5,283,PS,exp,47,↑,right,→,0.6225426000310108,False,6,-1,1,2
112M20,5,284,PS,exp,32,↓,down,↓,0.5481237000203691,True,7,-1,0,2
112M20,5,285,PS,exp,47,↑,up,↑,0.4852168999495916,True,7,1,1,3
112M20,5,286,PS,exp,46,←,left,←,0.49567420000676066,True,6,1,0,3
112M20,5,287,PS,exp,40,→,left,←,0.6833384999772534,False,6,-1,1,4
112M20,5,288,PS,exp,33,↑,up,↑,0.5169649999588728,True,7,-1,0,4
112M20,5,289,PS,exp,32,→,down,↓,0.5987495000008494,False,7,-1,0,4
112M20,5,290,PS,exp,46,←,left,←,0.4570353999733925,True,8,-1,0,4
112M20,5,291,PS,exp,45,↓,down,↓,1.008980899991002,True,8,1,1,5
112M20,5,292,PS,exp,44,←,right,→,0.5562923999968916,False,7,-1,1,6
112M20,5,293,PS,exp,34,↑,up,↑,0.6155894999974407,True,8,-1,0,6
112M20,5,294,PS,exp,47,↓,right,→,0.9843977999989875,False,8,-1,0,6
112M20,5,295,PS,exp,27,←,down,↓,0.5796508000348695,False,9,-1,0,6
112M20,5,296,PS,exp,27,↑,up,↑,0.667123100021854,True,10,-1,0,6
112M20,5,297,PS,exp,30,→,left,←,0.5797307000029832,False,10,-1,0,6
112M20,5,298,PS,exp,47,↑,up,↑,0.8299545000190847,True,11,-1,0,6
112M20,5,299,PS,exp,33,↓,left,←,0.8475977000198327,False,11,-1,0,6
112M20,5,300,PS,exp,39,↑,right,→,0.7608482000068761,False,12,-1,0,6
112M20,5,301,PS,exp,50,←,left,←,0.48936000000685453,True,13,-1,0,6
112M20,5,302,PS,exp,37,→,right,→,0.5976838000351563,True,13,1,1,7
112M20,5,303,PS,exp,32,↓,down,↓,0.48409210005775094,True,12,1,0,7
112M20,5,304,PS,exp,40,→,right,→,0.5761279999860562,True,12,1,0,7
112M20,5,305,PS,exp,46,←,left,←,0.5144674000330269,True,11,1,0,7
112M20,5,306,PS,exp,27,↑,left,←,0.672675900044851,False,11,-1,1,8
112M20,5,307,PS,exp,40,→,right,→,0.4957163999788463,True,12,-1,0,8
112M20,5,308,PS,exp,35,←,left,←,0.49528319999808446,True,12,1,1,9
112M20,5,309,PS,exp,43,→,right,→,0.5521019999869168,True,11,1,0,9
112M20,5,310,PS,exp,49,←,left,←,0.4630460999906063,True,11,1,0,9
112M20,5,311,PS,exp,26,↑,left,←,0.8255090999882668,False,10,-1,1,10
112M20,5,312,PS,exp,27,→,right,→,0.5641801999881864,True,11,-1,0,10
112M20,5,313,PS,exp,39,↓,down,↓,0.5236298000090756,True,11,1,1,11
112M20,5,314,PS,exp,32,←,down,↓,0.7534769999911077,False,10,-1,1,12
112M20,5,315,PS,exp,37,↓,down,↓,0.7531663000117987,True,11,-1,0,12
112M20,5,316,PS,exp,41,↑,right,→,0.5186311000143178,False,11,-1,0,12
112M20,5,317,PS,exp,27,←,left,←,0.5158087000017986,True,12,-1,0,12
112M20,5,318,PS,exp,34,↑,up,↑,0.4468545999843627,True,12,1,1,13
112M20,5,319,PS,exp,49,→,right,→,0.44887560000643134,True,11,1,0,13
112M20,5,320,PS,exp,45,↑,left,←,0.6417282000184059,False,11,-1,1,14
112M20,6,321,AS,intra_train,28,↓,down,↓,0.5854123000171967,True,16,-,-,-
112M20,6,322,AS,intra_train,44,↑,up,↑,0.532151400053408,True,16,-,-,-
112M20,6,323,AS,intra_train,41,↓,down,↓,0.5315785999991931,True,16,-,-,-
112M20,6,324,AS,intra_train,44,↑,up,↑,0.554439099971205,True,16,-,-,-
112M20,6,325,AS,intra_train,31,←,left,←,0.6096564999897964,True,16,-,-,-
112M20,6,326,AS,exp,35,↓,up,↑,0.5952300999779254,False,11,-1,0,0
112M20,6,327,AS,exp,46,→,left,←,0.5518655000487342,False,12,-1,0,0
112M20,6,328,AS,exp,44,↑,up,↑,0.5528529000002891,True,13,-1,0,0
112M20,6,329,AS,exp,39,←,left,←,0.6134323000442237,True,13,1,1,1
112M20,6,330,AS,exp,48,↑,up,↑,0.5243725000182167,True,12,1,0,1
112M20,6,331,AS,exp,26,→,right,→,0.7018109000055119,True,12,1,0,1
112M20,6,332,AS,exp,28,←,left,←,0.5535415000049397,True,11,1,0,1
112M20,6,333,AS,exp,41,→,right,→,0.8073311999905854,True,11,1,0,1
112M20,6,334,AS,exp,47,↓,down,↓,1.4496081999968737,True,10,1,0,1
112M20,6,335,AS,exp,35,←,left,←,0.8472154000191949,True,10,1,0,1
112M20,6,336,AS,exp,35,↓,up,↑,0.9007546999491751,False,9,-1,1,2
112M20,6,337,AS,exp,46,↑,up,↑,0.6777618000051007,True,10,-1,0,2
112M20,6,338,AS,exp,33,→,right,→,0.6956777999876067,True,10,1,1,3
112M20,6,339,AS,exp,46,←,left,←,0.5514095000107773,True,9,1,0,3
112M20,6,340,AS,exp,36,↑,up,↑,0.5931399000110105,True,9,1,0,3
112M20,6,341,AS,exp,37,←,left,←,0.5475215999758802,True,8,1,0,3
112M20,6,342,AS,exp,33,→,down,↓,0.7432075999677181,False,8,-1,1,4
112M20,6,343,AS,exp,41,↑,up,↑,0.5771428999723867,True,9,-1,0,4
112M20,6,344,AS,exp,26,←,left,←,0.7215254999464378,True,9,1,1,5
112M20,6,345,AS,exp,40,↑,up,↑,0.5929727000184357,True,8,1,0,5
112M20,6,346,AS,exp,34,↓,down,↓,0.558860499993898,True,8,1,0,5
112M20,6,347,AS,exp,49,→,left,←,0.5292628000024706,False,7,-1,1,6
112M20,6,348,AS,exp,30,↑,up,↑,0.543016700015869,True,8,-1,0,6
112M20,6,349,AS,exp,40,→,right,→,0.9770519000012428,True,8,1,1,7
112M20,6,350,AS,exp,30,↓,up,↑,0.5601011000107974,False,7,-1,1,8
112M20,6,351,AS,exp,49,←,left,←,0.513657899980899,True,8,-1,0,8
112M20,6,352,AS,exp,35,↑,up,↑,0.5360371000133455,True,8,1,1,9
112M20,6,353,AS,exp,33,↓,right,→,0.8862890999880619,False,7,-1,1,10
112M20,6,354,AS,exp,38,→,right,→,0.5449632999952883,True,8,-1,0,10
112M20,6,355,AS,exp,29,↑,up,↑,0.5192984000314027,True,8,1,1,11
112M20,6,356,AS,exp,26,→,right,→,0.6845181999960914,True,7,1,0,11
112M20,6,357,AS,exp,49,↑,up,↑,0.7562841000035405,True,7,1,0,11
112M20,6,358,AS,exp,43,→,right,→,1.2147395000210963,True,6,1,0,11
112M20,6,359,AS,exp,43,↑,up,↑,0.7169627000112087,True,6,1,0,11
112M20,6,360,AS,exp,46,↓,down,↓,0.9154709999565966,True,5,1,0,11
112M20,6,361,AS,exp,36,←,left,←,0.6648449000203982,True,5,1,0,11
112M20,6,362,AS,exp,28,→,right,→,1.0116549999802373,True,4,1,0,11
112M20,6,363,AS,exp,43,↓,down,↓,0.7869241000153124,True,4,1,0,11
112M20,6,364,AS,exp,38,←,left,←,0.6843291000113823,True,3,1,0,11
112M20,6,365,AS,exp,29,↓,down,↓,0.8816439000074752,True,3,1,0,11
112M20,6,366,AS,exp,43,↑,right,→,0.9471942000091076,False,2,-1,1,12
112M20,6,367,AS,exp,44,↓,up,↑,0.6041546000051312,False,3,-1,0,12
112M20,6,368,AS,exp,26,→,left,←,0.639209299988579,False,4,-1,0,12
112M20,6,369,AS,exp,30,↑,up,↑,0.6108208000077866,True,5,-1,0,12
112M20,6,370,AS,exp,41,↓,right,→,1.0992979999864474,False,5,-1,0,12
112M20,6,371,AS,exp,45,←,down,↓,0.9487618000130169,False,6,-1,0,12
112M20,6,372,AS,exp,37,↑,up,↑,0.6869512000121176,True,7,-1,0,12
112M20,6,373,AS,exp,39,←,left,←,0.5991486999555491,True,7,1,1,13
112M20,6,374,AS,exp,28,↓,up,↑,0.8220519999740645,False,6,-1,1,14
112M20,7,375,AS,intra_train,49,↑,up,↑,1.0104948000516742,True,16,-,-,-
112M20,7,376,AS,intra_train,50,←,left,←,0.5199549999670126,True,16,-,-,-
112M20,7,377,AS,intra_train,31,↓,down,↓,0.8483246000250801,True,16,-,-,-
112M20,7,378,AS,intra_train,26,←,left,←,0.561625600035768,True,16,-,-,-
112M20,7,379,AS,intra_train,38,↓,down,↓,0.531689599971287,True,16,-,-,-
112M20,7,380,AS,exp,39,→,right,→,0.599620099994354,True,11,0,0,0
112M20,7,381,AS,exp,31,↓,up,↑,0.5087795999716036,False,11,-1,0,0
112M20,7,382,AS,exp,25,←,left,←,0.4772641999879852,True,12,-1,0,0
112M20,7,383,AS,exp,46,↓,down,↓,0.8229718999937177,True,12,1,1,1
112M20,7,384,AS,exp,27,→,right,→,0.5109470000024885,True,11,1,0,1
112M20,7,385,AS,exp,39,←,left,←,0.4936085999943316,True,11,1,0,1
112M20,7,386,AS,exp,25,→,left,←,0.5189303999650292,False,10,-1,1,2
112M20,7,387,AS,exp,43,↑,up,↑,0.5724505000398494,True,11,-1,0,2
112M20,7,388,AS,exp,43,↓,down,↓,0.7680697000469081,True,11,1,1,3
112M20,7,389,AS,exp,50,↑,up,↑,0.4848018999909982,True,10,1,0,3
112M20,7,390,AS,exp,49,↓,up,↑,0.8532261999789625,False,10,-1,1,4
112M20,7,391,AS,exp,45,←,right,→,0.6340009999694303,False,11,-1,0,4
112M20,7,392,AS,exp,30,↓,down,↓,0.6951772000174969,True,12,-1,0,4
112M20,7,393,AS,exp,34,↑,up,↑,0.5345933000207879,True,12,1,1,5
112M20,7,394,AS,exp,36,→,left,←,0.6941345000523143,False,11,-1,1,6
112M20,7,395,AS,exp,26,↑,up,↑,0.48359420004999265,True,12,-1,0,6
112M20,7,396,AS,exp,49,↓,down,↓,1.1106285999994725,True,12,1,1,7
112M20,7,397,AS,exp,44,↑,up,↑,0.6063693999894895,True,11,1,0,7
112M20,7,398,AS,exp,43,←,left,←,0.6554573000175878,True,11,1,0,7
112M20,7,399,AS,exp,38,↓,up,↑,0.5795254000113346,False,10,-1,1,8
112M20,7,400,AS,exp,30,→,right,→,0.5581881999969482,True,11,-1,0,8
112M20,7,401,AS,exp,40,←,right,→,0.7049767000135034,False,11,-1,0,8
112M20,7,402,AS,exp,48,→,right,→,0.5202362000127323,True,12,-1,0,8
112M20,7,403,AS,exp,32,←,left,←,0.5459827999584377,True,12,1,1,9
112M20,7,404,AS,exp,31,→,right,→,0.5216352999559604,True,11,1,0,9
112M20,7,405,AS,exp,43,↓,down,↓,0.5445028999820352,True,11,1,0,9
112M20,7,406,AS,exp,30,→,left,←,0.5531829000101425,False,10,-1,1,10
112M20,7,407,AS,exp,31,↓,down,↓,0.6402728999964893,True,11,-1,0,10
112M20,7,408,AS,exp,30,→,right,→,0.5337059000157751,True,11,1,1,11
112M20,7,409,AS,exp,33,↑,left,←,0.7470838000299409,False,10,-1,1,12
112M20,7,410,AS,exp,33,↓,down,↓,0.6385707999579608,True,11,-1,0,12
112M20,7,411,AS,exp,40,↑,up,↑,0.5451368000358343,True,11,1,1,13
112M20,7,412,AS,exp,28,↓,down,↓,0.6369444000301883,True,10,1,0,13
112M20,7,413,AS,exp,33,←,right,→,1.0125240999623202,False,10,-1,1,14
112M20,8,414,PS,intra_train,47,↓,left,←,1.2552315999637358,False,9,-,-,-
112M20,8,415,PS,intra_train,47,←,left,←,0.5239575000014156,True,9,-,-,-
112M20,8,416,PS,intra_train,35,↓,right,→,0.6691912000533193,False,9,-,-,-
112M20,8,417,PS,intra_train,29,↑,right,→,0.6756046999944374,False,9,-,-,-
112M20,8,418,PS,intra_train,29,←,left,←,0.5286286000045948,True,9,-,-,-
112M20,8,419,PS,exp,37,↓,down,↓,0.582385300018359,True,6,0,0,0
112M20,8,420,PS,exp,38,←,left,←,0.4724980000173673,True,6,1,0,0
112M20,8,421,PS,exp,39,↓,left,←,0.5885446000029333,False,5,-1,1,1
112M20,8,422,PS,exp,28,←,right,→,0.7993706000270322,False,6,-1,0,1
112M20,8,423,PS,exp,25,↑,up,↑,0.6873898999765515,True,7,-1,0,1
112M20,8,424,PS,exp,27,←,left,←,0.5443034999771044,True,7,1,1,2
112M20,8,425,PS,exp,41,→,right,→,0.453001799993217,True,6,1,0,2
112M20,8,426,PS,exp,36,←,left,←,0.519683399994392,True,6,1,0,2
112M20,8,427,PS,exp,38,↑,down,↓,0.5001006000093184,False,5,-1,1,3
112M20,8,428,PS,exp,27,↓,right,→,1.1503353000152856,False,6,-1,0,3
112M20,8,429,PS,exp,32,←,left,←,0.5505374000058509,True,7,-1,0,3
112M20,8,430,PS,exp,28,→,left,←,0.7741215999703854,False,7,-1,0,3
112M20,8,431,PS,exp,34,↓,left,←,0.7394057000055909,False,8,-1,0,3
112M20,8,432,PS,exp,34,←,left,←,0.6280353000038303,True,9,-1,0,3
112M20,8,433,PS,exp,36,↑,up,↑,0.5473989999736659,True,9,1,1,4
112M20,8,434,PS,exp,45,←,right,→,1.038901599997189,False,8,-1,1,5
112M20,8,435,PS,exp,35,↑,up,↑,0.5893361000344157,True,9,-1,0,5
112M20,8,436,PS,exp,32,←,left,←,0.48927459999686107,True,9,1,1,6
112M20,8,437,PS,exp,35,↓,down,↓,0.5597207999671809,True,8,1,0,6
112M20,8,438,PS,exp,44,←,left,←,0.5461734000127763,True,8,1,0,6
112M20,8,439,PS,exp,43,↓,down,↓,0.6490458999760449,True,7,1,0,6
112M20,8,440,PS,exp,39,↑,up,↑,0.49280750000616536,True,7,1,0,6
112M20,8,441,PS,exp,26,↓,down,↓,0.5696751000359654,True,6,1,0,6
112M20,8,442,PS,exp,30,↑,right,→,0.7657614999916404,False,6,-1,1,7
112M20,8,443,PS,exp,28,←,left,←,0.46076399995945394,True,7,-1,0,7
112M20,8,444,PS,exp,28,↑,up,↑,0.7064958999981172,True,7,1,1,8
112M20,8,445,PS,exp,33,→,right,→,0.480562100012321,True,6,1,0,8
112M20,8,446,PS,exp,29,←,down,↓,0.976534100016579,False,6,-1,1,9
112M20,8,447,PS,exp,27,→,right,→,0.6148172999965027,True,7,-1,0,9
112M20,8,448,PS,exp,30,↓,down,↓,0.5849636000348255,True,7,1,1,10
112M20,8,449,PS,exp,25,←,left,←,0.4396067999769002,True,6,1,0,10
112M20,8,450,PS,exp,36,↑,up,↑,0.6234058000263758,True,6,1,0,10
112M20,8,451,PS,exp,29,↓,right,→,0.4848806000081822,False,5,-1,1,11
112M20,8,452,PS,exp,47,↑,up,↑,0.4755544000072405,True,6,-1,0,11
112M20,8,453,PS,exp,26,↓,right,→,0.5611158999963664,False,6,-1,0,11
112M20,8,454,PS,exp,33,↑,left,←,0.7040418999968097,False,7,-1,0,11
112M20,8,455,PS,exp,44,→,right,→,0.48633779998635873,True,8,-1,0,11
112M20,8,456,PS,exp,31,↓,down,↓,0.5749471000162885,True,8,1,1,12
112M20,8,457,PS,exp,47,←,left,←,0.4562134000007063,True,7,1,0,12
112M20,8,458,PS,exp,32,→,right,→,0.46464959997683764,True,7,1,0,12
112M20,8,459,PS,exp,30,↓,up,↑,0.6847893000231124,False,6,-1,1,13
112M20,8,460,PS,exp,33,←,left,←,0.4704846999957226,True,7,-1,0,13
112M20,8,461,PS,exp,30,↓,down,↓,0.4582566999597475,True,7,1,1,14
