PART_ID,Block_no,Trial_no,Block_type,Trial_type,CSI,Stim_letter,Key_pressed,letter_choose,Rt,Corr,Stimulus Time,Level,Reversal,Revs_count
118M23,1,1,PS,train,25,↓,left,←,0.5837767000193708,False,30,-,-,-
118M23,1,2,PS,train,25,→,right,→,1.0405001000035554,True,30,-,-,-
118M23,1,3,PS,train,32,↑,up,↑,1.0344855000148527,True,30,-,-,-
118M23,1,4,PS,train,44,↓,down,↓,1.1804166999645531,True,30,-,-,-
118M23,1,5,PS,train,42,↑,up,↑,0.8290049000061117,True,30,-,-,-
118M23,1,6,PS,train,28,←,left,←,1.3436931000323966,True,30,-,-,-
118M23,1,7,PS,train,31,→,right,→,0.712935900024604,True,30,-,-,-
118M23,1,8,PS,train,26,←,left,←,0.5672633000067435,True,30,-,-,-
118M23,1,9,PS,train,46,↓,down,↓,0.7351551000028849,True,30,-,-,-
118M23,1,10,PS,train,25,→,right,→,0.8954631999949925,True,30,-,-,-
118M23,2,11,AS,train,31,↑,up,↑,0.9683355999877676,True,45,-,-,-
118M23,2,12,AS,train,28,←,left,←,0.634624199999962,True,45,-,-,-
118M23,2,13,AS,train,35,↓,down,↓,0.6679615000030026,True,45,-,-,-
118M23,2,14,AS,train,39,→,right,→,0.4344618000322953,True,45,-,-,-
118M23,2,15,AS,train,34,↓,down,↓,0.7179242999991402,True,45,-,-,-
118M23,2,16,AS,train,39,→,right,→,0.5345647999783978,True,45,-,-,-
118M23,2,17,AS,train,33,↑,up,↑,0.9850608999840915,True,45,-,-,-
118M23,2,18,AS,train,48,←,right,→,0.5511673999717459,False,45,-,-,-
118M23,2,19,AS,train,43,↑,up,↑,1.6068889999878593,True,45,-,-,-
118M23,2,20,AS,train,30,↓,down,↓,0.8004017000203021,True,45,-,-,-
118M23,-,21,PS,adaptive,30,→,up,↑,1.163858599960804,False,10,-1,0,0
118M23,-,22,PS,adaptive,39,↑,down,↓,0.7868571000290103,False,11,-1,0,0
118M23,-,23,PS,adaptive,25,→,right,→,0.46260159998200834,True,12,-1,0,0
118M23,-,24,PS,adaptive,49,←,left,←,0.5052924000192434,True,12,1,1,1
118M23,-,25,PS,adaptive,43,↓,down,↓,0.7218020000145771,True,11,1,0,1
118M23,-,26,PS,adaptive,33,←,left,←,0.594136499974411,True,11,1,0,1
118M23,-,27,PS,adaptive,50,→,right,→,0.5497969000134617,True,10,1,0,1
118M23,-,28,PS,adaptive,37,←,left,←,0.47832009999547154,True,10,1,0,1
118M23,-,29,PS,adaptive,39,↓,down,↓,0.8067460000165738,True,9,1,0,1
118M23,-,30,PS,adaptive,33,↑,up,↑,0.4906439999467693,True,9,1,0,1
118M23,-,31,PS,adaptive,46,←,left,←,0.8041087000165135,True,8,1,0,1
118M23,-,32,PS,adaptive,49,→,right,→,0.556096600019373,True,8,1,0,1
118M23,-,33,PS,adaptive,42,↑,up,↑,0.7495869999984279,True,7,1,0,1
118M23,-,34,PS,adaptive,48,→,right,→,0.5616610000142828,True,7,1,0,1
118M23,-,35,PS,adaptive,25,↑,up,↑,0.6584648999851197,True,6,1,0,1
118M23,-,36,PS,adaptive,46,→,right,→,0.5644817999564111,True,6,1,0,1
118M23,-,37,PS,adaptive,36,↑,up,↑,0.9056966999778524,True,5,1,0,1
118M23,-,38,PS,adaptive,48,←,left,←,0.4911615999881178,True,5,1,0,1
118M23,-,39,PS,adaptive,43,↓,down,↓,0.9579052000190131,True,4,1,0,1
118M23,-,40,PS,adaptive,28,→,up,↑,0.6683072000159882,False,4,-1,1,2
118M23,-,41,PS,adaptive,41,←,left,←,0.6653154999949038,True,5,-1,0,2
118M23,-,42,PS,adaptive,42,↓,up,↑,0.7963478999445215,False,5,-1,0,2
118M23,-,43,PS,adaptive,32,↑,up,↑,0.5604150000144728,True,6,-1,0,2
118M23,-,44,PS,adaptive,41,←,right,→,0.7573490000213496,False,6,-1,0,2
118M23,-,45,PS,adaptive,34,↑,up,↑,0.5014013000181876,True,7,-1,0,2
118M23,-,46,PS,adaptive,39,←,left,←,0.4355549000320025,True,7,1,1,3
118M23,-,47,PS,adaptive,45,↑,up,↑,0.4736537999706343,True,6,1,0,3
118M23,-,48,PS,adaptive,43,↓,down,↓,0.6682678999495693,True,6,1,0,3
118M23,-,49,PS,adaptive,36,→,right,→,0.550834699999541,True,5,1,0,3
118M23,-,50,PS,adaptive,33,↓,down,↓,1.0268935000058264,True,5,1,0,3
118M23,-,51,PS,adaptive,42,←,left,←,0.5962432000087574,True,4,1,0,3
118M23,-,52,PS,adaptive,48,→,down,↓,0.6505800999584608,False,4,-1,1,4
118M23,-,53,AS,adaptive,35,↑,down,↓,0.9048636999796145,False,20,-1,0,0
118M23,-,54,AS,adaptive,46,→,right,→,0.776471599994693,True,21,-1,0,0
118M23,-,55,AS,adaptive,31,↑,left,←,0.8220541999908164,False,21,-1,0,0
118M23,-,56,AS,adaptive,44,←,left,←,0.5874069000128657,True,22,-1,0,0
118M23,-,57,AS,adaptive,46,↓,up,↑,0.7561520000454038,False,22,-1,0,0
118M23,-,58,AS,adaptive,44,←,left,←,0.7210293000098318,True,23,-1,0,0
118M23,-,59,AS,adaptive,36,↑,up,↑,1.0028741999994963,True,23,1,1,1
118M23,-,60,AS,adaptive,33,↓,down,↓,0.8026078999973834,True,22,1,0,1
118M23,-,61,AS,adaptive,26,→,right,→,0.7284069999586791,True,22,1,0,1
118M23,-,62,AS,adaptive,42,←,left,←,0.48349339998094365,True,21,1,0,1
118M23,-,63,AS,adaptive,35,↑,up,↑,0.9542688999790698,True,21,1,0,1
118M23,-,64,AS,adaptive,34,→,right,→,0.6695189999882132,True,20,1,0,1
118M23,-,65,AS,adaptive,40,←,left,←,0.6108999999705702,True,20,1,0,1
118M23,-,66,AS,adaptive,36,→,left,←,0.5446556999813765,False,19,-1,1,2
118M23,-,67,AS,adaptive,35,↓,right,→,1.5075633999658749,False,20,-1,0,2
118M23,-,68,AS,adaptive,28,↑,up,↑,0.6690425000269897,True,21,-1,0,2
118M23,-,69,AS,adaptive,42,→,right,→,0.6910782000049949,True,21,1,1,3
118M23,-,70,AS,adaptive,32,↑,up,↑,0.793723399983719,True,20,1,0,3
118M23,-,71,AS,adaptive,30,←,left,←,1.295060199976433,True,20,1,0,3
118M23,-,72,AS,adaptive,39,→,right,→,1.1207270000013523,True,19,1,0,3
118M23,-,73,AS,adaptive,49,↑,up,↑,0.6032445000018924,True,19,1,0,3
118M23,-,74,AS,adaptive,45,→,right,→,0.8238749000011012,True,18,1,0,3
118M23,-,75,AS,adaptive,30,↓,down,↓,0.871327199973166,True,18,1,0,3
118M23,-,76,AS,adaptive,38,→,right,→,0.8122084999922663,True,17,1,0,3
118M23,-,77,AS,adaptive,47,↓,down,↓,0.6753409000230022,True,17,1,0,3
118M23,-,78,AS,adaptive,43,←,left,←,0.5044463000376709,True,16,1,0,3
118M23,-,79,AS,adaptive,30,↑,up,↑,0.7379358000471257,True,16,1,0,3
118M23,-,80,AS,adaptive,35,↓,down,↓,0.6022784999804571,True,15,1,0,3
118M23,-,81,AS,adaptive,47,↑,up,↑,0.8977616000338458,True,15,1,0,3
118M23,-,82,AS,adaptive,49,→,left,←,0.607736699981615,False,14,-1,1,4
118M23,1,83,PS,intra_train,47,←,up,↑,0.7898540999740362,False,7,-,-,-
118M23,1,84,PS,intra_train,50,→,up,↑,1.4831465000170283,False,7,-,-,-
118M23,1,85,PS,intra_train,38,↓,down,↓,0.6558159999549389,True,7,-,-,-
118M23,1,86,PS,intra_train,40,→,right,→,0.7905985999968834,True,7,-,-,-
118M23,1,87,PS,intra_train,34,←,left,←,0.6609608000144362,True,7,-,-,-
118M23,1,88,PS,exp,40,→,right,→,0.7476581999799237,True,5,0,0,0
118M23,1,89,PS,exp,33,↓,down,↓,0.8280754000297748,True,5,1,0,0
118M23,1,90,PS,exp,47,↑,up,↑,0.9254901999956928,True,4,1,0,0
118M23,1,91,PS,exp,29,↓,right,→,0.9115151000441983,False,4,-1,1,1
118M23,1,92,PS,exp,40,↑,up,↑,0.7136254000361077,True,5,-1,0,1
118M23,1,93,PS,exp,35,←,left,←,0.5411376000265591,True,5,1,1,2
118M23,1,94,PS,exp,28,↓,right,→,0.7775390999740921,False,4,-1,1,3
118M23,1,95,PS,exp,30,→,left,←,0.675216100004036,False,5,-1,0,3
118M23,1,96,PS,exp,25,↑,left,←,0.7973425999516621,False,6,-1,0,3
118M23,1,97,PS,exp,25,←,left,←,0.6688305999850854,True,7,-1,0,3
118M23,1,98,PS,exp,38,↑,right,→,0.8153906000079587,False,7,-1,0,3
118M23,1,99,PS,exp,37,↓,down,↓,0.6451830000150949,True,8,-1,0,3
118M23,1,100,PS,exp,46,↑,up,↑,0.711297600006219,True,8,1,1,4
118M23,1,101,PS,exp,37,→,left,←,0.5251724000554532,False,7,-1,1,5
118M23,1,102,PS,exp,31,↓,down,↓,0.6828623000183143,True,8,-1,0,5
118M23,1,103,PS,exp,33,↑,right,→,0.702439000015147,False,8,-1,0,5
118M23,1,104,PS,exp,43,→,up,↑,0.0012348000309430063,False,9,-1,0,5
118M23,1,105,PS,exp,42,↓,up,↑,0.7261773999780416,False,10,-1,0,5
118M23,1,106,PS,exp,35,↑,up,↑,0.7643564000027254,True,11,-1,0,5
118M23,1,107,PS,exp,26,→,right,→,0.7924764000345021,True,11,1,1,6
118M23,1,108,PS,exp,38,↑,up,↑,0.6091758999973536,True,10,1,0,6
118M23,1,109,PS,exp,45,→,right,→,0.6731636999757029,True,10,1,0,6
118M23,1,110,PS,exp,50,↓,right,→,0.56498249998549,False,9,-1,1,7
118M23,1,111,PS,exp,36,→,left,←,0.6141556999646127,False,10,-1,0,7
118M23,1,112,PS,exp,46,↑,up,↑,0.764446199988015,True,11,-1,0,7
118M23,1,113,PS,exp,50,→,right,→,0.746900700032711,True,11,1,1,8
118M23,1,114,PS,exp,27,←,left,←,0.5081237000413239,True,10,1,0,8
118M23,1,115,PS,exp,30,↑,up,↑,0.543523299973458,True,10,1,0,8
118M23,1,116,PS,exp,33,↓,down,↓,0.6555102000129409,True,9,1,0,8
118M23,1,117,PS,exp,31,→,right,→,0.704918900039047,True,9,1,0,8
118M23,1,118,PS,exp,48,←,left,←,0.5704556999844499,True,8,1,0,8
118M23,1,119,PS,exp,50,↑,left,←,0.6641716999583878,False,8,-1,1,9
118M23,1,120,PS,exp,31,→,left,←,0.5701440999982879,False,9,-1,0,9
118M23,1,121,PS,exp,50,←,left,←,0.47169530001701787,True,10,-1,0,9
118M23,1,122,PS,exp,50,↓,down,↓,1.0281985999899916,True,10,1,1,10
118M23,1,123,PS,exp,47,→,right,→,0.7060947999707423,True,9,1,0,10
118M23,1,124,PS,exp,48,↑,up,↑,0.6124975000275299,True,9,1,0,10
118M23,1,125,PS,exp,32,→,up,↑,0.8249456000048667,False,8,-1,1,11
118M23,1,126,PS,exp,41,↑,no_key,no_letter,-1.0,False,9,-1,0,11
118M23,1,127,PS,exp,45,←,left,←,0.38477400003466755,True,10,-1,0,11
118M23,1,128,PS,exp,34,↓,down,↓,0.7315811000298709,True,10,1,1,12
118M23,1,129,PS,exp,48,←,right,→,0.7804841000470333,False,9,-1,1,13
118M23,1,130,PS,exp,27,→,right,→,1.1981143999728374,True,10,-1,0,13
118M23,1,131,PS,exp,40,↓,up,↑,0.9383972000214271,False,10,-1,0,13
118M23,1,132,PS,exp,35,←,down,↓,0.8034655000083148,False,11,-1,0,13
118M23,1,133,PS,exp,27,→,right,→,0.49385470000561327,True,12,-1,0,13
118M23,1,134,PS,exp,25,↓,right,→,0.7937202000175603,False,12,-1,0,13
118M23,1,135,PS,exp,32,↑,up,↑,0.5352758999797516,True,13,-1,0,13
118M23,1,136,PS,exp,32,→,right,→,0.4093509000376798,True,13,1,1,14
118M23,2,137,AS,intra_train,36,↓,up,↑,0.7566592000075616,False,22,-,-,-
118M23,2,138,AS,intra_train,47,←,left,←,0.5400843999814242,True,22,-,-,-
118M23,2,139,AS,intra_train,43,↑,down,↓,0.7691688999766484,False,22,-,-,-
118M23,2,140,AS,intra_train,42,↓,down,↓,0.6500236999709159,True,22,-,-,-
118M23,2,141,AS,intra_train,29,←,left,←,0.5721203000284731,True,22,-,-,-
118M23,2,142,AS,exp,32,→,right,→,0.8802227999549359,True,15,0,0,0
118M23,2,143,AS,exp,39,↑,down,↓,0.4702097999979742,False,15,-1,0,0
118M23,2,144,AS,exp,48,←,right,→,0.5323376000160351,False,16,-1,0,0
118M23,2,145,AS,exp,44,↑,down,↓,0.8441032999544404,False,17,-1,0,0
118M23,2,146,AS,exp,32,→,right,→,0.9050328000448644,True,18,-1,0,0
118M23,2,147,AS,exp,28,↑,down,↓,0.8768328999867663,False,18,-1,0,0
118M23,2,148,AS,exp,34,←,left,←,0.6110304000321776,True,19,-1,0,0
118M23,2,149,AS,exp,39,↓,down,↓,0.6001288999686949,True,19,1,1,1
118M23,2,150,AS,exp,43,↑,down,↓,0.7177289999672212,False,18,-1,1,2
118M23,2,151,AS,exp,26,→,right,→,0.5802602000185288,True,19,-1,0,2
118M23,2,152,AS,exp,31,↑,up,↑,0.7111463000182994,True,19,1,1,3
118M23,2,153,AS,exp,50,→,right,→,0.8855363000184298,True,18,1,0,3
118M23,2,154,AS,exp,39,↓,up,↑,0.8207492000074126,False,18,-1,1,4
118M23,2,155,AS,exp,27,←,up,↑,0.7478557999711484,False,19,-1,0,4
118M23,2,156,AS,exp,44,↓,down,↓,0.6581964999786578,True,20,-1,0,4
118M23,2,157,AS,exp,42,←,left,←,0.6548917999607511,True,20,1,1,5
118M23,2,158,AS,exp,27,↓,right,→,1.0802738000056706,False,19,-1,1,6
118M23,2,159,AS,exp,30,→,right,→,0.6118376000085846,True,20,-1,0,6
118M23,2,160,AS,exp,36,↓,down,↓,0.41721429995959625,True,20,1,1,7
118M23,2,161,AS,exp,33,↑,up,↑,0.6803638999699615,True,19,1,0,7
118M23,2,162,AS,exp,39,←,left,←,1.050892599974759,True,19,1,0,7
118M23,2,163,AS,exp,30,→,right,→,0.5216160999843851,True,18,1,0,7
118M23,2,164,AS,exp,34,↑,up,↑,0.5224644999834709,True,18,1,0,7
118M23,2,165,AS,exp,39,↓,no_key,no_letter,-1.0,False,17,-1,1,8
118M23,2,166,AS,exp,39,→,left,←,0.5292585999704897,False,18,-1,0,8
118M23,2,167,AS,exp,41,↓,right,→,0.5573195000179112,False,19,-1,0,8
118M23,2,168,AS,exp,35,←,right,→,0.5978023000061512,False,20,-1,0,8
118M23,2,169,AS,exp,26,↓,right,→,0.3336258999770507,False,21,-1,0,8
118M23,2,170,AS,exp,43,←,left,←,0.6422143999952823,True,22,-1,0,8
118M23,2,171,AS,exp,33,→,right,→,0.5478397000115365,True,22,1,1,9
118M23,2,172,AS,exp,34,↓,down,↓,0.9358397000469267,True,21,1,0,9
118M23,2,173,AS,exp,44,↑,up,↑,0.41717630001949146,True,21,1,0,9
118M23,2,174,AS,exp,40,→,right,→,0.7038584999972954,True,20,1,0,9
118M23,2,175,AS,exp,42,←,left,←,0.5917372000403702,True,20,1,0,9
118M23,2,176,AS,exp,46,→,left,←,0.5908735999837518,False,19,-1,1,10
118M23,2,177,AS,exp,27,←,right,→,0.527700399979949,False,20,-1,0,10
118M23,2,178,AS,exp,44,↓,down,↓,0.5922169999685138,True,21,-1,0,10
118M23,2,179,AS,exp,36,↑,up,↑,0.7018006999860518,True,21,1,1,11
118M23,2,180,AS,exp,25,←,left,←,0.5143913999781944,True,20,1,0,11
118M23,2,181,AS,exp,37,→,left,←,0.5164381000213325,False,20,-1,1,12
118M23,2,182,AS,exp,48,↓,down,↓,0.5688592999940738,True,21,-1,0,12
118M23,2,183,AS,exp,37,↑,down,↓,0.6989507999969646,False,21,-1,0,12
118M23,2,184,AS,exp,39,↓,down,↓,0.5691912999609485,True,22,-1,0,12
118M23,2,185,AS,exp,32,←,left,←,0.7120120999752544,True,22,1,1,13
118M23,2,186,AS,exp,31,→,right,→,0.611167699971702,True,21,1,0,13
118M23,2,187,AS,exp,35,←,left,←,0.5964981999713928,True,21,1,0,13
118M23,2,188,AS,exp,27,↑,up,↑,1.3034450999693945,True,20,1,0,13
118M23,2,189,AS,exp,48,→,left,←,0.9229997000074945,False,20,-1,1,14
118M23,3,190,AS,intra_train,45,↑,up,↑,0.5431049999897368,True,22,-,-,-
118M23,3,191,AS,intra_train,30,←,left,←,0.4002473999862559,True,22,-,-,-
118M23,3,192,AS,intra_train,47,→,left,←,0.467173199984245,False,22,-,-,-
118M23,3,193,AS,intra_train,40,↑,up,↑,0.6202391000115313,True,22,-,-,-
118M23,3,194,AS,intra_train,29,↓,down,↓,0.6373652000329457,True,22,-,-,-
118M23,3,195,AS,exp,37,←,right,→,0.7383242000360042,False,15,-1,0,0
118M23,3,196,AS,exp,47,↑,up,↑,0.6904340999899432,True,16,-1,0,0
118M23,3,197,AS,exp,43,→,right,→,0.7976163999992423,True,16,1,1,1
118M23,3,198,AS,exp,29,↓,up,↑,0.8003668999881484,False,15,-1,1,2
118M23,3,199,AS,exp,49,←,left,←,0.6284807999618351,True,16,-1,0,2
118M23,3,200,AS,exp,27,→,up,↑,0.9354172000312246,False,16,-1,0,2
118M23,3,201,AS,exp,35,↓,down,↓,0.5334698000224307,True,17,-1,0,2
118M23,3,202,AS,exp,42,←,left,←,0.5848315000184812,True,17,1,1,3
118M23,3,203,AS,exp,36,→,left,←,0.6416097999899648,False,16,-1,1,4
118M23,3,204,AS,exp,48,←,left,←,0.7045611999928951,True,17,-1,0,4
118M23,3,205,AS,exp,46,↓,up,↑,0.6888284999877214,False,17,-1,0,4
118M23,3,206,AS,exp,31,↑,up,↑,1.1186786000034772,True,18,-1,0,4
118M23,3,207,AS,exp,34,→,right,→,0.6434417000273243,True,18,1,1,5
118M23,3,208,AS,exp,34,↓,left,←,1.1076512999716215,False,17,-1,1,6
118M23,3,209,AS,exp,46,←,left,←,0.6926719000330195,True,18,-1,0,6
118M23,3,210,AS,exp,47,→,right,→,0.6215562999714166,True,18,1,1,7
118M23,3,211,AS,exp,49,←,left,←,1.0774808999849483,True,17,1,0,7
118M23,3,212,AS,exp,37,↓,down,↓,1.0390488999546506,True,17,1,0,7
118M23,3,213,AS,exp,42,↑,up,↑,0.7318104000296444,True,16,1,0,7
118M23,3,214,AS,exp,44,↓,down,↓,0.9417132000089623,True,16,1,0,7
118M23,3,215,AS,exp,30,→,right,→,0.5795880000223406,True,15,1,0,7
118M23,3,216,AS,exp,34,←,left,←,0.44180189998587593,True,15,1,0,7
118M23,3,217,AS,exp,36,→,right,→,0.5474441999685951,True,14,1,0,7
118M23,3,218,AS,exp,39,↑,left,←,0.4188312999904156,False,14,-1,1,8
118M23,3,219,AS,exp,37,→,right,→,0.5587082999991253,True,15,-1,0,8
118M23,3,220,AS,exp,26,↑,up,↑,0.5178225000272505,True,15,1,1,9
118M23,3,221,AS,exp,44,←,right,→,0.5987155000329949,False,14,-1,1,10
118M23,3,222,AS,exp,28,→,right,→,0.4818722000345588,True,15,-1,0,10
118M23,3,223,AS,exp,25,↑,up,↑,1.3563729000161402,True,15,1,1,11
118M23,3,224,AS,exp,34,→,left,←,0.48388020001584664,False,14,-1,1,12
118M23,3,225,AS,exp,45,↑,up,↑,0.4620443000458181,True,15,-1,0,12
118M23,3,226,AS,exp,25,→,right,→,0.9540759000228718,True,15,1,1,13
118M23,3,227,AS,exp,43,↑,up,↑,0.5017928999732248,True,14,1,0,13
118M23,3,228,AS,exp,48,→,right,→,0.7859414999838918,True,14,1,0,13
118M23,3,229,AS,exp,41,↑,left,←,0.8478835999849252,False,13,-1,1,14
118M23,4,230,PS,intra_train,34,←,right,→,0.768076500040479,False,7,-,-,-
118M23,4,231,PS,intra_train,26,↓,left,←,0.76589119998971,False,7,-,-,-
118M23,4,232,PS,intra_train,46,←,left,←,0.5425587999634445,True,7,-,-,-
118M23,4,233,PS,intra_train,47,↓,down,↓,0.7422380999778397,True,7,-,-,-
118M23,4,234,PS,intra_train,40,←,left,←,0.5828679999685846,True,7,-,-,-
118M23,4,235,PS,exp,36,↓,left,←,0.595587500021793,False,5,-1,0,0
118M23,4,236,PS,exp,44,↑,right,→,0.9619976000394672,False,6,-1,0,0
118M23,4,237,PS,exp,29,←,left,←,0.6347160000004806,True,7,-1,0,0
118M23,4,238,PS,exp,43,→,right,→,0.7875027999980375,True,7,1,1,1
118M23,4,239,PS,exp,28,↓,down,↓,1.7226280000177212,True,6,1,0,1
118M23,4,240,PS,exp,25,↑,right,→,0.9458088999963365,False,6,-1,1,2
118M23,4,241,PS,exp,49,←,left,←,0.7424441000330262,True,7,-1,0,2
118M23,4,242,PS,exp,28,↓,left,←,0.8086326000047848,False,7,-1,0,2
118M23,4,243,PS,exp,50,↑,up,↑,0.7233644000370987,True,8,-1,0,2
118M23,4,244,PS,exp,43,→,right,→,0.6815702999592759,True,8,1,1,3
118M23,4,245,PS,exp,32,↑,up,↑,0.5557813999475911,True,7,1,0,3
118M23,4,246,PS,exp,44,→,right,→,0.7079720000037923,True,7,1,0,3
118M23,4,247,PS,exp,37,↑,left,←,0.6856945999898016,False,6,-1,1,4
118M23,4,248,PS,exp,45,→,left,←,0.6718257999746129,False,7,-1,0,4
118M23,4,249,PS,exp,36,←,left,←,0.6031478999648243,True,8,-1,0,4
118M23,4,250,PS,exp,35,↑,up,↑,0.5803768999758177,True,8,1,1,5
118M23,4,251,PS,exp,35,←,right,→,0.82624779996695,False,7,-1,1,6
118M23,4,252,PS,exp,25,→,right,→,0.7630814000149257,True,8,-1,0,6
118M23,4,253,PS,exp,31,↑,up,↑,0.6192766000167467,True,8,1,1,7
118M23,4,254,PS,exp,50,↓,down,↓,1.016837899980601,True,7,1,0,7
118M23,4,255,PS,exp,36,↑,no_key,no_letter,-1.0,False,7,-1,1,8
118M23,4,256,PS,exp,26,←,left,←,0.688842800038401,True,8,-1,0,8
118M23,4,257,PS,exp,34,↑,down,↓,0.21767570002702996,False,8,-1,0,8
118M23,4,258,PS,exp,30,←,left,←,0.5292678999830969,True,9,-1,0,8
118M23,4,259,PS,exp,26,↑,up,↑,0.6160360000212677,True,9,1,1,9
118M23,4,260,PS,exp,36,←,left,←,0.5091854999773204,True,8,1,0,9
118M23,4,261,PS,exp,43,→,right,→,0.8524797999998555,True,8,1,0,9
118M23,4,262,PS,exp,42,←,left,←,0.526551799965091,True,7,1,0,9
118M23,4,263,PS,exp,32,↑,up,↑,0.5310435999999754,True,7,1,0,9
118M23,4,264,PS,exp,31,←,left,←,0.6785490000038408,True,6,1,0,9
118M23,4,265,PS,exp,45,↑,up,↑,0.5374830999644473,True,6,1,0,9
118M23,4,266,PS,exp,49,←,left,←,0.4488388999598101,True,5,1,0,9
118M23,4,267,PS,exp,29,↓,up,↑,0.6134133000159636,False,5,-1,1,10
118M23,4,268,PS,exp,37,↑,up,↑,0.6738270000205375,True,6,-1,0,10
118M23,4,269,PS,exp,45,←,left,←,0.6699785999953747,True,6,1,1,11
118M23,4,270,PS,exp,49,↑,down,↓,0.433917400019709,False,5,-1,1,12
118M23,4,271,PS,exp,27,←,left,←,0.5330621000030078,True,6,-1,0,12
118M23,4,272,PS,exp,28,↓,down,↓,1.0156296999775805,True,6,1,1,13
118M23,4,273,PS,exp,47,←,left,←,0.5612146999919787,True,5,1,0,13
118M23,4,274,PS,exp,47,↑,up,↑,1.0308903999975882,True,5,1,0,13
118M23,4,275,PS,exp,33,↓,left,←,0.6695262000430375,False,4,-1,1,14
118M23,5,276,PS,intra_train,30,↑,right,→,1.3091309000155888,False,7,-,-,-
118M23,5,277,PS,intra_train,25,↓,down,↓,0.6115445999894291,True,7,-,-,-
118M23,5,278,PS,intra_train,30,→,left,←,0.48145070002647117,False,7,-,-,-
118M23,5,279,PS,intra_train,32,↑,up,↑,0.7014794000424445,True,7,-,-,-
118M23,5,280,PS,intra_train,49,→,left,←,0.47939819999737665,False,7,-,-,-
118M23,5,281,PS,exp,42,←,left,←,0.4910742999636568,True,5,0,0,0
118M23,5,282,PS,exp,46,↑,up,↑,0.5377714000060223,True,5,1,0,0
118M23,5,283,PS,exp,32,→,right,→,0.7485944000072777,True,4,1,0,0
118M23,5,284,PS,exp,26,↓,down,↓,0.6073999999789521,True,4,1,0,0
118M23,5,285,PS,exp,39,→,left,←,0.9784395000315271,False,3,-1,1,1
118M23,5,286,PS,exp,39,↑,right,→,0.9011909000109881,False,4,-1,0,1
118M23,5,287,PS,exp,45,→,right,→,1.0288904000190087,True,5,-1,0,1
118M23,5,288,PS,exp,36,↓,left,←,0.7496162999887019,False,5,-1,0,1
118M23,5,289,PS,exp,47,↑,down,↓,0.7733076000004075,False,6,-1,0,1
118M23,5,290,PS,exp,36,→,right,→,0.6873359000310302,True,7,-1,0,1
118M23,5,291,PS,exp,35,↓,down,↓,1.6288541000103578,True,7,1,1,2
118M23,5,292,PS,exp,35,→,no_key,no_letter,-1.0,False,6,-1,1,3
118M23,5,293,PS,exp,33,↑,right,→,0.7527905000024475,False,7,-1,0,3
118M23,5,294,PS,exp,33,↓,right,→,0.9253281999845058,False,8,-1,0,3
118M23,5,295,PS,exp,46,←,left,←,0.41478940000524744,True,9,-1,0,3
118M23,5,296,PS,exp,46,↓,right,→,1.284982500015758,False,9,-1,0,3
118M23,5,297,PS,exp,44,→,no_key,no_letter,-1.0,False,10,-1,0,3
118M23,5,298,PS,exp,40,↓,left,←,0.2838357999571599,False,11,-1,0,3
118M23,5,299,PS,exp,49,←,left,←,0.48232070001540706,True,12,-1,0,3
118M23,5,300,PS,exp,32,↓,down,↓,1.2199023999855854,True,12,1,1,4
118M23,5,301,PS,exp,29,←,left,←,0.6923433000338264,True,11,1,0,4
118M23,5,302,PS,exp,50,↓,down,↓,0.625111699977424,True,11,1,0,4
118M23,5,303,PS,exp,35,←,right,→,1.497255900001619,False,10,-1,1,5
118M23,5,304,PS,exp,46,→,right,→,0.4723412999883294,True,11,-1,0,5
118M23,5,305,PS,exp,33,↑,up,↑,0.6036638999939896,True,11,1,1,6
118M23,5,306,PS,exp,45,←,left,←,0.4571655000327155,True,10,1,0,6
118M23,5,307,PS,exp,33,→,down,↓,0.6921762000420131,False,10,-1,1,7
118M23,5,308,PS,exp,39,↓,down,↓,0.5676344000385143,True,11,-1,0,7
118M23,5,309,PS,exp,39,←,left,←,0.5831705000018701,True,11,1,1,8
118M23,5,310,PS,exp,43,↓,down,↓,0.46732840000186116,True,10,1,0,8
118M23,5,311,PS,exp,34,→,right,→,0.4660194999887608,True,10,1,0,8
118M23,5,312,PS,exp,36,↑,right,→,0.5824119999888353,False,9,-1,1,9
118M23,5,313,PS,exp,30,→,right,→,0.4248316999874078,True,10,-1,0,9
118M23,5,314,PS,exp,25,↓,down,↓,0.7911310999770649,True,10,1,1,10
118M23,5,315,PS,exp,39,←,left,←,0.49351950001437217,True,9,1,0,10
118M23,5,316,PS,exp,31,→,down,↓,0.845849699981045,False,9,-1,1,11
118M23,5,317,PS,exp,31,↑,up,↑,0.46753680001711473,True,10,-1,0,11
118M23,5,318,PS,exp,39,↓,down,↓,0.5231715000118129,True,10,1,1,12
118M23,5,319,PS,exp,34,←,left,←,0.49847690004389733,True,9,1,0,12
118M23,5,320,PS,exp,45,↑,up,↑,1.1955194000038318,True,9,1,0,12
118M23,5,321,PS,exp,40,←,right,→,0.6511584999971092,False,8,-1,1,13
118M23,5,322,PS,exp,44,→,left,←,0.41113630001200363,False,9,-1,0,13
118M23,5,323,PS,exp,29,↑,up,↑,0.6563160000368953,True,10,-1,0,13
118M23,5,324,PS,exp,49,→,right,→,0.6151559999561869,True,10,1,1,14
118M23,6,325,AS,intra_train,33,←,left,←,0.6117084000143223,True,22,-,-,-
118M23,6,326,AS,intra_train,36,↓,down,↓,0.6193070999579504,True,22,-,-,-
118M23,6,327,AS,intra_train,29,←,left,←,0.9017554000020027,True,22,-,-,-
118M23,6,328,AS,intra_train,44,→,right,→,0.5485497000045143,True,22,-,-,-
118M23,6,329,AS,intra_train,35,←,left,←,0.616275200038217,True,22,-,-,-
118M23,6,330,AS,exp,35,↑,up,↑,0.6450029000407085,True,15,0,0,0
118M23,6,331,AS,exp,45,→,right,→,0.8482587999897078,True,15,1,0,0
118M23,6,332,AS,exp,29,↑,down,↓,0.7550279999850318,False,14,-1,1,1
118M23,6,333,AS,exp,43,↓,down,↓,0.8192146000219509,True,15,-1,0,1
118M23,6,334,AS,exp,43,→,right,→,0.675303099968005,True,15,1,1,2
118M23,6,335,AS,exp,49,↓,down,↓,0.594892900029663,True,14,1,0,2
118M23,6,336,AS,exp,33,→,left,←,0.6466083999839611,False,14,-1,1,3
118M23,6,337,AS,exp,48,←,left,←,1.0699692000052892,True,15,-1,0,3
118M23,6,338,AS,exp,49,↓,down,↓,1.2858837999519892,True,15,1,1,4
118M23,6,339,AS,exp,49,←,left,←,0.7095165000064299,True,14,1,0,4
118M23,6,340,AS,exp,25,↓,down,↓,0.7416621999582276,True,14,1,0,4
118M23,6,341,AS,exp,33,↑,up,↑,0.62211690004915,True,13,1,0,4
118M23,6,342,AS,exp,32,↓,down,↓,1.037622299976647,True,13,1,0,4
118M23,6,343,AS,exp,29,←,left,←,0.8020335999899544,True,12,1,0,4
118M23,6,344,AS,exp,41,↓,down,↓,0.655471200007014,True,12,1,0,4
118M23,6,345,AS,exp,47,↑,up,↑,0.9627049999544397,True,11,1,0,4
118M23,6,346,AS,exp,38,→,right,→,0.6495115000288934,True,11,1,0,4
118M23,6,347,AS,exp,40,←,no_key,no_letter,-1.0,False,10,-1,1,5
118M23,6,348,AS,exp,45,↓,down,↓,0.7972927000373602,True,11,-1,0,5
118M23,6,349,AS,exp,28,→,left,←,0.6461829000036232,False,11,-1,0,5
118M23,6,350,AS,exp,43,↑,down,↓,0.7926407000049949,False,12,-1,0,5
118M23,6,351,AS,exp,43,→,up,↑,1.3198864000150934,False,13,-1,0,5
118M23,6,352,AS,exp,40,↑,down,↓,0.8842574000009336,False,14,-1,0,5
118M23,6,353,AS,exp,26,←,left,←,0.5958593999966979,True,15,-1,0,5
118M23,6,354,AS,exp,26,→,down,↓,0.8116664999979548,False,15,-1,0,5
118M23,6,355,AS,exp,30,←,left,←,0.5858320000115782,True,16,-1,0,5
118M23,6,356,AS,exp,48,↑,down,↓,0.7709124999819323,False,16,-1,0,5
118M23,6,357,AS,exp,33,↓,down,↓,0.5713032999774441,True,17,-1,0,5
118M23,6,358,AS,exp,50,↑,up,↑,1.1989877999876626,True,17,1,1,6
118M23,6,359,AS,exp,41,↓,down,↓,0.5478512999834493,True,16,1,0,6
118M23,6,360,AS,exp,36,→,right,→,0.6910559000098146,True,16,1,0,6
118M23,6,361,AS,exp,46,←,right,→,0.5210510999895632,False,15,-1,1,7
118M23,6,362,AS,exp,43,↑,up,↑,0.8220840999856591,True,16,-1,0,7
118M23,6,363,AS,exp,33,↓,down,↓,0.5800878000445664,True,16,1,1,8
118M23,6,364,AS,exp,32,↑,up,↑,0.7680507000186481,True,15,1,0,8
118M23,6,365,AS,exp,34,→,right,→,0.587851399963256,True,15,1,0,8
118M23,6,366,AS,exp,38,↑,up,↑,0.5094604999758303,True,14,1,0,8
118M23,6,367,AS,exp,44,←,right,→,0.6520762000000104,False,14,-1,1,9
118M23,6,368,AS,exp,43,↓,up,↑,0.533460600010585,False,15,-1,0,9
118M23,6,369,AS,exp,44,←,right,→,0.5170909999869764,False,16,-1,0,9
118M23,6,370,AS,exp,38,↓,down,↓,0.7158503999817185,True,17,-1,0,9
118M23,6,371,AS,exp,32,→,right,→,0.45073719997890294,True,17,1,1,10
118M23,6,372,AS,exp,33,↓,down,↓,0.7840863000019453,True,16,1,0,10
118M23,6,373,AS,exp,39,←,left,←,0.43677889998070896,True,16,1,0,10
118M23,6,374,AS,exp,28,↓,down,↓,0.4236908000311814,True,15,1,0,10
118M23,6,375,AS,exp,46,→,right,→,0.9535726000322029,True,15,1,0,10
118M23,6,376,AS,exp,39,↓,down,↓,0.7036008999566548,True,14,1,0,10
118M23,6,377,AS,exp,25,↑,right,→,0.8496984000084922,False,14,-1,1,11
118M23,6,378,AS,exp,47,←,left,←,0.5345910000032745,True,15,-1,0,11
118M23,6,379,AS,exp,25,↑,down,↓,0.8214310000184923,False,15,-1,0,11
118M23,6,380,AS,exp,37,↓,right,→,0.35050209995824844,False,16,-1,0,11
118M23,6,381,AS,exp,35,↑,up,↑,0.501567300001625,True,17,-1,0,11
118M23,6,382,AS,exp,49,↓,down,↓,0.6163131999783218,True,17,1,1,12
118M23,6,383,AS,exp,29,↑,left,←,1.108290300006047,False,16,-1,1,13
118M23,6,384,AS,exp,42,←,left,←,1.3006211000028998,True,17,-1,0,13
118M23,6,385,AS,exp,41,→,right,→,0.5081732000107877,True,17,1,1,14
118M23,7,386,AS,intra_train,46,←,left,←,0.6318154000327922,True,22,-,-,-
118M23,7,387,AS,intra_train,45,↑,up,↑,0.5632409999961965,True,22,-,-,-
118M23,7,388,AS,intra_train,41,→,right,→,1.3462745000142604,True,22,-,-,-
118M23,7,389,AS,intra_train,46,↓,down,↓,0.8616157000069506,True,22,-,-,-
118M23,7,390,AS,intra_train,30,↑,up,↑,0.6406544000492431,True,22,-,-,-
118M23,7,391,AS,exp,45,→,left,←,0.7209940999746323,False,15,-1,0,0
118M23,7,392,AS,exp,37,←,down,↓,1.1815955999772996,False,16,-1,0,0
118M23,7,393,AS,exp,38,→,left,←,0.8702432000427507,False,17,-1,0,0
118M23,7,394,AS,exp,39,↓,down,↓,0.5860375000047497,True,18,-1,0,0
118M23,7,395,AS,exp,30,↑,up,↑,0.7314808000228368,True,18,1,1,1
118M23,7,396,AS,exp,36,↓,down,↓,0.6411825999966823,True,17,1,0,1
118M23,7,397,AS,exp,46,→,up,↑,0.9665194000117481,False,17,-1,1,2
118M23,7,398,AS,exp,37,↓,down,↓,0.4930049999966286,True,18,-1,0,2
118M23,7,399,AS,exp,48,↑,up,↑,0.6498407999752089,True,18,1,1,3
118M23,7,400,AS,exp,48,←,left,←,1.1537627999787219,True,17,1,0,3
118M23,7,401,AS,exp,43,↓,up,↑,1.4881214000051841,False,17,-1,1,4
118M23,7,402,AS,exp,40,←,left,←,1.22360840003239,True,18,-1,0,4
118M23,7,403,AS,exp,33,↓,down,↓,0.9189991999883205,True,18,1,1,5
118M23,7,404,AS,exp,25,←,right,→,0.6062293999711983,False,17,-1,1,6
118M23,7,405,AS,exp,36,↑,up,↑,0.6437263999832794,True,18,-1,0,6
118M23,7,406,AS,exp,45,→,right,→,0.654892899969127,True,18,1,1,7
118M23,7,407,AS,exp,37,←,left,←,0.5215377999702469,True,17,1,0,7
118M23,7,408,AS,exp,49,→,left,←,0.8768184999935329,False,17,-1,1,8
118M23,7,409,AS,exp,36,←,left,←,0.8349411999806762,True,18,-1,0,8
118M23,7,410,AS,exp,32,→,right,→,0.6994828999741003,True,18,1,1,9
118M23,7,411,AS,exp,41,←,left,←,0.6379283999558538,True,17,1,0,9
118M23,7,412,AS,exp,37,↑,up,↑,0.5655338000506163,True,17,1,0,9
118M23,7,413,AS,exp,49,←,left,←,0.47988359996816143,True,16,1,0,9
118M23,7,414,AS,exp,28,↓,down,↓,1.4138786000548862,True,16,1,0,9
118M23,7,415,AS,exp,45,↑,up,↑,0.48531449999427423,True,15,1,0,9
118M23,7,416,AS,exp,35,←,right,→,0.6374247000203468,False,15,-1,1,10
118M23,7,417,AS,exp,40,↓,up,↑,0.8440097999991849,False,16,-1,0,10
118M23,7,418,AS,exp,25,←,left,←,0.6849694999982603,True,17,-1,0,10
118M23,7,419,AS,exp,25,↓,down,↓,1.04152599995723,True,17,1,1,11
118M23,7,420,AS,exp,44,→,right,→,0.6265192999853753,True,16,1,0,11
118M23,7,421,AS,exp,47,←,left,←,0.4994269000017084,True,16,1,0,11
118M23,7,422,AS,exp,40,→,right,→,0.45176500000525266,True,15,1,0,11
118M23,7,423,AS,exp,29,←,left,←,0.6061129000154324,True,15,1,0,11
118M23,7,424,AS,exp,28,↑,left,←,0.8578922000015154,False,14,-1,1,12
118M23,7,425,AS,exp,27,←,left,←,0.45970179996220395,True,15,-1,0,12
118M23,7,426,AS,exp,43,↓,down,↓,1.0166818000143394,True,15,1,1,13
118M23,7,427,AS,exp,42,↑,up,↑,0.8699880000203848,True,14,1,0,13
118M23,7,428,AS,exp,36,↓,up,↑,1.0108413000125438,False,14,-1,1,14
118M23,8,429,PS,intra_train,48,→,left,←,0.7589583999942988,False,7,-,-,-
118M23,8,430,PS,intra_train,33,←,left,←,0.5013944000238553,True,7,-,-,-
118M23,8,431,PS,intra_train,47,→,right,→,0.6006221999996342,True,7,-,-,-
118M23,8,432,PS,intra_train,42,←,left,←,0.5014761000056751,True,7,-,-,-
118M23,8,433,PS,intra_train,32,→,left,←,0.7138058000127785,False,7,-,-,-
118M23,8,434,PS,exp,25,←,right,→,0.5908201000420377,False,5,-1,0,0
118M23,8,435,PS,exp,48,↓,up,↑,0.6578097000019625,False,6,-1,0,0
118M23,8,436,PS,exp,26,→,left,←,0.6479095999966376,False,7,-1,0,0
118M23,8,437,PS,exp,40,←,right,→,0.5016608000150882,False,8,-1,0,0
118M23,8,438,PS,exp,44,→,right,→,0.5247577000409365,True,9,-1,0,0
118M23,8,439,PS,exp,41,↓,left,←,0.6891634000348859,False,9,-1,0,0
118M23,8,440,PS,exp,26,↑,right,→,0.510132999974303,False,10,-1,0,0
118M23,8,441,PS,exp,43,→,right,→,0.5356039999751374,True,11,-1,0,0
118M23,8,442,PS,exp,50,↑,up,↑,0.7690854999818839,True,11,1,1,1
118M23,8,443,PS,exp,31,←,right,→,0.7302273999666795,False,10,-1,1,2
118M23,8,444,PS,exp,46,↓,down,↓,0.6282549000461586,True,11,-1,0,2
118M23,8,445,PS,exp,30,←,up,↑,0.49363240000093356,False,11,-1,0,2
118M23,8,446,PS,exp,33,↓,down,↓,0.7017908000270836,True,12,-1,0,2
118M23,8,447,PS,exp,35,→,right,→,0.756664099986665,True,12,1,1,3
118M23,8,448,PS,exp,50,↑,left,←,1.5134083000011742,False,11,-1,1,4
118M23,8,449,PS,exp,25,←,right,→,0.639342000009492,False,12,-1,0,4
118M23,8,450,PS,exp,25,↑,right,→,1.0857298000482842,False,13,-1,0,4
118M23,8,451,PS,exp,40,←,left,←,0.11779499996919185,True,14,-1,0,4
118M23,8,452,PS,exp,47,↑,up,↑,0.6911332000163384,True,14,1,1,5
118M23,8,453,PS,exp,34,←,left,←,0.557697799988091,True,13,1,0,5
118M23,8,454,PS,exp,46,↓,down,↓,0.6586342999944463,True,13,1,0,5
118M23,8,455,PS,exp,47,→,right,→,0.8731085000326857,True,12,1,0,5
118M23,8,456,PS,exp,37,←,left,←,0.6188570000231266,True,12,1,0,5
118M23,8,457,PS,exp,45,→,right,→,0.7637494999798946,True,11,1,0,5
118M23,8,458,PS,exp,29,←,left,←,0.515448699996341,True,11,1,0,5
118M23,8,459,PS,exp,32,→,down,↓,0.808919999981299,False,10,-1,1,6
118M23,8,460,PS,exp,46,←,left,←,0.4234157000319101,True,11,-1,0,6
118M23,8,461,PS,exp,31,↓,down,↓,0.6315620999666862,True,11,1,1,7
118M23,8,462,PS,exp,34,←,left,←,0.8870183000108227,True,10,1,0,7
118M23,8,463,PS,exp,28,↑,up,↑,0.7823990999604575,True,10,1,0,7
118M23,8,464,PS,exp,32,←,left,←,0.47717130003729835,True,9,1,0,7
118M23,8,465,PS,exp,47,↓,up,↑,0.9734044999931939,False,9,-1,1,8
118M23,8,466,PS,exp,27,→,right,→,0.890699100040365,True,10,-1,0,8
118M23,8,467,PS,exp,46,←,left,←,0.42569589999038726,True,10,1,1,9
118M23,8,468,PS,exp,34,→,right,→,0.5283823999925517,True,9,1,0,9
118M23,8,469,PS,exp,34,↓,down,↓,0.6068349999841303,True,9,1,0,9
118M23,8,470,PS,exp,42,→,right,→,0.7380822999984957,True,8,1,0,9
118M23,8,471,PS,exp,40,←,left,←,0.33397419995162636,True,8,1,0,9
118M23,8,472,PS,exp,30,↑,up,↑,0.6485120000434108,True,7,1,0,9
118M23,8,473,PS,exp,40,←,left,←,0.5594896000111476,True,7,1,0,9
118M23,8,474,PS,exp,30,→,right,→,0.6181531999609433,True,6,1,0,9
118M23,8,475,PS,exp,29,←,left,←,0.46412719995714724,True,6,1,0,9
118M23,8,476,PS,exp,31,↑,up,↑,0.8611543999868445,True,5,1,0,9
118M23,8,477,PS,exp,29,↓,down,↓,0.6103971000411548,True,5,1,0,9
118M23,8,478,PS,exp,26,↑,left,←,0.5058319999952801,False,4,-1,1,10
118M23,8,479,PS,exp,30,↓,down,↓,0.602895800024271,True,5,-1,0,10
118M23,8,480,PS,exp,48,→,right,→,0.6064790000091307,True,5,1,1,11
118M23,8,481,PS,exp,32,↑,down,↓,0.9167896999861114,False,4,-1,1,12
118M23,8,482,PS,exp,50,↓,right,→,0.6952605000115,False,5,-1,0,12
118M23,8,483,PS,exp,39,→,right,→,0.5258898000465706,True,6,-1,0,12
118M23,8,484,PS,exp,31,↑,left,←,0.6524146999581717,False,6,-1,0,12
118M23,8,485,PS,exp,48,←,left,←,0.5604956999886781,True,7,-1,0,12
118M23,8,486,PS,exp,32,↑,left,←,0.7253643000149168,False,7,-1,0,12
118M23,8,487,PS,exp,34,↓,down,↓,0.7826394999865443,True,8,-1,0,12
118M23,8,488,PS,exp,36,↑,right,→,0.7727920999750495,False,8,-1,0,12
118M23,8,489,PS,exp,28,↓,down,↓,0.6960439999820665,True,9,-1,0,12
118M23,8,490,PS,exp,36,→,right,→,0.9185407999902964,True,9,1,1,13
118M23,8,491,PS,exp,37,←,left,←,0.4587078999611549,True,8,1,0,13
118M23,8,492,PS,exp,46,↓,down,↓,0.7350066999788396,True,8,1,0,13
118M23,8,493,PS,exp,39,→,left,←,0.566456799977459,False,7,-1,1,14
