PART_ID,Block_no,Trial_no,Block_type,Trial_type,CSI,Stim_letter,Key_pressed,letter_choose,Rt,Corr,Stimulus Time,Level,Reversal,Revs_count
210K22,1,1,PS,train,43,↑,no_key,no_letter,-1.0,False,30,-,-,-
210K22,1,2,PS,train,49,←,right,→,0.6683083999960218,False,30,-,-,-
210K22,1,3,PS,train,46,↓,down,↓,0.8798336000036215,True,30,-,-,-
210K22,1,4,PS,train,47,↑,up,↑,0.9262530999985756,True,30,-,-,-
210K22,1,5,PS,train,43,←,left,←,0.7108107000094606,True,30,-,-,-
210K22,1,6,PS,train,43,→,right,→,0.5170426000113366,True,30,-,-,-
210K22,1,7,PS,train,29,↑,up,↑,0.8312772000062978,True,30,-,-,-
210K22,1,8,PS,train,25,→,right,→,0.6336579000053462,True,30,-,-,-
210K22,1,9,PS,train,48,↑,up,↑,0.733140899988939,True,30,-,-,-
210K22,1,10,PS,train,26,↓,down,↓,0.8324099000019487,True,30,-,-,-
210K22,2,11,AS,train,29,→,right,→,0.7012466000014683,True,45,-,-,-
210K22,2,12,AS,train,41,←,no_key,no_letter,-1.0,False,45,-,-,-
210K22,2,13,AS,train,25,↓,down,↓,2.180165300000226,True,45,-,-,-
210K22,2,14,AS,train,26,↑,up,↑,1.2429082999879029,True,45,-,-,-
210K22,2,15,AS,train,33,↓,down,↓,1.2569953999918653,True,45,-,-,-
210K22,2,16,AS,train,33,←,left,←,1.1825392000027932,True,45,-,-,-
210K22,2,17,AS,train,31,→,right,→,1.6505953000014415,True,45,-,-,-
210K22,2,18,AS,train,33,↓,down,↓,1.3164379999943776,True,45,-,-,-
210K22,2,19,AS,train,49,←,left,←,1.557765899997321,True,45,-,-,-
210K22,2,20,AS,train,38,↓,down,↓,1.3481100000062725,True,45,-,-,-
210K22,-,21,PS,adaptive,46,→,left,←,1.0084590000042226,False,10,-1,0,0
210K22,-,22,PS,adaptive,44,↓,down,↓,0.7586076000006869,True,11,-1,0,0
210K22,-,23,PS,adaptive,43,↑,up,↑,0.9525955999997677,True,11,1,1,1
210K22,-,24,PS,adaptive,32,←,up,↑,1.1294148000015412,False,10,-1,1,2
210K22,-,25,PS,adaptive,40,↓,down,↓,0.8802664000104414,True,11,-1,0,2
210K22,-,26,PS,adaptive,46,←,right,→,0.7664675999985775,False,11,-1,0,2
210K22,-,27,PS,adaptive,35,↓,down,↓,1.0532744999945862,True,12,-1,0,2
210K22,-,28,PS,adaptive,36,←,left,←,0.8556891000043834,True,12,1,1,3
210K22,-,29,PS,adaptive,26,→,right,→,0.6987739999894984,True,11,1,0,3
210K22,-,30,PS,adaptive,44,←,left,←,0.9693263999943156,True,11,1,0,3
210K22,-,31,PS,adaptive,25,↓,down,↓,0.8144515999883879,True,10,1,0,3
210K22,-,32,PS,adaptive,45,←,left,←,0.733402700003353,True,10,1,0,3
210K22,-,33,PS,adaptive,50,↑,up,↑,0.5302640999871073,True,9,1,0,3
210K22,-,34,PS,adaptive,39,→,right,→,0.5654558999958681,True,9,1,0,3
210K22,-,35,PS,adaptive,44,↓,down,↓,0.731870000003255,True,8,1,0,3
210K22,-,36,PS,adaptive,37,→,right,→,0.7657825000060257,True,8,1,0,3
210K22,-,37,PS,adaptive,43,↓,down,↓,0.6475465000112308,True,7,1,0,3
210K22,-,38,PS,adaptive,40,↑,up,↑,0.5551950999943074,True,7,1,0,3
210K22,-,39,PS,adaptive,44,→,right,→,0.6097771000058856,True,6,1,0,3
210K22,-,40,PS,adaptive,36,↑,right,→,0.7753255999996327,False,6,-1,1,4
210K22,-,41,AS,adaptive,26,↓,left,←,1.308963399991626,False,20,-1,0,0
210K22,-,42,AS,adaptive,49,↑,up,↑,0.8575144999922486,True,21,-1,0,0
210K22,-,43,AS,adaptive,30,↓,down,↓,0.8135118999925908,True,21,1,1,1
210K22,-,44,AS,adaptive,27,→,right,→,0.6765913000126602,True,20,1,0,1
210K22,-,45,AS,adaptive,48,↓,down,↓,0.7201803999923868,True,20,1,0,1
210K22,-,46,AS,adaptive,43,↑,up,↑,0.874596499998006,True,19,1,0,1
210K22,-,47,AS,adaptive,25,→,right,→,0.958666299993638,True,19,1,0,1
210K22,-,48,AS,adaptive,28,↑,up,↑,0.691132000007201,True,18,1,0,1
210K22,-,49,AS,adaptive,33,←,left,←,0.7516918000037549,True,18,1,0,1
210K22,-,50,AS,adaptive,36,↓,down,↓,0.7684421000012662,True,17,1,0,1
210K22,-,51,AS,adaptive,47,→,right,→,0.7009116999979597,True,17,1,0,1
210K22,-,52,AS,adaptive,35,←,left,←,0.930632899995544,True,16,1,0,1
210K22,-,53,AS,adaptive,36,↑,up,↑,0.6698508999979822,True,16,1,0,1
210K22,-,54,AS,adaptive,40,←,right,→,0.7495173000061186,False,15,-1,1,2
210K22,-,55,AS,adaptive,41,↑,up,↑,0.5878694999992149,True,16,-1,0,2
210K22,-,56,AS,adaptive,33,←,left,←,0.6750078000040958,True,16,1,1,3
210K22,-,57,AS,adaptive,38,↑,up,↑,0.6021790000086185,True,15,1,0,3
210K22,-,58,AS,adaptive,50,→,right,→,0.7113569000066491,True,15,1,0,3
210K22,-,59,AS,adaptive,25,↓,down,↓,0.7752911999996286,True,14,1,0,3
210K22,-,60,AS,adaptive,49,↑,up,↑,0.5822516000043834,True,14,1,0,3
210K22,-,61,AS,adaptive,37,←,left,←,0.7814949000021443,True,13,1,0,3
210K22,-,62,AS,adaptive,33,↓,up,↑,0.7091823999944609,False,13,-1,1,4
210K22,1,63,AS,intra_train,42,↑,up,↑,0.6418047000042861,True,21,-,-,-
210K22,1,64,AS,intra_train,35,←,left,←,1.359571999986656,True,21,-,-,-
210K22,1,65,AS,intra_train,27,→,right,→,1.0329442999936873,True,21,-,-,-
210K22,1,66,AS,intra_train,48,↑,up,↑,0.606862300002831,True,21,-,-,-
210K22,1,67,AS,intra_train,28,←,left,←,0.7041746000031708,True,21,-,-,-
210K22,1,68,AS,exp,47,→,left,←,0.8045947000064189,False,14,-1,0,0
210K22,1,69,AS,exp,46,↓,left,←,0.7199879999971017,False,15,-1,0,0
210K22,1,70,AS,exp,46,←,left,←,0.5721532000025036,True,16,-1,0,0
210K22,1,71,AS,exp,29,→,left,←,0.8119436999986647,False,16,-1,0,0
210K22,1,72,AS,exp,42,↓,down,↓,0.7697359000012511,True,17,-1,0,0
210K22,1,73,AS,exp,33,→,right,→,0.8086964999965858,True,17,1,1,1
210K22,1,74,AS,exp,39,↓,down,↓,0.6111571000074036,True,16,1,0,1
210K22,1,75,AS,exp,49,↑,down,↓,0.7704722000053152,False,16,-1,1,2
210K22,1,76,AS,exp,48,↓,down,↓,0.6625984999991488,True,17,-1,0,2
210K22,1,77,AS,exp,29,↑,up,↑,0.6335674000001745,True,17,1,1,3
210K22,1,78,AS,exp,39,←,right,→,0.7306812000024365,False,16,-1,1,4
210K22,1,79,AS,exp,36,↑,down,↓,0.8827758999977959,False,17,-1,0,4
210K22,1,80,AS,exp,39,↓,down,↓,0.8495153000112623,True,18,-1,0,4
210K22,1,81,AS,exp,48,→,left,←,0.7389858000096865,False,18,-1,0,4
210K22,1,82,AS,exp,26,↓,down,↓,0.7701245000062045,True,19,-1,0,4
210K22,1,83,AS,exp,37,↑,up,↑,0.7697961000085343,True,19,1,1,5
210K22,1,84,AS,exp,41,←,left,←,0.6072248999989824,True,18,1,0,5
210K22,1,85,AS,exp,26,→,right,→,0.7201462000084575,True,18,1,0,5
210K22,1,86,AS,exp,25,↓,down,↓,0.903183699992951,True,17,1,0,5
210K22,1,87,AS,exp,28,↑,up,↑,0.7018651000107639,True,17,1,0,5
210K22,1,88,AS,exp,42,↓,down,↓,0.5938165999978082,True,16,1,0,5
210K22,1,89,AS,exp,35,↑,up,↑,0.700944399999571,True,16,1,0,5
210K22,1,90,AS,exp,25,←,right,→,0.6392493000021204,False,15,-1,1,6
210K22,1,91,AS,exp,25,↓,down,↓,0.6182019999978365,True,16,-1,0,6
210K22,1,92,AS,exp,36,←,right,→,0.816697700007353,False,16,-1,0,6
210K22,1,93,AS,exp,35,↑,up,↑,0.6573282000026666,True,17,-1,0,6
210K22,1,94,AS,exp,43,↓,down,↓,0.7099741999991238,True,17,1,1,7
210K22,1,95,AS,exp,41,←,right,→,0.816954199995962,False,16,-1,1,8
210K22,1,96,AS,exp,26,→,right,→,0.5990664999990258,True,17,-1,0,8
210K22,1,97,AS,exp,45,↓,down,↓,0.6932274999999208,True,17,1,1,9
210K22,1,98,AS,exp,36,↑,down,↓,0.7898584999929881,False,16,-1,1,10
210K22,1,99,AS,exp,39,←,right,→,0.6045886999927461,False,17,-1,0,10
210K22,1,100,AS,exp,45,↓,down,↓,0.7370467000000644,True,18,-1,0,10
210K22,1,101,AS,exp,43,↑,down,↓,1.0131109000067227,False,18,-1,0,10
210K22,1,102,AS,exp,27,↓,down,↓,1.0334367000032216,True,19,-1,0,10
210K22,1,103,AS,exp,50,←,left,←,0.7374860000127228,True,19,1,1,11
210K22,1,104,AS,exp,41,→,right,→,0.7258547000092221,True,18,1,0,11
210K22,1,105,AS,exp,26,↓,down,↓,0.744880899990676,True,18,1,0,11
210K22,1,106,AS,exp,28,→,right,→,0.6393837999930838,True,17,1,0,11
210K22,1,107,AS,exp,37,↓,right,→,0.8513067999883788,False,17,-1,1,12
210K22,1,108,AS,exp,33,↑,up,↑,0.6605374999926426,True,18,-1,0,12
210K22,1,109,AS,exp,25,←,right,→,0.8516926000011154,False,18,-1,0,12
210K22,1,110,AS,exp,46,↑,up,↑,0.9098404999967897,True,19,-1,0,12
210K22,1,111,AS,exp,46,→,right,→,0.6740681999945082,True,19,1,1,13
210K22,1,112,AS,exp,45,←,right,→,0.6879031999997096,False,18,-1,1,14
210K22,2,113,PS,intra_train,44,↑,up,↑,0.9383288999961223,True,10,-,-,-
210K22,2,114,PS,intra_train,28,←,left,←,0.5965441000007559,True,10,-,-,-
210K22,2,115,PS,intra_train,38,↑,left,←,0.7199598000006517,False,10,-,-,-
210K22,2,116,PS,intra_train,43,↓,left,←,0.6842653000057908,False,10,-,-,-
210K22,2,117,PS,intra_train,46,→,right,→,0.6994124000048032,True,10,-,-,-
210K22,2,118,PS,exp,41,↑,right,→,0.606078199998592,False,7,-1,0,0
210K22,2,119,PS,exp,40,←,left,←,0.6351558000023942,True,8,-1,0,0
210K22,2,120,PS,exp,28,↑,up,↑,0.540503299998818,True,8,1,1,1
210K22,2,121,PS,exp,42,→,up,↑,0.48856959999829996,False,7,-1,1,2
210K22,2,122,PS,exp,31,↓,left,←,0.6144579000101658,False,8,-1,0,2
210K22,2,123,PS,exp,46,→,left,←,0.6268304999975953,False,9,-1,0,2
210K22,2,124,PS,exp,31,←,left,←,0.6820552999997744,True,10,-1,0,2
210K22,2,125,PS,exp,49,↓,left,←,0.9453324999922188,False,10,-1,0,2
210K22,2,126,PS,exp,32,←,left,←,0.6508809000079054,True,11,-1,0,2
210K22,2,127,PS,exp,29,↑,up,↑,0.7573316999914823,True,11,1,1,3
210K22,2,128,PS,exp,33,→,right,→,0.5767111000022851,True,10,1,0,3
210K22,2,129,PS,exp,36,↑,up,↑,0.8567238000105135,True,10,1,0,3
210K22,2,130,PS,exp,43,→,right,→,0.5989803000120446,True,9,1,0,3
210K22,2,131,PS,exp,50,↓,down,↓,0.6916146000003209,True,9,1,0,3
210K22,2,132,PS,exp,25,←,left,←,0.5719699000037508,True,8,1,0,3
210K22,2,133,PS,exp,36,↓,down,↓,0.6205649000039557,True,8,1,0,3
210K22,2,134,PS,exp,40,↑,up,↑,0.5181861000019126,True,7,1,0,3
210K22,2,135,PS,exp,48,←,left,←,0.5374341999995522,True,7,1,0,3
210K22,2,136,PS,exp,36,→,right,→,0.5059895000013057,True,6,1,0,3
210K22,2,137,PS,exp,30,←,left,←,0.5319069999968633,True,6,1,0,3
210K22,2,138,PS,exp,47,→,right,→,0.5026974999927916,True,5,1,0,3
210K22,2,139,PS,exp,33,↓,left,←,0.5070640000049025,False,5,-1,1,4
210K22,2,140,PS,exp,37,←,left,←,0.4638000999984797,True,6,-1,0,4
210K22,2,141,PS,exp,42,→,right,→,0.4155085000093095,True,6,1,1,5
210K22,2,142,PS,exp,27,↓,left,←,0.5347195000067586,False,5,-1,1,6
210K22,2,143,PS,exp,26,←,left,←,0.5523869000026025,True,6,-1,0,6
210K22,2,144,PS,exp,34,↑,down,↓,1.2626037000009092,False,6,-1,0,6
210K22,2,145,PS,exp,50,←,left,←,0.5803178000060143,True,7,-1,0,6
210K22,2,146,PS,exp,45,↓,left,←,0.5743590999918524,False,7,-1,0,6
210K22,2,147,PS,exp,26,↑,down,↓,0.7174998999980744,False,8,-1,0,6
210K22,2,148,PS,exp,30,↓,up,↑,0.8871510000026319,False,9,-1,0,6
210K22,2,149,PS,exp,25,→,right,→,0.6314567999943392,True,10,-1,0,6
210K22,2,150,PS,exp,26,↓,right,→,0.4818943999998737,False,10,-1,0,6
210K22,2,151,PS,exp,46,→,right,→,0.8068370999972103,True,11,-1,0,6
210K22,2,152,PS,exp,31,↑,up,↑,0.7143973000056576,True,11,1,1,7
210K22,2,153,PS,exp,50,↓,down,↓,0.7023933000018587,True,10,1,0,7
210K22,2,154,PS,exp,49,←,left,←,1.0149699000030523,True,10,1,0,7
210K22,2,155,PS,exp,42,↑,up,↑,1.1113400000031106,True,9,1,0,7
210K22,2,156,PS,exp,44,←,down,↓,0.8220838999986881,False,9,-1,1,8
210K22,2,157,PS,exp,25,↓,up,↑,0.5682214999978896,False,10,-1,0,8
210K22,2,158,PS,exp,31,←,left,←,0.6829801999992924,True,11,-1,0,8
210K22,2,159,PS,exp,31,→,up,↑,0.66631430000416,False,11,-1,0,8
210K22,2,160,PS,exp,50,←,left,←,0.5526391000021249,True,12,-1,0,8
210K22,2,161,PS,exp,25,↓,right,→,0.7152850999991642,False,12,-1,0,8
210K22,2,162,PS,exp,36,↑,right,→,0.6132855999894673,False,13,-1,0,8
210K22,2,163,PS,exp,46,↓,up,↑,0.48022120000678115,False,14,-1,0,8
210K22,2,164,PS,exp,26,→,right,→,0.6118347000010544,True,15,-1,0,8
210K22,2,165,PS,exp,33,←,left,←,0.5321970000077272,True,15,1,1,9
210K22,2,166,PS,exp,33,↓,down,↓,0.5920783999899868,True,14,1,0,9
210K22,2,167,PS,exp,43,←,left,←,0.6129589000047417,True,14,1,0,9
210K22,2,168,PS,exp,27,↓,down,↓,0.4961204999999609,True,13,1,0,9
210K22,2,169,PS,exp,25,→,right,→,0.49192309999489225,True,13,1,0,9
210K22,2,170,PS,exp,25,↓,right,→,0.8820736999914516,False,12,-1,1,10
210K22,2,171,PS,exp,42,←,left,←,0.5732458000129554,True,13,-1,0,10
210K22,2,172,PS,exp,38,↓,down,↓,0.5801490000012564,True,13,1,1,11
210K22,2,173,PS,exp,47,←,left,←,0.6318211999896448,True,12,1,0,11
210K22,2,174,PS,exp,47,↑,up,↑,0.5532593999960227,True,12,1,0,11
210K22,2,175,PS,exp,50,←,left,←,0.49926589999813586,True,11,1,0,11
210K22,2,176,PS,exp,44,→,right,→,0.5203550000005635,True,11,1,0,11
210K22,2,177,PS,exp,28,↑,up,↑,0.4749902000039583,True,10,1,0,11
210K22,2,178,PS,exp,33,↓,down,↓,0.6107167000009213,True,10,1,0,11
210K22,2,179,PS,exp,30,↑,down,↓,0.8913640999962809,False,9,-1,1,12
210K22,2,180,PS,exp,45,←,left,←,0.5961851000029128,True,10,-1,0,12
210K22,2,181,PS,exp,25,↑,left,←,0.665657999998075,False,10,-1,0,12
210K22,2,182,PS,exp,44,→,right,→,0.48567979999643285,True,11,-1,0,12
210K22,2,183,PS,exp,31,↓,down,↓,0.6751094000064768,True,11,1,1,13
210K22,2,184,PS,exp,31,←,left,←,0.5132149999990361,True,10,1,0,13
210K22,2,185,PS,exp,47,→,right,→,0.5691808999981731,True,10,1,0,13
210K22,2,186,PS,exp,30,↓,down,↓,0.5411308999900939,True,9,1,0,13
210K22,2,187,PS,exp,47,↑,up,↑,0.49874239999917336,True,9,1,0,13
210K22,2,188,PS,exp,29,←,left,←,0.4748962000012398,True,8,1,0,13
210K22,2,189,PS,exp,27,↑,up,↑,0.944742599996971,True,8,1,0,13
210K22,2,190,PS,exp,39,←,left,←,0.5107630000129575,True,7,1,0,13
210K22,2,191,PS,exp,36,→,right,→,0.41980730000068434,True,7,1,0,13
210K22,2,192,PS,exp,28,↓,left,←,0.3070449000078952,False,6,-1,1,14
210K22,3,193,PS,intra_train,34,→,right,→,0.5891745999979321,True,10,-,-,-
210K22,3,194,PS,intra_train,48,↑,up,↑,0.5731266999937361,True,10,-,-,-
210K22,3,195,PS,intra_train,49,←,left,←,0.4669193999870913,True,10,-,-,-
210K22,3,196,PS,intra_train,27,→,right,→,0.585503800000879,True,10,-,-,-
210K22,3,197,PS,intra_train,29,←,left,←,0.6230798000033246,True,10,-,-,-
210K22,3,198,PS,exp,27,↑,left,←,0.7358711999986554,False,7,-1,0,0
210K22,3,199,PS,exp,36,→,right,→,0.5633586999902036,True,8,-1,0,0
210K22,3,200,PS,exp,26,↑,right,→,0.6391963000060059,False,8,-1,0,0
210K22,3,201,PS,exp,47,↓,down,↓,0.6198159000050509,True,9,-1,0,0
210K22,3,202,PS,exp,30,↑,up,↑,0.59047370000917,True,9,1,1,1
210K22,3,203,PS,exp,45,↓,down,↓,0.6915484000055585,True,8,1,0,1
210K22,3,204,PS,exp,45,←,left,←,0.5630946999881417,True,8,1,0,1
210K22,3,205,PS,exp,27,↑,left,←,0.7484028000035323,False,7,-1,1,2
210K22,3,206,PS,exp,42,→,left,←,0.5702367999911075,False,8,-1,0,2
210K22,3,207,PS,exp,43,←,right,→,0.7936050999996951,False,9,-1,0,2
210K22,3,208,PS,exp,46,↑,up,↑,0.6213042000017595,True,10,-1,0,2
210K22,3,209,PS,exp,43,←,left,←,0.5296189000073355,True,10,1,1,3
210K22,3,210,PS,exp,47,→,right,→,0.3757973000028869,True,9,1,0,3
210K22,3,211,PS,exp,40,←,left,←,0.7686226999940118,True,9,1,0,3
210K22,3,212,PS,exp,25,→,right,→,0.5020045000128448,True,8,1,0,3
210K22,3,213,PS,exp,48,↑,up,↑,0.48401270000613295,True,8,1,0,3
210K22,3,214,PS,exp,37,→,right,→,0.6238589999993565,True,7,1,0,3
210K22,3,215,PS,exp,25,↓,down,↓,0.641266499995254,True,7,1,0,3
210K22,3,216,PS,exp,47,↑,up,↑,0.568415499990806,True,6,1,0,3
210K22,3,217,PS,exp,25,↓,down,↓,0.610158199997386,True,6,1,0,3
210K22,3,218,PS,exp,35,←,up,↑,0.6831182999885641,False,5,-1,1,4
210K22,3,219,PS,exp,43,↓,down,↓,0.7781820999953197,True,6,-1,0,4
210K22,3,220,PS,exp,40,←,down,↓,0.533575399997062,False,6,-1,0,4
210K22,3,221,PS,exp,41,→,right,→,0.48856420000083745,True,7,-1,0,4
210K22,3,222,PS,exp,38,↓,down,↓,0.5696801000012783,True,7,1,1,5
210K22,3,223,PS,exp,41,←,left,←,0.5401319999946281,True,6,1,0,5
210K22,3,224,PS,exp,38,↑,left,←,0.7434675999975298,False,6,-1,1,6
210K22,3,225,PS,exp,28,→,right,→,0.5339059999969322,True,7,-1,0,6
210K22,3,226,PS,exp,40,↓,left,←,0.5506633999902988,False,7,-1,0,6
210K22,3,227,PS,exp,28,←,down,↓,0.4377792000013869,False,8,-1,0,6
210K22,3,228,PS,exp,31,↑,left,←,0.40503999999782536,False,9,-1,0,6
210K22,3,229,PS,exp,43,→,right,→,0.4979492999991635,True,10,-1,0,6
210K22,3,230,PS,exp,29,↓,down,↓,0.6269994000031147,True,10,1,1,7
210K22,3,231,PS,exp,34,→,right,→,0.3477203000074951,True,9,1,0,7
210K22,3,232,PS,exp,33,←,left,←,0.41200430000026245,True,9,1,0,7
210K22,3,233,PS,exp,36,→,right,→,0.3987704000028316,True,8,1,0,7
210K22,3,234,PS,exp,26,↓,down,↓,0.570325300010154,True,8,1,0,7
210K22,3,235,PS,exp,36,←,left,←,0.4338923000032082,True,7,1,0,7
210K22,3,236,PS,exp,49,→,right,→,0.43618530000094324,True,7,1,0,7
210K22,3,237,PS,exp,39,↓,right,→,0.41878999999607913,False,6,-1,1,8
210K22,3,238,PS,exp,38,→,right,→,0.31510560000606347,True,7,-1,0,8
210K22,3,239,PS,exp,35,↓,down,↓,0.5247760000056587,True,7,1,1,9
210K22,3,240,PS,exp,39,↑,down,↓,0.734397699998226,False,6,-1,1,10
210K22,3,241,PS,exp,42,→,left,←,0.6082303000002867,False,7,-1,0,10
210K22,3,242,PS,exp,43,←,left,←,0.8275932999968063,True,8,-1,0,10
210K22,3,243,PS,exp,44,↓,down,↓,0.49540410000190604,True,8,1,1,11
210K22,3,244,PS,exp,42,←,down,↓,0.678579900006298,False,7,-1,1,12
210K22,3,245,PS,exp,26,→,right,→,0.5937447000032989,True,8,-1,0,12
210K22,3,246,PS,exp,26,↓,left,←,0.5807617999962531,False,8,-1,0,12
210K22,3,247,PS,exp,46,←,left,←,0.5151562000100967,True,9,-1,0,12
210K22,3,248,PS,exp,40,→,up,↑,0.7238719000015408,False,9,-1,0,12
210K22,3,249,PS,exp,40,↓,down,↓,0.47480400001222733,True,10,-1,0,12
210K22,3,250,PS,exp,46,↑,left,←,0.6989476000017021,False,10,-1,0,12
210K22,3,251,PS,exp,38,↓,left,←,0.6013485000003129,False,11,-1,0,12
210K22,3,252,PS,exp,42,←,left,←,0.5293255000142381,True,12,-1,0,12
210K22,3,253,PS,exp,40,↑,up,↑,0.5296447000000626,True,12,1,1,13
210K22,3,254,PS,exp,27,←,left,←,0.4973254999931669,True,11,1,0,13
210K22,3,255,PS,exp,45,↑,left,←,0.8773184000019683,False,11,-1,1,14
210K22,4,256,AS,intra_train,43,←,left,←,0.6917470000043977,True,21,-,-,-
210K22,4,257,AS,intra_train,37,→,right,→,0.5651238999998895,True,21,-,-,-
210K22,4,258,AS,intra_train,50,↓,down,↓,0.7430070999980671,True,21,-,-,-
210K22,4,259,AS,intra_train,50,→,right,→,0.4839030000002822,True,21,-,-,-
210K22,4,260,AS,intra_train,29,↓,down,↓,0.714838800005964,True,21,-,-,-
210K22,4,261,AS,exp,29,←,left,←,0.5878602000011597,True,14,0,0,0
210K22,4,262,AS,exp,37,→,down,↓,0.6465362000017194,False,14,-1,0,0
210K22,4,263,AS,exp,35,↑,right,→,1.1125460999901406,False,15,-1,0,0
210K22,4,264,AS,exp,44,↓,right,→,0.589578300001449,False,16,-1,0,0
210K22,4,265,AS,exp,50,↑,up,↑,0.5878575000097044,True,17,-1,0,0
210K22,4,266,AS,exp,29,↓,down,↓,0.67566719999013,True,17,1,1,1
210K22,4,267,AS,exp,50,→,right,→,0.49213489999237936,True,16,1,0,1
210K22,4,268,AS,exp,36,↓,down,↓,0.7855798000091454,True,16,1,0,1
210K22,4,269,AS,exp,44,↑,up,↑,0.7515605000080541,True,15,1,0,1
210K22,4,270,AS,exp,35,←,right,→,0.7756191000080435,False,15,-1,1,2
210K22,4,271,AS,exp,30,→,right,→,0.5230725000001257,True,16,-1,0,2
210K22,4,272,AS,exp,40,←,left,←,0.6207243999961065,True,16,1,1,3
210K22,4,273,AS,exp,40,↑,up,↑,0.6434659000078682,True,15,1,0,3
210K22,4,274,AS,exp,42,↓,down,↓,0.5883043999929214,True,15,1,0,3
210K22,4,275,AS,exp,41,↑,up,↑,0.6129675999982283,True,14,1,0,3
210K22,4,276,AS,exp,25,←,right,→,0.5331894999981159,False,14,-1,1,4
210K22,4,277,AS,exp,27,↑,up,↑,0.590822099999059,True,15,-1,0,4
210K22,4,278,AS,exp,39,←,left,←,0.6418681000068318,True,15,1,1,5
210K22,4,279,AS,exp,48,↑,up,↑,0.4748550999938743,True,14,1,0,5
210K22,4,280,AS,exp,32,→,right,→,0.6396026000002166,True,14,1,0,5
210K22,4,281,AS,exp,37,↑,up,↑,0.5155664999911096,True,13,1,0,5
210K22,4,282,AS,exp,46,↓,up,↑,0.9531960000022082,False,13,-1,1,6
210K22,4,283,AS,exp,29,←,right,→,0.7430432999972254,False,14,-1,0,6
210K22,4,284,AS,exp,27,↑,up,↑,0.6830554000043776,True,15,-1,0,6
210K22,4,285,AS,exp,39,↓,up,↑,0.4912244000006467,False,15,-1,0,6
210K22,4,286,AS,exp,45,→,right,→,0.5273844000039389,True,16,-1,0,6
210K22,4,287,AS,exp,34,↑,down,↓,0.8518018000031589,False,16,-1,0,6
210K22,4,288,AS,exp,39,←,left,←,0.7591513999941526,True,17,-1,0,6
210K22,4,289,AS,exp,40,↓,down,↓,0.7067758000048343,True,17,1,1,7
210K22,4,290,AS,exp,37,←,right,→,0.6945512999955099,False,16,-1,1,8
210K22,4,291,AS,exp,45,↓,down,↓,0.7910325999982888,True,17,-1,0,8
210K22,4,292,AS,exp,32,←,right,→,0.5417165999970166,False,17,-1,0,8
210K22,4,293,AS,exp,33,→,no_key,no_letter,-1.0,False,18,-1,0,8
210K22,4,294,AS,exp,30,←,left,←,0.6968525999982376,True,19,-1,0,8
210K22,4,295,AS,exp,29,↓,down,↓,0.736073000007309,True,19,1,1,9
210K22,4,296,AS,exp,38,←,right,→,0.5464877000049455,False,18,-1,1,10
210K22,4,297,AS,exp,50,↓,down,↓,0.7234977000043727,True,19,-1,0,10
210K22,4,298,AS,exp,46,↑,up,↑,0.5660175999946659,True,19,1,1,11
210K22,4,299,AS,exp,50,←,left,←,0.7581192000070587,True,18,1,0,11
210K22,4,300,AS,exp,50,↑,up,↑,0.7599904999951832,True,18,1,0,11
210K22,4,301,AS,exp,25,←,left,←,0.5768801000085659,True,17,1,0,11
210K22,4,302,AS,exp,45,↑,right,→,1.032737100002123,False,17,-1,1,12
210K22,4,303,AS,exp,30,↓,down,↓,0.8367040000011912,True,18,-1,0,12
210K22,4,304,AS,exp,42,→,right,→,0.6325862999947276,True,18,1,1,13
210K22,4,305,AS,exp,25,↓,down,↓,0.6907466999982717,True,17,1,0,13
210K22,4,306,AS,exp,41,←,left,←,0.6032112999964738,True,17,1,0,13
210K22,4,307,AS,exp,50,→,right,→,0.7309608999930788,True,16,1,0,13
210K22,4,308,AS,exp,33,↑,left,←,1.0028766000032192,False,16,-1,1,14
210K22,5,309,AS,intra_train,31,↓,down,↓,0.8959217999945395,True,21,-,-,-
210K22,5,310,AS,intra_train,42,←,left,←,0.6220026000082726,True,21,-,-,-
210K22,5,311,AS,intra_train,32,↓,down,↓,0.7604002999869408,True,21,-,-,-
210K22,5,312,AS,intra_train,45,→,right,→,0.5663538000080734,True,21,-,-,-
210K22,5,313,AS,intra_train,48,↓,down,↓,0.745330699995975,True,21,-,-,-
210K22,5,314,AS,exp,47,↑,down,↓,0.719857400006731,False,14,-1,0,0
210K22,5,315,AS,exp,33,←,left,←,0.9511971000029007,True,15,-1,0,0
210K22,5,316,AS,exp,34,↓,down,↓,0.7782521000044653,True,15,1,1,1
210K22,5,317,AS,exp,50,↑,up,↑,0.6098426000098698,True,14,1,0,1
210K22,5,318,AS,exp,35,↓,down,↓,0.9137542999960715,True,14,1,0,1
210K22,5,319,AS,exp,40,↑,up,↑,0.5386257999925874,True,13,1,0,1
210K22,5,320,AS,exp,48,↓,down,↓,0.7012552999949548,True,13,1,0,1
210K22,5,321,AS,exp,29,←,left,←,0.6082061000051908,True,12,1,0,1
210K22,5,322,AS,exp,50,→,right,→,0.5455022999958601,True,12,1,0,1
210K22,5,323,AS,exp,50,↑,down,↓,0.7886981000046944,False,11,-1,1,2
210K22,5,324,AS,exp,29,←,right,→,0.5348763999936637,False,12,-1,0,2
210K22,5,325,AS,exp,33,→,right,→,0.5674052999966079,True,13,-1,0,2
210K22,5,326,AS,exp,39,↑,up,↑,0.7359897999995155,True,13,1,1,3
210K22,5,327,AS,exp,49,←,right,→,0.6763206000032369,False,12,-1,1,4
210K22,5,328,AS,exp,37,↑,right,→,0.6377427999977954,False,13,-1,0,4
210K22,5,329,AS,exp,48,→,left,←,0.694540299999062,False,14,-1,0,4
210K22,5,330,AS,exp,49,←,left,←,0.6057675000047311,True,15,-1,0,4
210K22,5,331,AS,exp,40,↑,up,↑,0.4971020000084536,True,15,1,1,5
210K22,5,332,AS,exp,40,↓,down,↓,0.8762016000109725,True,14,1,0,5
210K22,5,333,AS,exp,38,←,left,←,0.4629564000060782,True,14,1,0,5
210K22,5,334,AS,exp,40,→,right,→,0.5328397999983281,True,13,1,0,5
210K22,5,335,AS,exp,31,←,left,←,0.6606350000074599,True,13,1,0,5
210K22,5,336,AS,exp,43,↑,down,↓,0.8527120999933686,False,12,-1,1,6
210K22,5,337,AS,exp,48,→,left,←,0.6255946000019321,False,13,-1,0,6
210K22,5,338,AS,exp,47,↓,left,←,0.8404519000032451,False,14,-1,0,6
210K22,5,339,AS,exp,35,←,left,←,0.6836685000016587,True,15,-1,0,6
210K22,5,340,AS,exp,47,→,left,←,0.7324939999962226,False,15,-1,0,6
210K22,5,341,AS,exp,35,↑,left,←,0.6444283000018913,False,16,-1,0,6
210K22,5,342,AS,exp,48,←,no_key,no_letter,-1.0,False,17,-1,0,6
210K22,5,343,AS,exp,30,→,right,→,0.5531012999999803,True,18,-1,0,6
210K22,5,344,AS,exp,40,↑,down,↓,0.8408475000032922,False,18,-1,0,6
210K22,5,345,AS,exp,26,←,left,←,0.7284089000022504,True,19,-1,0,6
210K22,5,346,AS,exp,36,↓,down,↓,0.6140890000096988,True,19,1,1,7
210K22,5,347,AS,exp,31,←,right,→,0.58809960000508,False,18,-1,1,8
210K22,5,348,AS,exp,29,↓,down,↓,0.6944477999932133,True,19,-1,0,8
210K22,5,349,AS,exp,33,→,right,→,0.7642920000071172,True,19,1,1,9
210K22,5,350,AS,exp,48,↓,down,↓,0.8175632000056794,True,18,1,0,9
210K22,5,351,AS,exp,34,←,up,↑,0.7878235999960452,False,18,-1,1,10
210K22,5,352,AS,exp,35,→,right,→,0.5656652000034228,True,19,-1,0,10
210K22,5,353,AS,exp,27,↓,down,↓,0.7949354000011226,True,19,1,1,11
210K22,5,354,AS,exp,45,↑,up,↑,0.6848242999985814,True,18,1,0,11
210K22,5,355,AS,exp,48,←,left,←,0.6392358000011882,True,18,1,0,11
210K22,5,356,AS,exp,34,↓,down,↓,0.6902802999975393,True,17,1,0,11
210K22,5,357,AS,exp,36,↑,up,↑,0.6003916999907233,True,17,1,0,11
210K22,5,358,AS,exp,47,↓,down,↓,0.6495404000015697,True,16,1,0,11
210K22,5,359,AS,exp,40,←,left,←,0.6209713999996893,True,16,1,0,11
210K22,5,360,AS,exp,30,↑,up,↑,0.9395006000122521,True,15,1,0,11
210K22,5,361,AS,exp,26,→,right,→,0.5910405999893555,True,15,1,0,11
210K22,5,362,AS,exp,42,←,left,←,0.7771164000005228,True,14,1,0,11
210K22,5,363,AS,exp,27,↑,up,↑,0.5649947999918368,True,14,1,0,11
210K22,5,364,AS,exp,45,↓,left,←,0.8465421000000788,False,13,-1,1,12
210K22,5,365,AS,exp,50,←,right,→,0.5271749999956228,False,14,-1,0,12
210K22,5,366,AS,exp,45,↑,up,↑,0.7186952000047313,True,15,-1,0,12
210K22,5,367,AS,exp,47,←,left,←,0.7227390999905765,True,15,1,1,13
210K22,5,368,AS,exp,33,↑,down,↓,0.771824999988894,False,14,-1,1,14
210K22,6,369,PS,intra_train,27,→,right,→,0.6853916999971261,True,10,-,-,-
210K22,6,370,PS,intra_train,30,←,left,←,0.5636896999931196,True,10,-,-,-
210K22,6,371,PS,intra_train,35,↑,up,↑,0.5855942000052892,True,10,-,-,-
210K22,6,372,PS,intra_train,31,←,left,←,0.5716844999988098,True,10,-,-,-
210K22,6,373,PS,intra_train,25,→,right,→,0.5864104000065709,True,10,-,-,-
210K22,6,374,PS,exp,31,↓,up,↑,0.6396661000035238,False,7,-1,0,0
210K22,6,375,PS,exp,36,↑,up,↑,0.5580419000034453,True,8,-1,0,0
210K22,6,376,PS,exp,33,←,right,→,0.6280838999955449,False,8,-1,0,0
210K22,6,377,PS,exp,38,→,right,→,0.563154499992379,True,9,-1,0,0
210K22,6,378,PS,exp,45,↑,up,↑,0.46871649999229703,True,9,1,1,1
210K22,6,379,PS,exp,49,←,left,←,0.5155653999972856,True,8,1,0,1
210K22,6,380,PS,exp,26,↓,down,↓,0.7245782000100007,True,8,1,0,1
210K22,6,381,PS,exp,50,→,right,→,0.4424820999993244,True,7,1,0,1
210K22,6,382,PS,exp,39,↑,right,→,0.6816818999941461,False,7,-1,1,2
210K22,6,383,PS,exp,29,←,up,↑,0.5662800999998581,False,8,-1,0,2
210K22,6,384,PS,exp,46,↑,up,↑,0.7369058000040241,True,9,-1,0,2
210K22,6,385,PS,exp,41,→,left,←,0.6150808000093093,False,9,-1,0,2
210K22,6,386,PS,exp,50,←,left,←,0.4620737000077497,True,10,-1,0,2
210K22,6,387,PS,exp,50,↑,up,↑,0.48398779999115504,True,10,1,1,3
210K22,6,388,PS,exp,41,←,left,←,0.4846239000034984,True,9,1,0,3
210K22,6,389,PS,exp,35,↑,up,↑,0.5205935999983922,True,9,1,0,3
210K22,6,390,PS,exp,46,↓,down,↓,0.6320892000076128,True,8,1,0,3
210K22,6,391,PS,exp,39,←,left,←,0.5006548000092153,True,8,1,0,3
210K22,6,392,PS,exp,39,↑,down,↓,0.9940219999989495,False,7,-1,1,4
210K22,6,393,PS,exp,41,→,left,←,0.6913155999936862,False,8,-1,0,4
210K22,6,394,PS,exp,47,↑,up,↑,0.46088220000092406,True,9,-1,0,4
210K22,6,395,PS,exp,34,→,up,↑,0.6468887999944855,False,9,-1,0,4
210K22,6,396,PS,exp,35,↓,down,↓,0.5978771999944001,True,10,-1,0,4
210K22,6,397,PS,exp,30,→,right,→,0.5400274999992689,True,10,1,1,5
210K22,6,398,PS,exp,46,↑,right,→,0.6119782000023406,False,9,-1,1,6
210K22,6,399,PS,exp,39,→,right,→,0.5760392999945907,True,10,-1,0,6
210K22,6,400,PS,exp,34,↑,up,↑,0.45033629999670666,True,10,1,1,7
210K22,6,401,PS,exp,37,←,left,←,0.6062085000012303,True,9,1,0,7
210K22,6,402,PS,exp,35,→,right,→,0.6408404999965569,True,9,1,0,7
210K22,6,403,PS,exp,44,↑,up,↑,0.426026399989496,True,8,1,0,7
210K22,6,404,PS,exp,44,↓,down,↓,0.5126427999930456,True,8,1,0,7
210K22,6,405,PS,exp,50,↑,up,↑,0.41199609999603126,True,7,1,0,7
210K22,6,406,PS,exp,38,↓,down,↓,0.43028590000176337,True,7,1,0,7
210K22,6,407,PS,exp,48,←,left,←,0.5235874000063632,True,6,1,0,7
210K22,6,408,PS,exp,27,↓,down,↓,0.5238471000047866,True,6,1,0,7
210K22,6,409,PS,exp,35,↑,right,→,0.4082110000017565,False,5,-1,1,8
210K22,6,410,PS,exp,34,←,down,↓,0.6734500000020489,False,6,-1,0,8
210K22,6,411,PS,exp,50,↑,up,↑,0.34810259999358095,True,7,-1,0,8
210K22,6,412,PS,exp,49,↓,down,↓,0.48806170000170823,True,7,1,1,9
210K22,6,413,PS,exp,34,↑,up,↑,0.4889205000072252,True,6,1,0,9
210K22,6,414,PS,exp,44,←,left,←,0.6645140999899013,True,6,1,0,9
210K22,6,415,PS,exp,50,→,right,→,0.5187269000016386,True,5,1,0,9
210K22,6,416,PS,exp,43,←,left,←,0.4994098000024678,True,5,1,0,9
210K22,6,417,PS,exp,31,↑,right,→,0.3830182999954559,False,4,-1,1,10
210K22,6,418,PS,exp,49,→,right,→,0.4894741000025533,True,5,-1,0,10
210K22,6,419,PS,exp,49,←,left,←,0.5601246000005631,True,5,1,1,11
210K22,6,420,PS,exp,41,↓,down,↓,0.40174269999261014,True,4,1,0,11
210K22,6,421,PS,exp,30,↑,right,→,0.5639471000031335,False,4,-1,1,12
210K22,6,422,PS,exp,40,↓,left,←,0.5845435000082944,False,5,-1,0,12
210K22,6,423,PS,exp,50,↑,left,←,0.7921427999972366,False,6,-1,0,12
210K22,6,424,PS,exp,39,↓,right,→,0.5312871999922208,False,7,-1,0,12
210K22,6,425,PS,exp,41,→,right,→,0.5644389999943087,True,8,-1,0,12
210K22,6,426,PS,exp,38,←,left,←,0.5334740999969654,True,8,1,1,13
210K22,6,427,PS,exp,45,↑,up,↑,0.7665401999984169,True,7,1,0,13
210K22,6,428,PS,exp,30,↓,left,←,0.6010263000061968,False,7,-1,1,14
210K22,7,429,PS,intra_train,31,→,right,→,0.4805632999923546,True,10,-,-,-
210K22,7,430,PS,intra_train,35,↓,down,↓,0.6159765999909723,True,10,-,-,-
210K22,7,431,PS,intra_train,33,↑,up,↑,0.49908910000522155,True,10,-,-,-
210K22,7,432,PS,intra_train,42,→,right,→,0.5484930999955395,True,10,-,-,-
210K22,7,433,PS,intra_train,47,↑,up,↑,0.6446982999914326,True,10,-,-,-
210K22,7,434,PS,exp,49,↓,down,↓,0.6607580999989295,True,7,0,0,0
210K22,7,435,PS,exp,26,↑,down,↓,1.4104515999933938,False,7,-1,0,0
210K22,7,436,PS,exp,47,←,left,←,0.548974499994074,True,8,-1,0,0
210K22,7,437,PS,exp,34,↓,down,↓,0.5117242999986047,True,8,1,1,1
210K22,7,438,PS,exp,28,←,left,←,0.4774111000006087,True,7,1,0,1
210K22,7,439,PS,exp,36,↑,up,↑,0.5490654000022914,True,7,1,0,1
210K22,7,440,PS,exp,35,←,up,↑,0.6118565999931889,False,6,-1,1,2
210K22,7,441,PS,exp,37,↑,up,↑,0.6184497000067495,True,7,-1,0,2
210K22,7,442,PS,exp,36,→,left,←,0.46594359999289736,False,7,-1,0,2
210K22,7,443,PS,exp,30,↑,up,↑,0.5787038999987999,True,8,-1,0,2
210K22,7,444,PS,exp,34,→,right,→,0.5054323999938788,True,8,1,1,3
210K22,7,445,PS,exp,48,←,left,←,0.4426598999998532,True,7,1,0,3
210K22,7,446,PS,exp,29,↑,left,←,0.6049478999921121,False,7,-1,1,4
210K22,7,447,PS,exp,39,←,left,←,0.6161064999905648,True,8,-1,0,4
210K22,7,448,PS,exp,30,↓,up,↑,0.6906844000041019,False,8,-1,0,4
210K22,7,449,PS,exp,43,←,left,←,0.5751097000029404,True,9,-1,0,4
210K22,7,450,PS,exp,39,→,left,←,0.40248160000192,False,9,-1,0,4
210K22,7,451,PS,exp,32,↓,left,←,0.7716146000020672,False,10,-1,0,4
210K22,7,452,PS,exp,42,→,right,→,0.5454907999956049,True,11,-1,0,4
210K22,7,453,PS,exp,46,←,left,←,0.38555259999702685,True,11,1,1,5
210K22,7,454,PS,exp,50,→,right,→,0.4957987000088906,True,10,1,0,5
210K22,7,455,PS,exp,26,↑,up,↑,0.599503099991125,True,10,1,0,5
210K22,7,456,PS,exp,50,←,left,←,0.5245522000041092,True,9,1,0,5
210K22,7,457,PS,exp,45,↓,left,←,0.5035534999915399,False,9,-1,1,6
210K22,7,458,PS,exp,45,→,right,→,0.47059539999463595,True,10,-1,0,6
210K22,7,459,PS,exp,28,↑,up,↑,0.49867890001041815,True,10,1,1,7
210K22,7,460,PS,exp,47,↓,down,↓,0.4383996999968076,True,9,1,0,7
210K22,7,461,PS,exp,50,↑,up,↑,0.5222626000031596,True,9,1,0,7
210K22,7,462,PS,exp,28,←,up,↑,0.5840845000057016,False,8,-1,1,8
210K22,7,463,PS,exp,29,→,right,→,0.5014503999991575,True,9,-1,0,8
210K22,7,464,PS,exp,42,↓,right,→,0.6607236999989254,False,9,-1,0,8
210K22,7,465,PS,exp,47,↑,up,↑,0.5952824000123655,True,10,-1,0,8
210K22,7,466,PS,exp,49,←,left,←,0.5656824999896344,True,10,1,1,9
210K22,7,467,PS,exp,29,↑,up,↑,0.5809336000093026,True,9,1,0,9
210K22,7,468,PS,exp,33,↓,down,↓,0.4264910000056261,True,9,1,0,9
210K22,7,469,PS,exp,39,←,left,←,0.46597299999848474,True,8,1,0,9
210K22,7,470,PS,exp,42,↓,down,↓,0.6011767000018153,True,8,1,0,9
210K22,7,471,PS,exp,45,↑,left,←,0.7669220000097994,False,7,-1,1,10
210K22,7,472,PS,exp,50,↓,down,↓,0.6730978999985382,True,8,-1,0,10
210K22,7,473,PS,exp,39,→,right,→,0.48783680000633467,True,8,1,1,11
210K22,7,474,PS,exp,27,↓,right,→,0.5435490000090795,False,7,-1,1,12
210K22,7,475,PS,exp,33,→,up,↑,0.7395553999958793,False,8,-1,0,12
210K22,7,476,PS,exp,32,↓,down,↓,0.4915447000093991,True,9,-1,0,12
210K22,7,477,PS,exp,31,→,right,→,0.4834612999984529,True,9,1,1,13
210K22,7,478,PS,exp,26,←,left,←,0.4752312999917194,True,8,1,0,13
210K22,7,479,PS,exp,36,→,right,→,0.4732631000078982,True,8,1,0,13
210K22,7,480,PS,exp,41,↑,up,↑,0.5327052999928128,True,7,1,0,13
210K22,7,481,PS,exp,31,↓,left,←,0.6116229000035673,False,7,-1,1,14
210K22,8,482,AS,intra_train,31,←,left,←,0.5448776999983238,True,21,-,-,-
210K22,8,483,AS,intra_train,30,↓,left,←,0.46710320000420325,False,21,-,-,-
210K22,8,484,AS,intra_train,40,→,right,→,0.5866028000018559,True,21,-,-,-
210K22,8,485,AS,intra_train,29,↑,up,↑,0.7888046000007307,True,21,-,-,-
210K22,8,486,AS,intra_train,36,←,left,←,0.6501786000007996,True,21,-,-,-
210K22,8,487,AS,exp,41,↑,right,→,0.72893440000189,False,14,-1,0,0
210K22,8,488,AS,exp,50,←,left,←,0.4967364999902202,True,15,-1,0,0
210K22,8,489,AS,exp,26,→,right,→,0.5603103000030387,True,15,1,1,1
210K22,8,490,AS,exp,46,←,left,←,0.4622546000027796,True,14,1,0,1
210K22,8,491,AS,exp,43,→,left,←,0.524881400007871,False,14,-1,1,2
210K22,8,492,AS,exp,44,←,left,←,0.4686972999916179,True,15,-1,0,2
210K22,8,493,AS,exp,50,↑,up,↑,0.5985877000057371,True,15,1,1,3
210K22,8,494,AS,exp,34,←,right,→,0.6212858000071719,False,14,-1,1,4
210K22,8,495,AS,exp,49,↑,down,↓,0.8947062999941409,False,15,-1,0,4
210K22,8,496,AS,exp,29,→,right,→,0.49071109999204054,True,16,-1,0,4
210K22,8,497,AS,exp,26,↑,up,↑,0.5874247000028845,True,16,1,1,5
210K22,8,498,AS,exp,38,↓,down,↓,0.6166181000007782,True,15,1,0,5
210K22,8,499,AS,exp,49,←,left,←,0.4725153999897884,True,15,1,0,5
210K22,8,500,AS,exp,40,↓,up,↑,0.7230759999947622,False,14,-1,1,6
210K22,8,501,AS,exp,46,←,no_key,no_letter,-1.0,False,15,-1,0,6
210K22,8,502,AS,exp,37,→,right,→,0.6171796999988146,True,16,-1,0,6
210K22,8,503,AS,exp,28,↓,left,←,1.272411199999624,False,16,-1,0,6
210K22,8,504,AS,exp,44,↑,up,↑,0.4920222999935504,True,17,-1,0,6
210K22,8,505,AS,exp,31,←,left,←,0.5843496000015875,True,17,1,1,7
210K22,8,506,AS,exp,28,↑,up,↑,0.4823534000024665,True,16,1,0,7
210K22,8,507,AS,exp,45,←,left,←,0.5165273000020534,True,16,1,0,7
210K22,8,508,AS,exp,31,↑,up,↑,0.48032750000129454,True,15,1,0,7
210K22,8,509,AS,exp,50,←,left,←,0.5212236999941524,True,15,1,0,7
210K22,8,510,AS,exp,50,→,left,←,0.4531237000046531,False,14,-1,1,8
210K22,8,511,AS,exp,42,←,no_key,no_letter,-1.0,False,15,-1,0,8
210K22,8,512,AS,exp,35,→,left,←,0.4005006999941543,False,16,-1,0,8
210K22,8,513,AS,exp,50,↑,up,↑,0.6008433999959379,True,17,-1,0,8
210K22,8,514,AS,exp,47,↓,down,↓,0.7201362000050722,True,17,1,1,9
210K22,8,515,AS,exp,30,←,right,→,0.5865784999914467,False,16,-1,1,10
210K22,8,516,AS,exp,48,→,left,←,0.417054299992742,False,17,-1,0,10
210K22,8,517,AS,exp,39,↑,up,↑,0.6986484000080964,True,18,-1,0,10
210K22,8,518,AS,exp,25,←,left,←,0.5275731000001542,True,18,1,1,11
210K22,8,519,AS,exp,40,↑,up,↑,0.5208929999935208,True,17,1,0,11
210K22,8,520,AS,exp,49,←,left,←,0.5330634999991162,True,17,1,0,11
210K22,8,521,AS,exp,42,↑,up,↑,0.6060569999972358,True,16,1,0,11
210K22,8,522,AS,exp,46,→,right,→,0.6579911999870092,True,16,1,0,11
210K22,8,523,AS,exp,29,↑,up,↑,0.603972299999441,True,15,1,0,11
210K22,8,524,AS,exp,40,←,left,←,0.5551833000063198,True,15,1,0,11
210K22,8,525,AS,exp,38,→,left,←,0.5622078000014881,False,14,-1,1,12
210K22,8,526,AS,exp,31,↑,up,↑,0.5329702999879373,True,15,-1,0,12
210K22,8,527,AS,exp,36,→,right,→,0.8770794000010937,True,15,1,1,13
210K22,8,528,AS,exp,50,←,left,←,0.6626562000019476,True,14,1,0,13
210K22,8,529,AS,exp,37,↓,down,↓,0.7769122000026982,True,14,1,0,13
210K22,8,530,AS,exp,34,↑,up,↑,0.5722597999993013,True,13,1,0,13
210K22,8,531,AS,exp,31,↓,up,↑,0.4962193999963347,False,13,-1,1,14
