PART_ID,Block_no,Trial_no,Block_type,Trial_type,CSI,Stim_letter,Key_pressed,letter_choose,Rt,Corr,Stimulus Time,Level,Reversal,Revs_count
PBOO^K21,1,1,PS,train,26,↑,up,↑,2.1585323000035714,True,30,-,-,-
PBOO^K21,1,2,PS,train,36,←,no_key,no_letter,-1.0,False,30,-,-,-
PBOO^K21,1,3,PS,train,50,↓,down,↓,2.057279499989818,True,30,-,-,-
PBOO^K21,1,4,PS,train,45,←,left,←,2.076519299997017,True,30,-,-,-
PBOO^K21,1,5,PS,train,37,↓,down,↓,1.3022545999992872,True,30,-,-,-
PBOO^K21,1,6,PS,train,43,↑,up,↑,1.2643130000069505,True,30,-,-,-
PBOO^K21,1,7,PS,train,38,←,left,←,1.6198659000074258,True,30,-,-,-
PBOO^K21,1,8,PS,train,45,↓,down,↓,1.3090349999984028,True,30,-,-,-
PBOO^K21,1,9,PS,train,40,→,right,→,1.2732766000117408,True,30,-,-,-
PBOO^K21,1,10,PS,train,46,←,left,←,1.2739029999938793,True,30,-,-,-
PBOO^K21,2,11,AS,train,29,↑,up,↑,1.5811963000014657,True,45,-,-,-
PBOO^K21,2,12,AS,train,47,←,left,←,1.3892084999970393,True,45,-,-,-
PBOO^K21,2,13,AS,train,31,↓,down,↓,1.385200699995039,True,45,-,-,-
PBOO^K21,2,14,AS,train,46,←,left,←,1.2862281999987317,True,45,-,-,-
PBOO^K21,2,15,AS,train,30,→,right,→,2.354606799999601,True,45,-,-,-
PBOO^K21,2,16,AS,train,35,↓,down,↓,1.4465397000021767,True,45,-,-,-
PBOO^K21,2,17,AS,train,42,←,left,←,1.148063300002832,True,45,-,-,-
PBOO^K21,2,18,AS,train,35,↑,up,↑,1.6926666999934241,True,45,-,-,-
PBOO^K21,2,19,AS,train,36,←,left,←,1.2947954999981448,True,45,-,-,-
PBOO^K21,2,20,AS,train,42,→,right,→,1.2057244000025094,True,45,-,-,-
PBOO^K21,-,21,PS,adaptive,43,↓,no_key,no_letter,-1.0,False,10,-1,0,0
PBOO^K21,-,22,PS,adaptive,42,→,left,←,0.9305393000104232,False,11,-1,0,0
PBOO^K21,-,23,PS,adaptive,26,↑,up,↑,1.8550275999878068,True,12,-1,0,0
PBOO^K21,-,24,PS,adaptive,31,←,left,←,0.783550699998159,True,12,1,1,1
PBOO^K21,-,25,PS,adaptive,44,↑,up,↑,0.8164620000025025,True,11,1,0,1
PBOO^K21,-,26,PS,adaptive,40,→,right,→,0.7428041999955894,True,11,1,0,1
PBOO^K21,-,27,PS,adaptive,33,↓,left,←,1.338308100006543,False,10,-1,1,2
PBOO^K21,-,28,PS,adaptive,40,→,right,→,0.8390344000072218,True,11,-1,0,2
PBOO^K21,-,29,PS,adaptive,43,←,left,←,0.6358223999995971,True,11,1,1,3
PBOO^K21,-,30,PS,adaptive,44,↑,up,↑,0.8634621999954106,True,10,1,0,3
PBOO^K21,-,31,PS,adaptive,34,↓,down,↓,0.8289810999995098,True,10,1,0,3
PBOO^K21,-,32,PS,adaptive,46,←,left,←,1.0195783999952255,True,9,1,0,3
PBOO^K21,-,33,PS,adaptive,29,↓,down,↓,0.7408914999978151,True,9,1,0,3
PBOO^K21,-,34,PS,adaptive,39,↑,down,↓,0.9499209999921732,False,8,-1,1,4
PBOO^K21,-,35,AS,adaptive,42,←,left,←,0.5815747000015108,True,20,0,0,0
PBOO^K21,-,36,AS,adaptive,34,↓,up,↑,1.133365000001504,False,20,-1,0,0
PBOO^K21,-,37,AS,adaptive,34,→,right,→,0.8135039999906439,True,21,-1,0,0
PBOO^K21,-,38,AS,adaptive,37,↓,down,↓,0.9367307000065921,True,21,1,1,1
PBOO^K21,-,39,AS,adaptive,47,↑,up,↑,0.8511041000019759,True,20,1,0,1
PBOO^K21,-,40,AS,adaptive,31,←,left,←,0.6882154000049923,True,20,1,0,1
PBOO^K21,-,41,AS,adaptive,35,→,right,→,0.5369409999984782,True,19,1,0,1
PBOO^K21,-,42,AS,adaptive,35,↑,up,↑,0.518255400005728,True,19,1,0,1
PBOO^K21,-,43,AS,adaptive,35,←,left,←,0.9266333000123268,True,18,1,0,1
PBOO^K21,-,44,AS,adaptive,47,↓,up,↑,0.7609330999985104,False,18,-1,1,2
PBOO^K21,-,45,AS,adaptive,40,↑,up,↑,1.3329525000008289,True,19,-1,0,2
PBOO^K21,-,46,AS,adaptive,44,←,left,←,1.1587885999906575,True,19,1,1,3
PBOO^K21,-,47,AS,adaptive,35,→,right,→,0.8546766000072239,True,18,1,0,3
PBOO^K21,-,48,AS,adaptive,48,↑,up,↑,0.574280099986936,True,18,1,0,3
PBOO^K21,-,49,AS,adaptive,33,←,left,←,0.5081556000077398,True,17,1,0,3
PBOO^K21,-,50,AS,adaptive,36,→,right,→,0.4943209999910323,True,17,1,0,3
PBOO^K21,-,51,AS,adaptive,50,↑,up,↑,0.6483944999927189,True,16,1,0,3
PBOO^K21,-,52,AS,adaptive,40,→,right,→,0.6313318999891635,True,16,1,0,3
PBOO^K21,-,53,AS,adaptive,41,↓,down,↓,0.7725241000007372,True,15,1,0,3
PBOO^K21,-,54,AS,adaptive,37,→,right,→,0.6885620999964885,True,15,1,0,3
PBOO^K21,-,55,AS,adaptive,35,↑,up,↑,1.2207457999902545,True,14,1,0,3
PBOO^K21,-,56,AS,adaptive,29,←,left,←,0.9354615999909583,True,14,1,0,3
PBOO^K21,-,57,AS,adaptive,41,→,right,→,0.6059650999959558,True,13,1,0,3
PBOO^K21,-,58,AS,adaptive,46,↓,down,↓,1.1455574999999953,True,13,1,0,3
PBOO^K21,-,59,AS,adaptive,47,↑,up,↑,0.8571830000000773,True,12,1,0,3
PBOO^K21,-,60,AS,adaptive,27,↓,down,↓,0.9954834000091068,True,12,1,0,3
PBOO^K21,-,61,AS,adaptive,33,←,up,↑,0.9202999999979511,False,11,-1,1,4
PBOO^K21,1,62,AS,intra_train,38,→,right,→,0.6311452000081772,True,18,-,-,-
PBOO^K21,1,63,AS,intra_train,42,←,left,←,0.9586317999928724,True,18,-,-,-
PBOO^K21,1,64,AS,intra_train,33,→,right,→,0.6201748000021325,True,18,-,-,-
PBOO^K21,1,65,AS,intra_train,47,←,left,←,0.6893294999899808,True,18,-,-,-
PBOO^K21,1,66,AS,intra_train,27,↓,up,↑,1.048541900003329,False,18,-,-,-
PBOO^K21,1,67,AS,exp,32,→,right,→,0.7942612000042573,True,12,0,0,0
PBOO^K21,1,68,AS,exp,45,↓,up,↑,0.9827893000037875,False,12,-1,0,0
PBOO^K21,1,69,AS,exp,32,←,left,←,0.4774372999963816,True,13,-1,0,0
PBOO^K21,1,70,AS,exp,46,↓,down,↓,1.0659853999968618,True,13,1,1,1
PBOO^K21,1,71,AS,exp,39,↑,up,↑,0.8873036000004504,True,12,1,0,1
PBOO^K21,1,72,AS,exp,33,←,left,←,0.5997101999964798,True,12,1,0,1
PBOO^K21,1,73,AS,exp,47,↓,down,↓,0.6377118999953382,True,11,1,0,1
PBOO^K21,1,74,AS,exp,47,→,up,↑,1.0073244999948656,False,11,-1,1,2
PBOO^K21,1,75,AS,exp,48,↓,up,↑,1.8531798000039998,False,12,-1,0,2
PBOO^K21,1,76,AS,exp,44,→,right,→,0.6152647999988403,True,13,-1,0,2
PBOO^K21,1,77,AS,exp,27,↓,up,↑,1.023424300001352,False,13,-1,0,2
PBOO^K21,1,78,AS,exp,49,↑,up,↑,0.6264748999965377,True,14,-1,0,2
PBOO^K21,1,79,AS,exp,50,↓,down,↓,0.8188836999906925,True,14,1,1,3
PBOO^K21,1,80,AS,exp,34,↑,up,↑,0.9659721000061836,True,13,1,0,3
PBOO^K21,1,81,AS,exp,43,→,right,→,0.6550540000025649,True,13,1,0,3
PBOO^K21,1,82,AS,exp,43,←,left,←,0.8081536000099732,True,12,1,0,3
PBOO^K21,1,83,AS,exp,29,→,right,→,0.8304156999947736,True,12,1,0,3
PBOO^K21,1,84,AS,exp,29,←,up,↑,1.4312943999975687,False,11,-1,1,4
PBOO^K21,1,85,AS,exp,48,↓,no_key,no_letter,-1.0,False,12,-1,0,4
PBOO^K21,1,86,AS,exp,33,←,right,→,0.6818652000074508,False,13,-1,0,4
PBOO^K21,1,87,AS,exp,25,↑,up,↑,0.4441350999986753,True,14,-1,0,4
PBOO^K21,1,88,AS,exp,39,←,down,↓,0.8778953000000911,False,14,-1,0,4
PBOO^K21,1,89,AS,exp,50,→,right,→,0.5209057000029134,True,15,-1,0,4
PBOO^K21,1,90,AS,exp,33,↑,up,↑,0.7782587999972748,True,15,1,1,5
PBOO^K21,1,91,AS,exp,34,←,no_key,no_letter,-1.0,False,14,-1,1,6
PBOO^K21,1,92,AS,exp,39,↓,up,↑,0.8736173000070266,False,15,-1,0,6
PBOO^K21,1,93,AS,exp,31,←,left,←,0.6599514999979874,True,16,-1,0,6
PBOO^K21,1,94,AS,exp,50,↓,no_key,no_letter,-1.0,False,16,-1,0,6
PBOO^K21,1,95,AS,exp,49,↑,up,↑,0.7387710000039078,True,17,-1,0,6
PBOO^K21,1,96,AS,exp,34,←,right,→,0.7065399999992223,False,17,-1,0,6
PBOO^K21,1,97,AS,exp,48,↑,up,↑,0.589374899995164,True,18,-1,0,6
PBOO^K21,1,98,AS,exp,46,←,left,←,0.6831404999975348,True,18,1,1,7
PBOO^K21,1,99,AS,exp,27,→,right,→,0.5983983000041917,True,17,1,0,7
PBOO^K21,1,100,AS,exp,40,←,no_key,no_letter,-1.0,False,17,-1,1,8
PBOO^K21,1,101,AS,exp,25,↑,up,↑,0.7162272000132361,True,18,-1,0,8
PBOO^K21,1,102,AS,exp,31,↓,up,↑,1.6240655000001425,False,18,-1,0,8
PBOO^K21,1,103,AS,exp,25,←,left,←,0.582902499998454,True,19,-1,0,8
PBOO^K21,1,104,AS,exp,35,→,right,→,0.5290268999960972,True,19,1,1,9
PBOO^K21,1,105,AS,exp,46,←,left,←,0.5108780000009574,True,18,1,0,9
PBOO^K21,1,106,AS,exp,31,→,right,→,0.47195880000072066,True,18,1,0,9
PBOO^K21,1,107,AS,exp,46,←,right,→,0.5047735999978613,False,17,-1,1,10
PBOO^K21,1,108,AS,exp,48,↑,up,↑,0.566565899993293,True,18,-1,0,10
PBOO^K21,1,109,AS,exp,35,→,right,→,0.8780187999946065,True,18,1,1,11
PBOO^K21,1,110,AS,exp,27,←,no_key,no_letter,-1.0,False,17,-1,1,12
PBOO^K21,1,111,AS,exp,50,↓,no_key,no_letter,-1.0,False,18,-1,0,12
PBOO^K21,1,112,AS,exp,39,←,left,←,0.6815215999959037,True,19,-1,0,12
PBOO^K21,1,113,AS,exp,26,↓,down,↓,0.7472433999937493,True,19,1,1,13
PBOO^K21,1,114,AS,exp,46,↑,up,↑,0.4812201000022469,True,18,1,0,13
PBOO^K21,1,115,AS,exp,42,→,right,→,0.7770918000023812,True,18,1,0,13
PBOO^K21,1,116,AS,exp,29,↑,up,↑,0.6061940000072354,True,17,1,0,13
PBOO^K21,1,117,AS,exp,41,↓,down,↓,0.5595997000054922,True,17,1,0,13
PBOO^K21,1,118,AS,exp,39,↑,up,↑,0.6930948000081116,True,16,1,0,13
PBOO^K21,1,119,AS,exp,31,←,left,←,0.5403454000042984,True,16,1,0,13
PBOO^K21,1,120,AS,exp,50,↓,down,↓,0.8513496999948984,True,15,1,0,13
PBOO^K21,1,121,AS,exp,39,→,right,→,0.6826257000066107,True,15,1,0,13
PBOO^K21,1,122,AS,exp,45,←,right,→,0.7414012000081129,False,14,-1,1,14
PBOO^K21,2,123,PS,intra_train,26,↑,up,↑,1.7188667000009445,True,13,-,-,-
PBOO^K21,2,124,PS,intra_train,48,→,right,→,0.5900969000067562,True,13,-,-,-
PBOO^K21,2,125,PS,intra_train,27,←,left,←,0.7105521000048611,True,13,-,-,-
PBOO^K21,2,126,PS,intra_train,40,↓,down,↓,0.8366022999980487,True,13,-,-,-
PBOO^K21,2,127,PS,intra_train,33,↑,up,↑,0.593716499992297,True,13,-,-,-
PBOO^K21,2,128,PS,exp,49,↓,down,↓,0.806309700012207,True,9,0,0,0
PBOO^K21,2,129,PS,exp,29,←,left,←,0.6812148000026355,True,9,1,0,0
PBOO^K21,2,130,PS,exp,41,↓,no_key,no_letter,-1.0,False,8,-1,1,1
PBOO^K21,2,131,PS,exp,29,↑,right,→,0.6791590999928303,False,9,-1,0,1
PBOO^K21,2,132,PS,exp,49,←,left,←,0.5372578000096837,True,10,-1,0,1
PBOO^K21,2,133,PS,exp,25,↓,up,↑,0.9944572999957018,False,10,-1,0,1
PBOO^K21,2,134,PS,exp,40,↑,up,↑,0.8019073999894317,True,11,-1,0,1
PBOO^K21,2,135,PS,exp,44,↓,down,↓,0.8803298999991966,True,11,1,1,2
PBOO^K21,2,136,PS,exp,35,↑,up,↑,1.0043367000034777,True,10,1,0,2
PBOO^K21,2,137,PS,exp,31,←,left,←,0.6775922999950126,True,10,1,0,2
PBOO^K21,2,138,PS,exp,50,↑,no_key,no_letter,-1.0,False,9,-1,1,3
PBOO^K21,2,139,PS,exp,39,↓,down,↓,0.7036126000020886,True,10,-1,0,3
PBOO^K21,2,140,PS,exp,34,↑,up,↑,0.6668964999989839,True,10,1,1,4
PBOO^K21,2,141,PS,exp,44,↓,down,↓,0.682088699992164,True,9,1,0,4
PBOO^K21,2,142,PS,exp,37,↑,up,↑,0.7295761999994284,True,9,1,0,4
PBOO^K21,2,143,PS,exp,41,→,left,←,1.0385663000051863,False,8,-1,1,5
PBOO^K21,2,144,PS,exp,33,↑,up,↑,0.6968369000096573,True,9,-1,0,5
PBOO^K21,2,145,PS,exp,50,←,right,→,0.8068084999977145,False,9,-1,0,5
PBOO^K21,2,146,PS,exp,31,↓,down,↓,0.6744685000012396,True,10,-1,0,5
PBOO^K21,2,147,PS,exp,35,↑,up,↑,0.5458406999969156,True,10,1,1,6
PBOO^K21,2,148,PS,exp,45,→,right,→,0.543884300001082,True,9,1,0,6
PBOO^K21,2,149,PS,exp,47,↓,right,→,1.3566724999982398,False,9,-1,1,7
PBOO^K21,2,150,PS,exp,35,→,right,→,0.8272561000048881,True,10,-1,0,7
PBOO^K21,2,151,PS,exp,48,←,no_key,no_letter,-1.0,False,10,-1,0,7
PBOO^K21,2,152,PS,exp,30,↑,up,↑,0.7306048000027658,True,11,-1,0,7
PBOO^K21,2,153,PS,exp,31,→,up,↑,0.9341183000069577,False,11,-1,0,7
PBOO^K21,2,154,PS,exp,40,←,left,←,0.5255800000013551,True,12,-1,0,7
PBOO^K21,2,155,PS,exp,50,→,left,←,0.8081859999947483,False,12,-1,0,7
PBOO^K21,2,156,PS,exp,32,↑,up,↑,0.6787103999959072,True,13,-1,0,7
PBOO^K21,2,157,PS,exp,42,←,left,←,0.6125221999973292,True,13,1,1,8
PBOO^K21,2,158,PS,exp,47,↑,up,↑,0.8106403999991016,True,12,1,0,8
PBOO^K21,2,159,PS,exp,29,←,left,←,0.6165843000053428,True,12,1,0,8
PBOO^K21,2,160,PS,exp,47,↓,down,↓,0.6540228000085335,True,11,1,0,8
PBOO^K21,2,161,PS,exp,30,↑,up,↑,0.6478043000097387,True,11,1,0,8
PBOO^K21,2,162,PS,exp,37,←,left,←,0.6523436999996193,True,10,1,0,8
PBOO^K21,2,163,PS,exp,49,↓,left,←,0.8867589000001317,False,10,-1,1,9
PBOO^K21,2,164,PS,exp,25,→,right,→,0.8180281999957515,True,11,-1,0,9
PBOO^K21,2,165,PS,exp,28,↓,down,↓,0.7059238999936497,True,11,1,1,10
PBOO^K21,2,166,PS,exp,37,↑,no_key,no_letter,-1.0,False,10,-1,1,11
PBOO^K21,2,167,PS,exp,43,→,right,→,0.720727200008696,True,11,-1,0,11
PBOO^K21,2,168,PS,exp,36,↓,down,↓,0.5662160999927437,True,11,1,1,12
PBOO^K21,2,169,PS,exp,27,→,down,↓,0.9794911999924807,False,10,-1,1,13
PBOO^K21,2,170,PS,exp,30,↓,down,↓,0.7006400999962352,True,11,-1,0,13
PBOO^K21,2,171,PS,exp,43,→,right,→,0.5353853999986313,True,11,1,1,14
PBOO^K21,3,172,PS,intra_train,36,↓,down,↓,0.6848925000085728,True,13,-,-,-
PBOO^K21,3,173,PS,intra_train,49,←,down,↓,0.8949490000086371,False,13,-,-,-
PBOO^K21,3,174,PS,intra_train,44,→,right,→,0.6432486999983666,True,13,-,-,-
PBOO^K21,3,175,PS,intra_train,30,↑,up,↑,0.48626759999024216,True,13,-,-,-
PBOO^K21,3,176,PS,intra_train,33,←,left,←,0.49476509999658447,True,13,-,-,-
PBOO^K21,3,177,PS,exp,28,↓,down,↓,0.7391899000067497,True,9,0,0,0
PBOO^K21,3,178,PS,exp,40,←,left,←,0.641236099996604,True,9,1,0,0
PBOO^K21,3,179,PS,exp,45,↑,up,↑,0.6793211999902269,True,8,1,0,0
PBOO^K21,3,180,PS,exp,37,↓,up,↑,0.682175299996743,False,8,-1,1,1
PBOO^K21,3,181,PS,exp,30,←,left,←,0.6222262000082992,True,9,-1,0,1
PBOO^K21,3,182,PS,exp,34,↑,up,↑,0.7263492999918526,True,9,1,1,2
PBOO^K21,3,183,PS,exp,31,←,left,←,0.6107708000054117,True,8,1,0,2
PBOO^K21,3,184,PS,exp,46,→,left,←,1.0096220999985235,False,8,-1,1,3
PBOO^K21,3,185,PS,exp,35,↑,up,↑,0.5612250000122003,True,9,-1,0,3
PBOO^K21,3,186,PS,exp,38,→,no_key,no_letter,-1.0,False,9,-1,0,3
PBOO^K21,3,187,PS,exp,45,↑,left,←,0.6599445000028936,False,10,-1,0,3
PBOO^K21,3,188,PS,exp,26,↓,no_key,no_letter,-1.0,False,11,-1,0,3
PBOO^K21,3,189,PS,exp,25,→,left,←,0.8876907000085339,False,12,-1,0,3
PBOO^K21,3,190,PS,exp,37,↑,up,↑,0.5310573000024306,True,13,-1,0,3
PBOO^K21,3,191,PS,exp,28,←,left,←,0.4392666000057943,True,13,1,1,4
PBOO^K21,3,192,PS,exp,34,↑,up,↑,0.8928352999937488,True,12,1,0,4
PBOO^K21,3,193,PS,exp,50,←,left,←,0.5244497999956366,True,12,1,0,4
PBOO^K21,3,194,PS,exp,50,→,no_key,no_letter,-1.0,False,11,-1,1,5
PBOO^K21,3,195,PS,exp,49,↓,up,↑,0.8286176999972668,False,12,-1,0,5
PBOO^K21,3,196,PS,exp,49,↑,up,↑,0.4643945999996504,True,13,-1,0,5
PBOO^K21,3,197,PS,exp,41,←,left,←,0.674011299997801,True,13,1,1,6
PBOO^K21,3,198,PS,exp,29,→,right,→,0.7682066999987001,True,12,1,0,6
PBOO^K21,3,199,PS,exp,26,↑,up,↑,0.8952134999999544,True,12,1,0,6
PBOO^K21,3,200,PS,exp,44,←,left,←,0.6453811999963364,True,11,1,0,6
PBOO^K21,3,201,PS,exp,42,→,right,→,0.6731426999904215,True,11,1,0,6
PBOO^K21,3,202,PS,exp,36,↑,up,↑,1.3244636000017636,True,10,1,0,6
PBOO^K21,3,203,PS,exp,32,→,right,→,0.7457668999995803,True,10,1,0,6
PBOO^K21,3,204,PS,exp,37,←,up,↑,0.981037199991988,False,9,-1,1,7
PBOO^K21,3,205,PS,exp,42,→,right,→,0.6792225999961374,True,10,-1,0,7
PBOO^K21,3,206,PS,exp,50,↑,up,↑,0.6239809000107925,True,10,1,1,8
PBOO^K21,3,207,PS,exp,47,↓,no_key,no_letter,-1.0,False,9,-1,1,9
PBOO^K21,3,208,PS,exp,28,↑,up,↑,0.6589545000024373,True,10,-1,0,9
PBOO^K21,3,209,PS,exp,31,↓,up,↑,0.7292855999985477,False,10,-1,0,9
PBOO^K21,3,210,PS,exp,25,→,right,→,0.9041417999978876,True,11,-1,0,9
PBOO^K21,3,211,PS,exp,46,←,right,→,0.5485014000005322,False,11,-1,0,9
PBOO^K21,3,212,PS,exp,30,↓,down,↓,0.8288413999980548,True,12,-1,0,9
PBOO^K21,3,213,PS,exp,50,←,left,←,0.7376335000008112,True,12,1,1,10
PBOO^K21,3,214,PS,exp,42,↓,down,↓,0.835264699999243,True,11,1,0,10
PBOO^K21,3,215,PS,exp,48,↑,up,↑,0.5637936999992235,True,11,1,0,10
PBOO^K21,3,216,PS,exp,33,→,right,→,0.6688190999993822,True,10,1,0,10
PBOO^K21,3,217,PS,exp,50,↑,up,↑,1.2392436999944039,True,10,1,0,10
PBOO^K21,3,218,PS,exp,43,←,right,→,0.6205976000055671,False,9,-1,1,11
PBOO^K21,3,219,PS,exp,41,→,right,→,0.593560699999216,True,10,-1,0,11
PBOO^K21,3,220,PS,exp,46,↓,down,↓,0.6749473999952897,True,10,1,1,12
PBOO^K21,3,221,PS,exp,40,←,up,↑,0.740624599988223,False,9,-1,1,13
PBOO^K21,3,222,PS,exp,37,↓,right,→,0.8299766999989515,False,10,-1,0,13
PBOO^K21,3,223,PS,exp,38,←,left,←,0.6455502000026172,True,11,-1,0,13
PBOO^K21,3,224,PS,exp,32,→,right,→,0.6946204999985639,True,11,1,1,14
PBOO^K21,4,225,AS,intra_train,30,←,right,→,1.272532399991178,False,18,-,-,-
PBOO^K21,4,226,AS,intra_train,43,↑,up,↑,0.7311239000118803,True,18,-,-,-
PBOO^K21,4,227,AS,intra_train,28,→,right,→,0.7727137000038056,True,18,-,-,-
PBOO^K21,4,228,AS,intra_train,50,↓,down,↓,0.7772792000032496,True,18,-,-,-
PBOO^K21,4,229,AS,intra_train,29,↑,up,↑,0.6748878999933368,True,18,-,-,-
PBOO^K21,4,230,AS,exp,46,→,left,←,1.0898639999941224,False,12,-1,0,0
PBOO^K21,4,231,AS,exp,26,↑,up,↑,0.9504488999955356,True,13,-1,0,0
PBOO^K21,4,232,AS,exp,34,←,left,←,0.648520799994003,True,13,1,1,1
PBOO^K21,4,233,AS,exp,42,↑,down,↓,0.7248485000018263,False,12,-1,1,2
PBOO^K21,4,234,AS,exp,43,←,left,←,0.7602823000052013,True,13,-1,0,2
PBOO^K21,4,235,AS,exp,45,↓,no_key,no_letter,-1.0,False,13,-1,0,2
PBOO^K21,4,236,AS,exp,48,→,right,→,0.6484239999990677,True,14,-1,0,2
PBOO^K21,4,237,AS,exp,45,↓,down,↓,0.8761776999890571,True,14,1,1,3
PBOO^K21,4,238,AS,exp,30,←,right,→,0.6520565999962855,False,13,-1,1,4
PBOO^K21,4,239,AS,exp,49,→,up,↑,0.6302839999989374,False,14,-1,0,4
PBOO^K21,4,240,AS,exp,33,↓,up,↑,1.0790343999979086,False,15,-1,0,4
PBOO^K21,4,241,AS,exp,33,←,right,→,1.0363295999995898,False,16,-1,0,4
PBOO^K21,4,242,AS,exp,35,↓,down,↓,0.8673601000045892,True,17,-1,0,4
PBOO^K21,4,243,AS,exp,27,←,no_key,no_letter,-1.0,False,17,-1,0,4
PBOO^K21,4,244,AS,exp,50,↑,up,↑,0.7537031999963801,True,18,-1,0,4
PBOO^K21,4,245,AS,exp,34,↓,down,↓,0.6660100999870338,True,18,1,1,5
PBOO^K21,4,246,AS,exp,45,→,right,→,0.6075667999975849,True,17,1,0,5
PBOO^K21,4,247,AS,exp,31,←,up,↑,0.9884389000071678,False,17,-1,1,6
PBOO^K21,4,248,AS,exp,49,→,right,→,0.7021667000080924,True,18,-1,0,6
PBOO^K21,4,249,AS,exp,48,↓,up,↑,0.751831299989135,False,18,-1,0,6
PBOO^K21,4,250,AS,exp,28,→,right,→,0.9065866000019014,True,19,-1,0,6
PBOO^K21,4,251,AS,exp,25,←,left,←,0.9134544999978971,True,19,1,1,7
PBOO^K21,4,252,AS,exp,44,↑,up,↑,0.7372887999954401,True,18,1,0,7
PBOO^K21,4,253,AS,exp,35,↓,right,→,1.03455959999701,False,18,-1,1,8
PBOO^K21,4,254,AS,exp,35,↑,up,↑,0.5422973999957321,True,19,-1,0,8
PBOO^K21,4,255,AS,exp,38,←,left,←,0.6395741000014823,True,19,1,1,9
PBOO^K21,4,256,AS,exp,50,↓,down,↓,0.8766816999996081,True,18,1,0,9
PBOO^K21,4,257,AS,exp,31,←,up,↑,0.69303470000159,False,18,-1,1,10
PBOO^K21,4,258,AS,exp,40,→,right,→,0.574646599998232,True,19,-1,0,10
PBOO^K21,4,259,AS,exp,39,←,left,←,0.566537699996843,True,19,1,1,11
PBOO^K21,4,260,AS,exp,29,→,right,→,0.6251317999995081,True,18,1,0,11
PBOO^K21,4,261,AS,exp,33,↓,down,↓,0.6061360000021523,True,18,1,0,11
PBOO^K21,4,262,AS,exp,37,↑,up,↑,0.71111910000036,True,17,1,0,11
PBOO^K21,4,263,AS,exp,27,→,no_key,no_letter,-1.0,False,17,-1,1,12
PBOO^K21,4,264,AS,exp,47,←,left,←,0.7204625999875134,True,18,-1,0,12
PBOO^K21,4,265,AS,exp,33,↓,down,↓,0.6950203000014881,True,18,1,1,13
PBOO^K21,4,266,AS,exp,40,↑,up,↑,0.6483875999983866,True,17,1,0,13
PBOO^K21,4,267,AS,exp,31,↓,down,↓,0.5982329999969807,True,17,1,0,13
PBOO^K21,4,268,AS,exp,38,→,right,→,0.6106602000072598,True,16,1,0,13
PBOO^K21,4,269,AS,exp,37,←,left,←,0.6101815000001807,True,16,1,0,13
PBOO^K21,4,270,AS,exp,29,↓,down,↓,0.7882873000053223,True,15,1,0,13
PBOO^K21,4,271,AS,exp,50,↑,up,↑,0.6500808999990113,True,15,1,0,13
PBOO^K21,4,272,AS,exp,41,→,left,←,1.563641100001405,False,14,-1,1,14
PBOO^K21,5,273,AS,intra_train,47,↓,down,↓,0.8096712000115076,True,18,-,-,-
PBOO^K21,5,274,AS,intra_train,42,←,left,←,0.8269207999983337,True,18,-,-,-
PBOO^K21,5,275,AS,intra_train,50,↑,up,↑,0.8087968999898294,True,18,-,-,-
PBOO^K21,5,276,AS,intra_train,50,←,left,←,0.6448277000017697,True,18,-,-,-
PBOO^K21,5,277,AS,intra_train,47,↑,left,←,0.6706660999916494,False,18,-,-,-
PBOO^K21,5,278,AS,exp,25,→,right,→,0.6757082999974955,True,12,0,0,0
PBOO^K21,5,279,AS,exp,26,←,left,←,0.4553650000016205,True,12,1,0,0
PBOO^K21,5,280,AS,exp,40,↓,up,↑,0.5045056999952067,False,11,-1,1,1
PBOO^K21,5,281,AS,exp,47,→,right,→,0.967305900005158,True,12,-1,0,1
PBOO^K21,5,282,AS,exp,39,↑,up,↑,0.6369869000045583,True,12,1,1,2
PBOO^K21,5,283,AS,exp,27,→,up,↑,1.233829800010426,False,11,-1,1,3
PBOO^K21,5,284,AS,exp,27,↑,no_key,no_letter,-1.0,False,12,-1,0,3
PBOO^K21,5,285,AS,exp,31,↓,down,↓,0.7184562000038568,True,13,-1,0,3
PBOO^K21,5,286,AS,exp,27,→,up,↑,0.785858899995219,False,13,-1,0,3
PBOO^K21,5,287,AS,exp,40,←,left,←,0.9365667999954894,True,14,-1,0,3
PBOO^K21,5,288,AS,exp,32,→,right,→,0.869050099994638,True,14,1,1,4
PBOO^K21,5,289,AS,exp,50,↑,up,↑,0.6441735999978846,True,13,1,0,4
PBOO^K21,5,290,AS,exp,43,←,left,←,1.3367370000050869,True,13,1,0,4
PBOO^K21,5,291,AS,exp,28,↓,down,↓,0.7285805999999866,True,12,1,0,4
PBOO^K21,5,292,AS,exp,34,←,up,↑,0.5497767999913776,False,12,-1,1,5
PBOO^K21,5,293,AS,exp,26,↑,up,↑,0.5568348999950103,True,13,-1,0,5
PBOO^K21,5,294,AS,exp,38,↓,down,↓,0.5767726000049151,True,13,1,1,6
PBOO^K21,5,295,AS,exp,25,→,right,→,0.6258997999975691,True,12,1,0,6
PBOO^K21,5,296,AS,exp,31,↑,up,↑,0.5250633999967249,True,12,1,0,6
PBOO^K21,5,297,AS,exp,49,←,left,←,0.4709712999901967,True,11,1,0,6
PBOO^K21,5,298,AS,exp,48,↓,down,↓,0.7593655999953626,True,11,1,0,6
PBOO^K21,5,299,AS,exp,46,→,up,↑,0.8070416000118712,False,10,-1,1,7
PBOO^K21,5,300,AS,exp,44,↑,up,↑,1.0145451999997022,True,11,-1,0,7
PBOO^K21,5,301,AS,exp,48,↓,down,↓,0.7893547999992734,True,11,1,1,8
PBOO^K21,5,302,AS,exp,46,←,right,→,0.6404460000048857,False,10,-1,1,9
PBOO^K21,5,303,AS,exp,44,↑,up,↑,0.7875041000079364,True,11,-1,0,9
PBOO^K21,5,304,AS,exp,28,↓,down,↓,1.0405901000049198,True,11,1,1,10
PBOO^K21,5,305,AS,exp,34,←,up,↑,0.34514049999415874,False,10,-1,1,11
PBOO^K21,5,306,AS,exp,46,↓,down,↓,0.837498399996548,True,11,-1,0,11
PBOO^K21,5,307,AS,exp,25,↑,left,←,1.0375511000020197,False,11,-1,0,11
PBOO^K21,5,308,AS,exp,26,←,left,←,0.7272380000067642,True,12,-1,0,11
PBOO^K21,5,309,AS,exp,33,↑,up,↑,0.7304900000017369,True,12,1,1,12
PBOO^K21,5,310,AS,exp,29,←,left,←,0.7587537999934284,True,11,1,0,12
PBOO^K21,5,311,AS,exp,25,↓,right,→,0.9945532999990974,False,11,-1,1,13
PBOO^K21,5,312,AS,exp,25,←,left,←,0.7512388999894029,True,12,-1,0,13
PBOO^K21,5,313,AS,exp,39,→,right,→,0.7018666000076337,True,12,1,1,14
PBOO^K21,6,314,PS,intra_train,33,↓,down,↓,0.5977351000037743,True,13,-,-,-
PBOO^K21,6,315,PS,intra_train,25,→,right,→,0.6708513000048697,True,13,-,-,-
PBOO^K21,6,316,PS,intra_train,33,←,left,←,0.5649154999991879,True,13,-,-,-
PBOO^K21,6,317,PS,intra_train,32,→,right,→,0.539354300010018,True,13,-,-,-
PBOO^K21,6,318,PS,intra_train,36,↑,up,↑,0.4920385000004899,True,13,-,-,-
PBOO^K21,6,319,PS,exp,36,→,right,→,0.7111844000028213,True,9,0,0,0
PBOO^K21,6,320,PS,exp,44,←,left,←,0.5196817999967607,True,9,1,0,0
PBOO^K21,6,321,PS,exp,47,→,up,↑,0.6881920000014361,False,8,-1,1,1
PBOO^K21,6,322,PS,exp,47,←,left,←,0.7393957000022056,True,9,-1,0,1
PBOO^K21,6,323,PS,exp,29,→,right,→,0.6389378000021679,True,9,1,1,2
PBOO^K21,6,324,PS,exp,42,↓,right,→,0.9210531999997329,False,8,-1,1,3
PBOO^K21,6,325,PS,exp,27,←,right,→,1.0090767000074266,False,9,-1,0,3
PBOO^K21,6,326,PS,exp,30,↓,down,↓,0.6917098000121769,True,10,-1,0,3
PBOO^K21,6,327,PS,exp,28,←,right,→,0.6950957000080962,False,10,-1,0,3
PBOO^K21,6,328,PS,exp,26,→,right,→,0.8891184999956749,True,11,-1,0,3
PBOO^K21,6,329,PS,exp,43,↑,up,↑,0.8273326999915298,True,11,1,1,4
PBOO^K21,6,330,PS,exp,46,←,left,←,0.6298883999988902,True,10,1,0,4
PBOO^K21,6,331,PS,exp,42,↓,down,↓,0.6640262000000803,True,10,1,0,4
PBOO^K21,6,332,PS,exp,37,→,right,→,0.5495231999957468,True,9,1,0,4
PBOO^K21,6,333,PS,exp,44,↑,up,↑,0.5055392000067513,True,9,1,0,4
PBOO^K21,6,334,PS,exp,33,↓,down,↓,0.6983340000006137,True,8,1,0,4
PBOO^K21,6,335,PS,exp,36,←,left,←,0.5340598000038881,True,8,1,0,4
PBOO^K21,6,336,PS,exp,43,→,left,←,0.748655699993833,False,7,-1,1,5
PBOO^K21,6,337,PS,exp,48,←,left,←,0.5178446000063559,True,8,-1,0,5
PBOO^K21,6,338,PS,exp,32,↑,left,←,0.6269423999910941,False,8,-1,0,5
PBOO^K21,6,339,PS,exp,45,→,right,→,0.5125741000083508,True,9,-1,0,5
PBOO^K21,6,340,PS,exp,33,↑,up,↑,0.6038916999968933,True,9,1,1,6
PBOO^K21,6,341,PS,exp,44,→,left,←,0.6747267000027932,False,8,-1,1,7
PBOO^K21,6,342,PS,exp,29,←,left,←,0.8853168999921763,True,9,-1,0,7
PBOO^K21,6,343,PS,exp,30,→,left,←,1.0053072000009706,False,9,-1,0,7
PBOO^K21,6,344,PS,exp,41,←,left,←,0.5232355000043754,True,10,-1,0,7
PBOO^K21,6,345,PS,exp,40,↓,down,↓,0.7601527000078931,True,10,1,1,8
PBOO^K21,6,346,PS,exp,37,←,left,←,0.5730938999913633,True,9,1,0,8
PBOO^K21,6,347,PS,exp,27,→,right,→,0.594964500007336,True,9,1,0,8
PBOO^K21,6,348,PS,exp,27,↑,right,→,0.6885645000002114,False,8,-1,1,9
PBOO^K21,6,349,PS,exp,42,↓,down,↓,0.5467836999887368,True,9,-1,0,9
PBOO^K21,6,350,PS,exp,39,→,right,→,0.5387745000043651,True,9,1,1,10
PBOO^K21,6,351,PS,exp,35,↑,up,↑,0.6635989999922458,True,8,1,0,10
PBOO^K21,6,352,PS,exp,43,↓,up,↑,0.7085187000047881,False,8,-1,1,11
PBOO^K21,6,353,PS,exp,50,↑,up,↑,0.5159660000063013,True,9,-1,0,11
PBOO^K21,6,354,PS,exp,32,←,left,←,0.47131869998702314,True,9,1,1,12
PBOO^K21,6,355,PS,exp,40,→,right,→,0.5042815999913728,True,8,1,0,12
PBOO^K21,6,356,PS,exp,37,↓,down,↓,0.5689944000041578,True,8,1,0,12
PBOO^K21,6,357,PS,exp,29,↑,right,→,0.4919764999940526,False,7,-1,1,13
PBOO^K21,6,358,PS,exp,47,←,left,←,0.46050519999698736,True,8,-1,0,13
PBOO^K21,6,359,PS,exp,25,↓,down,↓,0.7046313999890117,True,8,1,1,14
PBOO^K21,7,360,PS,intra_train,47,→,right,→,0.6232661999965785,True,13,-,-,-
PBOO^K21,7,361,PS,intra_train,25,↑,up,↑,0.4931252999958815,True,13,-,-,-
PBOO^K21,7,362,PS,intra_train,33,→,right,→,0.44142550000105985,True,13,-,-,-
PBOO^K21,7,363,PS,intra_train,28,←,left,←,0.47962339999503456,True,13,-,-,-
PBOO^K21,7,364,PS,intra_train,38,→,right,→,0.4881141999940155,True,13,-,-,-
PBOO^K21,7,365,PS,exp,29,←,left,←,0.6198941000038758,True,9,0,0,0
PBOO^K21,7,366,PS,exp,45,↑,up,↑,0.4851265000033891,True,9,1,0,0
PBOO^K21,7,367,PS,exp,43,↓,up,↑,0.5239385999884689,False,8,-1,1,1
PBOO^K21,7,368,PS,exp,31,→,right,→,0.5150211000000127,True,9,-1,0,1
PBOO^K21,7,369,PS,exp,34,↑,left,←,0.4910434999910649,False,9,-1,0,1
PBOO^K21,7,370,PS,exp,36,→,right,→,0.6893553999980213,True,10,-1,0,1
PBOO^K21,7,371,PS,exp,48,↑,left,←,0.49131990000023507,False,10,-1,0,1
PBOO^K21,7,372,PS,exp,43,↓,down,↓,0.6753983000089647,True,11,-1,0,1
PBOO^K21,7,373,PS,exp,47,→,right,→,0.5911053000018001,True,11,1,1,2
PBOO^K21,7,374,PS,exp,46,←,left,←,0.47453029999451246,True,10,1,0,2
PBOO^K21,7,375,PS,exp,34,↓,down,↓,0.5774517999961972,True,10,1,0,2
PBOO^K21,7,376,PS,exp,39,↑,up,↑,0.45393310001236387,True,9,1,0,2
PBOO^K21,7,377,PS,exp,28,↓,down,↓,0.6309206000005361,True,9,1,0,2
PBOO^K21,7,378,PS,exp,26,→,left,←,0.6156302000017604,False,8,-1,1,3
PBOO^K21,7,379,PS,exp,30,←,left,←,0.5187235000048531,True,9,-1,0,3
PBOO^K21,7,380,PS,exp,34,→,right,→,0.6060026999912225,True,9,1,1,4
PBOO^K21,7,381,PS,exp,35,↓,up,↑,0.5695970000087982,False,8,-1,1,5
PBOO^K21,7,382,PS,exp,40,→,right,→,0.5220288999989862,True,9,-1,0,5
PBOO^K21,7,383,PS,exp,49,↑,up,↑,0.4459370999975363,True,9,1,1,6
PBOO^K21,7,384,PS,exp,35,↓,down,↓,0.5750372000038624,True,8,1,0,6
PBOO^K21,7,385,PS,exp,38,↑,up,↑,0.5248204999952577,True,8,1,0,6
PBOO^K21,7,386,PS,exp,38,←,left,←,0.663341000006767,True,7,1,0,6
PBOO^K21,7,387,PS,exp,38,↑,up,↑,0.4834662000066601,True,7,1,0,6
PBOO^K21,7,388,PS,exp,46,↓,down,↓,0.6162916999892332,True,6,1,0,6
PBOO^K21,7,389,PS,exp,41,→,right,→,0.6493872999999439,True,6,1,0,6
PBOO^K21,7,390,PS,exp,46,←,up,↑,0.6734914999979082,False,5,-1,1,7
PBOO^K21,7,391,PS,exp,29,↑,up,↑,0.5382856000069296,True,6,-1,0,7
PBOO^K21,7,392,PS,exp,33,↓,left,←,0.5870127999951364,False,6,-1,0,7
PBOO^K21,7,393,PS,exp,39,→,left,←,0.8709411999880103,False,7,-1,0,7
PBOO^K21,7,394,PS,exp,43,↑,up,↑,0.5562049999862211,True,8,-1,0,7
PBOO^K21,7,395,PS,exp,35,←,left,←,0.8642297000042163,True,8,1,1,8
PBOO^K21,7,396,PS,exp,36,→,right,→,0.5676629999943543,True,7,1,0,8
PBOO^K21,7,397,PS,exp,39,←,no_key,no_letter,-1.0,False,7,-1,1,9
PBOO^K21,7,398,PS,exp,33,↓,down,↓,0.6444198000099277,True,8,-1,0,9
PBOO^K21,7,399,PS,exp,36,←,left,←,0.6206942999997409,True,8,1,1,10
PBOO^K21,7,400,PS,exp,26,→,right,→,0.6143415999977151,True,7,1,0,10
PBOO^K21,7,401,PS,exp,50,↑,left,←,0.37733099999604747,False,7,-1,1,11
PBOO^K21,7,402,PS,exp,27,→,right,→,0.5237348999944516,True,8,-1,0,11
PBOO^K21,7,403,PS,exp,43,↓,left,←,0.7620829999941634,False,8,-1,0,11
PBOO^K21,7,404,PS,exp,46,→,right,→,0.6076764000026742,True,9,-1,0,11
PBOO^K21,7,405,PS,exp,31,↑,up,↑,0.6421798000083072,True,9,1,1,12
PBOO^K21,7,406,PS,exp,36,←,left,←,0.5957701000006637,True,8,1,0,12
PBOO^K21,7,407,PS,exp,36,↓,left,←,1.3325832999980776,False,8,-1,1,13
PBOO^K21,7,408,PS,exp,32,↑,left,←,0.5459325999981957,False,9,-1,0,13
PBOO^K21,7,409,PS,exp,31,→,right,→,0.4725177999935113,True,10,-1,0,13
PBOO^K21,7,410,PS,exp,31,↑,up,↑,0.6057335999939824,True,10,1,1,14
PBOO^K21,8,411,AS,intra_train,30,→,right,→,0.660492199996952,True,18,-,-,-
PBOO^K21,8,412,AS,intra_train,37,↑,up,↑,0.5151831999974092,True,18,-,-,-
PBOO^K21,8,413,AS,intra_train,42,←,left,←,0.7043403999996372,True,18,-,-,-
PBOO^K21,8,414,AS,intra_train,36,→,right,→,0.6555318999890005,True,18,-,-,-
PBOO^K21,8,415,AS,intra_train,45,↑,up,↑,0.503670999998576,True,18,-,-,-
PBOO^K21,8,416,AS,exp,41,↓,up,↑,0.7270814000075916,False,12,-1,0,0
PBOO^K21,8,417,AS,exp,28,←,left,←,0.9206415999942692,True,13,-1,0,0
PBOO^K21,8,418,AS,exp,44,↓,up,↑,0.7332785999897169,False,13,-1,0,0
PBOO^K21,8,419,AS,exp,31,↑,down,↓,0.7794260999944527,False,14,-1,0,0
PBOO^K21,8,420,AS,exp,36,→,right,→,0.5255245000007562,True,15,-1,0,0
PBOO^K21,8,421,AS,exp,49,↓,up,↑,0.8467272999987472,False,15,-1,0,0
PBOO^K21,8,422,AS,exp,32,→,right,→,0.6361808999936329,True,16,-1,0,0
PBOO^K21,8,423,AS,exp,33,←,left,←,0.657117200011271,True,16,1,1,1
PBOO^K21,8,424,AS,exp,31,→,right,→,0.5381553999905009,True,15,1,0,1
PBOO^K21,8,425,AS,exp,49,↓,down,↓,0.5359100000059698,True,15,1,0,1
PBOO^K21,8,426,AS,exp,50,↑,up,↑,0.6034987000020919,True,14,1,0,1
PBOO^K21,8,427,AS,exp,44,→,right,→,0.5725835000048392,True,14,1,0,1
PBOO^K21,8,428,AS,exp,29,↑,up,↑,0.50303609999537,True,13,1,0,1
PBOO^K21,8,429,AS,exp,28,←,left,←,0.872603199997684,True,13,1,0,1
PBOO^K21,8,430,AS,exp,27,→,right,→,0.7300856000074418,True,12,1,0,1
PBOO^K21,8,431,AS,exp,33,↑,up,↑,0.4665048000024399,True,12,1,0,1
PBOO^K21,8,432,AS,exp,46,←,left,←,0.48294470000837464,True,11,1,0,1
PBOO^K21,8,433,AS,exp,27,↑,up,↑,0.5982471000024816,True,11,1,0,1
PBOO^K21,8,434,AS,exp,39,←,left,←,0.6987766999955056,True,10,1,0,1
PBOO^K21,8,435,AS,exp,44,→,right,→,0.40876530000241473,True,10,1,0,1
PBOO^K21,8,436,AS,exp,41,↓,up,↑,0.6077411999867763,False,9,-1,1,2
PBOO^K21,8,437,AS,exp,41,←,left,←,0.6627636999910465,True,10,-1,0,2
PBOO^K21,8,438,AS,exp,34,→,right,→,0.48086339999281336,True,10,1,1,3
PBOO^K21,8,439,AS,exp,28,↓,up,↑,0.6123032000032254,False,9,-1,1,4
PBOO^K21,8,440,AS,exp,47,←,right,→,0.6001278000039747,False,10,-1,0,4
PBOO^K21,8,441,AS,exp,32,→,right,→,0.5226904000010109,True,11,-1,0,4
PBOO^K21,8,442,AS,exp,49,↓,down,↓,0.7267502999893622,True,11,1,1,5
PBOO^K21,8,443,AS,exp,43,→,left,←,0.7930216999957338,False,10,-1,1,6
PBOO^K21,8,444,AS,exp,50,←,left,←,0.5911253000085708,True,11,-1,0,6
PBOO^K21,8,445,AS,exp,37,↓,down,↓,0.5758261000009952,True,11,1,1,7
PBOO^K21,8,446,AS,exp,38,←,right,→,0.6163457000075141,False,10,-1,1,8
PBOO^K21,8,447,AS,exp,27,↑,up,↑,0.5386343999998644,True,11,-1,0,8
PBOO^K21,8,448,AS,exp,39,→,right,→,0.5214478999987477,True,11,1,1,9
PBOO^K21,8,449,AS,exp,50,←,left,←,0.5031196999916574,True,10,1,0,9
PBOO^K21,8,450,AS,exp,32,↑,up,↑,0.6567936000064947,True,10,1,0,9
PBOO^K21,8,451,AS,exp,35,↓,up,↑,0.6295223999914015,False,9,-1,1,10
PBOO^K21,8,452,AS,exp,38,→,right,→,0.6379860000015469,True,10,-1,0,10
PBOO^K21,8,453,AS,exp,38,←,left,←,0.5637382999993861,True,10,1,1,11
PBOO^K21,8,454,AS,exp,48,↓,up,↑,0.8662474000011571,False,9,-1,1,12
PBOO^K21,8,455,AS,exp,33,→,down,↓,0.8459657999919727,False,10,-1,0,12
PBOO^K21,8,456,AS,exp,45,↑,up,↑,0.6682908999937354,True,11,-1,0,12
PBOO^K21,8,457,AS,exp,41,↓,up,↑,0.7491690000024391,False,11,-1,0,12
PBOO^K21,8,458,AS,exp,45,←,left,←,0.777831100000185,True,12,-1,0,12
PBOO^K21,8,459,AS,exp,48,↑,up,↑,0.7535348999954294,True,12,1,1,13
PBOO^K21,8,460,AS,exp,42,↓,up,↑,1.524303600002895,False,11,-1,1,14
