PART_ID,Block_no,Trial_no,Block_type,Trial_type,CSI,Stim_letter,Key_pressed,letter_choose,Rt,Corr,Stimulus Time,Level,Reversal,Revs_count
PB002K22,1,1,PS,train,38,←,up,↑,0.4676484999945387,False,30,-,-,-
PB002K22,1,2,PS,train,27,→,right,→,1.0516888999991352,True,30,-,-,-
PB002K22,1,3,PS,train,41,←,left,←,0.7346240000042599,True,30,-,-,-
PB002K22,1,4,PS,train,44,↓,down,↓,0.7739414000097895,True,30,-,-,-
PB002K22,1,5,PS,train,28,←,left,←,0.7096043000055943,True,30,-,-,-
PB002K22,1,6,PS,train,50,↓,down,↓,0.7072798000008333,True,30,-,-,-
PB002K22,1,7,PS,train,41,→,right,→,0.5837580999941565,True,30,-,-,-
PB002K22,1,8,PS,train,27,←,left,←,0.5836204999941401,True,30,-,-,-
PB002K22,1,9,PS,train,31,↓,down,↓,0.6873560000094585,True,30,-,-,-
PB002K22,1,10,PS,train,45,→,right,→,0.7035481000057189,True,30,-,-,-
PB002K22,2,11,AS,train,40,↑,up,↑,0.8504925000015646,True,45,-,-,-
PB002K22,2,12,AS,train,45,←,left,←,0.7337618000019575,True,45,-,-,-
PB002K22,2,13,AS,train,38,↓,down,↓,0.7503900999872712,True,45,-,-,-
PB002K22,2,14,AS,train,44,→,right,→,0.7010394999961136,True,45,-,-,-
PB002K22,2,15,AS,train,33,↑,up,↑,0.6843379000056302,True,45,-,-,-
PB002K22,2,16,AS,train,38,←,left,←,0.45088960000430234,True,45,-,-,-
PB002K22,2,17,AS,train,37,↑,up,↑,0.7010896000138018,True,45,-,-,-
PB002K22,2,18,AS,train,40,←,left,←,0.6844615000009071,True,45,-,-,-
PB002K22,2,19,AS,train,28,→,right,→,1.2071491000097012,True,45,-,-,-
PB002K22,2,20,AS,train,28,↑,up,↑,0.7671163000050001,True,45,-,-,-
PB002K22,-,21,PS,adaptive,34,→,right,→,0.7329968999983976,True,10,0,0,0
PB002K22,-,22,PS,adaptive,43,↓,down,↓,0.7191450999962399,True,10,1,0,0
PB002K22,-,23,PS,adaptive,25,↑,up,↑,0.8210669000109192,True,9,1,0,0
PB002K22,-,24,PS,adaptive,50,→,right,→,0.6563476000010269,True,9,1,0,0
PB002K22,-,25,PS,adaptive,36,↓,up,↑,1.1677782000042498,False,8,-1,1,1
PB002K22,-,26,PS,adaptive,39,→,down,↓,1.3112720000062836,False,9,-1,0,1
PB002K22,-,27,PS,adaptive,45,←,left,←,0.6258754000009503,True,10,-1,0,1
PB002K22,-,28,PS,adaptive,36,↑,up,↑,0.6454802999942331,True,10,1,1,2
PB002K22,-,29,PS,adaptive,28,→,right,→,0.6220898000028683,True,9,1,0,2
PB002K22,-,30,PS,adaptive,40,↑,left,←,0.8192855999950552,False,9,-1,1,3
PB002K22,-,31,PS,adaptive,43,↓,down,↓,0.8570125999976881,True,10,-1,0,3
PB002K22,-,32,PS,adaptive,49,↑,up,↑,0.5824877999984892,True,10,1,1,4
PB002K22,-,33,AS,adaptive,27,↓,up,↑,0.9682850999961374,False,20,-1,0,0
PB002K22,-,34,AS,adaptive,36,→,right,→,0.7212265999987721,True,21,-1,0,0
PB002K22,-,35,AS,adaptive,28,←,left,←,0.7314149000012549,True,21,1,1,1
PB002K22,-,36,AS,adaptive,40,↑,up,↑,0.5505015999951866,True,20,1,0,1
PB002K22,-,37,AS,adaptive,32,↓,down,↓,0.6428157999907853,True,20,1,0,1
PB002K22,-,38,AS,adaptive,25,→,right,→,0.5077603999961866,True,19,1,0,1
PB002K22,-,39,AS,adaptive,28,←,left,←,0.5092942999908701,True,19,1,0,1
PB002K22,-,40,AS,adaptive,41,↑,up,↑,0.6583983000018634,True,18,1,0,1
PB002K22,-,41,AS,adaptive,35,→,no_key,no_letter,-1.0,False,18,-1,1,2
PB002K22,-,42,AS,adaptive,49,↓,down,↓,0.7652923999994528,True,19,-1,0,2
PB002K22,-,43,AS,adaptive,47,↑,up,↑,0.8057018999970751,True,19,1,1,3
PB002K22,-,44,AS,adaptive,32,→,right,→,0.8088166000088677,True,18,1,0,3
PB002K22,-,45,AS,adaptive,48,←,right,→,1.87271999999939,False,18,-1,1,4
PB002K22,1,46,PS,intra_train,45,↓,down,↓,0.8646085999935167,True,13,-,-,-
PB002K22,1,47,PS,intra_train,27,→,right,→,0.520812599992496,True,13,-,-,-
PB002K22,1,48,PS,intra_train,37,↓,down,↓,0.6591844000067795,True,13,-,-,-
PB002K22,1,49,PS,intra_train,39,→,right,→,0.6476400999963516,True,13,-,-,-
PB002K22,1,50,PS,intra_train,26,↑,up,↑,0.7548179000004893,True,13,-,-,-
PB002K22,1,51,PS,exp,33,→,down,↓,1.108352700000978,False,9,-1,0,0
PB002K22,1,52,PS,exp,31,↑,up,↑,1.373994200010202,True,10,-1,0,0
PB002K22,1,53,PS,exp,49,→,right,→,0.830057899991516,True,10,1,1,1
PB002K22,1,54,PS,exp,47,↑,right,→,0.9923636000021361,False,9,-1,1,2
PB002K22,1,55,PS,exp,39,→,left,←,1.0418224000022747,False,10,-1,0,2
PB002K22,1,56,PS,exp,47,↓,down,↓,1.0143875000067055,True,11,-1,0,2
PB002K22,1,57,PS,exp,33,→,down,↓,1.4570067999884486,False,11,-1,0,2
PB002K22,1,58,PS,exp,38,↓,right,→,0.9116329999960726,False,12,-1,0,2
PB002K22,1,59,PS,exp,49,←,left,←,0.9643249999935506,True,13,-1,0,2
PB002K22,1,60,PS,exp,31,↑,right,→,0.9428456000023289,False,13,-1,0,2
PB002K22,1,61,PS,exp,25,↓,down,↓,0.6504605999944033,True,14,-1,0,2
PB002K22,1,62,PS,exp,27,↑,up,↑,0.6767819999950007,True,14,1,1,3
PB002K22,1,63,PS,exp,26,←,left,←,0.5300891999941086,True,13,1,0,3
PB002K22,1,64,PS,exp,43,→,right,→,0.5270069999969564,True,13,1,0,3
PB002K22,1,65,PS,exp,30,←,no_key,no_letter,-1.0,False,12,-1,1,4
PB002K22,1,66,PS,exp,50,→,down,↓,0.9955774999980349,False,13,-1,0,4
PB002K22,1,67,PS,exp,39,↓,up,↑,0.8148175999958767,False,14,-1,0,4
PB002K22,1,68,PS,exp,44,←,left,←,0.6219009999913396,True,15,-1,0,4
PB002K22,1,69,PS,exp,41,→,right,→,0.8194377000036184,True,15,1,1,5
PB002K22,1,70,PS,exp,48,↑,up,↑,0.4909583999979077,True,14,1,0,5
PB002K22,1,71,PS,exp,45,←,left,←,0.49578810000093654,True,14,1,0,5
PB002K22,1,72,PS,exp,39,→,right,→,0.47016009999788366,True,13,1,0,5
PB002K22,1,73,PS,exp,47,↑,up,↑,0.5204812000010861,True,13,1,0,5
PB002K22,1,74,PS,exp,44,↓,right,→,0.9681823999999324,False,12,-1,1,6
PB002K22,1,75,PS,exp,41,→,right,→,0.4844872000103351,True,13,-1,0,6
PB002K22,1,76,PS,exp,36,↑,up,↑,0.4530516000086209,True,13,1,1,7
PB002K22,1,77,PS,exp,40,→,left,←,0.6545055000024149,False,12,-1,1,8
PB002K22,1,78,PS,exp,30,←,left,←,0.5012891000078525,True,13,-1,0,8
PB002K22,1,79,PS,exp,25,↑,right,→,0.8878968999924837,False,13,-1,0,8
PB002K22,1,80,PS,exp,39,→,no_key,no_letter,-1.0,False,14,-1,0,8
PB002K22,1,81,PS,exp,29,↓,down,↓,0.8592792999988887,True,15,-1,0,8
PB002K22,1,82,PS,exp,27,↑,up,↑,0.4710558999940986,True,15,1,1,9
PB002K22,1,83,PS,exp,31,↓,right,→,0.7995299000031082,False,14,-1,1,10
PB002K22,1,84,PS,exp,32,↑,up,↑,0.4602181000082055,True,15,-1,0,10
PB002K22,1,85,PS,exp,34,←,right,→,1.2990603000071133,False,15,-1,0,10
PB002K22,1,86,PS,exp,33,↓,right,→,0.8834249000065029,False,16,-1,0,10
PB002K22,1,87,PS,exp,44,←,left,←,0.518836499992176,True,17,-1,0,10
PB002K22,1,88,PS,exp,26,→,right,→,0.6086366999952588,True,17,1,1,11
PB002K22,1,89,PS,exp,33,↓,left,←,0.7172281999955885,False,16,-1,1,12
PB002K22,1,90,PS,exp,28,←,left,←,0.5911128000007011,True,17,-1,0,12
PB002K22,1,91,PS,exp,44,↑,up,↑,0.5362456000002567,True,17,1,1,13
PB002K22,1,92,PS,exp,31,→,right,→,0.4485465999896405,True,16,1,0,13
PB002K22,1,93,PS,exp,46,←,left,←,0.5186831000028178,True,16,1,0,13
PB002K22,1,94,PS,exp,30,→,right,→,0.6305776999943191,True,15,1,0,13
PB002K22,1,95,PS,exp,29,↑,up,↑,0.7369746000040323,True,15,1,0,13
PB002K22,1,96,PS,exp,39,←,right,→,0.6364355999976397,False,14,-1,1,14
PB002K22,2,97,AS,intra_train,37,↓,down,↓,1.0353146999987075,True,28,-,-,-
PB002K22,2,98,AS,intra_train,36,→,right,→,0.7869548000016948,True,28,-,-,-
PB002K22,2,99,AS,intra_train,39,↓,down,↓,0.9119043999962742,True,28,-,-,-
PB002K22,2,100,AS,intra_train,40,↑,up,↑,0.9108842999994522,True,28,-,-,-
PB002K22,2,101,AS,intra_train,28,←,left,←,0.7185825000051409,True,28,-,-,-
PB002K22,2,102,AS,exp,27,↓,down,↓,0.7022105000069132,True,19,0,0,0
PB002K22,2,103,AS,exp,43,↑,up,↑,1.2394533999904525,True,19,1,0,0
PB002K22,2,104,AS,exp,50,←,right,→,1.089559600004577,False,18,-1,1,1
PB002K22,2,105,AS,exp,44,→,right,→,0.8230092000012519,True,19,-1,0,1
PB002K22,2,106,AS,exp,44,↓,down,↓,0.6164743000117596,True,19,1,1,2
PB002K22,2,107,AS,exp,29,←,down,↓,1.0281779000069946,False,18,-1,1,3
PB002K22,2,108,AS,exp,35,↑,up,↑,0.6499898000038229,True,19,-1,0,3
PB002K22,2,109,AS,exp,30,↓,down,↓,0.8985837000072934,True,19,1,1,4
PB002K22,2,110,AS,exp,27,→,right,→,0.5069389000127558,True,18,1,0,4
PB002K22,2,111,AS,exp,48,↑,right,→,1.3542301999987103,False,18,-1,1,5
PB002K22,2,112,AS,exp,38,←,left,←,0.6435397999885026,True,19,-1,0,5
PB002K22,2,113,AS,exp,35,↓,down,↓,0.662563499994576,True,19,1,1,6
PB002K22,2,114,AS,exp,48,←,left,←,0.528216099992278,True,18,1,0,6
PB002K22,2,115,AS,exp,31,↑,up,↑,0.6003148000017973,True,18,1,0,6
PB002K22,2,116,AS,exp,26,←,left,←,0.41700410000339616,True,17,1,0,6
PB002K22,2,117,AS,exp,47,↑,up,↑,0.5767457000038121,True,17,1,0,6
PB002K22,2,118,AS,exp,38,←,left,←,0.44788760000665206,True,16,1,0,6
PB002K22,2,119,AS,exp,44,↓,left,←,1.8763833999983035,False,16,-1,1,7
PB002K22,2,120,AS,exp,26,↑,up,↑,0.5505492999946,True,17,-1,0,7
PB002K22,2,121,AS,exp,30,↓,down,↓,1.0470052000018768,True,17,1,1,8
PB002K22,2,122,AS,exp,36,↑,up,↑,0.5374406000046292,True,16,1,0,8
PB002K22,2,123,AS,exp,39,→,up,↑,1.206320199999027,False,16,-1,1,9
PB002K22,2,124,AS,exp,25,↑,up,↑,0.48201419999531936,True,17,-1,0,9
PB002K22,2,125,AS,exp,30,↓,down,↓,0.6229149999999208,True,17,1,1,10
PB002K22,2,126,AS,exp,47,←,up,↑,0.6393868999875849,False,16,-1,1,11
PB002K22,2,127,AS,exp,43,→,no_key,no_letter,-1.0,False,17,-1,0,11
PB002K22,2,128,AS,exp,29,←,right,→,1.5544866999989608,False,18,-1,0,11
PB002K22,2,129,AS,exp,32,↑,up,↑,1.0899184000008972,True,19,-1,0,11
PB002K22,2,130,AS,exp,43,←,left,←,1.0577044999954524,True,19,1,1,12
PB002K22,2,131,AS,exp,29,↑,up,↑,0.8960071000037715,True,18,1,0,12
PB002K22,2,132,AS,exp,31,←,up,↑,0.8084334000013769,False,18,-1,1,13
PB002K22,2,133,AS,exp,40,→,right,→,0.670757699990645,True,19,-1,0,13
PB002K22,2,134,AS,exp,38,↑,up,↑,1.099626100010937,True,19,1,1,14
PB002K22,3,135,AS,intra_train,42,→,right,→,0.7099735000083456,True,28,-,-,-
PB002K22,3,136,AS,intra_train,38,↑,up,↑,0.8729436000139685,True,28,-,-,-
PB002K22,3,137,AS,intra_train,43,→,right,→,0.6468710000044666,True,28,-,-,-
PB002K22,3,138,AS,intra_train,27,↓,down,↓,0.8185910000029253,True,28,-,-,-
PB002K22,3,139,AS,intra_train,45,→,right,→,0.6355309999926249,True,28,-,-,-
PB002K22,3,140,AS,exp,25,↓,up,↑,0.9191121000039857,False,19,-1,0,0
PB002K22,3,141,AS,exp,35,→,right,→,0.5770222999999532,True,20,-1,0,0
PB002K22,3,142,AS,exp,33,↑,up,↑,0.734571600012714,True,20,1,1,1
PB002K22,3,143,AS,exp,28,←,left,←,0.6612928999966243,True,19,1,0,1
PB002K22,3,144,AS,exp,34,↓,down,↓,0.8680375999974785,True,19,1,0,1
PB002K22,3,145,AS,exp,46,←,no_key,no_letter,-1.0,False,18,-1,1,2
PB002K22,3,146,AS,exp,27,↓,down,↓,0.720614799996838,True,19,-1,0,2
PB002K22,3,147,AS,exp,49,↑,down,↓,1.491910500000813,False,19,-1,0,2
PB002K22,3,148,AS,exp,32,→,left,←,0.9244184999988647,False,20,-1,0,2
PB002K22,3,149,AS,exp,34,↓,right,→,1.0707445000007283,False,21,-1,0,2
PB002K22,3,150,AS,exp,26,→,right,→,0.6287687000003643,True,22,-1,0,2
PB002K22,3,151,AS,exp,26,↓,down,↓,0.5886879999889061,True,22,1,1,3
PB002K22,3,152,AS,exp,39,←,left,←,0.6129657999990741,True,21,1,0,3
PB002K22,3,153,AS,exp,33,↓,down,↓,0.5810721000016201,True,21,1,0,3
PB002K22,3,154,AS,exp,30,→,left,←,0.43365540000377223,False,20,-1,1,4
PB002K22,3,155,AS,exp,33,↑,down,↓,0.7753110000048764,False,21,-1,0,4
PB002K22,3,156,AS,exp,25,←,left,←,0.5722793000022648,True,22,-1,0,4
PB002K22,3,157,AS,exp,37,↑,up,↑,0.6791530000045896,True,22,1,1,5
PB002K22,3,158,AS,exp,29,←,left,←,0.5548560000024736,True,21,1,0,5
PB002K22,3,159,AS,exp,33,↓,down,↓,0.8703185000049416,True,21,1,0,5
PB002K22,3,160,AS,exp,42,↑,up,↑,0.8200164999871049,True,20,1,0,5
PB002K22,3,161,AS,exp,38,→,right,→,0.4670596999931149,True,20,1,0,5
PB002K22,3,162,AS,exp,44,↑,up,↑,0.7533223000064027,True,19,1,0,5
PB002K22,3,163,AS,exp,42,←,left,←,0.7773579999920912,True,19,1,0,5
PB002K22,3,164,AS,exp,45,→,up,↑,0.9371784000104526,False,18,-1,1,6
PB002K22,3,165,AS,exp,34,↑,up,↑,0.784375999995973,True,19,-1,0,6
PB002K22,3,166,AS,exp,36,→,right,→,0.69878650001192,True,19,1,1,7
PB002K22,3,167,AS,exp,36,↓,down,↓,0.6105501999991247,True,18,1,0,7
PB002K22,3,168,AS,exp,26,→,no_key,no_letter,-1.0,False,18,-1,1,8
PB002K22,3,169,AS,exp,38,↓,down,↓,0.5807323999906657,True,19,-1,0,8
PB002K22,3,170,AS,exp,48,←,left,←,0.631151299996418,True,19,1,1,9
PB002K22,3,171,AS,exp,34,↑,up,↑,0.6548910999990767,True,18,1,0,9
PB002K22,3,172,AS,exp,43,↓,down,↓,0.7839309000119101,True,18,1,0,9
PB002K22,3,173,AS,exp,47,←,left,←,0.4858951999922283,True,17,1,0,9
PB002K22,3,174,AS,exp,35,↑,up,↑,0.7361058999958914,True,17,1,0,9
PB002K22,3,175,AS,exp,40,↓,down,↓,0.6486216000048444,True,16,1,0,9
PB002K22,3,176,AS,exp,29,→,right,→,0.5753531999944244,True,16,1,0,9
PB002K22,3,177,AS,exp,28,←,left,←,0.8022571000037715,True,15,1,0,9
PB002K22,3,178,AS,exp,36,↑,up,↑,0.6189442000031704,True,15,1,0,9
PB002K22,3,179,AS,exp,37,↓,down,↓,0.8779183000006014,True,14,1,0,9
PB002K22,3,180,AS,exp,31,←,up,↑,0.9227564000029815,False,14,-1,1,10
PB002K22,3,181,AS,exp,30,↓,down,↓,0.7472150999965379,True,15,-1,0,10
PB002K22,3,182,AS,exp,46,→,right,→,0.5659435999987181,True,15,1,1,11
PB002K22,3,183,AS,exp,29,←,no_key,no_letter,-1.0,False,14,-1,1,12
PB002K22,3,184,AS,exp,37,↓,no_key,no_letter,-1.0,False,15,-1,0,12
PB002K22,3,185,AS,exp,31,→,right,→,0.5662776000099257,True,16,-1,0,12
PB002K22,3,186,AS,exp,28,↑,right,→,0.9037056999950437,False,16,-1,0,12
PB002K22,3,187,AS,exp,42,↓,down,↓,0.40038490000006277,True,17,-1,0,12
PB002K22,3,188,AS,exp,25,↑,down,↓,0.6231690999993589,False,17,-1,0,12
PB002K22,3,189,AS,exp,39,↓,down,↓,0.6514192999893567,True,18,-1,0,12
PB002K22,3,190,AS,exp,39,←,left,←,0.9085080999939237,True,18,1,1,13
PB002K22,3,191,AS,exp,25,↑,right,→,0.8142410000000382,False,17,-1,1,14
PB002K22,4,192,PS,intra_train,28,←,left,←,0.5763993000000482,True,13,-,-,-
PB002K22,4,193,PS,intra_train,31,↓,down,↓,0.5471481999993557,True,13,-,-,-
PB002K22,4,194,PS,intra_train,29,←,left,←,0.48106879999977536,True,13,-,-,-
PB002K22,4,195,PS,intra_train,28,↑,up,↑,0.907791299992823,True,13,-,-,-
PB002K22,4,196,PS,intra_train,45,↓,down,↓,0.6922308999928646,True,13,-,-,-
PB002K22,4,197,PS,exp,48,↑,left,←,0.7964981999975862,False,9,-1,0,0
PB002K22,4,198,PS,exp,27,←,no_key,no_letter,-1.0,False,10,-1,0,0
PB002K22,4,199,PS,exp,25,→,right,→,0.5008749999979045,True,11,-1,0,0
PB002K22,4,200,PS,exp,44,↑,up,↑,0.7100218999985373,True,11,1,1,1
PB002K22,4,201,PS,exp,29,←,right,→,0.8027278999943519,False,10,-1,1,2
PB002K22,4,202,PS,exp,44,↑,up,↑,0.40342669999517966,True,11,-1,0,2
PB002K22,4,203,PS,exp,49,↓,right,→,0.7717989000084344,False,11,-1,0,2
PB002K22,4,204,PS,exp,47,↑,up,↑,1.014556599999196,True,12,-1,0,2
PB002K22,4,205,PS,exp,50,↓,down,↓,0.646834500003024,True,12,1,1,3
PB002K22,4,206,PS,exp,36,→,down,↓,0.5882014999951934,False,11,-1,1,4
PB002K22,4,207,PS,exp,30,↓,down,↓,0.6643974000035087,True,12,-1,0,4
PB002K22,4,208,PS,exp,50,←,left,←,0.5955090000061318,True,12,1,1,5
PB002K22,4,209,PS,exp,44,↓,down,↓,0.459602700007963,True,11,1,0,5
PB002K22,4,210,PS,exp,31,←,left,←,0.4345527999976184,True,11,1,0,5
PB002K22,4,211,PS,exp,50,↓,down,↓,0.37650480000593234,True,10,1,0,5
PB002K22,4,212,PS,exp,40,↑,down,↓,0.5573679999943124,False,10,-1,1,6
PB002K22,4,213,PS,exp,26,↓,down,↓,0.46112920000450686,True,11,-1,0,6
PB002K22,4,214,PS,exp,29,←,left,←,0.576590099997702,True,11,1,1,7
PB002K22,4,215,PS,exp,44,→,right,→,0.45092770000337623,True,10,1,0,7
PB002K22,4,216,PS,exp,35,←,no_key,no_letter,-1.0,False,10,-1,1,8
PB002K22,4,217,PS,exp,33,↓,down,↓,0.4729200000001583,True,11,-1,0,8
PB002K22,4,218,PS,exp,41,↑,up,↑,0.7918245000037132,True,11,1,1,9
PB002K22,4,219,PS,exp,30,↓,right,→,0.8521921000065049,False,10,-1,1,10
PB002K22,4,220,PS,exp,37,←,down,↓,0.8023839999950724,False,11,-1,0,10
PB002K22,4,221,PS,exp,48,→,right,→,0.523598600004334,True,12,-1,0,10
PB002K22,4,222,PS,exp,50,←,right,→,0.5256611999939196,False,12,-1,0,10
PB002K22,4,223,PS,exp,39,↓,left,←,0.9528325999999652,False,13,-1,0,10
PB002K22,4,224,PS,exp,35,→,right,→,0.42053190000297036,True,14,-1,0,10
PB002K22,4,225,PS,exp,25,←,left,←,0.6980638999957591,True,14,1,1,11
PB002K22,4,226,PS,exp,45,→,right,→,0.5180361000093399,True,13,1,0,11
PB002K22,4,227,PS,exp,25,↓,down,↓,0.5429578000039328,True,13,1,0,11
PB002K22,4,228,PS,exp,46,↑,right,→,1.548745800013421,False,12,-1,1,12
PB002K22,4,229,PS,exp,40,←,left,←,0.4870011000020895,True,13,-1,0,12
PB002K22,4,230,PS,exp,39,→,right,→,0.5824412999936612,True,13,1,1,13
PB002K22,4,231,PS,exp,33,↓,down,↓,0.49130690000311006,True,12,1,0,13
PB002K22,4,232,PS,exp,35,→,no_key,no_letter,-1.0,False,12,-1,1,14
PB002K22,5,233,PS,intra_train,46,↓,down,↓,1.030444300005911,True,13,-,-,-
PB002K22,5,234,PS,intra_train,38,←,left,←,0.4558199000020977,True,13,-,-,-
PB002K22,5,235,PS,intra_train,31,↑,up,↑,0.674823399996967,True,13,-,-,-
PB002K22,5,236,PS,intra_train,48,→,right,→,0.48722799999814015,True,13,-,-,-
PB002K22,5,237,PS,intra_train,36,←,left,←,0.39873079999233596,True,13,-,-,-
PB002K22,5,238,PS,exp,29,→,right,→,0.5035097999934806,True,9,0,0,0
PB002K22,5,239,PS,exp,45,↑,up,↑,0.6050256000016816,True,9,1,0,0
PB002K22,5,240,PS,exp,49,→,right,→,0.7088674999977229,True,8,1,0,0
PB002K22,5,241,PS,exp,46,↑,right,→,0.7077323000121396,False,8,-1,1,1
PB002K22,5,242,PS,exp,34,→,right,→,0.554544700004044,True,9,-1,0,1
PB002K22,5,243,PS,exp,37,↓,down,↓,0.7633247000048868,True,9,1,1,2
PB002K22,5,244,PS,exp,47,→,down,↓,0.8548171000002185,False,8,-1,1,3
PB002K22,5,245,PS,exp,38,↑,left,←,0.9850887999928091,False,9,-1,0,3
PB002K22,5,246,PS,exp,38,→,right,→,1.0974674000026425,True,10,-1,0,3
PB002K22,5,247,PS,exp,43,↑,up,↑,0.7516544999962207,True,10,1,1,4
PB002K22,5,248,PS,exp,44,←,right,→,0.756121999991592,False,9,-1,1,5
PB002K22,5,249,PS,exp,50,↓,down,↓,0.998004499997478,True,10,-1,0,5
PB002K22,5,250,PS,exp,26,↑,down,↓,0.7603398999926867,False,10,-1,0,5
PB002K22,5,251,PS,exp,45,←,left,←,0.6415012999932515,True,11,-1,0,5
PB002K22,5,252,PS,exp,42,→,right,→,0.46733559999847785,True,11,1,1,6
PB002K22,5,253,PS,exp,37,↓,down,↓,1.2209929000091506,True,10,1,0,6
PB002K22,5,254,PS,exp,43,→,right,→,0.6797115000081249,True,10,1,0,6
PB002K22,5,255,PS,exp,32,←,left,←,0.4543524000036996,True,9,1,0,6
PB002K22,5,256,PS,exp,31,↑,up,↑,0.678844800000661,True,9,1,0,6
PB002K22,5,257,PS,exp,28,→,left,←,0.7839438999944832,False,8,-1,1,7
PB002K22,5,258,PS,exp,40,↑,up,↑,0.5120517999894219,True,9,-1,0,7
PB002K22,5,259,PS,exp,33,←,left,←,0.4974738999881083,True,9,1,1,8
PB002K22,5,260,PS,exp,45,↓,up,↑,0.9932799999951385,False,8,-1,1,9
PB002K22,5,261,PS,exp,26,→,left,←,0.5921015000058105,False,9,-1,0,9
PB002K22,5,262,PS,exp,32,↑,up,↑,0.6299499000015203,True,10,-1,0,9
PB002K22,5,263,PS,exp,48,←,right,→,0.8669493000052171,False,10,-1,0,9
PB002K22,5,264,PS,exp,43,↑,right,→,0.6569727000023704,False,11,-1,0,9
PB002K22,5,265,PS,exp,47,←,right,→,0.6366010000056121,False,12,-1,0,9
PB002K22,5,266,PS,exp,48,↑,up,↑,0.43039710000448395,True,13,-1,0,9
PB002K22,5,267,PS,exp,30,←,right,→,0.938751499998034,False,13,-1,0,9
PB002K22,5,268,PS,exp,37,↓,down,↓,0.6540704000071855,True,14,-1,0,9
PB002K22,5,269,PS,exp,39,→,right,→,0.4869489999982761,True,14,1,1,10
PB002K22,5,270,PS,exp,33,↓,down,↓,1.0579956000001403,True,13,1,0,10
PB002K22,5,271,PS,exp,32,→,down,↓,0.6802041999908397,False,13,-1,1,11
PB002K22,5,272,PS,exp,38,↑,up,↑,1.2844167000002926,True,14,-1,0,11
PB002K22,5,273,PS,exp,32,↓,down,↓,0.6130410000041593,True,14,1,1,12
PB002K22,5,274,PS,exp,41,↑,up,↑,0.6246176999993622,True,13,1,0,12
PB002K22,5,275,PS,exp,30,→,right,→,0.8203491000022041,True,13,1,0,12
PB002K22,5,276,PS,exp,43,←,left,←,0.5452636999980314,True,12,1,0,12
PB002K22,5,277,PS,exp,36,→,right,→,0.4616381000087131,True,12,1,0,12
PB002K22,5,278,PS,exp,44,↑,up,↑,0.39406510000117123,True,11,1,0,12
PB002K22,5,279,PS,exp,33,→,right,→,0.8315906000061659,True,11,1,0,12
PB002K22,5,280,PS,exp,33,←,left,←,0.9624576000060188,True,10,1,0,12
PB002K22,5,281,PS,exp,36,↓,no_key,no_letter,-1.0,False,10,-1,1,13
PB002K22,5,282,PS,exp,38,↑,right,→,0.8063618000014685,False,11,-1,0,13
PB002K22,5,283,PS,exp,27,←,left,←,0.43260289999307133,True,12,-1,0,13
PB002K22,5,284,PS,exp,25,↑,up,↑,0.48525990000052843,True,12,1,1,14
PB002K22,6,285,AS,intra_train,40,←,left,←,0.7998091000044951,True,28,-,-,-
PB002K22,6,286,AS,intra_train,28,→,right,→,0.46699179999995977,True,28,-,-,-
PB002K22,6,287,AS,intra_train,36,←,left,←,0.43426190000900533,True,28,-,-,-
PB002K22,6,288,AS,intra_train,50,→,right,→,0.5840055000007851,True,28,-,-,-
PB002K22,6,289,AS,intra_train,30,←,left,←,0.48421420001250226,True,28,-,-,-
PB002K22,6,290,AS,exp,28,↓,down,↓,0.5517305999965174,True,19,0,0,0
PB002K22,6,291,AS,exp,34,→,right,→,0.41737060000014026,True,19,1,0,0
PB002K22,6,292,AS,exp,33,↓,left,←,0.9667149000015343,False,18,-1,1,1
PB002K22,6,293,AS,exp,45,↑,up,↑,0.7036320999905001,True,19,-1,0,1
PB002K22,6,294,AS,exp,48,←,left,←,0.607251900000847,True,19,1,1,2
PB002K22,6,295,AS,exp,42,↓,down,↓,0.41729309999209363,True,18,1,0,2
PB002K22,6,296,AS,exp,31,→,up,↑,0.862105000007432,False,18,-1,1,3
PB002K22,6,297,AS,exp,26,↓,down,↓,0.9433487999922363,True,19,-1,0,3
PB002K22,6,298,AS,exp,50,→,down,↓,0.7748356000083731,False,19,-1,0,3
PB002K22,6,299,AS,exp,48,←,left,←,0.6443432999949437,True,20,-1,0,3
PB002K22,6,300,AS,exp,37,→,left,←,1.1946974000020418,False,20,-1,0,3
PB002K22,6,301,AS,exp,39,↑,right,→,0.6301081999990856,False,21,-1,0,3
PB002K22,6,302,AS,exp,43,→,no_key,no_letter,-1.0,False,22,-1,0,3
PB002K22,6,303,AS,exp,30,↓,down,↓,0.6791622000018833,True,23,-1,0,3
PB002K22,6,304,AS,exp,50,→,right,→,0.45017929999448825,True,23,1,1,4
PB002K22,6,305,AS,exp,44,←,left,←,0.9292849000048591,True,22,1,0,4
PB002K22,6,306,AS,exp,48,↓,down,↓,0.6079533000010997,True,22,1,0,4
PB002K22,6,307,AS,exp,49,←,left,←,0.6504659000056563,True,21,1,0,4
PB002K22,6,308,AS,exp,45,→,right,→,0.6917600000015227,True,21,1,0,4
PB002K22,6,309,AS,exp,31,←,left,←,0.6411178999987897,True,20,1,0,4
PB002K22,6,310,AS,exp,28,→,right,→,0.5553235000115819,True,20,1,0,4
PB002K22,6,311,AS,exp,27,↑,up,↑,0.7650743999984115,True,19,1,0,4
PB002K22,6,312,AS,exp,33,↓,down,↓,0.8095134000031976,True,19,1,0,4
PB002K22,6,313,AS,exp,28,↑,up,↑,0.41668109998863656,True,18,1,0,4
PB002K22,6,314,AS,exp,50,↓,down,↓,0.6138915999908932,True,18,1,0,4
PB002K22,6,315,AS,exp,47,↑,no_key,no_letter,-1.0,False,17,-1,1,5
PB002K22,6,316,AS,exp,47,→,left,←,0.5192438000085531,False,18,-1,0,5
PB002K22,6,317,AS,exp,27,↓,up,↑,0.8467490999901202,False,19,-1,0,5
PB002K22,6,318,AS,exp,34,↑,up,↑,0.4339128999999957,True,20,-1,0,5
PB002K22,6,319,AS,exp,45,←,up,↑,0.874725200003013,False,20,-1,0,5
PB002K22,6,320,AS,exp,38,→,right,→,0.5767724000033922,True,21,-1,0,5
PB002K22,6,321,AS,exp,32,←,left,←,0.6788025999994716,True,21,1,1,6
PB002K22,6,322,AS,exp,33,↑,up,↑,0.41705639999418054,True,20,1,0,6
PB002K22,6,323,AS,exp,42,↓,no_key,no_letter,-1.0,False,20,-1,1,7
PB002K22,6,324,AS,exp,38,←,right,→,0.8172636000090279,False,21,-1,0,7
PB002K22,6,325,AS,exp,40,→,right,→,0.9020182000094792,True,22,-1,0,7
PB002K22,6,326,AS,exp,30,↓,down,↓,0.6736231000104453,True,22,1,1,8
PB002K22,6,327,AS,exp,40,↑,up,↑,0.8533962999936193,True,21,1,0,8
PB002K22,6,328,AS,exp,46,←,up,↑,1.5533583000069484,False,21,-1,1,9
PB002K22,6,329,AS,exp,28,↑,up,↑,0.600356599999941,True,22,-1,0,9
PB002K22,6,330,AS,exp,27,←,left,←,0.4837120000011055,True,22,1,1,10
PB002K22,6,331,AS,exp,47,→,right,→,0.6024359000002733,True,21,1,0,10
PB002K22,6,332,AS,exp,28,↑,left,←,0.4671705000073416,False,21,-1,1,11
PB002K22,6,333,AS,exp,45,←,left,←,0.7885646999930032,True,22,-1,0,11
PB002K22,6,334,AS,exp,40,→,right,→,0.7275819999922533,True,22,1,1,12
PB002K22,6,335,AS,exp,30,↓,down,↓,0.8833357999974396,True,21,1,0,12
PB002K22,6,336,AS,exp,41,←,down,↓,0.917012000005343,False,21,-1,1,13
PB002K22,6,337,AS,exp,49,↓,up,↑,0.48430880000523757,False,22,-1,0,13
PB002K22,6,338,AS,exp,46,↑,down,↓,0.5952342000091448,False,23,-1,0,13
PB002K22,6,339,AS,exp,25,→,down,↓,0.5337294000055408,False,24,-1,0,13
PB002K22,6,340,AS,exp,47,←,left,←,0.533551799991983,True,25,-1,0,13
PB002K22,6,341,AS,exp,35,↓,down,↓,0.6343015000020387,True,25,1,1,14
PB002K22,7,342,AS,intra_train,44,→,right,→,0.5671172000002116,True,28,-,-,-
PB002K22,7,343,AS,intra_train,48,↑,right,→,0.48361450000084005,False,28,-,-,-
PB002K22,7,344,AS,intra_train,35,←,left,←,0.45071160000225063,True,28,-,-,-
PB002K22,7,345,AS,intra_train,43,↓,down,↓,0.5838020999945002,True,28,-,-,-
PB002K22,7,346,AS,intra_train,44,↑,no_key,no_letter,-1.0,False,28,-,-,-
PB002K22,7,347,AS,exp,41,↓,down,↓,0.6434096000011778,True,19,0,0,0
PB002K22,7,348,AS,exp,31,→,right,→,0.5193469999940135,True,19,1,0,0
PB002K22,7,349,AS,exp,42,↓,down,↓,0.7003471999923931,True,18,1,0,0
PB002K22,7,350,AS,exp,45,↑,up,↑,0.4175309000129346,True,18,1,0,0
PB002K22,7,351,AS,exp,48,→,right,→,0.49198380000598263,True,17,1,0,0
PB002K22,7,352,AS,exp,46,↓,right,→,0.4735638999991352,False,17,-1,1,1
PB002K22,7,353,AS,exp,35,←,no_key,no_letter,-1.0,False,18,-1,0,1
PB002K22,7,354,AS,exp,34,→,left,←,0.43366530000639614,False,19,-1,0,1
PB002K22,7,355,AS,exp,27,←,right,→,0.6592538999975659,False,20,-1,0,1
PB002K22,7,356,AS,exp,41,→,right,→,0.5309355999925174,True,21,-1,0,1
PB002K22,7,357,AS,exp,46,↓,down,↓,0.6161075999989407,True,21,1,1,2
PB002K22,7,358,AS,exp,42,→,right,→,0.3838008000020636,True,20,1,0,2
PB002K22,7,359,AS,exp,38,←,left,←,0.6533007999969414,True,20,1,0,2
PB002K22,7,360,AS,exp,36,→,right,→,0.4170904999919003,True,19,1,0,2
PB002K22,7,361,AS,exp,36,↓,down,↓,0.5916370000049938,True,19,1,0,2
PB002K22,7,362,AS,exp,42,↑,down,↓,0.754231200000504,False,18,-1,1,3
PB002K22,7,363,AS,exp,29,→,right,→,0.7274257000099169,True,19,-1,0,3
PB002K22,7,364,AS,exp,36,↓,up,↑,0.7464075000025332,False,19,-1,0,3
PB002K22,7,365,AS,exp,41,←,right,→,0.6969084000011208,False,20,-1,0,3
PB002K22,7,366,AS,exp,37,↑,up,↑,1.035975499995402,True,21,-1,0,3
PB002K22,7,367,AS,exp,36,↓,down,↓,0.569442899999558,True,21,1,1,4
PB002K22,7,368,AS,exp,26,←,down,↓,0.7859999000065727,False,20,-1,1,5
PB002K22,7,369,AS,exp,47,↓,down,↓,0.7096173000027193,True,21,-1,0,5
PB002K22,7,370,AS,exp,32,→,right,→,0.4170788000046741,True,21,1,1,6
PB002K22,7,371,AS,exp,38,↓,down,↓,0.6440793999936432,True,20,1,0,6
PB002K22,7,372,AS,exp,30,→,right,→,0.7867970000079367,True,20,1,0,6
PB002K22,7,373,AS,exp,37,↑,up,↑,0.7226383999950485,True,19,1,0,6
PB002K22,7,374,AS,exp,42,→,no_key,no_letter,-1.0,False,19,-1,1,7
PB002K22,7,375,AS,exp,41,←,no_key,no_letter,-1.0,False,20,-1,0,7
PB002K22,7,376,AS,exp,32,↓,down,↓,0.6430015000078129,True,21,-1,0,7
PB002K22,7,377,AS,exp,48,↑,down,↓,0.7387938000028953,False,21,-1,0,7
PB002K22,7,378,AS,exp,27,←,right,→,0.6573267000057967,False,22,-1,0,7
PB002K22,7,379,AS,exp,26,→,right,→,0.7606697000010172,True,23,-1,0,7
PB002K22,7,380,AS,exp,34,←,left,←,0.4837969000072917,True,23,1,1,8
PB002K22,7,381,AS,exp,33,↓,right,→,0.926351700007217,False,22,-1,1,9
PB002K22,7,382,AS,exp,32,↑,no_key,no_letter,-1.0,False,23,-1,0,9
PB002K22,7,383,AS,exp,43,→,right,→,0.5167904000118142,True,24,-1,0,9
PB002K22,7,384,AS,exp,33,↓,up,↑,0.7952942999982042,False,24,-1,0,9
PB002K22,7,385,AS,exp,27,→,right,→,0.48379909999493975,True,25,-1,0,9
PB002K22,7,386,AS,exp,32,↓,down,↓,0.7809348000009777,True,25,1,1,10
PB002K22,7,387,AS,exp,31,↑,up,↑,0.8126396000006935,True,24,1,0,10
PB002K22,7,388,AS,exp,47,↓,down,↓,0.635961000007228,True,24,1,0,10
PB002K22,7,389,AS,exp,40,←,left,←,0.6419871999969473,True,23,1,0,10
PB002K22,7,390,AS,exp,37,→,right,→,0.6746160000038799,True,23,1,0,10
PB002K22,7,391,AS,exp,30,↑,no_key,no_letter,-1.0,False,22,-1,1,11
PB002K22,7,392,AS,exp,42,↓,down,↓,0.7488350000057835,True,23,-1,0,11
PB002K22,7,393,AS,exp,26,→,no_key,no_letter,-1.0,False,23,-1,0,11
PB002K22,7,394,AS,exp,47,↑,up,↑,0.8903837999969255,True,24,-1,0,11
PB002K22,7,395,AS,exp,50,→,right,→,0.4171774000133155,True,24,1,1,12
PB002K22,7,396,AS,exp,29,↓,down,↓,0.7994283000007272,True,23,1,0,12
PB002K22,7,397,AS,exp,32,→,right,→,0.6026188999967417,True,23,1,0,12
PB002K22,7,398,AS,exp,48,←,left,←,0.4337484000134282,True,22,1,0,12
PB002K22,7,399,AS,exp,44,↑,up,↑,0.9849166999920271,True,22,1,0,12
PB002K22,7,400,AS,exp,48,←,left,←,0.46687659999588504,True,21,1,0,12
PB002K22,7,401,AS,exp,25,↓,down,↓,0.6122108999988995,True,21,1,0,12
PB002K22,7,402,AS,exp,50,→,right,→,0.8496001000021352,True,20,1,0,12
PB002K22,7,403,AS,exp,34,←,left,←,0.43414470000425354,True,20,1,0,12
PB002K22,7,404,AS,exp,39,→,right,→,0.49163509999925736,True,19,1,0,12
PB002K22,7,405,AS,exp,36,↓,right,→,1.5585885000036797,False,19,-1,1,13
PB002K22,7,406,AS,exp,47,←,right,→,0.8928788999910466,False,20,-1,0,13
PB002K22,7,407,AS,exp,42,↓,right,→,1.8005994999984978,False,21,-1,0,13
PB002K22,7,408,AS,exp,50,←,left,←,0.6369982000032905,True,22,-1,0,13
PB002K22,7,409,AS,exp,40,↑,right,→,1.1611202000058256,False,22,-1,0,13
PB002K22,7,410,AS,exp,40,↓,down,↓,0.5003416999970796,True,23,-1,0,13
PB002K22,7,411,AS,exp,45,←,left,←,0.500989500011201,True,23,1,1,14
PB002K22,8,412,PS,intra_train,45,→,right,→,0.407173600004171,True,13,-,-,-
PB002K22,8,413,PS,intra_train,46,←,left,←,0.48586400000203867,True,13,-,-,-
PB002K22,8,414,PS,intra_train,45,↓,down,↓,0.6988285999977961,True,13,-,-,-
PB002K22,8,415,PS,intra_train,29,←,left,←,0.4305893999990076,True,13,-,-,-
PB002K22,8,416,PS,intra_train,39,↓,right,→,0.8332565999880899,False,13,-,-,-
PB002K22,8,417,PS,exp,50,↑,up,↑,0.624080599998706,True,9,0,0,0
PB002K22,8,418,PS,exp,35,↓,left,←,0.8171843999880366,False,9,-1,0,0
PB002K22,8,419,PS,exp,36,←,left,←,0.6417840999929467,True,10,-1,0,0
PB002K22,8,420,PS,exp,34,→,right,→,0.47644389999913983,True,10,1,1,1
PB002K22,8,421,PS,exp,43,←,down,↓,1.0658240000047954,False,9,-1,1,2
PB002K22,8,422,PS,exp,32,↑,up,↑,0.5369170999911148,True,10,-1,0,2
PB002K22,8,423,PS,exp,38,←,left,←,0.4500162000040291,True,10,1,1,3
PB002K22,8,424,PS,exp,30,↑,up,↑,0.6744066999963252,True,9,1,0,3
PB002K22,8,425,PS,exp,29,↓,down,↓,0.4016881999996258,True,9,1,0,3
PB002K22,8,426,PS,exp,49,↑,down,↓,0.7228344000031939,False,8,-1,1,4
PB002K22,8,427,PS,exp,41,←,down,↓,0.5783952999918256,False,9,-1,0,4
PB002K22,8,428,PS,exp,34,↓,right,→,1.4009895000053803,False,10,-1,0,4
PB002K22,8,429,PS,exp,35,←,right,→,0.8823067999910563,False,11,-1,0,4
PB002K22,8,430,PS,exp,42,↑,up,↑,0.6491629000083776,True,12,-1,0,4
PB002K22,8,431,PS,exp,50,→,right,→,0.45840960000350606,True,12,1,1,5
PB002K22,8,432,PS,exp,44,↓,right,→,0.7516876000008779,False,11,-1,1,6
PB002K22,8,433,PS,exp,49,↑,right,→,0.7845703000057256,False,12,-1,0,6
PB002K22,8,434,PS,exp,37,↓,down,↓,0.6449082999897655,True,13,-1,0,6
PB002K22,8,435,PS,exp,31,←,left,←,0.5031697000085842,True,13,1,1,7
PB002K22,8,436,PS,exp,25,↓,down,↓,0.5253917000081856,True,12,1,0,7
PB002K22,8,437,PS,exp,30,↑,up,↑,0.5340743000124348,True,12,1,0,7
PB002K22,8,438,PS,exp,49,→,no_key,no_letter,-1.0,False,11,-1,1,8
PB002K22,8,439,PS,exp,26,↓,no_key,no_letter,-1.0,False,12,-1,0,8
PB002K22,8,440,PS,exp,50,→,right,→,1.5846231000032276,True,13,-1,0,8
PB002K22,8,441,PS,exp,43,↓,down,↓,0.7025930999952834,True,13,1,1,9
PB002K22,8,442,PS,exp,41,→,right,→,0.5580835999862757,True,12,1,0,9
PB002K22,8,443,PS,exp,39,↑,up,↑,0.7227593999996316,True,12,1,0,9
PB002K22,8,444,PS,exp,44,→,right,→,0.6966534000093816,True,11,1,0,9
PB002K22,8,445,PS,exp,42,↑,up,↑,0.6897516000026371,True,11,1,0,9
PB002K22,8,446,PS,exp,40,←,right,→,1.1603461999911815,False,10,-1,1,10
PB002K22,8,447,PS,exp,39,↑,right,→,0.8915385000000242,False,11,-1,0,10
PB002K22,8,448,PS,exp,39,→,left,←,0.7830369000002975,False,12,-1,0,10
PB002K22,8,449,PS,exp,46,↑,up,↑,0.6394776000088314,True,13,-1,0,10
PB002K22,8,450,PS,exp,28,←,up,↑,0.6171218000090448,False,13,-1,0,10
PB002K22,8,451,PS,exp,50,→,right,→,0.47900650001247413,True,14,-1,0,10
PB002K22,8,452,PS,exp,40,←,left,←,0.43018779999692924,True,14,1,1,11
PB002K22,8,453,PS,exp,26,↑,up,↑,0.45038819999899715,True,13,1,0,11
PB002K22,8,454,PS,exp,39,↓,down,↓,0.5227499000029638,True,13,1,0,11
PB002K22,8,455,PS,exp,27,←,left,←,0.5026198999985354,True,12,1,0,11
PB002K22,8,456,PS,exp,26,↑,up,↑,0.42426670000713784,True,12,1,0,11
PB002K22,8,457,PS,exp,33,←,right,→,0.7612522999988869,False,11,-1,1,12
PB002K22,8,458,PS,exp,44,↑,up,↑,0.41883660000166856,True,12,-1,0,12
PB002K22,8,459,PS,exp,30,←,left,←,0.7593491000006907,True,12,1,1,13
PB002K22,8,460,PS,exp,33,↓,right,→,0.4621927000116557,False,11,-1,1,14
