PART_ID,Block_no,Trial_no,Block_type,Trial_type,CSI,Stim_letter,Key_pressed,letter_choose,Rt,Corr,Stimulus Time,Level,Reversal,Revs_count
PB008M22,1,1,PS,train,31,←,left,←,0.7967358999885619,True,30,-,-,-
PB008M22,1,2,PS,train,35,↓,down,↓,1.243382600019686,True,30,-,-,-
PB008M22,1,3,PS,train,45,←,left,←,1.8791675999818835,True,30,-,-,-
PB008M22,1,4,PS,train,50,↓,down,↓,0.7463593000138644,True,30,-,-,-
PB008M22,1,5,PS,train,26,→,right,→,0.633798900002148,True,30,-,-,-
PB008M22,1,6,PS,train,46,←,left,←,0.5839392000052612,True,30,-,-,-
PB008M22,1,7,PS,train,35,↑,up,↑,0.6004105000174604,True,30,-,-,-
PB008M22,1,8,PS,train,34,←,left,←,0.5671523000055458,True,30,-,-,-
PB008M22,1,9,PS,train,45,↑,up,↑,0.5672249000053853,True,30,-,-,-
PB008M22,1,10,PS,train,38,←,left,←,0.5838221000158228,True,30,-,-,-
PB008M22,2,11,AS,train,37,↑,no_key,no_letter,-1.0,False,45,-,-,-
PB008M22,2,12,AS,train,39,→,right,→,0.8005003000143915,True,45,-,-,-
PB008M22,2,13,AS,train,50,↓,down,↓,1.3266383000009228,True,45,-,-,-
PB008M22,2,14,AS,train,40,↑,up,↑,0.8172077999915928,True,45,-,-,-
PB008M22,2,15,AS,train,28,←,left,←,0.7338445000059437,True,45,-,-,-
PB008M22,2,16,AS,train,49,→,right,→,1.2350878000142984,True,45,-,-,-
PB008M22,2,17,AS,train,46,↓,down,↓,1.4716609000170138,True,45,-,-,-
PB008M22,2,18,AS,train,26,↑,up,↑,0.8340181999956258,True,45,-,-,-
PB008M22,2,19,AS,train,44,→,right,→,0.7839670999965165,True,45,-,-,-
PB008M22,2,20,AS,train,38,↓,down,↓,0.9212051999929827,True,45,-,-,-
PB008M22,-,21,PS,adaptive,29,←,no_key,no_letter,-1.0,False,10,-1,0,0
PB008M22,-,22,PS,adaptive,43,↓,down,↓,0.9759357000002638,True,11,-1,0,0
PB008M22,-,23,PS,adaptive,27,↑,down,↓,1.4529810999811161,False,11,-1,0,0
PB008M22,-,24,PS,adaptive,46,→,right,→,0.7227052000234835,True,12,-1,0,0
PB008M22,-,25,PS,adaptive,45,↓,down,↓,1.4440164999978151,True,12,1,1,1
PB008M22,-,26,PS,adaptive,28,←,left,←,0.6254706000036094,True,11,1,0,1
PB008M22,-,27,PS,adaptive,37,→,down,↓,1.5151655999943614,False,11,-1,1,2
PB008M22,-,28,PS,adaptive,32,↓,down,↓,0.8716516999993473,True,12,-1,0,2
PB008M22,-,29,PS,adaptive,25,→,right,→,1.0091696000017691,True,12,1,1,3
PB008M22,-,30,PS,adaptive,49,↑,up,↑,0.8653913000016473,True,11,1,0,3
PB008M22,-,31,PS,adaptive,35,↓,left,←,1.7054670999932569,False,11,-1,1,4
PB008M22,-,32,AS,adaptive,28,↑,left,←,1.2802807999833021,False,20,-1,0,0
PB008M22,-,33,AS,adaptive,32,←,left,←,0.9186373999982607,True,21,-1,0,0
PB008M22,-,34,AS,adaptive,25,↑,up,↑,0.8447220999805722,True,21,1,1,1
PB008M22,-,35,AS,adaptive,27,←,left,←,0.799338099983288,True,20,1,0,1
PB008M22,-,36,AS,adaptive,25,↓,down,↓,1.9466860000102315,True,20,1,0,1
PB008M22,-,37,AS,adaptive,30,←,left,←,1.176473499974236,True,19,1,0,1
PB008M22,-,38,AS,adaptive,30,↑,up,↑,0.9338430000061635,True,19,1,0,1
PB008M22,-,39,AS,adaptive,38,←,right,→,1.5362100999918766,False,18,-1,1,2
PB008M22,-,40,AS,adaptive,34,→,right,→,0.7807595999911427,True,19,-1,0,2
PB008M22,-,41,AS,adaptive,48,←,down,↓,1.5672442999784835,False,19,-1,0,2
PB008M22,-,42,AS,adaptive,26,↑,up,↑,0.8162975999875925,True,20,-1,0,2
PB008M22,-,43,AS,adaptive,29,↓,down,↓,1.2994038999895565,True,20,1,1,3
PB008M22,-,44,AS,adaptive,39,←,left,←,0.7980819999938831,True,19,1,0,3
PB008M22,-,45,AS,adaptive,50,↑,no_key,no_letter,-1.0,False,19,-1,1,4
PB008M22,1,46,PS,intra_train,50,←,left,←,0.6554699999978766,True,18,-,-,-
PB008M22,1,47,PS,intra_train,43,→,right,→,0.7428810999845155,True,18,-,-,-
PB008M22,1,48,PS,intra_train,47,←,left,←,0.4788076000113506,True,18,-,-,-
PB008M22,1,49,PS,intra_train,41,↑,up,↑,0.570273699995596,True,18,-,-,-
PB008M22,1,50,PS,intra_train,30,←,left,←,0.4889108999923337,True,18,-,-,-
PB008M22,1,51,PS,exp,27,→,right,→,0.6068624000181444,True,12,0,0,0
PB008M22,1,52,PS,exp,29,↓,down,↓,0.8939363000099547,True,12,1,0,0
PB008M22,1,53,PS,exp,47,→,right,→,0.9950270999979693,True,11,1,0,0
PB008M22,1,54,PS,exp,26,←,left,←,0.8541798999940511,True,11,1,0,0
PB008M22,1,55,PS,exp,34,→,right,→,1.4180218999972567,True,10,1,0,0
PB008M22,1,56,PS,exp,39,↓,down,↓,0.7421526999969501,True,10,1,0,0
PB008M22,1,57,PS,exp,41,↑,no_key,no_letter,-1.0,False,9,-1,1,1
PB008M22,1,58,PS,exp,41,→,no_key,no_letter,-1.0,False,10,-1,0,1
PB008M22,1,59,PS,exp,50,↓,down,↓,0.7544705000182148,True,11,-1,0,1
PB008M22,1,60,PS,exp,34,←,left,←,0.5968063999898732,True,11,1,1,2
PB008M22,1,61,PS,exp,31,↓,down,↓,0.732373800012283,True,10,1,0,2
PB008M22,1,62,PS,exp,31,↑,up,↑,0.7521042000153102,True,10,1,0,2
PB008M22,1,63,PS,exp,31,←,left,←,0.7930158999806736,True,9,1,0,2
PB008M22,1,64,PS,exp,40,↑,up,↑,1.4982798999990337,True,9,1,0,2
PB008M22,1,65,PS,exp,39,→,no_key,no_letter,-1.0,False,8,-1,1,3
PB008M22,1,66,PS,exp,27,↓,down,↓,0.6550380999979097,True,9,-1,0,3
PB008M22,1,67,PS,exp,38,↑,down,↓,1.4748766999982763,False,9,-1,0,3
PB008M22,1,68,PS,exp,48,→,left,←,1.0070967000210658,False,10,-1,0,3
PB008M22,1,69,PS,exp,45,←,left,←,0.84860219998518,True,11,-1,0,3
PB008M22,1,70,PS,exp,49,↓,down,↓,1.2406532999884803,True,11,1,1,4
PB008M22,1,71,PS,exp,46,←,left,←,0.6019772999861743,True,10,1,0,4
PB008M22,1,72,PS,exp,28,↑,no_key,no_letter,-1.0,False,10,-1,1,5
PB008M22,1,73,PS,exp,35,←,left,←,0.7018158000137191,True,11,-1,0,5
PB008M22,1,74,PS,exp,40,↑,up,↑,0.6141752000257839,True,11,1,1,6
PB008M22,1,75,PS,exp,31,←,left,←,0.6302942000038456,True,10,1,0,6
PB008M22,1,76,PS,exp,40,↓,no_key,no_letter,-1.0,False,10,-1,1,7
PB008M22,1,77,PS,exp,39,→,no_key,no_letter,-1.0,False,11,-1,0,7
PB008M22,1,78,PS,exp,48,↑,up,↑,0.7845122999860905,True,12,-1,0,7
PB008M22,1,79,PS,exp,31,→,right,→,0.8192694000026677,True,12,1,1,8
PB008M22,1,80,PS,exp,26,↑,left,←,0.8830531999992672,False,11,-1,1,9
PB008M22,1,81,PS,exp,32,↓,down,↓,0.9567031000042334,True,12,-1,0,9
PB008M22,1,82,PS,exp,35,↑,no_key,no_letter,-1.0,False,12,-1,0,9
PB008M22,1,83,PS,exp,44,→,right,→,0.9715269000153057,True,13,-1,0,9
PB008M22,1,84,PS,exp,38,↑,up,↑,0.6716691000037827,True,13,1,1,10
PB008M22,1,85,PS,exp,41,→,right,→,0.5920461000059731,True,12,1,0,10
PB008M22,1,86,PS,exp,25,←,no_key,no_letter,-1.0,False,12,-1,1,11
PB008M22,1,87,PS,exp,39,↑,up,↑,0.878707800002303,True,13,-1,0,11
PB008M22,1,88,PS,exp,42,←,left,←,0.5783416999911424,True,13,1,1,12
PB008M22,1,89,PS,exp,26,↑,no_key,no_letter,-1.0,False,12,-1,1,13
PB008M22,1,90,PS,exp,25,→,right,→,0.5116277000051923,True,13,-1,0,13
PB008M22,1,91,PS,exp,28,←,left,←,0.7163486999925226,True,13,1,1,14
PB008M22,2,92,AS,intra_train,25,↑,no_key,no_letter,-1.0,False,30,-,-,-
PB008M22,2,93,AS,intra_train,43,↓,down,↓,0.9793145000003278,True,30,-,-,-
PB008M22,2,94,AS,intra_train,49,→,right,→,0.7845274999854155,True,30,-,-,-
PB008M22,2,95,AS,intra_train,39,↑,up,↑,0.9734403000038583,True,30,-,-,-
PB008M22,2,96,AS,intra_train,27,←,left,←,0.794293299986748,True,30,-,-,-
PB008M22,2,97,AS,exp,43,→,left,←,1.9255790000024717,False,20,-1,0,0
PB008M22,2,98,AS,exp,44,←,right,→,0.8439195000100881,False,21,-1,0,0
PB008M22,2,99,AS,exp,44,↑,up,↑,0.6578682999825105,True,22,-1,0,0
PB008M22,2,100,AS,exp,40,↓,down,↓,0.8628484999935608,True,22,1,1,1
PB008M22,2,101,AS,exp,38,→,right,→,0.7703536000044551,True,21,1,0,1
PB008M22,2,102,AS,exp,47,↑,up,↑,0.7391434999881312,True,21,1,0,1
PB008M22,2,103,AS,exp,41,→,right,→,0.7683650999970268,True,20,1,0,1
PB008M22,2,104,AS,exp,34,↓,no_key,no_letter,-1.0,False,20,-1,1,2
PB008M22,2,105,AS,exp,43,→,right,→,0.7112123999977484,True,21,-1,0,2
PB008M22,2,106,AS,exp,39,↓,no_key,no_letter,-1.0,False,21,-1,0,2
PB008M22,2,107,AS,exp,50,←,left,←,0.7802872000029311,True,22,-1,0,2
PB008M22,2,108,AS,exp,29,↑,up,↑,1.0080579999776091,True,22,1,1,3
PB008M22,2,109,AS,exp,45,←,left,←,0.7122720000043046,True,21,1,0,3
PB008M22,2,110,AS,exp,29,↑,up,↑,0.43342510002548806,True,21,1,0,3
PB008M22,2,111,AS,exp,48,←,no_key,no_letter,-1.0,False,20,-1,1,4
PB008M22,2,112,AS,exp,38,↑,up,↑,0.5265377000032458,True,21,-1,0,4
PB008M22,2,113,AS,exp,27,↓,up,↑,1.3478381000168156,False,21,-1,0,4
PB008M22,2,114,AS,exp,47,→,no_key,no_letter,-1.0,False,22,-1,0,4
PB008M22,2,115,AS,exp,45,↓,down,↓,0.8671468000102323,True,23,-1,0,4
PB008M22,2,116,AS,exp,33,→,right,→,0.8596980999864172,True,23,1,1,5
PB008M22,2,117,AS,exp,33,↓,down,↓,0.7685822999919765,True,22,1,0,5
PB008M22,2,118,AS,exp,49,↑,up,↑,0.7191474999999627,True,22,1,0,5
PB008M22,2,119,AS,exp,40,←,left,←,0.931410599994706,True,21,1,0,5
PB008M22,2,120,AS,exp,28,↓,up,↑,0.925025700009428,False,21,-1,1,6
PB008M22,2,121,AS,exp,25,←,left,←,0.5775690999871586,True,22,-1,0,6
PB008M22,2,122,AS,exp,35,↑,up,↑,0.5472111999988556,True,22,1,1,7
PB008M22,2,123,AS,exp,50,→,no_key,no_letter,-1.0,False,21,-1,1,8
PB008M22,2,124,AS,exp,48,↓,up,↑,0.8914195999968797,False,22,-1,0,8
PB008M22,2,125,AS,exp,30,←,no_key,no_letter,-1.0,False,23,-1,0,8
PB008M22,2,126,AS,exp,31,↑,up,↑,0.7619063000020105,True,24,-1,0,8
PB008M22,2,127,AS,exp,30,↓,down,↓,0.6280439999827649,True,24,1,1,9
PB008M22,2,128,AS,exp,32,←,left,←,0.6546583999879658,True,23,1,0,9
PB008M22,2,129,AS,exp,34,→,no_key,no_letter,-1.0,False,23,-1,1,10
PB008M22,2,130,AS,exp,45,←,left,←,1.4959910000034142,True,24,-1,0,10
PB008M22,2,131,AS,exp,28,↑,up,↑,0.7419719999888912,True,24,1,1,11
PB008M22,2,132,AS,exp,48,→,right,→,0.6229577999911271,True,23,1,0,11
PB008M22,2,133,AS,exp,40,↑,no_key,no_letter,-1.0,False,23,-1,1,12
PB008M22,2,134,AS,exp,40,→,right,→,0.7517273999983445,True,24,-1,0,12
PB008M22,2,135,AS,exp,30,←,left,←,0.7933980000088923,True,24,1,1,13
PB008M22,2,136,AS,exp,33,→,left,←,1.0101402000000235,False,23,-1,1,14
PB008M22,3,137,AS,intra_train,35,↑,no_key,no_letter,-1.0,False,30,-,-,-
PB008M22,3,138,AS,intra_train,27,←,left,←,0.6332641000044532,True,30,-,-,-
PB008M22,3,139,AS,intra_train,28,↑,no_key,no_letter,-1.0,False,30,-,-,-
PB008M22,3,140,AS,intra_train,47,↓,down,↓,1.0658089000207838,True,30,-,-,-
PB008M22,3,141,AS,intra_train,45,→,right,→,0.8637400000006892,True,30,-,-,-
PB008M22,3,142,AS,exp,37,←,left,←,0.7223706000077073,True,20,0,0,0
PB008M22,3,143,AS,exp,42,↑,up,↑,0.9197990999964532,True,20,1,0,0
PB008M22,3,144,AS,exp,48,↓,down,↓,0.9357854000118095,True,19,1,0,0
PB008M22,3,145,AS,exp,46,↑,up,↑,0.7729867000016384,True,19,1,0,0
PB008M22,3,146,AS,exp,35,↓,down,↓,0.8419831000210252,True,18,1,0,0
PB008M22,3,147,AS,exp,34,↑,up,↑,0.9360888999945018,True,18,1,0,0
PB008M22,3,148,AS,exp,39,→,right,→,0.839474300009897,True,17,1,0,0
PB008M22,3,149,AS,exp,46,↑,up,↑,0.8664787000161596,True,17,1,0,0
PB008M22,3,150,AS,exp,36,→,right,→,0.8369227999937721,True,16,1,0,0
PB008M22,3,151,AS,exp,25,←,left,←,0.7717764000117313,True,16,1,0,0
PB008M22,3,152,AS,exp,28,↑,no_key,no_letter,-1.0,False,15,-1,1,1
PB008M22,3,153,AS,exp,31,↓,down,↓,0.848593400005484,True,16,-1,0,1
PB008M22,3,154,AS,exp,30,↑,up,↑,0.8968826999771409,True,16,1,1,2
PB008M22,3,155,AS,exp,49,→,right,→,0.9986175000085495,True,15,1,0,2
PB008M22,3,156,AS,exp,25,↓,down,↓,1.8623417999770027,True,15,1,0,2
PB008M22,3,157,AS,exp,25,→,no_key,no_letter,-1.0,False,14,-1,1,3
PB008M22,3,158,AS,exp,29,↑,no_key,no_letter,-1.0,False,15,-1,0,3
PB008M22,3,159,AS,exp,34,→,no_key,no_letter,-1.0,False,16,-1,0,3
PB008M22,3,160,AS,exp,46,↑,no_key,no_letter,-1.0,False,17,-1,0,3
PB008M22,3,161,AS,exp,36,↓,down,↓,0.945770199992694,True,18,-1,0,3
PB008M22,3,162,AS,exp,49,↑,no_key,no_letter,-1.0,False,18,-1,0,3
PB008M22,3,163,AS,exp,48,→,no_key,no_letter,-1.0,False,19,-1,0,3
PB008M22,3,164,AS,exp,41,←,left,←,0.7062995000160299,True,20,-1,0,3
PB008M22,3,165,AS,exp,25,↑,up,↑,0.7684969999827445,True,20,1,1,4
PB008M22,3,166,AS,exp,46,↓,down,↓,0.7577051999978721,True,19,1,0,4
PB008M22,3,167,AS,exp,44,↑,up,↑,0.7378808000066783,True,19,1,0,4
PB008M22,3,168,AS,exp,25,→,right,→,0.700577700015856,True,18,1,0,4
PB008M22,3,169,AS,exp,39,↓,down,↓,0.7433272000052966,True,18,1,0,4
PB008M22,3,170,AS,exp,40,←,left,←,0.6722139000194147,True,17,1,0,4
PB008M22,3,171,AS,exp,43,↑,no_key,no_letter,-1.0,False,17,-1,1,5
PB008M22,3,172,AS,exp,44,→,right,→,0.6499023000069428,True,18,-1,0,5
PB008M22,3,173,AS,exp,47,↑,right,→,0.5592902999778744,False,18,-1,0,5
PB008M22,3,174,AS,exp,35,↓,down,↓,0.6186734999937471,True,19,-1,0,5
PB008M22,3,175,AS,exp,34,←,no_key,no_letter,-1.0,False,19,-1,0,5
PB008M22,3,176,AS,exp,46,→,right,→,0.6434626000118442,True,20,-1,0,5
PB008M22,3,177,AS,exp,36,←,left,←,0.7281538000097498,True,20,1,1,6
PB008M22,3,178,AS,exp,38,→,right,→,0.9587557999766432,True,19,1,0,6
PB008M22,3,179,AS,exp,33,←,left,←,0.7767179000074975,True,19,1,0,6
PB008M22,3,180,AS,exp,25,↓,no_key,no_letter,-1.0,False,18,-1,1,7
PB008M22,3,181,AS,exp,34,↑,up,↑,0.8708775000122841,True,19,-1,0,7
PB008M22,3,182,AS,exp,47,→,right,→,0.811427199980244,True,19,1,1,8
PB008M22,3,183,AS,exp,43,↓,down,↓,0.8089035999728367,True,18,1,0,8
PB008M22,3,184,AS,exp,30,↑,up,↑,0.6263042000064161,True,18,1,0,8
PB008M22,3,185,AS,exp,48,←,no_key,no_letter,-1.0,False,17,-1,1,9
PB008M22,3,186,AS,exp,25,↑,no_key,no_letter,-1.0,False,18,-1,0,9
PB008M22,3,187,AS,exp,37,←,no_key,no_letter,-1.0,False,19,-1,0,9
PB008M22,3,188,AS,exp,31,↑,up,↑,0.640619300014805,True,20,-1,0,9
PB008M22,3,189,AS,exp,37,→,no_key,no_letter,-1.0,False,20,-1,0,9
PB008M22,3,190,AS,exp,37,←,left,←,0.5287684999930207,True,21,-1,0,9
PB008M22,3,191,AS,exp,41,→,no_key,no_letter,-1.0,False,21,-1,0,9
PB008M22,3,192,AS,exp,41,←,left,←,0.6289036000089254,True,22,-1,0,9
PB008M22,3,193,AS,exp,30,↓,down,↓,0.8639095999824349,True,22,1,1,10
PB008M22,3,194,AS,exp,28,↑,no_key,no_letter,-1.0,False,21,-1,1,11
PB008M22,3,195,AS,exp,42,→,right,→,0.5709591000049841,True,22,-1,0,11
PB008M22,3,196,AS,exp,35,←,left,←,0.7357202999992296,True,22,1,1,12
PB008M22,3,197,AS,exp,42,↓,no_key,no_letter,-1.0,False,21,-1,1,13
PB008M22,3,198,AS,exp,40,↑,up,↑,0.6981665000203066,True,22,-1,0,13
PB008M22,3,199,AS,exp,50,→,right,→,0.9130079000024125,True,22,1,1,14
PB008M22,4,200,PS,intra_train,40,↓,down,↓,0.8574467999860644,True,18,-,-,-
PB008M22,4,201,PS,intra_train,26,→,right,→,0.5173875000036787,True,18,-,-,-
PB008M22,4,202,PS,intra_train,28,↑,up,↑,0.5325077000015881,True,18,-,-,-
PB008M22,4,203,PS,intra_train,34,↓,down,↓,0.6734923999756575,True,18,-,-,-
PB008M22,4,204,PS,intra_train,44,→,right,→,0.5806596000038553,True,18,-,-,-
PB008M22,4,205,PS,exp,26,←,left,←,0.7565024000068661,True,12,0,0,0
PB008M22,4,206,PS,exp,43,→,right,→,0.7052183000196237,True,12,1,0,0
PB008M22,4,207,PS,exp,28,↓,down,↓,1.0863202000036836,True,11,1,0,0
PB008M22,4,208,PS,exp,41,→,left,←,0.7350289000023622,False,11,-1,1,1
PB008M22,4,209,PS,exp,38,←,left,←,0.488348999992013,True,12,-1,0,1
PB008M22,4,210,PS,exp,46,↓,down,↓,0.7392487000033725,True,12,1,1,2
PB008M22,4,211,PS,exp,37,←,left,←,0.6362113999784924,True,11,1,0,2
PB008M22,4,212,PS,exp,44,↓,left,←,1.393173199990997,False,11,-1,1,3
PB008M22,4,213,PS,exp,25,↑,no_key,no_letter,-1.0,False,12,-1,0,3
PB008M22,4,214,PS,exp,46,←,left,←,0.6184592999925371,True,13,-1,0,3
PB008M22,4,215,PS,exp,48,↑,up,↑,0.628272299974924,True,13,1,1,4
PB008M22,4,216,PS,exp,39,↓,down,↓,0.7041218999947887,True,12,1,0,4
PB008M22,4,217,PS,exp,50,←,left,←,0.6620659000182059,True,12,1,0,4
PB008M22,4,218,PS,exp,36,↓,down,↓,0.4933115000021644,True,11,1,0,4
PB008M22,4,219,PS,exp,40,↑,up,↑,0.8322259999986272,True,11,1,0,4
PB008M22,4,220,PS,exp,38,↓,down,↓,0.8676603000203613,True,10,1,0,4
PB008M22,4,221,PS,exp,42,→,no_key,no_letter,-1.0,False,10,-1,1,5
PB008M22,4,222,PS,exp,27,↑,no_key,no_letter,-1.0,False,11,-1,0,5
PB008M22,4,223,PS,exp,50,↓,down,↓,0.6246647000079975,True,12,-1,0,5
PB008M22,4,224,PS,exp,40,↑,up,↑,0.6544563999923412,True,12,1,1,6
PB008M22,4,225,PS,exp,25,←,right,→,0.8395005000056699,False,11,-1,1,7
PB008M22,4,226,PS,exp,29,↑,up,↑,0.6344852999900468,True,12,-1,0,7
PB008M22,4,227,PS,exp,34,→,no_key,no_letter,-1.0,False,12,-1,0,7
PB008M22,4,228,PS,exp,30,↑,up,↑,0.549351800000295,True,13,-1,0,7
PB008M22,4,229,PS,exp,37,↓,down,↓,0.49366330000339076,True,13,1,1,8
PB008M22,4,230,PS,exp,32,←,left,←,0.5887599999841768,True,12,1,0,8
PB008M22,4,231,PS,exp,28,→,no_key,no_letter,-1.0,False,12,-1,1,9
PB008M22,4,232,PS,exp,27,←,no_key,no_letter,-1.0,False,13,-1,0,9
PB008M22,4,233,PS,exp,43,→,no_key,no_letter,-1.0,False,14,-1,0,9
PB008M22,4,234,PS,exp,46,↑,up,↑,0.7581945999991149,True,15,-1,0,9
PB008M22,4,235,PS,exp,27,→,right,→,1.1891101999790408,True,15,1,1,10
PB008M22,4,236,PS,exp,47,←,left,←,1.5838234999973793,True,14,1,0,10
PB008M22,4,237,PS,exp,37,↑,up,↑,0.9203982000180986,True,14,1,0,10
PB008M22,4,238,PS,exp,37,↓,left,←,1.0451727000181563,False,13,-1,1,11
PB008M22,4,239,PS,exp,37,↑,no_key,no_letter,-1.0,False,14,-1,0,11
PB008M22,4,240,PS,exp,49,↓,right,→,1.7557600000000093,False,15,-1,0,11
PB008M22,4,241,PS,exp,39,←,left,←,0.5108612000185531,True,16,-1,0,11
PB008M22,4,242,PS,exp,36,→,right,→,0.5773890000127722,True,16,1,1,12
PB008M22,4,243,PS,exp,49,←,left,←,0.7568039000034332,True,15,1,0,12
PB008M22,4,244,PS,exp,26,→,right,→,0.5391858000075445,True,15,1,0,12
PB008M22,4,245,PS,exp,27,↑,up,↑,0.4907311999995727,True,14,1,0,12
PB008M22,4,246,PS,exp,42,↓,down,↓,0.6736260000034235,True,14,1,0,12
PB008M22,4,247,PS,exp,49,→,left,←,0.38894999999320135,False,13,-1,1,13
PB008M22,4,248,PS,exp,43,↓,down,↓,0.5970185000041965,True,14,-1,0,13
PB008M22,4,249,PS,exp,48,↑,down,↓,0.6939771999896038,False,14,-1,0,13
PB008M22,4,250,PS,exp,29,←,right,→,0.8213626999931876,False,15,-1,0,13
PB008M22,4,251,PS,exp,34,↓,down,↓,0.6905966000049375,True,16,-1,0,13
PB008M22,4,252,PS,exp,46,←,left,←,0.5556289000087418,True,16,1,1,14
PB008M22,5,253,PS,intra_train,25,→,right,→,0.6430362999963108,True,18,-,-,-
PB008M22,5,254,PS,intra_train,25,↓,down,↓,0.524286600004416,True,18,-,-,-
PB008M22,5,255,PS,intra_train,42,←,left,←,0.6145608999941032,True,18,-,-,-
PB008M22,5,256,PS,intra_train,31,↓,down,↓,0.5502568999945652,True,18,-,-,-
PB008M22,5,257,PS,intra_train,48,↑,up,↑,0.7051771000260487,True,18,-,-,-
PB008M22,5,258,PS,exp,32,→,no_key,no_letter,-1.0,False,12,-1,0,0
PB008M22,5,259,PS,exp,49,↓,down,↓,0.5764140000101179,True,13,-1,0,0
PB008M22,5,260,PS,exp,43,←,no_key,no_letter,-1.0,False,13,-1,0,0
PB008M22,5,261,PS,exp,34,↑,up,↑,0.696309699997073,True,14,-1,0,0
PB008M22,5,262,PS,exp,27,←,left,←,0.9321583999844734,True,14,1,1,1
PB008M22,5,263,PS,exp,25,↓,down,↓,0.5263260999927297,True,13,1,0,1
PB008M22,5,264,PS,exp,45,↑,up,↑,0.6287259999953676,True,13,1,0,1
PB008M22,5,265,PS,exp,36,→,right,→,0.7150602999900002,True,12,1,0,1
PB008M22,5,266,PS,exp,50,↑,up,↑,0.6045122999930754,True,12,1,0,1
PB008M22,5,267,PS,exp,30,←,left,←,0.5528177000232972,True,11,1,0,1
PB008M22,5,268,PS,exp,50,→,right,→,0.7134300000034273,True,11,1,0,1
PB008M22,5,269,PS,exp,44,←,left,←,0.4876529000175651,True,10,1,0,1
PB008M22,5,270,PS,exp,49,→,right,→,0.6207109999959357,True,10,1,0,1
PB008M22,5,271,PS,exp,50,↑,up,↑,0.5381236000102945,True,9,1,0,1
PB008M22,5,272,PS,exp,47,←,left,←,0.5533821000135504,True,9,1,0,1
PB008M22,5,273,PS,exp,38,→,left,←,0.6868368000141345,False,8,-1,1,2
PB008M22,5,274,PS,exp,30,↑,up,↑,1.6696226999920327,True,9,-1,0,2
PB008M22,5,275,PS,exp,26,↓,down,↓,0.6795197000028566,True,9,1,1,3
PB008M22,5,276,PS,exp,45,←,no_key,no_letter,-1.0,False,8,-1,1,4
PB008M22,5,277,PS,exp,40,→,no_key,no_letter,-1.0,False,9,-1,0,4
PB008M22,5,278,PS,exp,46,↑,up,↑,0.6088640999805648,True,10,-1,0,4
PB008M22,5,279,PS,exp,41,↓,up,↑,0.8031282000010833,False,10,-1,0,4
PB008M22,5,280,PS,exp,42,↑,up,↑,0.6664364000025671,True,11,-1,0,4
PB008M22,5,281,PS,exp,44,←,left,←,0.5732940000016242,True,11,1,1,5
PB008M22,5,282,PS,exp,48,↓,down,↓,0.6801904000167269,True,10,1,0,5
PB008M22,5,283,PS,exp,31,→,no_key,no_letter,-1.0,False,10,-1,1,6
PB008M22,5,284,PS,exp,38,↑,no_key,no_letter,-1.0,False,11,-1,0,6
PB008M22,5,285,PS,exp,49,→,right,→,1.498095299990382,True,12,-1,0,6
PB008M22,5,286,PS,exp,25,↓,no_key,no_letter,-1.0,False,12,-1,0,6
PB008M22,5,287,PS,exp,38,→,right,→,0.8425871999934316,True,13,-1,0,6
PB008M22,5,288,PS,exp,36,↓,down,↓,0.8023239999893121,True,13,1,1,7
PB008M22,5,289,PS,exp,35,↑,no_key,no_letter,-1.0,False,12,-1,1,8
PB008M22,5,290,PS,exp,45,→,right,→,0.5478814999805763,True,13,-1,0,8
PB008M22,5,291,PS,exp,42,↓,down,↓,0.7629184999968857,True,13,1,1,9
PB008M22,5,292,PS,exp,26,←,left,←,0.594801200000802,True,12,1,0,9
PB008M22,5,293,PS,exp,32,↑,up,↑,0.6498782000271603,True,12,1,0,9
PB008M22,5,294,PS,exp,41,→,right,→,0.5474654999852646,True,11,1,0,9
PB008M22,5,295,PS,exp,43,←,no_key,no_letter,-1.0,False,11,-1,1,10
PB008M22,5,296,PS,exp,48,→,right,→,0.6280345999985002,True,12,-1,0,10
PB008M22,5,297,PS,exp,33,↓,no_key,no_letter,-1.0,False,12,-1,0,10
PB008M22,5,298,PS,exp,29,←,left,←,0.6500778000045102,True,13,-1,0,10
PB008M22,5,299,PS,exp,40,↑,no_key,no_letter,-1.0,False,13,-1,0,10
PB008M22,5,300,PS,exp,34,↓,no_key,no_letter,-1.0,False,14,-1,0,10
PB008M22,5,301,PS,exp,47,↑,up,↑,0.8023042999848258,True,15,-1,0,10
PB008M22,5,302,PS,exp,35,→,right,→,0.6105544999882113,True,15,1,1,11
PB008M22,5,303,PS,exp,37,←,left,←,0.6551605999993626,True,14,1,0,11
PB008M22,5,304,PS,exp,41,↑,up,↑,0.4907060000114143,True,14,1,0,11
PB008M22,5,305,PS,exp,26,→,right,→,0.49919420000514947,True,13,1,0,11
PB008M22,5,306,PS,exp,43,←,left,←,0.7262566999997944,True,13,1,0,11
PB008M22,5,307,PS,exp,45,↓,down,↓,0.8621073999966029,True,12,1,0,11
PB008M22,5,308,PS,exp,41,↑,up,↑,0.5866619999869727,True,12,1,0,11
PB008M22,5,309,PS,exp,28,→,right,→,0.8323184000037145,True,11,1,0,11
PB008M22,5,310,PS,exp,38,←,left,←,0.704235500015784,True,11,1,0,11
PB008M22,5,311,PS,exp,38,↑,up,↑,0.5428368000139017,True,10,1,0,11
PB008M22,5,312,PS,exp,49,←,right,→,0.43774339999072254,False,10,-1,1,12
PB008M22,5,313,PS,exp,43,→,right,→,0.606181299983291,True,11,-1,0,12
PB008M22,5,314,PS,exp,33,↓,down,↓,0.7706107999838423,True,11,1,1,13
PB008M22,5,315,PS,exp,48,→,left,←,1.098364200006472,False,10,-1,1,14
PB008M22,6,316,AS,intra_train,29,↓,no_key,no_letter,-1.0,False,30,-,-,-
PB008M22,6,317,AS,intra_train,28,↑,up,↑,0.8069990999938454,True,30,-,-,-
PB008M22,6,318,AS,intra_train,27,→,right,→,1.0509622000099625,True,30,-,-,-
PB008M22,6,319,AS,intra_train,44,↓,down,↓,0.7960550999850966,True,30,-,-,-
PB008M22,6,320,AS,intra_train,40,↑,up,↑,0.6975644000049215,True,30,-,-,-
PB008M22,6,321,AS,exp,32,↓,down,↓,1.246673899993766,True,20,0,0,0
PB008M22,6,322,AS,exp,34,→,right,→,0.70282330000191,True,20,1,0,0
PB008M22,6,323,AS,exp,47,←,left,←,0.6240799999795854,True,19,1,0,0
PB008M22,6,324,AS,exp,38,↓,down,↓,0.6530954999907408,True,19,1,0,0
PB008M22,6,325,AS,exp,37,←,left,←,0.7611504000087734,True,18,1,0,0
PB008M22,6,326,AS,exp,44,↑,up,↑,0.7694965999980923,True,18,1,0,0
PB008M22,6,327,AS,exp,46,↓,down,↓,0.7742159000190441,True,17,1,0,0
PB008M22,6,328,AS,exp,36,→,left,←,0.6486024000041652,False,17,-1,1,1
PB008M22,6,329,AS,exp,42,←,no_key,no_letter,-1.0,False,18,-1,0,1
PB008M22,6,330,AS,exp,46,↓,down,↓,0.8015026999928523,True,19,-1,0,1
PB008M22,6,331,AS,exp,36,→,no_key,no_letter,-1.0,False,19,-1,0,1
PB008M22,6,332,AS,exp,45,←,right,→,0.9625571999931708,False,20,-1,0,1
PB008M22,6,333,AS,exp,41,↓,down,↓,0.7247726999921724,True,21,-1,0,1
PB008M22,6,334,AS,exp,27,→,right,→,0.5987119000055827,True,21,1,1,2
PB008M22,6,335,AS,exp,29,↑,left,←,1.2509015999967232,False,20,-1,1,3
PB008M22,6,336,AS,exp,46,↓,down,↓,0.6534502999857068,True,21,-1,0,3
PB008M22,6,337,AS,exp,31,←,left,←,0.9722987999848556,True,21,1,1,4
PB008M22,6,338,AS,exp,26,→,right,→,0.8890409000159707,True,20,1,0,4
PB008M22,6,339,AS,exp,41,←,left,←,0.9790676000120584,True,20,1,0,4
PB008M22,6,340,AS,exp,47,→,left,←,1.525727200001711,False,19,-1,1,5
PB008M22,6,341,AS,exp,43,↓,down,↓,0.6597202000266407,True,20,-1,0,5
PB008M22,6,342,AS,exp,34,→,right,→,0.728281000017887,True,20,1,1,6
PB008M22,6,343,AS,exp,26,↑,down,↓,1.0996594000025652,False,19,-1,1,7
PB008M22,6,344,AS,exp,28,↓,up,↑,1.2369162999966647,False,20,-1,0,7
PB008M22,6,345,AS,exp,42,←,right,→,0.833669599989662,False,21,-1,0,7
PB008M22,6,346,AS,exp,26,↓,down,↓,0.9605370999779552,True,22,-1,0,7
PB008M22,6,347,AS,exp,38,←,right,→,0.8319953999889549,False,22,-1,0,7
PB008M22,6,348,AS,exp,28,↓,down,↓,0.7476970999850892,True,23,-1,0,7
PB008M22,6,349,AS,exp,30,↑,down,↓,0.7026913999870885,False,23,-1,0,7
PB008M22,6,350,AS,exp,36,→,left,←,0.7882920999836642,False,24,-1,0,7
PB008M22,6,351,AS,exp,38,←,left,←,0.6753509999834932,True,25,-1,0,7
PB008M22,6,352,AS,exp,31,→,left,←,1.5247372000012547,False,25,-1,0,7
PB008M22,6,353,AS,exp,47,←,no_key,no_letter,-1.0,False,26,-1,0,7
PB008M22,6,354,AS,exp,27,↓,right,→,1.3480923000024632,False,27,-1,0,7
PB008M22,6,355,AS,exp,28,←,right,→,0.9326533999992535,False,28,-1,0,7
PB008M22,6,356,AS,exp,38,→,right,→,0.7370203000027686,True,29,-1,0,7
PB008M22,6,357,AS,exp,29,←,left,←,0.7438844999996945,True,29,1,1,8
PB008M22,6,358,AS,exp,35,↓,down,↓,0.7983826999843586,True,28,1,0,8
PB008M22,6,359,AS,exp,45,←,left,←,0.7243507000093814,True,28,1,0,8
PB008M22,6,360,AS,exp,50,→,right,→,1.3278050000080839,True,27,1,0,8
PB008M22,6,361,AS,exp,33,↑,up,↑,0.7410956999810878,True,27,1,0,8
PB008M22,6,362,AS,exp,28,←,left,←,0.7341023999906611,True,26,1,0,8
PB008M22,6,363,AS,exp,47,↓,down,↓,0.758649700001115,True,26,1,0,8
PB008M22,6,364,AS,exp,42,←,left,←,0.9556012999964878,True,25,1,0,8
PB008M22,6,365,AS,exp,38,→,right,→,0.599508599989349,True,25,1,0,8
PB008M22,6,366,AS,exp,42,↓,down,↓,0.8254079000034835,True,24,1,0,8
PB008M22,6,367,AS,exp,42,←,left,←,0.7735998000134714,True,24,1,0,8
PB008M22,6,368,AS,exp,47,↑,up,↑,0.7767930000263732,True,23,1,0,8
PB008M22,6,369,AS,exp,49,↓,down,↓,0.69717070000479,True,23,1,0,8
PB008M22,6,370,AS,exp,25,←,left,←,0.4838662999973167,True,22,1,0,8
PB008M22,6,371,AS,exp,30,↓,down,↓,0.8215599999821279,True,22,1,0,8
PB008M22,6,372,AS,exp,25,←,no_key,no_letter,-1.0,False,21,-1,1,9
PB008M22,6,373,AS,exp,30,→,right,→,0.9552409000170883,True,22,-1,0,9
PB008M22,6,374,AS,exp,27,↑,up,↑,0.683566299994709,True,22,1,1,10
PB008M22,6,375,AS,exp,50,↓,down,↓,0.8130761999927927,True,21,1,0,10
PB008M22,6,376,AS,exp,29,↑,up,↑,0.6263706999889109,True,21,1,0,10
PB008M22,6,377,AS,exp,48,↓,left,←,0.5934295000042766,False,20,-1,1,11
PB008M22,6,378,AS,exp,26,→,right,→,0.7129584999929648,True,21,-1,0,11
PB008M22,6,379,AS,exp,48,↑,no_key,no_letter,-1.0,False,21,-1,0,11
PB008M22,6,380,AS,exp,42,↓,right,→,0.6324303000001237,False,22,-1,0,11
PB008M22,6,381,AS,exp,42,→,left,←,0.5172806000045966,False,23,-1,0,11
PB008M22,6,382,AS,exp,35,←,left,←,0.8022258999990299,True,24,-1,0,11
PB008M22,6,383,AS,exp,37,↓,down,↓,1.1310445999843068,True,24,1,1,12
PB008M22,6,384,AS,exp,41,↑,up,↑,0.8934685999993235,True,23,1,0,12
PB008M22,6,385,AS,exp,48,→,no_key,no_letter,-1.0,False,23,-1,1,13
PB008M22,6,386,AS,exp,38,↑,up,↑,0.7549719999951776,True,24,-1,0,13
PB008M22,6,387,AS,exp,49,↓,down,↓,0.8651284000079613,True,24,1,1,14
PB008M22,7,388,AS,intra_train,25,←,no_key,no_letter,-1.0,False,30,-,-,-
PB008M22,7,389,AS,intra_train,26,→,right,→,0.707975900004385,True,30,-,-,-
PB008M22,7,390,AS,intra_train,46,←,left,←,0.5668758999963757,True,30,-,-,-
PB008M22,7,391,AS,intra_train,36,↑,no_key,no_letter,-1.0,False,30,-,-,-
PB008M22,7,392,AS,intra_train,34,→,right,→,0.5837346000189427,True,30,-,-,-
PB008M22,7,393,AS,exp,35,↓,no_key,no_letter,-1.0,False,20,-1,0,0
PB008M22,7,394,AS,exp,37,↑,up,↑,0.8246754999854602,True,21,-1,0,0
PB008M22,7,395,AS,exp,44,↓,down,↓,0.985569900018163,True,21,1,1,1
PB008M22,7,396,AS,exp,33,→,right,→,0.6306702000147197,True,20,1,0,1
PB008M22,7,397,AS,exp,36,↑,down,↓,0.9586418000108097,False,20,-1,1,2
PB008M22,7,398,AS,exp,43,→,right,→,0.6828876000072341,True,21,-1,0,2
PB008M22,7,399,AS,exp,43,↓,down,↓,0.8542836999986321,True,21,1,1,3
PB008M22,7,400,AS,exp,37,→,right,→,0.8291370999941137,True,20,1,0,3
PB008M22,7,401,AS,exp,46,↑,up,↑,0.8347255999979097,True,20,1,0,3
PB008M22,7,402,AS,exp,38,↓,up,↑,0.9522471000091173,False,19,-1,1,4
PB008M22,7,403,AS,exp,47,→,right,→,0.6962254000245593,True,20,-1,0,4
PB008M22,7,404,AS,exp,47,↓,down,↓,0.8983297999948263,True,20,1,1,5
PB008M22,7,405,AS,exp,39,→,right,→,0.7877652000170201,True,19,1,0,5
PB008M22,7,406,AS,exp,44,↓,down,↓,0.8103656999883242,True,19,1,0,5
PB008M22,7,407,AS,exp,44,↑,up,↑,1.0025657000078354,True,18,1,0,5
PB008M22,7,408,AS,exp,37,↓,down,↓,0.6384965000033844,True,18,1,0,5
PB008M22,7,409,AS,exp,29,↑,down,↓,0.7067428000154905,False,17,-1,1,6
PB008M22,7,410,AS,exp,47,←,right,→,0.8191772999998648,False,18,-1,0,6
PB008M22,7,411,AS,exp,49,↓,down,↓,0.8421976999961771,True,19,-1,0,6
PB008M22,7,412,AS,exp,31,←,right,→,0.6802484999934677,False,19,-1,0,6
PB008M22,7,413,AS,exp,40,→,right,→,0.6362850999867078,True,20,-1,0,6
PB008M22,7,414,AS,exp,50,↓,down,↓,0.7454504999914207,True,20,1,1,7
PB008M22,7,415,AS,exp,39,→,right,→,0.5875101999845356,True,19,1,0,7
PB008M22,7,416,AS,exp,50,↓,down,↓,0.6011065000202507,True,19,1,0,7
PB008M22,7,417,AS,exp,27,→,right,→,0.7049156000139192,True,18,1,0,7
PB008M22,7,418,AS,exp,50,↑,no_key,no_letter,-1.0,False,18,-1,1,8
PB008M22,7,419,AS,exp,33,←,left,←,0.6657883999869227,True,19,-1,0,8
PB008M22,7,420,AS,exp,40,↑,no_key,no_letter,-1.0,False,19,-1,0,8
PB008M22,7,421,AS,exp,26,←,left,←,0.5594878999982029,True,20,-1,0,8
PB008M22,7,422,AS,exp,26,↓,down,↓,1.5012157000019215,True,20,1,1,9
PB008M22,7,423,AS,exp,30,↑,no_key,no_letter,-1.0,False,19,-1,1,10
PB008M22,7,424,AS,exp,42,↓,down,↓,0.9471831999835558,True,20,-1,0,10
PB008M22,7,425,AS,exp,36,→,right,→,0.8259666999801993,True,20,1,1,11
PB008M22,7,426,AS,exp,40,↑,up,↑,0.7265447000099812,True,19,1,0,11
PB008M22,7,427,AS,exp,26,↓,down,↓,0.6288585000147577,True,19,1,0,11
PB008M22,7,428,AS,exp,48,←,no_key,no_letter,-1.0,False,18,-1,1,12
PB008M22,7,429,AS,exp,38,→,right,→,0.7902917999890633,True,19,-1,0,12
PB008M22,7,430,AS,exp,48,↑,up,↑,0.7869476999912877,True,19,1,1,13
PB008M22,7,431,AS,exp,46,←,left,←,0.7471320000186097,True,18,1,0,13
PB008M22,7,432,AS,exp,32,↓,no_key,no_letter,-1.0,False,18,-1,1,14
PB008M22,8,433,PS,intra_train,41,←,left,←,0.6871274000150152,True,18,-,-,-
PB008M22,8,434,PS,intra_train,37,↑,up,↑,0.762755699979607,True,18,-,-,-
PB008M22,8,435,PS,intra_train,45,↓,down,↓,0.741617599996971,True,18,-,-,-
PB008M22,8,436,PS,intra_train,36,←,left,←,0.626622599986149,True,18,-,-,-
PB008M22,8,437,PS,intra_train,27,↓,down,↓,0.625643699982902,True,18,-,-,-
PB008M22,8,438,PS,exp,48,↑,no_key,no_letter,-1.0,False,12,-1,0,0
PB008M22,8,439,PS,exp,29,→,left,←,0.6224169999768492,False,13,-1,0,0
PB008M22,8,440,PS,exp,35,↑,up,↑,0.5262498999945819,True,14,-1,0,0
PB008M22,8,441,PS,exp,31,←,left,←,0.6829240999941248,True,14,1,1,1
PB008M22,8,442,PS,exp,31,↓,down,↓,0.6542452000139747,True,13,1,0,1
PB008M22,8,443,PS,exp,33,→,right,→,0.5396458000177518,True,13,1,0,1
PB008M22,8,444,PS,exp,46,↓,down,↓,0.5237645000161137,True,12,1,0,1
PB008M22,8,445,PS,exp,25,↑,down,↓,0.8451140999968629,False,12,-1,1,2
PB008M22,8,446,PS,exp,42,↓,no_key,no_letter,-1.0,False,13,-1,0,2
PB008M22,8,447,PS,exp,47,↑,up,↑,0.5506867000076454,True,14,-1,0,2
PB008M22,8,448,PS,exp,49,←,left,←,0.6804513000242878,True,14,1,1,3
PB008M22,8,449,PS,exp,36,↓,no_key,no_letter,-1.0,False,13,-1,1,4
PB008M22,8,450,PS,exp,32,↑,up,↑,0.5387976000201888,True,14,-1,0,4
PB008M22,8,451,PS,exp,40,→,left,←,0.8873337999975774,False,14,-1,0,4
PB008M22,8,452,PS,exp,35,↓,down,↓,0.6345738999953028,True,15,-1,0,4
PB008M22,8,453,PS,exp,40,←,left,←,0.5321390999888536,True,15,1,1,5
PB008M22,8,454,PS,exp,42,↑,up,↑,0.626679899985902,True,14,1,0,5
PB008M22,8,455,PS,exp,31,←,left,←,0.5792893999896478,True,14,1,0,5
PB008M22,8,456,PS,exp,40,→,right,→,0.6325157000101171,True,13,1,0,5
PB008M22,8,457,PS,exp,35,↓,down,↓,0.7603512000059709,True,13,1,0,5
PB008M22,8,458,PS,exp,29,←,left,←,0.4548754999996163,True,12,1,0,5
PB008M22,8,459,PS,exp,29,↓,down,↓,0.5522752999968361,True,12,1,0,5
PB008M22,8,460,PS,exp,36,→,right,→,0.5111286999890581,True,11,1,0,5
PB008M22,8,461,PS,exp,37,↑,up,↑,0.4762268999766093,True,11,1,0,5
PB008M22,8,462,PS,exp,40,←,left,←,0.44151969999074936,True,10,1,0,5
PB008M22,8,463,PS,exp,38,↑,up,↑,0.6647647000208963,True,10,1,0,5
PB008M22,8,464,PS,exp,46,→,up,↑,0.9780373999965377,False,9,-1,1,6
PB008M22,8,465,PS,exp,32,↓,left,←,0.519557799998438,False,10,-1,0,6
PB008M22,8,466,PS,exp,36,←,left,←,0.7118111000163481,True,11,-1,0,6
PB008M22,8,467,PS,exp,49,→,right,→,0.5887252999818884,True,11,1,1,7
PB008M22,8,468,PS,exp,45,↓,up,↑,0.7965478000114672,False,10,-1,1,8
PB008M22,8,469,PS,exp,50,→,left,←,0.7109538000077009,False,11,-1,0,8
PB008M22,8,470,PS,exp,25,↓,left,←,1.0668553999857977,False,12,-1,0,8
PB008M22,8,471,PS,exp,36,←,right,→,0.9369335999945179,False,13,-1,0,8
PB008M22,8,472,PS,exp,38,↑,right,→,0.9916965000156779,False,14,-1,0,8
PB008M22,8,473,PS,exp,31,←,no_key,no_letter,-1.0,False,15,-1,0,8
PB008M22,8,474,PS,exp,28,↓,no_key,no_letter,-1.0,False,16,-1,0,8
PB008M22,8,475,PS,exp,49,↑,up,↑,0.671748499997193,True,17,-1,0,8
PB008M22,8,476,PS,exp,29,→,right,→,0.8188876999774948,True,17,1,1,9
PB008M22,8,477,PS,exp,29,↑,up,↑,0.721902899997076,True,16,1,0,9
PB008M22,8,478,PS,exp,36,→,right,→,0.6237296999897808,True,16,1,0,9
PB008M22,8,479,PS,exp,42,↑,no_key,no_letter,-1.0,False,15,-1,1,10
PB008M22,8,480,PS,exp,37,→,right,→,0.49011429998790845,True,16,-1,0,10
PB008M22,8,481,PS,exp,39,↓,down,↓,0.6734200000064448,True,16,1,1,11
PB008M22,8,482,PS,exp,29,↑,up,↑,0.6767768999852706,True,15,1,0,11
PB008M22,8,483,PS,exp,28,←,right,→,0.4939961999771185,False,15,-1,1,12
PB008M22,8,484,PS,exp,27,→,right,→,0.6101977000071201,True,16,-1,0,12
PB008M22,8,485,PS,exp,28,↑,up,↑,0.6607459000078961,True,16,1,1,13
PB008M22,8,486,PS,exp,33,↓,down,↓,0.615582300000824,True,15,1,0,13
PB008M22,8,487,PS,exp,43,←,left,←,0.6833554999902844,True,15,1,0,13
PB008M22,8,488,PS,exp,49,→,right,→,0.4895574999973178,True,14,1,0,13
PB008M22,8,489,PS,exp,34,↑,up,↑,0.6760080000094604,True,14,1,0,13
PB008M22,8,490,PS,exp,26,→,right,→,0.523434599977918,True,13,1,0,13
PB008M22,8,491,PS,exp,34,↓,down,↓,0.5812912000110373,True,13,1,0,13
PB008M22,8,492,PS,exp,50,←,left,←,0.5684880999906454,True,12,1,0,13
PB008M22,8,493,PS,exp,30,↑,up,↑,0.6165417000011075,True,12,1,0,13
PB008M22,8,494,PS,exp,36,→,right,→,1.1705783999932464,True,11,1,0,13
PB008M22,8,495,PS,exp,47,←,left,←,0.7341543000075035,True,11,1,0,13
PB008M22,8,496,PS,exp,46,→,right,→,0.5862742000026628,True,10,1,0,13
PB008M22,8,497,PS,exp,27,↓,down,↓,0.6689440000045579,True,10,1,0,13
PB008M22,8,498,PS,exp,49,→,right,→,0.5484396000101697,True,9,1,0,13
PB008M22,8,499,PS,exp,49,↑,no_key,no_letter,-1.0,False,9,-1,1,14
