PART_ID,Block_no,Trial_no,Block_type,Trial_type,CSI,Stim_letter,Key_pressed,letter_choose,Rt,Corr,Stimulus Time,Level,Reversal,Revs_count
PB018K20,1,1,PS,train,39,→,right,→,0.8355507999949623,True,30,-,-,-
PB018K20,1,2,PS,train,42,↑,up,↑,1.3935663000156637,True,30,-,-,-
PB018K20,1,3,PS,train,46,→,right,→,0.8935047000122722,True,30,-,-,-
PB018K20,1,4,PS,train,46,←,left,←,0.7673378000035882,True,30,-,-,-
PB018K20,1,5,PS,train,48,↓,down,↓,0.9829208999872208,True,30,-,-,-
PB018K20,1,6,PS,train,39,→,right,→,0.7768569999898318,True,30,-,-,-
PB018K20,1,7,PS,train,30,←,left,←,0.6914625999925192,True,30,-,-,-
PB018K20,1,8,PS,train,26,→,right,→,0.9351560999930371,True,30,-,-,-
PB018K20,1,9,PS,train,25,↓,down,↓,0.7986455999780446,True,30,-,-,-
PB018K20,1,10,PS,train,34,→,right,→,0.8573569000000134,True,30,-,-,-
PB018K20,2,11,AS,train,38,←,left,←,0.8171081000182312,True,45,-,-,-
PB018K20,2,12,AS,train,44,→,right,→,0.767352299997583,True,45,-,-,-
PB018K20,2,13,AS,train,39,↑,up,↑,0.7505532999930438,True,45,-,-,-
PB018K20,2,14,AS,train,43,→,right,→,0.7010599999921396,True,45,-,-,-
PB018K20,2,15,AS,train,46,↑,no_key,no_letter,-1.0,False,45,-,-,-
PB018K20,2,16,AS,train,32,→,right,→,0.8008527999918442,True,45,-,-,-
PB018K20,2,17,AS,train,32,↓,down,↓,0.8672329999972135,True,45,-,-,-
PB018K20,2,18,AS,train,37,↑,up,↑,0.7836210999812465,True,45,-,-,-
PB018K20,2,19,AS,train,46,←,left,←,1.050327600009041,True,45,-,-,-
PB018K20,2,20,AS,train,39,↓,down,↓,1.1395838999887928,True,45,-,-,-
PB018K20,-,21,PS,adaptive,35,→,right,→,0.6209303000068758,True,10,0,0,0
PB018K20,-,22,PS,adaptive,50,↑,up,↑,0.6507114999985788,True,10,1,0,0
PB018K20,-,23,PS,adaptive,29,→,right,→,0.7461628000019118,True,9,1,0,0
PB018K20,-,24,PS,adaptive,29,↑,up,↑,0.6394187000114471,True,9,1,0,0
PB018K20,-,25,PS,adaptive,46,←,left,←,0.6488772000011522,True,8,1,0,0
PB018K20,-,26,PS,adaptive,32,↑,left,←,1.6600274000084028,False,8,-1,1,1
PB018K20,-,27,PS,adaptive,32,→,left,←,1.4945951999980025,False,9,-1,0,1
PB018K20,-,28,PS,adaptive,26,↓,down,↓,0.902793199988082,True,10,-1,0,1
PB018K20,-,29,PS,adaptive,33,←,left,←,0.5282309000031091,True,10,1,1,2
PB018K20,-,30,PS,adaptive,26,→,right,→,0.4568058999720961,True,9,1,0,2
PB018K20,-,31,PS,adaptive,34,↓,down,↓,1.356483500014292,True,9,1,0,2
PB018K20,-,32,PS,adaptive,49,↑,up,↑,0.521848799980944,True,8,1,0,2
PB018K20,-,33,PS,adaptive,49,↓,down,↓,0.6530322000035085,True,8,1,0,2
PB018K20,-,34,PS,adaptive,29,→,left,←,0.7929954999999609,False,7,-1,1,3
PB018K20,-,35,PS,adaptive,45,↓,down,↓,0.5881034000194632,True,8,-1,0,3
PB018K20,-,36,PS,adaptive,36,→,right,→,0.593038399994839,True,8,1,1,4
PB018K20,-,37,AS,adaptive,35,↓,left,←,0.43388120000599883,False,20,-1,0,0
PB018K20,-,38,AS,adaptive,47,→,right,→,0.735698800010141,True,21,-1,0,0
PB018K20,-,39,AS,adaptive,48,↓,down,↓,0.7397274999821093,True,21,1,1,1
PB018K20,-,40,AS,adaptive,42,→,right,→,0.6661326000175904,True,20,1,0,1
PB018K20,-,41,AS,adaptive,35,↑,no_key,no_letter,-1.0,False,20,-1,1,2
PB018K20,-,42,AS,adaptive,46,↓,down,↓,0.7961039999790955,True,21,-1,0,2
PB018K20,-,43,AS,adaptive,30,→,right,→,1.307283300004201,True,21,1,1,3
PB018K20,-,44,AS,adaptive,50,↑,up,↑,0.9003292999987025,True,20,1,0,3
PB018K20,-,45,AS,adaptive,28,→,right,→,0.5527607999974862,True,20,1,0,3
PB018K20,-,46,AS,adaptive,47,↑,no_key,no_letter,-1.0,False,19,-1,1,4
PB018K20,1,47,AS,intra_train,48,←,left,←,0.7452315999835264,True,30,-,-,-
PB018K20,1,48,AS,intra_train,46,→,no_key,no_letter,-1.0,False,30,-,-,-
PB018K20,1,49,AS,intra_train,35,←,left,←,0.7058111999940593,True,30,-,-,-
PB018K20,1,50,AS,intra_train,45,↓,down,↓,1.3007417999906465,True,30,-,-,-
PB018K20,1,51,AS,intra_train,28,→,right,→,0.7392070999776479,True,30,-,-,-
PB018K20,1,52,AS,exp,45,↓,down,↓,0.9273694999865256,True,20,0,0,0
PB018K20,1,53,AS,exp,50,↑,up,↑,0.6400140000041574,True,20,1,0,0
PB018K20,1,54,AS,exp,49,←,left,←,0.9567780999932438,True,19,1,0,0
PB018K20,1,55,AS,exp,39,↓,down,↓,0.9256774999957997,True,19,1,0,0
PB018K20,1,56,AS,exp,31,←,left,←,0.8718638000136707,True,18,1,0,0
PB018K20,1,57,AS,exp,47,→,no_key,no_letter,-1.0,False,18,-1,1,1
PB018K20,1,58,AS,exp,26,←,no_key,no_letter,-1.0,False,19,-1,0,1
PB018K20,1,59,AS,exp,38,↓,down,↓,0.658151599986013,True,20,-1,0,1
PB018K20,1,60,AS,exp,34,↑,down,↓,1.345434099988779,False,20,-1,0,1
PB018K20,1,61,AS,exp,27,→,right,→,0.9560730000084732,True,21,-1,0,1
PB018K20,1,62,AS,exp,50,↓,down,↓,0.6566658999945503,True,21,1,1,2
PB018K20,1,63,AS,exp,48,←,no_key,no_letter,-1.0,False,20,-1,1,3
PB018K20,1,64,AS,exp,36,↓,down,↓,0.5927443999971729,True,21,-1,0,3
PB018K20,1,65,AS,exp,50,←,left,←,0.6348543000058271,True,21,1,1,4
PB018K20,1,66,AS,exp,42,↓,down,↓,0.7090213999908883,True,20,1,0,4
PB018K20,1,67,AS,exp,37,→,down,↓,0.38400270001147874,False,20,-1,1,5
PB018K20,1,68,AS,exp,45,↑,up,↑,0.5668736999796238,True,21,-1,0,5
PB018K20,1,69,AS,exp,26,←,left,←,0.6465611000021454,True,21,1,1,6
PB018K20,1,70,AS,exp,34,↑,up,↑,0.7918660999857821,True,20,1,0,6
PB018K20,1,71,AS,exp,25,→,right,→,0.7906389000127092,True,20,1,0,6
PB018K20,1,72,AS,exp,43,↓,down,↓,0.7668951000086963,True,19,1,0,6
PB018K20,1,73,AS,exp,36,↑,no_key,no_letter,-1.0,False,19,-1,1,7
PB018K20,1,74,AS,exp,26,↓,down,↓,0.7763507999770809,True,20,-1,0,7
PB018K20,1,75,AS,exp,40,←,left,←,0.5741172000125516,True,20,1,1,8
PB018K20,1,76,AS,exp,27,→,right,→,0.540199200011557,True,19,1,0,8
PB018K20,1,77,AS,exp,26,↓,down,↓,0.5579496999853291,True,19,1,0,8
PB018K20,1,78,AS,exp,38,↑,down,↓,1.52380950000952,False,18,-1,1,9
PB018K20,1,79,AS,exp,34,←,no_key,no_letter,-1.0,False,19,-1,0,9
PB018K20,1,80,AS,exp,37,↓,down,↓,0.8674468999961391,True,20,-1,0,9
PB018K20,1,81,AS,exp,32,→,no_key,no_letter,-1.0,False,20,-1,0,9
PB018K20,1,82,AS,exp,36,↑,up,↑,0.5278717000037432,True,21,-1,0,9
PB018K20,1,83,AS,exp,34,→,right,→,0.6986101000220515,True,21,1,1,10
PB018K20,1,84,AS,exp,26,←,up,↑,0.46735769999213517,False,20,-1,1,11
PB018K20,1,85,AS,exp,44,↑,no_key,no_letter,-1.0,False,21,-1,0,11
PB018K20,1,86,AS,exp,32,→,right,→,0.7227582999912556,True,22,-1,0,11
PB018K20,1,87,AS,exp,31,←,left,←,0.692517699993914,True,22,1,1,12
PB018K20,1,88,AS,exp,37,↑,up,↑,0.554459200007841,True,21,1,0,12
PB018K20,1,89,AS,exp,39,↓,down,↓,0.860145900020143,True,21,1,0,12
PB018K20,1,90,AS,exp,39,←,left,←,0.6592835999908857,True,20,1,0,12
PB018K20,1,91,AS,exp,26,→,right,→,0.5857620000024326,True,20,1,0,12
PB018K20,1,92,AS,exp,41,←,no_key,no_letter,-1.0,False,19,-1,1,13
PB018K20,1,93,AS,exp,31,↓,down,↓,0.7325867000035942,True,20,-1,0,13
PB018K20,1,94,AS,exp,26,↑,up,↑,0.7264362999994773,True,20,1,1,14
PB018K20,2,95,PS,intra_train,45,↓,down,↓,0.543477700004587,True,10,-,-,-
PB018K20,2,96,PS,intra_train,28,→,right,→,0.6699297999730334,True,10,-,-,-
PB018K20,2,97,PS,intra_train,32,↓,down,↓,0.6039816999982577,True,10,-,-,-
PB018K20,2,98,PS,intra_train,39,→,right,→,0.5072807999968063,True,10,-,-,-
PB018K20,2,99,PS,intra_train,39,←,left,←,0.5278335999755654,True,10,-,-,-
PB018K20,2,100,PS,exp,50,↓,down,↓,0.5728676000144333,True,7,0,0,0
PB018K20,2,101,PS,exp,33,↑,left,←,1.0911246000032406,False,7,-1,0,0
PB018K20,2,102,PS,exp,42,→,right,→,0.729991300002439,True,8,-1,0,0
PB018K20,2,103,PS,exp,34,↓,down,↓,0.5476151999901049,True,8,1,1,1
PB018K20,2,104,PS,exp,35,←,down,↓,1.5328619999927469,False,7,-1,1,2
PB018K20,2,105,PS,exp,37,↑,up,↑,0.5983619999897201,True,8,-1,0,2
PB018K20,2,106,PS,exp,49,←,no_key,no_letter,-1.0,False,8,-1,0,2
PB018K20,2,107,PS,exp,32,→,right,→,0.5787867000035476,True,9,-1,0,2
PB018K20,2,108,PS,exp,38,←,right,→,0.7230637000175193,False,9,-1,0,2
PB018K20,2,109,PS,exp,26,↓,down,↓,0.5662694000056945,True,10,-1,0,2
PB018K20,2,110,PS,exp,28,←,left,←,1.349390699993819,True,10,1,1,3
PB018K20,2,111,PS,exp,32,↓,down,↓,0.6646440000040457,True,9,1,0,3
PB018K20,2,112,PS,exp,47,→,right,→,0.5270516999880783,True,9,1,0,3
PB018K20,2,113,PS,exp,34,↓,no_key,no_letter,-1.0,False,8,-1,1,4
PB018K20,2,114,PS,exp,37,↑,no_key,no_letter,-1.0,False,9,-1,0,4
PB018K20,2,115,PS,exp,41,←,left,←,0.5834076999744866,True,10,-1,0,4
PB018K20,2,116,PS,exp,38,→,no_key,no_letter,-1.0,False,10,-1,0,4
PB018K20,2,117,PS,exp,35,←,right,→,0.4174040000070818,False,11,-1,0,4
PB018K20,2,118,PS,exp,42,→,right,→,1.1669476999959443,True,12,-1,0,4
PB018K20,2,119,PS,exp,41,↓,down,↓,0.6025643000029959,True,12,1,1,5
PB018K20,2,120,PS,exp,44,↑,up,↑,0.5374146999965888,True,11,1,0,5
PB018K20,2,121,PS,exp,43,↓,down,↓,0.5530808000185061,True,11,1,0,5
PB018K20,2,122,PS,exp,37,↑,up,↑,0.6749285999976564,True,10,1,0,5
PB018K20,2,123,PS,exp,42,→,right,→,0.6773620000167284,True,10,1,0,5
PB018K20,2,124,PS,exp,37,↓,no_key,no_letter,-1.0,False,9,-1,1,6
PB018K20,2,125,PS,exp,41,→,right,→,0.8606246999988798,True,10,-1,0,6
PB018K20,2,126,PS,exp,41,↓,down,↓,0.6650892999896314,True,10,1,1,7
PB018K20,2,127,PS,exp,46,→,right,→,0.6097560000198428,True,9,1,0,7
PB018K20,2,128,PS,exp,45,↑,down,↓,1.4169018999964464,False,9,-1,1,8
PB018K20,2,129,PS,exp,50,→,right,→,0.5286150999891106,True,10,-1,0,8
PB018K20,2,130,PS,exp,45,↓,down,↓,0.6197881000116467,True,10,1,1,9
PB018K20,2,131,PS,exp,42,←,left,←,0.5954358000017237,True,9,1,0,9
PB018K20,2,132,PS,exp,39,→,right,→,0.4428743000025861,True,9,1,0,9
PB018K20,2,133,PS,exp,36,↓,down,↓,0.5758725000196137,True,8,1,0,9
PB018K20,2,134,PS,exp,29,←,down,↓,0.2339429999992717,False,8,-1,1,10
PB018K20,2,135,PS,exp,40,→,right,→,0.7607818999968003,True,9,-1,0,10
PB018K20,2,136,PS,exp,48,↑,no_key,no_letter,-1.0,False,9,-1,0,10
PB018K20,2,137,PS,exp,41,↓,down,↓,0.6399689000099897,True,10,-1,0,10
PB018K20,2,138,PS,exp,48,↑,no_key,no_letter,-1.0,False,10,-1,0,10
PB018K20,2,139,PS,exp,26,→,down,↓,0.28395620000083,False,11,-1,0,10
PB018K20,2,140,PS,exp,33,↓,down,↓,0.7085058999946341,True,12,-1,0,10
PB018K20,2,141,PS,exp,38,→,right,→,0.41117879998637363,True,12,1,1,11
PB018K20,2,142,PS,exp,36,↑,down,↓,1.220540099981008,False,11,-1,1,12
PB018K20,2,143,PS,exp,43,→,right,→,0.538561800000025,True,12,-1,0,12
PB018K20,2,144,PS,exp,37,↑,up,↑,1.2049768999859225,True,12,1,1,13
PB018K20,2,145,PS,exp,36,↓,down,↓,0.6379574000020511,True,11,1,0,13
PB018K20,2,146,PS,exp,25,→,right,→,0.53813210001681,True,11,1,0,13
PB018K20,2,147,PS,exp,42,↑,up,↑,0.5045048999891151,True,10,1,0,13
PB018K20,2,148,PS,exp,46,→,right,→,0.726681500003906,True,10,1,0,13
PB018K20,2,149,PS,exp,33,↑,up,↑,0.5054288000101224,True,9,1,0,13
PB018K20,2,150,PS,exp,40,→,right,→,0.8542843000032008,True,9,1,0,13
PB018K20,2,151,PS,exp,45,↑,up,↑,1.2974459000106435,True,8,1,0,13
PB018K20,2,152,PS,exp,36,←,left,←,0.606282699998701,True,8,1,0,13
PB018K20,2,153,PS,exp,37,→,left,←,0.5588527000218164,False,7,-1,1,14
PB018K20,3,154,PS,intra_train,40,←,left,←,0.5400923000124749,True,10,-,-,-
PB018K20,3,155,PS,intra_train,33,↑,up,↑,0.5434860000095796,True,10,-,-,-
PB018K20,3,156,PS,intra_train,45,↓,down,↓,0.8293449000047985,True,10,-,-,-
PB018K20,3,157,PS,intra_train,37,↑,down,↓,1.023144400009187,False,10,-,-,-
PB018K20,3,158,PS,intra_train,25,→,left,←,0.7270657000190113,False,10,-,-,-
PB018K20,3,159,PS,exp,46,↓,up,↑,1.4264749999856576,False,7,-1,0,0
PB018K20,3,160,PS,exp,35,→,right,→,1.7284897999779787,True,8,-1,0,0
PB018K20,3,161,PS,exp,36,↓,no_key,no_letter,-1.0,False,8,-1,0,0
PB018K20,3,162,PS,exp,45,↑,up,↑,0.5438534000131767,True,9,-1,0,0
PB018K20,3,163,PS,exp,31,←,no_key,no_letter,-1.0,False,9,-1,0,0
PB018K20,3,164,PS,exp,29,↓,right,→,0.4763516999955755,False,10,-1,0,0
PB018K20,3,165,PS,exp,41,↑,no_key,no_letter,-1.0,False,11,-1,0,0
PB018K20,3,166,PS,exp,31,←,up,↑,0.300176199991256,False,12,-1,0,0
PB018K20,3,167,PS,exp,34,→,no_key,no_letter,-1.0,False,13,-1,0,0
PB018K20,3,168,PS,exp,37,↓,down,↓,0.7758645000285469,True,14,-1,0,0
PB018K20,3,169,PS,exp,49,←,left,←,0.5387828999955673,True,14,1,1,1
PB018K20,3,170,PS,exp,31,↓,down,↓,0.7227356999937911,True,13,1,0,1
PB018K20,3,171,PS,exp,27,→,right,→,0.7431303999910597,True,13,1,0,1
PB018K20,3,172,PS,exp,47,←,left,←,0.6967432000092231,True,12,1,0,1
PB018K20,3,173,PS,exp,37,→,right,→,0.6139710000134073,True,12,1,0,1
PB018K20,3,174,PS,exp,30,↑,up,↑,0.9858223000192083,True,11,1,0,1
PB018K20,3,175,PS,exp,48,←,left,←,0.761765999981435,True,11,1,0,1
PB018K20,3,176,PS,exp,46,↓,left,←,1.2000830999750178,False,10,-1,1,2
PB018K20,3,177,PS,exp,39,←,right,→,1.0927962000132538,False,11,-1,0,2
PB018K20,3,178,PS,exp,45,↑,up,↑,0.9840653999999631,True,12,-1,0,2
PB018K20,3,179,PS,exp,49,←,no_key,no_letter,-1.0,False,12,-1,0,2
PB018K20,3,180,PS,exp,42,↓,down,↓,0.7840662999951746,True,13,-1,0,2
PB018K20,3,181,PS,exp,47,←,left,←,0.5978802000172436,True,13,1,1,3
PB018K20,3,182,PS,exp,39,↓,down,↓,0.5500100000062957,True,12,1,0,3
PB018K20,3,183,PS,exp,27,←,left,←,0.9880510999937542,True,12,1,0,3
PB018K20,3,184,PS,exp,37,↓,down,↓,0.7429593999986537,True,11,1,0,3
PB018K20,3,185,PS,exp,32,↑,no_key,no_letter,-1.0,False,11,-1,1,4
PB018K20,3,186,PS,exp,36,→,left,←,0.5216308999806643,False,12,-1,0,4
PB018K20,3,187,PS,exp,35,↑,up,↑,0.6309018999745604,True,13,-1,0,4
PB018K20,3,188,PS,exp,29,→,right,→,0.65015949998633,True,13,1,1,5
PB018K20,3,189,PS,exp,47,←,left,←,0.4563563999836333,True,12,1,0,5
PB018K20,3,190,PS,exp,33,↓,down,↓,0.6431856999988668,True,12,1,0,5
PB018K20,3,191,PS,exp,25,↑,no_key,no_letter,-1.0,False,11,-1,1,6
PB018K20,3,192,PS,exp,31,↓,down,↓,0.7317736000113655,True,12,-1,0,6
PB018K20,3,193,PS,exp,33,←,left,←,0.5570051000104286,True,12,1,1,7
PB018K20,3,194,PS,exp,47,↑,down,↓,0.9318666000035591,False,11,-1,1,8
PB018K20,3,195,PS,exp,31,→,right,→,0.5580121999955736,True,12,-1,0,8
PB018K20,3,196,PS,exp,44,↓,down,↓,0.6076905000081751,True,12,1,1,9
PB018K20,3,197,PS,exp,41,←,left,←,0.6512661000015214,True,11,1,0,9
PB018K20,3,198,PS,exp,32,↓,down,↓,0.5270051999832503,True,11,1,0,9
PB018K20,3,199,PS,exp,49,→,right,→,0.5409170999773778,True,10,1,0,9
PB018K20,3,200,PS,exp,27,←,left,←,0.5512652000179514,True,10,1,0,9
PB018K20,3,201,PS,exp,27,→,no_key,no_letter,-1.0,False,9,-1,1,10
PB018K20,3,202,PS,exp,47,←,left,←,0.4562795000092592,True,10,-1,0,10
PB018K20,3,203,PS,exp,34,↑,right,→,0.5373168000078294,False,10,-1,0,10
PB018K20,3,204,PS,exp,27,←,left,←,0.4734519000048749,True,11,-1,0,10
PB018K20,3,205,PS,exp,49,→,left,←,1.7060493000026327,False,11,-1,0,10
PB018K20,3,206,PS,exp,28,←,right,→,0.5478229000000283,False,12,-1,0,10
PB018K20,3,207,PS,exp,25,↓,down,↓,0.8087443000113126,True,13,-1,0,10
PB018K20,3,208,PS,exp,32,→,right,→,0.5508397000085097,True,13,1,1,11
PB018K20,3,209,PS,exp,43,←,left,←,0.6160838999785483,True,12,1,0,11
PB018K20,3,210,PS,exp,40,↓,down,↓,0.5606876999954693,True,12,1,0,11
PB018K20,3,211,PS,exp,48,↑,up,↑,0.5337298000231385,True,11,1,0,11
PB018K20,3,212,PS,exp,31,↓,down,↓,0.5597360999963712,True,11,1,0,11
PB018K20,3,213,PS,exp,45,→,right,→,0.4848494000034407,True,10,1,0,11
PB018K20,3,214,PS,exp,27,↑,up,↑,0.9165708999789786,True,10,1,0,11
PB018K20,3,215,PS,exp,40,→,right,→,0.8624244999955408,True,9,1,0,11
PB018K20,3,216,PS,exp,29,↑,no_key,no_letter,-1.0,False,9,-1,1,12
PB018K20,3,217,PS,exp,40,←,left,←,0.7258329000032973,True,10,-1,0,12
PB018K20,3,218,PS,exp,39,→,right,→,0.5408827000064775,True,10,1,1,13
PB018K20,3,219,PS,exp,47,←,left,←,0.6558962999843061,True,9,1,0,13
PB018K20,3,220,PS,exp,50,↓,down,↓,0.639992100012023,True,9,1,0,13
PB018K20,3,221,PS,exp,49,→,down,↓,1.6787178000085987,False,8,-1,1,14
PB018K20,4,222,AS,intra_train,26,←,left,←,0.8024505999928806,True,30,-,-,-
PB018K20,4,223,AS,intra_train,45,↑,up,↑,1.2178368000022601,True,30,-,-,-
PB018K20,4,224,AS,intra_train,35,←,no_key,no_letter,-1.0,False,30,-,-,-
PB018K20,4,225,AS,intra_train,28,→,left,←,0.5846368999918923,False,30,-,-,-
PB018K20,4,226,AS,intra_train,31,↓,down,↓,0.7455700999998953,True,30,-,-,-
PB018K20,4,227,AS,exp,36,↑,up,↑,0.6091908999951556,True,20,0,0,0
PB018K20,4,228,AS,exp,36,←,no_key,no_letter,-1.0,False,20,-1,0,0
PB018K20,4,229,AS,exp,44,→,right,→,0.7377504000032786,True,21,-1,0,0
PB018K20,4,230,AS,exp,47,↑,up,↑,0.5241505999874789,True,21,1,1,1
PB018K20,4,231,AS,exp,29,↓,down,↓,0.717590599990217,True,20,1,0,1
PB018K20,4,232,AS,exp,50,↑,no_key,no_letter,-1.0,False,20,-1,1,2
PB018K20,4,233,AS,exp,39,↓,down,↓,0.7379806000099052,True,21,-1,0,2
PB018K20,4,234,AS,exp,34,←,left,←,0.6718139999720734,True,21,1,1,3
PB018K20,4,235,AS,exp,28,→,right,→,0.6438380999898072,True,20,1,0,3
PB018K20,4,236,AS,exp,40,↓,down,↓,0.8144168000144418,True,20,1,0,3
PB018K20,4,237,AS,exp,39,→,right,→,0.4506761000084225,True,19,1,0,3
PB018K20,4,238,AS,exp,45,↑,left,←,1.5934949000074994,False,19,-1,1,4
PB018K20,4,239,AS,exp,46,←,left,←,0.7631736000184901,True,20,-1,0,4
PB018K20,4,240,AS,exp,25,→,right,→,0.6104143999982625,True,20,1,1,5
PB018K20,4,241,AS,exp,49,←,left,←,0.7198618999973405,True,19,1,0,5
PB018K20,4,242,AS,exp,35,↑,up,↑,0.6714198999979999,True,19,1,0,5
PB018K20,4,243,AS,exp,25,↓,down,↓,0.6670892999973148,True,18,1,0,5
PB018K20,4,244,AS,exp,25,↑,down,↓,1.1064478000043891,False,18,-1,1,6
PB018K20,4,245,AS,exp,44,→,right,→,0.5653236999933142,True,19,-1,0,6
PB018K20,4,246,AS,exp,37,↑,left,←,1.7718576999905054,False,19,-1,0,6
PB018K20,4,247,AS,exp,47,↓,down,↓,0.6792063000029884,True,20,-1,0,6
PB018K20,4,248,AS,exp,40,→,right,→,0.5735225999960676,True,20,1,1,7
PB018K20,4,249,AS,exp,26,↑,up,↑,0.45063710000249557,True,19,1,0,7
PB018K20,4,250,AS,exp,33,↓,down,↓,0.6282915999763645,True,19,1,0,7
PB018K20,4,251,AS,exp,44,←,left,←,0.72206400000141,True,18,1,0,7
PB018K20,4,252,AS,exp,33,↓,no_key,no_letter,-1.0,False,18,-1,1,8
PB018K20,4,253,AS,exp,34,↑,up,↑,0.8251012999971863,True,19,-1,0,8
PB018K20,4,254,AS,exp,33,↓,no_key,no_letter,-1.0,False,19,-1,0,8
PB018K20,4,255,AS,exp,39,→,right,→,0.9087257999926805,True,20,-1,0,8
PB018K20,4,256,AS,exp,46,↑,no_key,no_letter,-1.0,False,20,-1,0,8
PB018K20,4,257,AS,exp,49,←,left,←,0.5762142000021413,True,21,-1,0,8
PB018K20,4,258,AS,exp,27,→,right,→,0.5593198999995366,True,21,1,1,9
PB018K20,4,259,AS,exp,39,↓,down,↓,0.8325675000087358,True,20,1,0,9
PB018K20,4,260,AS,exp,49,←,left,←,0.6745695999998134,True,20,1,0,9
PB018K20,4,261,AS,exp,33,↓,down,↓,0.6500357000040822,True,19,1,0,9
PB018K20,4,262,AS,exp,43,←,left,←,0.5896370999980718,True,19,1,0,9
PB018K20,4,263,AS,exp,30,↑,no_key,no_letter,-1.0,False,18,-1,1,10
PB018K20,4,264,AS,exp,32,←,left,←,0.5969317999843042,True,19,-1,0,10
PB018K20,4,265,AS,exp,39,↑,up,↑,0.5798980999970809,True,19,1,1,11
PB018K20,4,266,AS,exp,40,←,right,→,0.8355078999884427,False,18,-1,1,12
PB018K20,4,267,AS,exp,41,↑,up,↑,1.0313700000115205,True,19,-1,0,12
PB018K20,4,268,AS,exp,27,←,right,→,0.5189827999856789,False,19,-1,0,12
PB018K20,4,269,AS,exp,38,→,right,→,0.5589978999923915,True,20,-1,0,12
PB018K20,4,270,AS,exp,37,↓,down,↓,0.776573399984045,True,20,1,1,13
PB018K20,4,271,AS,exp,27,→,right,→,0.7035635999927763,True,19,1,0,13
PB018K20,4,272,AS,exp,42,↑,up,↑,0.6822258000029251,True,19,1,0,13
PB018K20,4,273,AS,exp,40,↓,down,↓,0.582639600004768,True,18,1,0,13
PB018K20,4,274,AS,exp,36,←,left,←,0.5939531000040006,True,18,1,0,13
PB018K20,4,275,AS,exp,39,→,right,→,0.8614987999899313,True,17,1,0,13
PB018K20,4,276,AS,exp,37,↓,down,↓,0.5538948999892455,True,17,1,0,13
PB018K20,4,277,AS,exp,39,←,left,←,0.5623873000149615,True,16,1,0,13
PB018K20,4,278,AS,exp,28,↑,up,↑,0.49194780000834726,True,16,1,0,13
PB018K20,4,279,AS,exp,44,↓,no_key,no_letter,-1.0,False,15,-1,1,14
PB018K20,5,280,AS,intra_train,33,←,left,←,2.0709914000181016,True,30,-,-,-
PB018K20,5,281,AS,intra_train,31,↓,down,↓,0.694131299998844,True,30,-,-,-
PB018K20,5,282,AS,intra_train,25,←,left,←,0.8119361000135541,True,30,-,-,-
PB018K20,5,283,AS,intra_train,27,↓,down,↓,0.7395860999822617,True,30,-,-,-
PB018K20,5,284,AS,intra_train,42,←,left,←,0.7140718999726232,True,30,-,-,-
PB018K20,5,285,AS,exp,35,↓,down,↓,1.2307086999935564,True,20,0,0,0
PB018K20,5,286,AS,exp,43,→,right,→,0.7343550999939907,True,20,1,0,0
PB018K20,5,287,AS,exp,42,↑,up,↑,0.6354120000032708,True,19,1,0,0
PB018K20,5,288,AS,exp,26,←,no_key,no_letter,-1.0,False,19,-1,1,1
PB018K20,5,289,AS,exp,27,↓,down,↓,0.7791259000077844,True,20,-1,0,1
PB018K20,5,290,AS,exp,26,←,left,←,0.7465717000013683,True,20,1,1,2
PB018K20,5,291,AS,exp,44,↓,down,↓,0.61372520000441,True,19,1,0,2
PB018K20,5,292,AS,exp,36,↑,up,↑,0.6337088999862317,True,19,1,0,2
PB018K20,5,293,AS,exp,39,→,right,→,0.8872908999910578,True,18,1,0,2
PB018K20,5,294,AS,exp,43,↑,no_key,no_letter,-1.0,False,18,-1,1,3
PB018K20,5,295,AS,exp,25,←,left,←,0.611280999990413,True,19,-1,0,3
PB018K20,5,296,AS,exp,35,↑,down,↓,1.2958777000021655,False,19,-1,0,3
PB018K20,5,297,AS,exp,40,↓,down,↓,0.6184350999828894,True,20,-1,0,3
PB018K20,5,298,AS,exp,44,↑,up,↑,0.691828799986979,True,20,1,1,4
PB018K20,5,299,AS,exp,36,↓,no_key,no_letter,-1.0,False,19,-1,1,5
PB018K20,5,300,AS,exp,50,←,left,←,0.6340632000064943,True,20,-1,0,5
PB018K20,5,301,AS,exp,44,→,right,→,0.8302660000044852,True,20,1,1,6
PB018K20,5,302,AS,exp,47,↑,up,↑,0.641614699998172,True,19,1,0,6
PB018K20,5,303,AS,exp,25,←,left,←,0.7207317000138573,True,19,1,0,6
PB018K20,5,304,AS,exp,42,↓,no_key,no_letter,-1.0,False,18,-1,1,7
PB018K20,5,305,AS,exp,34,↑,no_key,no_letter,-1.0,False,19,-1,0,7
PB018K20,5,306,AS,exp,31,→,right,→,0.6974545000120997,True,20,-1,0,7
PB018K20,5,307,AS,exp,31,↑,up,↑,0.5458646999904886,True,20,1,1,8
PB018K20,5,308,AS,exp,49,↓,down,↓,0.8322325999906752,True,19,1,0,8
PB018K20,5,309,AS,exp,26,↑,no_key,no_letter,-1.0,False,19,-1,1,9
PB018K20,5,310,AS,exp,48,→,left,←,0.41684770002029836,False,20,-1,0,9
PB018K20,5,311,AS,exp,38,↑,no_key,no_letter,-1.0,False,21,-1,0,9
PB018K20,5,312,AS,exp,32,←,no_key,no_letter,-1.0,False,22,-1,0,9
PB018K20,5,313,AS,exp,32,↑,up,↑,0.6627219000074547,True,23,-1,0,9
PB018K20,5,314,AS,exp,27,←,left,←,0.8840111000172328,True,23,1,1,10
PB018K20,5,315,AS,exp,30,→,right,→,0.5852320000121836,True,22,1,0,10
PB018K20,5,316,AS,exp,25,↑,up,↑,0.5687839000020176,True,22,1,0,10
PB018K20,5,317,AS,exp,33,→,right,→,0.6029366000148002,True,21,1,0,10
PB018K20,5,318,AS,exp,30,↓,down,↓,0.8639799999946263,True,21,1,0,10
PB018K20,5,319,AS,exp,35,→,right,→,0.5441368000174407,True,20,1,0,10
PB018K20,5,320,AS,exp,48,↑,up,↑,0.38385360001120716,True,20,1,0,10
PB018K20,5,321,AS,exp,39,↓,down,↓,0.6172675999987405,True,19,1,0,10
PB018K20,5,322,AS,exp,48,→,no_key,no_letter,-1.0,False,19,-1,1,11
PB018K20,5,323,AS,exp,38,↑,no_key,no_letter,-1.0,False,20,-1,0,11
PB018K20,5,324,AS,exp,43,←,left,←,0.6274027999897953,True,21,-1,0,11
PB018K20,5,325,AS,exp,30,↑,no_key,no_letter,-1.0,False,21,-1,0,11
PB018K20,5,326,AS,exp,39,→,right,→,0.619308200024534,True,22,-1,0,11
PB018K20,5,327,AS,exp,29,↑,up,↑,0.6340654000232462,True,22,1,1,12
PB018K20,5,328,AS,exp,25,→,right,→,0.6439087000035215,True,21,1,0,12
PB018K20,5,329,AS,exp,48,↓,down,↓,0.6991070999938529,True,21,1,0,12
PB018K20,5,330,AS,exp,37,←,left,←,0.6873456999892369,True,20,1,0,12
PB018K20,5,331,AS,exp,26,↑,no_key,no_letter,-1.0,False,20,-1,1,13
PB018K20,5,332,AS,exp,28,→,right,→,0.7379669999936596,True,21,-1,0,13
PB018K20,5,333,AS,exp,31,↑,no_key,no_letter,-1.0,False,21,-1,0,13
PB018K20,5,334,AS,exp,27,←,left,←,0.91879679998965,True,22,-1,0,13
PB018K20,5,335,AS,exp,27,↑,up,↑,0.500669899978675,True,22,1,1,14
PB018K20,6,336,PS,intra_train,42,→,no_key,no_letter,-1.0,False,10,-,-,-
PB018K20,6,337,PS,intra_train,35,↓,down,↓,0.6091235000058077,True,10,-,-,-
PB018K20,6,338,PS,intra_train,33,←,down,↓,0.8144375999982003,False,10,-,-,-
PB018K20,6,339,PS,intra_train,42,↓,no_key,no_letter,-1.0,False,10,-,-,-
PB018K20,6,340,PS,intra_train,41,→,right,→,0.5120591999730095,True,10,-,-,-
PB018K20,6,341,PS,exp,42,↑,left,←,0.6771162000077311,False,7,-1,0,0
PB018K20,6,342,PS,exp,34,↓,no_key,no_letter,-1.0,False,8,-1,0,0
PB018K20,6,343,PS,exp,39,←,left,←,0.47479869998642243,True,9,-1,0,0
PB018K20,6,344,PS,exp,42,→,left,←,1.0560302999801934,False,9,-1,0,0
PB018K20,6,345,PS,exp,25,↓,no_key,no_letter,-1.0,False,10,-1,0,0
PB018K20,6,346,PS,exp,41,→,right,→,0.5816280999861192,True,11,-1,0,0
PB018K20,6,347,PS,exp,33,←,no_key,no_letter,-1.0,False,11,-1,0,0
PB018K20,6,348,PS,exp,27,→,right,→,0.8242228000017349,True,12,-1,0,0
PB018K20,6,349,PS,exp,44,↑,up,↑,0.4815463999984786,True,12,1,1,1
PB018K20,6,350,PS,exp,25,←,left,←,0.5770492000156082,True,11,1,0,1
PB018K20,6,351,PS,exp,32,↑,left,←,0.6899175999860745,False,11,-1,1,2
PB018K20,6,352,PS,exp,26,←,left,←,0.44231650000438094,True,12,-1,0,2
PB018K20,6,353,PS,exp,49,→,left,←,1.016069699981017,False,12,-1,0,2
PB018K20,6,354,PS,exp,33,←,left,←,0.5984349999926053,True,13,-1,0,2
PB018K20,6,355,PS,exp,49,→,left,←,0.3338967000017874,False,13,-1,0,2
PB018K20,6,356,PS,exp,49,←,left,←,0.46133499999996275,True,14,-1,0,2
PB018K20,6,357,PS,exp,49,→,right,→,0.46457869998994283,True,14,1,1,3
PB018K20,6,358,PS,exp,26,←,left,←,0.6326064000022598,True,13,1,0,3
PB018K20,6,359,PS,exp,27,↑,no_key,no_letter,-1.0,False,13,-1,1,4
PB018K20,6,360,PS,exp,37,←,right,→,0.3006110999849625,False,14,-1,0,4
PB018K20,6,361,PS,exp,44,↓,down,↓,0.8552890999999363,True,15,-1,0,4
PB018K20,6,362,PS,exp,36,←,left,←,1.0035734999983106,True,15,1,1,5
PB018K20,6,363,PS,exp,32,↓,down,↓,0.7902388000220526,True,14,1,0,5
PB018K20,6,364,PS,exp,40,↑,up,↑,0.5696335999818984,True,14,1,0,5
PB018K20,6,365,PS,exp,36,↓,down,↓,0.6291388999961782,True,13,1,0,5
PB018K20,6,366,PS,exp,28,←,no_key,no_letter,-1.0,False,13,-1,1,6
PB018K20,6,367,PS,exp,43,↓,down,↓,0.5474803999823052,True,14,-1,0,6
PB018K20,6,368,PS,exp,32,→,right,→,0.4725643999991007,True,14,1,1,7
PB018K20,6,369,PS,exp,28,↑,up,↑,0.4510459000011906,True,13,1,0,7
PB018K20,6,370,PS,exp,50,→,right,→,0.722544000018388,True,13,1,0,7
PB018K20,6,371,PS,exp,46,↓,down,↓,0.5629175999783911,True,12,1,0,7
PB018K20,6,372,PS,exp,33,←,left,←,0.6685537000012118,True,12,1,0,7
PB018K20,6,373,PS,exp,38,↑,down,↓,0.9555409000022337,False,11,-1,1,8
PB018K20,6,374,PS,exp,49,←,left,←,0.5004686999891419,True,12,-1,0,8
PB018K20,6,375,PS,exp,28,↓,down,↓,0.5817957999825012,True,12,1,1,9
PB018K20,6,376,PS,exp,25,↑,down,↓,0.8181735999824014,False,11,-1,1,10
PB018K20,6,377,PS,exp,43,↓,no_key,no_letter,-1.0,False,12,-1,0,10
PB018K20,6,378,PS,exp,40,←,left,←,0.8056238999997731,True,13,-1,0,10
PB018K20,6,379,PS,exp,38,↑,up,↑,0.6593274000042584,True,13,1,1,11
PB018K20,6,380,PS,exp,29,→,right,→,1.5015507999924012,True,12,1,0,11
PB018K20,6,381,PS,exp,44,↓,down,↓,0.793103300005896,True,12,1,0,11
PB018K20,6,382,PS,exp,39,↑,up,↑,0.5886309999914374,True,11,1,0,11
PB018K20,6,383,PS,exp,28,→,right,→,0.573942499991972,True,11,1,0,11
PB018K20,6,384,PS,exp,44,↓,no_key,no_letter,-1.0,False,10,-1,1,12
PB018K20,6,385,PS,exp,44,↑,no_key,no_letter,-1.0,False,11,-1,0,12
PB018K20,6,386,PS,exp,40,←,left,←,0.7295181000081357,True,12,-1,0,12
PB018K20,6,387,PS,exp,48,↑,up,↑,0.5832680999883451,True,12,1,1,13
PB018K20,6,388,PS,exp,26,→,right,→,0.5649084999749903,True,11,1,0,13
PB018K20,6,389,PS,exp,43,←,left,←,1.4844312999921385,True,11,1,0,13
PB018K20,6,390,PS,exp,37,→,left,←,0.666744899994228,False,10,-1,1,14
PB018K20,7,391,PS,intra_train,33,↓,no_key,no_letter,-1.0,False,10,-,-,-
PB018K20,7,392,PS,intra_train,25,↑,up,↑,0.5279965000227094,True,10,-,-,-
PB018K20,7,393,PS,intra_train,42,→,right,→,0.5473815000150353,True,10,-,-,-
PB018K20,7,394,PS,intra_train,40,↓,down,↓,0.7193982000171673,True,10,-,-,-
PB018K20,7,395,PS,intra_train,46,→,right,→,0.5583454000006896,True,10,-,-,-
PB018K20,7,396,PS,exp,50,↓,right,→,0.8165067000081763,False,7,-1,0,0
PB018K20,7,397,PS,exp,33,↑,no_key,no_letter,-1.0,False,8,-1,0,0
PB018K20,7,398,PS,exp,34,↓,down,↓,0.6094240999955218,True,9,-1,0,0
PB018K20,7,399,PS,exp,26,↑,right,→,0.9845148000167683,False,9,-1,0,0
PB018K20,7,400,PS,exp,31,→,right,→,0.7717179000028409,True,10,-1,0,0
PB018K20,7,401,PS,exp,28,↑,up,↑,0.8870014999993145,True,10,1,1,1
PB018K20,7,402,PS,exp,32,←,left,←,0.5505574000126217,True,9,1,0,1
PB018K20,7,403,PS,exp,47,→,right,→,0.5491547000128776,True,9,1,0,1
PB018K20,7,404,PS,exp,46,↑,right,→,0.827827500004787,False,8,-1,1,2
PB018K20,7,405,PS,exp,42,→,right,→,0.6096190000243951,True,9,-1,0,2
PB018K20,7,406,PS,exp,38,←,left,←,0.7802182000014,True,9,1,1,3
PB018K20,7,407,PS,exp,42,↑,no_key,no_letter,-1.0,False,8,-1,1,4
PB018K20,7,408,PS,exp,45,←,left,←,0.4834969000075944,True,9,-1,0,4
PB018K20,7,409,PS,exp,43,↓,down,↓,0.7289304999867454,True,9,1,1,5
PB018K20,7,410,PS,exp,32,←,no_key,no_letter,-1.0,False,8,-1,1,6
PB018K20,7,411,PS,exp,27,→,right,→,0.6780727000150364,True,9,-1,0,6
PB018K20,7,412,PS,exp,26,↑,down,↓,1.2837953999987803,False,9,-1,0,6
PB018K20,7,413,PS,exp,35,↓,down,↓,0.665078000020003,True,10,-1,0,6
PB018K20,7,414,PS,exp,34,←,left,←,0.5666744000045583,True,10,1,1,7
PB018K20,7,415,PS,exp,28,↑,no_key,no_letter,-1.0,False,9,-1,1,8
PB018K20,7,416,PS,exp,42,←,left,←,0.8272171999851707,True,10,-1,0,8
PB018K20,7,417,PS,exp,44,→,right,→,1.038533200015081,True,10,1,1,9
PB018K20,7,418,PS,exp,38,↓,down,↓,0.7699599999759812,True,9,1,0,9
PB018K20,7,419,PS,exp,42,→,no_key,no_letter,-1.0,False,9,-1,1,10
PB018K20,7,420,PS,exp,42,←,no_key,no_letter,-1.0,False,10,-1,0,10
PB018K20,7,421,PS,exp,39,↓,down,↓,0.6164129999815486,True,11,-1,0,10
PB018K20,7,422,PS,exp,50,→,right,→,0.8019522999820765,True,11,1,1,11
PB018K20,7,423,PS,exp,41,↓,down,↓,0.6775806000223383,True,10,1,0,11
PB018K20,7,424,PS,exp,29,↑,no_key,no_letter,-1.0,False,10,-1,1,12
PB018K20,7,425,PS,exp,28,→,right,→,0.5058258000062779,True,11,-1,0,12
PB018K20,7,426,PS,exp,34,↓,down,↓,0.5966976000054274,True,11,1,1,13
PB018K20,7,427,PS,exp,38,←,left,←,0.6156193999922834,True,10,1,0,13
PB018K20,7,428,PS,exp,33,↑,left,←,1.1429154000070412,False,10,-1,1,14
PB018K20,8,429,AS,intra_train,25,↓,down,↓,0.9266288999933749,True,30,-,-,-
PB018K20,8,430,AS,intra_train,25,→,right,→,0.7135933000245132,True,30,-,-,-
PB018K20,8,431,AS,intra_train,28,←,left,←,0.5012169999827165,True,30,-,-,-
PB018K20,8,432,AS,intra_train,46,→,no_key,no_letter,-1.0,False,30,-,-,-
PB018K20,8,433,AS,intra_train,34,←,left,←,0.7533908000041265,True,30,-,-,-
PB018K20,8,434,AS,exp,27,→,no_key,no_letter,-1.0,False,20,-1,0,0
PB018K20,8,435,AS,exp,31,←,left,←,0.6281279000104405,True,21,-1,0,0
PB018K20,8,436,AS,exp,44,→,right,→,0.7899464000074659,True,21,1,1,1
PB018K20,8,437,AS,exp,33,↓,no_key,no_letter,-1.0,False,20,-1,1,2
PB018K20,8,438,AS,exp,38,↑,up,↑,0.8968150999862701,True,21,-1,0,2
PB018K20,8,439,AS,exp,38,→,right,→,0.7981453999818768,True,21,1,1,3
PB018K20,8,440,AS,exp,29,↑,no_key,no_letter,-1.0,False,20,-1,1,4
PB018K20,8,441,AS,exp,35,←,left,←,0.6601195000112057,True,21,-1,0,4
PB018K20,8,442,AS,exp,39,↑,up,↑,0.5343329999886919,True,21,1,1,5
PB018K20,8,443,AS,exp,50,→,right,→,0.753964100003941,True,20,1,0,5
PB018K20,8,444,AS,exp,34,↑,no_key,no_letter,-1.0,False,20,-1,1,6
PB018K20,8,445,AS,exp,44,↓,down,↓,0.6571356999920681,True,21,-1,0,6
PB018K20,8,446,AS,exp,31,→,left,←,0.9295603000209667,False,21,-1,0,6
PB018K20,8,447,AS,exp,42,↑,up,↑,0.6830970000009984,True,22,-1,0,6
PB018K20,8,448,AS,exp,44,→,right,→,0.8316898999910336,True,22,1,1,7
PB018K20,8,449,AS,exp,47,↑,up,↑,0.7329489999974612,True,21,1,0,7
PB018K20,8,450,AS,exp,31,→,right,→,0.5636337000178173,True,21,1,0,7
PB018K20,8,451,AS,exp,35,←,left,←,0.7321373999875505,True,20,1,0,7
PB018K20,8,452,AS,exp,42,→,right,→,0.9327021999924909,True,20,1,0,7
PB018K20,8,453,AS,exp,47,↓,down,↓,0.9865199000050779,True,19,1,0,7
PB018K20,8,454,AS,exp,45,←,left,←,0.5024536999990232,True,19,1,0,7
PB018K20,8,455,AS,exp,41,↓,down,↓,0.7019221000082325,True,18,1,0,7
PB018K20,8,456,AS,exp,41,←,left,←,0.8587827000010293,True,18,1,0,7
PB018K20,8,457,AS,exp,30,↑,up,↑,0.740353499975754,True,17,1,0,7
PB018K20,8,458,AS,exp,46,→,right,→,0.6206759999913629,True,17,1,0,7
PB018K20,8,459,AS,exp,27,↑,left,←,0.6356393999885768,False,16,-1,1,8
PB018K20,8,460,AS,exp,40,←,left,←,0.5794942999782506,True,17,-1,0,8
PB018K20,8,461,AS,exp,35,↓,down,↓,0.5389740999962669,True,17,1,1,9
PB018K20,8,462,AS,exp,50,←,left,←,0.7553425000223797,True,16,1,0,9
PB018K20,8,463,AS,exp,35,↑,down,↓,0.5073892000073101,False,16,-1,1,10
PB018K20,8,464,AS,exp,33,←,left,←,0.4704720000154339,True,17,-1,0,10
PB018K20,8,465,AS,exp,31,↑,no_key,no_letter,-1.0,False,17,-1,0,10
PB018K20,8,466,AS,exp,27,←,left,←,0.5401734999904875,True,18,-1,0,10
PB018K20,8,467,AS,exp,38,↑,left,←,1.1995521000062581,False,18,-1,0,10
PB018K20,8,468,AS,exp,30,→,right,→,0.5175645000126678,True,19,-1,0,10
PB018K20,8,469,AS,exp,37,←,no_key,no_letter,-1.0,False,19,-1,0,10
PB018K20,8,470,AS,exp,49,→,right,→,0.5633264000061899,True,20,-1,0,10
PB018K20,8,471,AS,exp,29,↑,up,↑,0.6721853999770246,True,20,1,1,11
PB018K20,8,472,AS,exp,25,→,right,→,0.7499707999813836,True,19,1,0,11
PB018K20,8,473,AS,exp,45,←,left,←,0.7188610000011977,True,19,1,0,11
PB018K20,8,474,AS,exp,50,↑,down,↓,0.924038199998904,False,18,-1,1,12
PB018K20,8,475,AS,exp,34,↓,down,↓,0.5297544000204653,True,19,-1,0,12
PB018K20,8,476,AS,exp,39,←,left,←,0.7578412999864668,True,19,1,1,13
PB018K20,8,477,AS,exp,39,↑,up,↑,0.6707048999960534,True,18,1,0,13
PB018K20,8,478,AS,exp,39,←,left,←,0.5985121999983676,True,18,1,0,13
PB018K20,8,479,AS,exp,39,↓,down,↓,0.4920132999832276,True,17,1,0,13
PB018K20,8,480,AS,exp,40,↑,up,↑,0.48345420000259764,True,17,1,0,13
PB018K20,8,481,AS,exp,37,→,right,→,0.46771899997838773,True,16,1,0,13
PB018K20,8,482,AS,exp,47,↑,no_key,no_letter,-1.0,False,16,-1,1,14
