PART_ID,Block_no,Trial_no,Block_type,Trial_type,CSI,Stim_letter,Key_pressed,letter_choose,Rt,Corr,Stimulus Time,Level,Reversal,Revs_count
PB015M39,1,1,PS,train,36,→,right,→,1.2209684000117704,True,30,-,-,-
PB015M39,1,2,PS,train,49,↓,down,↓,1.3365960999944946,True,30,-,-,-
PB015M39,1,3,PS,train,39,→,right,→,0.9819113999983529,True,30,-,-,-
PB015M39,1,4,PS,train,28,←,left,←,0.7690554000000702,True,30,-,-,-
PB015M39,1,5,PS,train,47,↓,down,↓,1.0462488000048324,True,30,-,-,-
PB015M39,1,6,PS,train,45,↑,no_key,no_letter,-1.0,False,30,-,-,-
PB015M39,1,7,PS,train,37,↓,down,↓,1.2262676999962423,True,30,-,-,-
PB015M39,1,8,PS,train,29,↑,up,↑,1.0627706000086619,True,30,-,-,-
PB015M39,1,9,PS,train,47,→,right,→,0.7133216999936849,True,30,-,-,-
PB015M39,1,10,PS,train,32,↑,up,↑,0.9778859000070952,True,30,-,-,-
PB015M39,2,11,AS,train,36,→,no_key,no_letter,-1.0,False,45,-,-,-
PB015M39,2,12,AS,train,46,↓,down,↓,1.8403274999873247,True,45,-,-,-
PB015M39,2,13,AS,train,46,→,right,→,0.6847870999918086,True,45,-,-,-
PB015M39,2,14,AS,train,49,↑,up,↑,1.9065016999957152,True,45,-,-,-
PB015M39,2,15,AS,train,34,↓,down,↓,0.8506654999946477,True,45,-,-,-
PB015M39,2,16,AS,train,25,↑,up,↑,1.9485003000008874,True,45,-,-,-
PB015M39,2,17,AS,train,38,↓,right,→,0.7179016000009142,False,45,-,-,-
PB015M39,2,18,AS,train,49,→,right,→,1.1700500000006286,True,45,-,-,-
PB015M39,2,19,AS,train,43,↓,down,↓,1.305965199993807,True,45,-,-,-
PB015M39,2,20,AS,train,43,→,right,→,0.7838558999937959,True,45,-,-,-
PB015M39,-,21,PS,adaptive,26,↓,down,↓,1.3281711000017822,True,10,0,0,0
PB015M39,-,22,PS,adaptive,44,←,left,←,0.732155599995167,True,10,1,0,0
PB015M39,-,23,PS,adaptive,44,↑,no_key,no_letter,-1.0,False,9,-1,1,1
PB015M39,-,24,PS,adaptive,29,→,right,→,0.7035304000019096,True,10,-1,0,1
PB015M39,-,25,PS,adaptive,41,←,right,→,1.1795814000070095,False,10,-1,0,1
PB015M39,-,26,PS,adaptive,41,→,right,→,0.5693638999946415,True,11,-1,0,1
PB015M39,-,27,PS,adaptive,40,↓,down,↓,1.4716478000045754,True,11,1,1,2
PB015M39,-,28,PS,adaptive,39,→,down,↓,1.3034160999959568,False,10,-1,1,3
PB015M39,-,29,PS,adaptive,35,↓,right,→,1.0947629000002053,False,11,-1,0,3
PB015M39,-,30,PS,adaptive,32,←,left,←,0.70887680001033,True,12,-1,0,3
PB015M39,-,31,PS,adaptive,38,↑,up,↑,1.3676077999989502,True,12,1,1,4
PB015M39,-,32,AS,adaptive,30,→,right,→,0.62007019999146,True,20,0,0,0
PB015M39,-,33,AS,adaptive,32,←,left,←,0.7186552000057418,True,20,1,0,0
PB015M39,-,34,AS,adaptive,39,↓,down,↓,0.9784606999892276,True,19,1,0,0
PB015M39,-,35,AS,adaptive,46,←,left,←,0.6990078999951947,True,19,1,0,0
PB015M39,-,36,AS,adaptive,49,→,right,→,0.6890621000056854,True,18,1,0,0
PB015M39,-,37,AS,adaptive,30,←,left,←,0.8363986999902409,True,18,1,0,0
PB015M39,-,38,AS,adaptive,39,↓,down,↓,1.0997103999980027,True,17,1,0,0
PB015M39,-,39,AS,adaptive,40,↑,up,↑,1.0126524999941466,True,17,1,0,0
PB015M39,-,40,AS,adaptive,25,←,left,←,0.9320964000071399,True,16,1,0,0
PB015M39,-,41,AS,adaptive,50,→,right,→,0.8343922000058228,True,16,1,0,0
PB015M39,-,42,AS,adaptive,27,↑,up,↑,0.9956568000052357,True,15,1,0,0
PB015M39,-,43,AS,adaptive,47,↓,down,↓,1.1494075000082375,True,15,1,0,0
PB015M39,-,44,AS,adaptive,32,→,right,→,0.6557651000039186,True,14,1,0,0
PB015M39,-,45,AS,adaptive,46,↑,down,↓,0.8662834999995539,False,14,-1,1,1
PB015M39,-,46,AS,adaptive,44,←,left,←,0.6863274999923306,True,15,-1,0,1
PB015M39,-,47,AS,adaptive,25,↓,down,↓,0.8730520000099204,True,15,1,1,2
PB015M39,-,48,AS,adaptive,46,→,left,←,0.9895304999954533,False,14,-1,1,3
PB015M39,-,49,AS,adaptive,46,↑,up,↑,0.9739450000051875,True,15,-1,0,3
PB015M39,-,50,AS,adaptive,27,↓,down,↓,0.8247387000010349,True,15,1,1,4
PB015M39,1,51,PS,intra_train,44,→,right,→,1.4054944999952568,True,16,-,-,-
PB015M39,1,52,PS,intra_train,34,←,left,←,0.6338630000100238,True,16,-,-,-
PB015M39,1,53,PS,intra_train,29,↑,up,↑,0.9081097000016598,True,16,-,-,-
PB015M39,1,54,PS,intra_train,49,←,left,←,0.5413160999887623,True,16,-,-,-
PB015M39,1,55,PS,intra_train,26,→,right,→,0.5659937000018544,True,16,-,-,-
PB015M39,1,56,PS,exp,37,↓,left,←,1.1974680999992415,False,11,-1,0,0
PB015M39,1,57,PS,exp,46,←,left,←,0.6160087999887764,True,12,-1,0,0
PB015M39,1,58,PS,exp,46,→,right,→,0.726205500002834,True,12,1,1,1
PB015M39,1,59,PS,exp,27,←,left,←,0.9362308999989182,True,11,1,0,1
PB015M39,1,60,PS,exp,44,→,right,→,0.7685276999982307,True,11,1,0,1
PB015M39,1,61,PS,exp,30,↓,down,↓,0.8257256000069901,True,10,1,0,1
PB015M39,1,62,PS,exp,25,↑,left,←,0.7840283999976236,False,10,-1,1,2
PB015M39,1,63,PS,exp,43,→,left,←,1.1249429000017699,False,11,-1,0,2
PB015M39,1,64,PS,exp,32,↑,up,↑,1.0416694000014104,True,12,-1,0,2
PB015M39,1,65,PS,exp,30,→,right,→,0.6569245999999112,True,12,1,1,3
PB015M39,1,66,PS,exp,40,↑,up,↑,1.0074842999893008,True,11,1,0,3
PB015M39,1,67,PS,exp,28,←,left,←,0.6595997999975225,True,11,1,0,3
PB015M39,1,68,PS,exp,45,→,right,→,0.6351484000042547,True,10,1,0,3
PB015M39,1,69,PS,exp,34,↑,up,↑,0.9347793000051752,True,10,1,0,3
PB015M39,1,70,PS,exp,41,→,left,←,1.0538628999929642,False,9,-1,1,4
PB015M39,1,71,PS,exp,46,↓,down,↓,0.7035238999960711,True,10,-1,0,4
PB015M39,1,72,PS,exp,29,→,right,→,0.620826099999249,True,10,1,1,5
PB015M39,1,73,PS,exp,43,←,left,←,0.5758755999995628,True,9,1,0,5
PB015M39,1,74,PS,exp,45,→,right,→,0.6018569000007119,True,9,1,0,5
PB015M39,1,75,PS,exp,27,↑,up,↑,0.7297314000024926,True,8,1,0,5
PB015M39,1,76,PS,exp,44,→,right,→,0.5415560999972513,True,8,1,0,5
PB015M39,1,77,PS,exp,45,↑,left,←,1.16463990000193,False,7,-1,1,6
PB015M39,1,78,PS,exp,29,→,right,→,0.704982099996414,True,8,-1,0,6
PB015M39,1,79,PS,exp,31,↑,right,→,1.015707400001702,False,8,-1,0,6
PB015M39,1,80,PS,exp,27,→,right,→,0.5299308999965433,True,9,-1,0,6
PB015M39,1,81,PS,exp,39,←,left,←,0.41984299999603536,True,9,1,1,7
PB015M39,1,82,PS,exp,32,→,right,→,0.776722399998107,True,8,1,0,7
PB015M39,1,83,PS,exp,34,↑,right,→,0.9922581999999238,False,8,-1,1,8
PB015M39,1,84,PS,exp,35,↓,down,↓,0.8322295999969356,True,9,-1,0,8
PB015M39,1,85,PS,exp,27,↑,left,←,0.9494473999948241,False,9,-1,0,8
PB015M39,1,86,PS,exp,44,↓,down,↓,0.710425800003577,True,10,-1,0,8
PB015M39,1,87,PS,exp,37,↑,up,↑,0.9585978999966756,True,10,1,1,9
PB015M39,1,88,PS,exp,29,←,left,←,0.6385756999952719,True,9,1,0,9
PB015M39,1,89,PS,exp,43,↓,down,↓,0.6771505999931833,True,9,1,0,9
PB015M39,1,90,PS,exp,30,→,left,←,0.7024438999942504,False,8,-1,1,10
PB015M39,1,91,PS,exp,33,↑,up,↑,0.8049935000017285,True,9,-1,0,10
PB015M39,1,92,PS,exp,47,←,left,←,0.6110622999985935,True,9,1,1,11
PB015M39,1,93,PS,exp,38,→,right,→,0.5913139000040246,True,8,1,0,11
PB015M39,1,94,PS,exp,38,←,left,←,0.5514439999969909,True,8,1,0,11
PB015M39,1,95,PS,exp,25,↓,left,←,1.2537205000116955,False,7,-1,1,12
PB015M39,1,96,PS,exp,29,←,left,←,0.6919600000110222,True,8,-1,0,12
PB015M39,1,97,PS,exp,45,↓,down,↓,0.9112205999990692,True,8,1,1,13
PB015M39,1,98,PS,exp,34,→,right,→,0.6374026999983471,True,7,1,0,13
PB015M39,1,99,PS,exp,34,↓,down,↓,0.6774428999924567,True,7,1,0,13
PB015M39,1,100,PS,exp,38,→,left,←,1.040086599998176,False,6,-1,1,14
PB015M39,2,101,AS,intra_train,30,↓,down,↓,0.9570452999905683,True,21,-,-,-
PB015M39,2,102,AS,intra_train,44,↑,up,↑,1.4522278000076767,True,21,-,-,-
PB015M39,2,103,AS,intra_train,47,↓,down,↓,0.8328390000096988,True,21,-,-,-
PB015M39,2,104,AS,intra_train,30,↑,up,↑,0.9186519000068074,True,21,-,-,-
PB015M39,2,105,AS,intra_train,49,↓,down,↓,0.9382448999967892,True,21,-,-,-
PB015M39,2,106,AS,exp,36,←,left,←,0.6669366999994963,True,14,0,0,0
PB015M39,2,107,AS,exp,26,↑,up,↑,0.8981345999927726,True,14,1,0,0
PB015M39,2,108,AS,exp,46,↓,down,↓,0.7481773000035901,True,13,1,0,0
PB015M39,2,109,AS,exp,27,←,left,←,0.10111370000231545,True,13,1,0,0
PB015M39,2,110,AS,exp,50,↑,up,↑,0.8584160000027623,True,12,1,0,0
PB015M39,2,111,AS,exp,39,↓,down,↓,0.9413979999953881,True,12,1,0,0
PB015M39,2,112,AS,exp,45,→,right,→,0.7970567000011215,True,11,1,0,0
PB015M39,2,113,AS,exp,34,↓,down,↓,0.7839022999978624,True,11,1,0,0
PB015M39,2,114,AS,exp,36,↑,left,←,1.1339896999998018,False,10,-1,1,1
PB015M39,2,115,AS,exp,43,→,right,→,0.6691320999962045,True,11,-1,0,1
PB015M39,2,116,AS,exp,28,←,left,←,0.8147035000001779,True,11,1,1,2
PB015M39,2,117,AS,exp,43,↓,down,↓,0.7798189999884926,True,10,1,0,2
PB015M39,2,118,AS,exp,37,←,right,→,0.8189177000022028,False,10,-1,1,3
PB015M39,2,119,AS,exp,49,↑,left,←,1.6582307000062428,False,11,-1,0,3
PB015M39,2,120,AS,exp,28,→,right,→,0.7956447000033222,True,12,-1,0,3
PB015M39,2,121,AS,exp,38,←,left,←,0.5070284000103129,True,12,1,1,4
PB015M39,2,122,AS,exp,33,↑,up,↑,1.364856600004714,True,11,1,0,4
PB015M39,2,123,AS,exp,45,←,left,←,0.6052063000097405,True,11,1,0,4
PB015M39,2,124,AS,exp,50,↑,up,↑,0.9565815999958431,True,10,1,0,4
PB015M39,2,125,AS,exp,44,←,right,→,0.7462421999953222,False,10,-1,1,5
PB015M39,2,126,AS,exp,26,→,right,→,1.0065303000010317,True,11,-1,0,5
PB015M39,2,127,AS,exp,27,←,left,←,0.6612830000085523,True,11,1,1,6
PB015M39,2,128,AS,exp,36,↑,down,↓,1.005326700003934,False,10,-1,1,7
PB015M39,2,129,AS,exp,50,→,right,→,0.9895964000024833,True,11,-1,0,7
PB015M39,2,130,AS,exp,43,←,right,→,0.7785942000045907,False,11,-1,0,7
PB015M39,2,131,AS,exp,27,↓,down,↓,1.082451399997808,True,12,-1,0,7
PB015M39,2,132,AS,exp,48,→,right,→,0.6522444000001997,True,12,1,1,8
PB015M39,2,133,AS,exp,33,←,left,←,0.6030471999984002,True,11,1,0,8
PB015M39,2,134,AS,exp,28,↓,down,↓,0.8988982000009855,True,11,1,0,8
PB015M39,2,135,AS,exp,41,→,right,→,1.0359253999922657,True,10,1,0,8
PB015M39,2,136,AS,exp,50,↓,right,→,1.3183473000099184,False,10,-1,1,9
PB015M39,2,137,AS,exp,27,→,right,→,0.7402338000101736,True,11,-1,0,9
PB015M39,2,138,AS,exp,43,←,left,←,0.9326562000060221,True,11,1,1,10
PB015M39,2,139,AS,exp,28,→,left,←,1.1041325999976834,False,10,-1,1,11
PB015M39,2,140,AS,exp,46,←,left,←,1.1857472999981837,True,11,-1,0,11
PB015M39,2,141,AS,exp,34,↓,right,→,1.0938697999954456,False,11,-1,0,11
PB015M39,2,142,AS,exp,26,→,down,↓,1.245464699997683,False,12,-1,0,11
PB015M39,2,143,AS,exp,39,←,left,←,1.0445201999973506,True,13,-1,0,11
PB015M39,2,144,AS,exp,33,↑,up,↑,1.1500873000040883,True,13,1,1,12
PB015M39,2,145,AS,exp,41,→,down,↓,1.4195362000027671,False,12,-1,1,13
PB015M39,2,146,AS,exp,32,↑,up,↑,0.8960108000028413,True,13,-1,0,13
PB015M39,2,147,AS,exp,38,↓,down,↓,1.4405308999994304,True,13,1,1,14
PB015M39,3,148,AS,intra_train,46,→,right,→,0.7155645999882836,True,21,-,-,-
PB015M39,3,149,AS,intra_train,43,←,left,←,0.6419079000042984,True,21,-,-,-
PB015M39,3,150,AS,intra_train,49,→,right,→,0.7808454999903915,True,21,-,-,-
PB015M39,3,151,AS,intra_train,25,↓,down,↓,1.052583800003049,True,21,-,-,-
PB015M39,3,152,AS,intra_train,35,↑,up,↑,1.1133744999970077,True,21,-,-,-
PB015M39,3,153,AS,exp,35,←,left,←,0.566983299999265,True,14,0,0,0
PB015M39,3,154,AS,exp,42,→,right,→,1.3461490999907255,True,14,1,0,0
PB015M39,3,155,AS,exp,27,←,right,→,0.9596393999963766,False,13,-1,1,1
PB015M39,3,156,AS,exp,48,↓,right,→,0.7828252999897813,False,14,-1,0,1
PB015M39,3,157,AS,exp,28,←,left,←,0.7555886000045575,True,15,-1,0,1
PB015M39,3,158,AS,exp,43,↓,up,↑,1.3418742999929236,False,15,-1,0,1
PB015M39,3,159,AS,exp,31,←,left,←,0.6354780000110622,True,16,-1,0,1
PB015M39,3,160,AS,exp,28,↓,down,↓,1.026040099997772,True,16,1,1,2
PB015M39,3,161,AS,exp,40,↑,up,↑,0.9004420999990543,True,15,1,0,2
PB015M39,3,162,AS,exp,47,←,left,←,0.5246305000036955,True,15,1,0,2
PB015M39,3,163,AS,exp,29,↑,up,↑,0.7987109999958193,True,14,1,0,2
PB015M39,3,164,AS,exp,39,←,right,→,0.5426852999953553,False,14,-1,1,3
PB015M39,3,165,AS,exp,38,↓,down,↓,0.7905309000052512,True,15,-1,0,3
PB015M39,3,166,AS,exp,47,↑,up,↑,0.8085568000096828,True,15,1,1,4
PB015M39,3,167,AS,exp,44,←,left,←,0.6933008000050904,True,14,1,0,4
PB015M39,3,168,AS,exp,50,→,right,→,0.7244222999870544,True,14,1,0,4
PB015M39,3,169,AS,exp,30,←,left,←,1.3132923999946797,True,13,1,0,4
PB015M39,3,170,AS,exp,37,↓,down,↓,0.7507959999929881,True,13,1,0,4
PB015M39,3,171,AS,exp,46,↑,up,↑,0.8800598999951035,True,12,1,0,4
PB015M39,3,172,AS,exp,33,→,right,→,0.7279562000039732,True,12,1,0,4
PB015M39,3,173,AS,exp,28,↑,up,↑,0.7637056999956258,True,11,1,0,4
PB015M39,3,174,AS,exp,34,↓,down,↓,1.2976187000022037,True,11,1,0,4
PB015M39,3,175,AS,exp,37,→,left,←,0.7273831000056816,False,10,-1,1,5
PB015M39,3,176,AS,exp,36,←,left,←,0.7873508999909973,True,11,-1,0,5
PB015M39,3,177,AS,exp,32,→,right,→,0.710324200001196,True,11,1,1,6
PB015M39,3,178,AS,exp,29,←,left,←,0.5912963000009768,True,10,1,0,6
PB015M39,3,179,AS,exp,41,↓,up,↑,1.23854580000625,False,10,-1,1,7
PB015M39,3,180,AS,exp,44,→,left,←,0.6217550000001211,False,11,-1,0,7
PB015M39,3,181,AS,exp,43,←,left,←,0.6503875000053085,True,12,-1,0,7
PB015M39,3,182,AS,exp,40,→,right,→,0.884345200000098,True,12,1,1,8
PB015M39,3,183,AS,exp,26,↓,left,←,0.46780779999971855,False,11,-1,1,9
PB015M39,3,184,AS,exp,30,←,left,←,0.5550053000042681,True,12,-1,0,9
PB015M39,3,185,AS,exp,36,↓,left,←,0.947437800001353,False,12,-1,0,9
PB015M39,3,186,AS,exp,28,→,left,←,0.8257205999980215,False,13,-1,0,9
PB015M39,3,187,AS,exp,26,↓,down,↓,0.8796627999981865,True,14,-1,0,9
PB015M39,3,188,AS,exp,25,←,left,←,0.6444213000067975,True,14,1,1,10
PB015M39,3,189,AS,exp,50,↑,left,←,0.8780992000101833,False,13,-1,1,11
PB015M39,3,190,AS,exp,46,←,right,→,1.088486600012402,False,14,-1,0,11
PB015M39,3,191,AS,exp,50,↓,no_key,no_letter,-1.0,False,15,-1,0,11
PB015M39,3,192,AS,exp,29,↑,up,↑,0.7584231999935582,True,16,-1,0,11
PB015M39,3,193,AS,exp,33,→,left,←,1.0738336999929743,False,16,-1,0,11
PB015M39,3,194,AS,exp,50,↑,up,↑,0.8695678999938536,True,17,-1,0,11
PB015M39,3,195,AS,exp,47,←,right,→,1.833051699999487,False,17,-1,0,11
PB015M39,3,196,AS,exp,50,↑,up,↑,1.0089303999993717,True,18,-1,0,11
PB015M39,3,197,AS,exp,32,←,left,←,1.060568399989279,True,18,1,1,12
PB015M39,3,198,AS,exp,37,↑,up,↑,0.7907975999987684,True,17,1,0,12
PB015M39,3,199,AS,exp,42,→,right,→,0.7385352000128478,True,17,1,0,12
PB015M39,3,200,AS,exp,35,←,left,←,0.9453881999943405,True,16,1,0,12
PB015M39,3,201,AS,exp,32,↓,right,→,1.5635244000004604,False,16,-1,1,13
PB015M39,3,202,AS,exp,32,→,right,→,0.7850640000106068,True,17,-1,0,13
PB015M39,3,203,AS,exp,49,↑,up,↑,0.9734570000000531,True,17,1,1,14
PB015M39,4,204,PS,intra_train,41,↓,down,↓,0.8797202999994624,True,16,-,-,-
PB015M39,4,205,PS,intra_train,41,←,left,←,0.7414863000012701,True,16,-,-,-
PB015M39,4,206,PS,intra_train,35,→,right,→,0.8563540000031935,True,16,-,-,-
PB015M39,4,207,PS,intra_train,42,↓,down,↓,0.833224700007122,True,16,-,-,-
PB015M39,4,208,PS,intra_train,39,←,left,←,0.634125500000664,True,16,-,-,-
PB015M39,4,209,PS,exp,43,↓,down,↓,0.8582636000064667,True,11,0,0,0
PB015M39,4,210,PS,exp,29,↑,right,→,0.7937934000074165,False,11,-1,0,0
PB015M39,4,211,PS,exp,37,←,left,←,0.7682666000036988,True,12,-1,0,0
PB015M39,4,212,PS,exp,41,→,left,←,1.067346499999985,False,12,-1,0,0
PB015M39,4,213,PS,exp,34,↑,up,↑,0.8105035000044154,True,13,-1,0,0
PB015M39,4,214,PS,exp,46,→,right,→,0.5614041000080761,True,13,1,1,1
PB015M39,4,215,PS,exp,38,←,left,←,0.7771512000035727,True,12,1,0,1
PB015M39,4,216,PS,exp,43,→,right,→,0.5878833000024315,True,12,1,0,1
PB015M39,4,217,PS,exp,46,↑,up,↑,0.7843059000006178,True,11,1,0,1
PB015M39,4,218,PS,exp,48,→,right,→,0.6459610000019893,True,11,1,0,1
PB015M39,4,219,PS,exp,47,←,left,←,0.5965408000047319,True,10,1,0,1
PB015M39,4,220,PS,exp,29,→,up,↑,1.0567601999937324,False,10,-1,1,2
PB015M39,4,221,PS,exp,48,←,left,←,0.7157531000120798,True,11,-1,0,2
PB015M39,4,222,PS,exp,32,↑,up,↑,0.7411373000068124,True,11,1,1,3
PB015M39,4,223,PS,exp,46,→,right,→,0.6909367999905953,True,10,1,0,3
PB015M39,4,224,PS,exp,25,↑,left,←,1.0525897000043187,False,10,-1,1,4
PB015M39,4,225,PS,exp,45,←,left,←,0.5235170000087237,True,11,-1,0,4
PB015M39,4,226,PS,exp,26,↑,up,↑,1.0402312999940477,True,11,1,1,5
PB015M39,4,227,PS,exp,37,↓,up,↑,0.798082199995406,False,10,-1,1,6
PB015M39,4,228,PS,exp,35,→,right,→,0.6650981999991927,True,11,-1,0,6
PB015M39,4,229,PS,exp,32,↓,right,→,1.2916675000014948,False,11,-1,0,6
PB015M39,4,230,PS,exp,36,←,left,←,0.5364268999983324,True,12,-1,0,6
PB015M39,4,231,PS,exp,26,↑,up,↑,0.8092145999980858,True,12,1,1,7
PB015M39,4,232,PS,exp,36,→,right,→,0.7022170999989612,True,11,1,0,7
PB015M39,4,233,PS,exp,50,←,left,←,0.5467150000040419,True,11,1,0,7
PB015M39,4,234,PS,exp,50,↓,down,↓,0.7137149000045611,True,10,1,0,7
PB015M39,4,235,PS,exp,48,←,left,←,1.080069600007846,True,10,1,0,7
PB015M39,4,236,PS,exp,38,↑,up,↑,0.7540770999912638,True,9,1,0,7
PB015M39,4,237,PS,exp,25,←,left,←,1.3675016999914078,True,9,1,0,7
PB015M39,4,238,PS,exp,43,→,right,→,0.5382911999913631,True,8,1,0,7
PB015M39,4,239,PS,exp,27,←,left,←,0.5401014000090072,True,8,1,0,7
PB015M39,4,240,PS,exp,50,→,right,→,0.7160270000022138,True,7,1,0,7
PB015M39,4,241,PS,exp,39,↑,up,↑,0.8288451999978861,True,7,1,0,7
PB015M39,4,242,PS,exp,26,←,left,←,0.8318274000048405,True,6,1,0,7
PB015M39,4,243,PS,exp,26,↓,left,←,0.8416402000002563,False,6,-1,1,8
PB015M39,4,244,PS,exp,44,←,right,→,1.1018841000040993,False,7,-1,0,8
PB015M39,4,245,PS,exp,25,↑,left,←,1.184952900002827,False,8,-1,0,8
PB015M39,4,246,PS,exp,41,→,right,→,0.6191447000019252,True,9,-1,0,8
PB015M39,4,247,PS,exp,28,←,left,←,1.0589161000098102,True,9,1,1,9
PB015M39,4,248,PS,exp,44,↑,up,↑,0.9479098999872804,True,8,1,0,9
PB015M39,4,249,PS,exp,48,←,left,←,1.125353499999619,True,8,1,0,9
PB015M39,4,250,PS,exp,38,↑,left,←,1.0468799999944167,False,7,-1,1,10
PB015M39,4,251,PS,exp,43,←,left,←,0.621072699999786,True,8,-1,0,10
PB015M39,4,252,PS,exp,42,↓,down,↓,0.8077709999924991,True,8,1,1,11
PB015M39,4,253,PS,exp,31,→,left,←,1.061658599996008,False,7,-1,1,12
PB015M39,4,254,PS,exp,30,←,right,→,0.7617352999950526,False,8,-1,0,12
PB015M39,4,255,PS,exp,50,↑,up,↑,0.8147449999960372,True,9,-1,0,12
PB015M39,4,256,PS,exp,49,↓,down,↓,0.6755325000121957,True,9,1,1,13
PB015M39,4,257,PS,exp,31,←,left,←,0.596157799998764,True,8,1,0,13
PB015M39,4,258,PS,exp,37,↑,up,↑,1.4786991000000853,True,8,1,0,13
PB015M39,4,259,PS,exp,47,↓,down,↓,1.1089342999912333,True,7,1,0,13
PB015M39,4,260,PS,exp,29,↑,left,←,0.7762673999968683,False,7,-1,1,14
PB015M39,5,261,PS,intra_train,26,↓,down,↓,0.9113973999919835,True,16,-,-,-
PB015M39,5,262,PS,intra_train,26,→,right,→,0.5738154000137001,True,16,-,-,-
PB015M39,5,263,PS,intra_train,29,↓,no_key,no_letter,-1.0,False,16,-,-,-
PB015M39,5,264,PS,intra_train,33,←,no_key,no_letter,-1.0,False,16,-,-,-
PB015M39,5,265,PS,intra_train,49,↓,down,↓,0.8069089999917196,True,16,-,-,-
PB015M39,5,266,PS,exp,27,←,left,←,0.4314950999978464,True,11,0,0,0
PB015M39,5,267,PS,exp,37,→,right,→,0.6813421999977436,True,11,1,0,0
PB015M39,5,268,PS,exp,36,↓,down,↓,0.91023259999929,True,10,1,0,0
PB015M39,5,269,PS,exp,46,←,left,←,0.8326055000070482,True,10,1,0,0
PB015M39,5,270,PS,exp,48,→,right,→,0.5150970999966376,True,9,1,0,0
PB015M39,5,271,PS,exp,39,←,left,←,0.5281475999945542,True,9,1,0,0
PB015M39,5,272,PS,exp,46,↑,up,↑,0.964385699990089,True,8,1,0,0
PB015M39,5,273,PS,exp,50,←,left,←,0.9357319999980973,True,8,1,0,0
PB015M39,5,274,PS,exp,26,↓,down,↓,0.7079720999900019,True,7,1,0,0
PB015M39,5,275,PS,exp,29,↑,up,↑,0.8853823999961605,True,7,1,0,0
PB015M39,5,276,PS,exp,48,←,left,←,1.0477003999985754,True,6,1,0,0
PB015M39,5,277,PS,exp,44,↓,down,↓,0.643580000003567,True,6,1,0,0
PB015M39,5,278,PS,exp,50,←,left,←,0.62139160001243,True,5,1,0,0
PB015M39,5,279,PS,exp,45,↓,up,↑,0.8311416000069585,False,5,-1,1,1
PB015M39,5,280,PS,exp,45,←,left,←,0.5140829000010854,True,6,-1,0,1
PB015M39,5,281,PS,exp,48,↑,up,↑,0.7104672999994364,True,6,1,1,2
PB015M39,5,282,PS,exp,50,→,left,←,1.100716899993131,False,5,-1,1,3
PB015M39,5,283,PS,exp,26,↓,left,←,0.8283623000024818,False,6,-1,0,3
PB015M39,5,284,PS,exp,41,→,left,←,0.7174202999885892,False,7,-1,0,3
PB015M39,5,285,PS,exp,25,↓,right,→,0.676856999998563,False,8,-1,0,3
PB015M39,5,286,PS,exp,31,→,left,←,0.8869471999933012,False,9,-1,0,3
PB015M39,5,287,PS,exp,43,←,left,←,0.6158822000143118,True,10,-1,0,3
PB015M39,5,288,PS,exp,25,→,right,→,0.7693090999964625,True,10,1,1,4
PB015M39,5,289,PS,exp,40,←,left,←,0.5355695999896852,True,9,1,0,4
PB015M39,5,290,PS,exp,44,→,right,→,0.7497051000100328,True,9,1,0,4
PB015M39,5,291,PS,exp,32,←,left,←,1.2392648000095505,True,8,1,0,4
PB015M39,5,292,PS,exp,28,→,up,↑,1.4291383999952814,False,8,-1,1,5
PB015M39,5,293,PS,exp,34,↓,up,↑,1.0571507999993628,False,9,-1,0,5
PB015M39,5,294,PS,exp,36,→,left,←,0.6459526000107871,False,10,-1,0,5
PB015M39,5,295,PS,exp,32,←,left,←,0.9268584999954328,True,11,-1,0,5
PB015M39,5,296,PS,exp,26,→,right,→,0.8703793000022415,True,11,1,1,6
PB015M39,5,297,PS,exp,36,↑,up,↑,0.7925383999972837,True,10,1,0,6
PB015M39,5,298,PS,exp,30,←,left,←,0.5487719999946421,True,10,1,0,6
PB015M39,5,299,PS,exp,30,↑,up,↑,0.6649368999933358,True,9,1,0,6
PB015M39,5,300,PS,exp,35,↓,down,↓,0.6852101999975275,True,9,1,0,6
PB015M39,5,301,PS,exp,35,→,right,→,0.6014399999985471,True,8,1,0,6
PB015M39,5,302,PS,exp,32,←,left,←,0.48042480000003707,True,8,1,0,6
PB015M39,5,303,PS,exp,31,↑,up,↑,0.6954489999916404,True,7,1,0,6
PB015M39,5,304,PS,exp,47,→,right,→,0.5304928999976255,True,7,1,0,6
PB015M39,5,305,PS,exp,25,↑,up,↑,0.9715343999996549,True,6,1,0,6
PB015M39,5,306,PS,exp,42,→,up,↑,1.2195324000058463,False,6,-1,1,7
PB015M39,5,307,PS,exp,28,↓,down,↓,0.6970129000110319,True,7,-1,0,7
PB015M39,5,308,PS,exp,40,↑,up,↑,0.6865991000086069,True,7,1,1,8
PB015M39,5,309,PS,exp,28,→,down,↓,1.3252019000065047,False,6,-1,1,9
PB015M39,5,310,PS,exp,40,↑,up,↑,0.6727068000036525,True,7,-1,0,9
PB015M39,5,311,PS,exp,32,↓,down,↓,0.8911070000031032,True,7,1,1,10
PB015M39,5,312,PS,exp,47,→,right,→,0.5568073999893386,True,6,1,0,10
PB015M39,5,313,PS,exp,38,←,left,←,0.6550648999982513,True,6,1,0,10
PB015M39,5,314,PS,exp,34,↑,up,↑,0.6591193000058411,True,5,1,0,10
PB015M39,5,315,PS,exp,49,←,right,→,0.954986500000814,False,5,-1,1,11
PB015M39,5,316,PS,exp,33,↓,up,↑,0.7475826000008965,False,6,-1,0,11
PB015M39,5,317,PS,exp,33,↑,right,→,1.0072157999966294,False,7,-1,0,11
PB015M39,5,318,PS,exp,25,←,right,→,0.6506146999890916,False,8,-1,0,11
PB015M39,5,319,PS,exp,42,→,right,→,0.579184099988197,True,9,-1,0,11
PB015M39,5,320,PS,exp,42,↓,down,↓,0.7067366999981459,True,9,1,1,12
PB015M39,5,321,PS,exp,25,→,left,←,0.9035829000058584,False,8,-1,1,13
PB015M39,5,322,PS,exp,34,↑,up,↑,0.706042100006016,True,9,-1,0,13
PB015M39,5,323,PS,exp,25,→,right,→,0.8021928000089247,True,9,1,1,14
PB015M39,6,324,AS,intra_train,47,↓,down,↓,0.8399861999932909,True,21,-,-,-
PB015M39,6,325,AS,intra_train,36,←,left,←,0.690736399992602,True,21,-,-,-
PB015M39,6,326,AS,intra_train,29,→,right,→,0.745840199990198,True,21,-,-,-
PB015M39,6,327,AS,intra_train,26,↑,up,↑,1.438031099998625,True,21,-,-,-
PB015M39,6,328,AS,intra_train,43,←,left,←,0.7309092000068631,True,21,-,-,-
PB015M39,6,329,AS,exp,33,↓,up,↑,1.134930100000929,False,14,-1,0,0
PB015M39,6,330,AS,exp,29,→,right,→,0.7796429000009084,True,15,-1,0,0
PB015M39,6,331,AS,exp,38,←,left,←,0.6386941999953706,True,15,1,1,1
PB015M39,6,332,AS,exp,44,↓,down,↓,0.8070586000103503,True,14,1,0,1
PB015M39,6,333,AS,exp,36,→,right,→,0.9023921000043629,True,14,1,0,1
PB015M39,6,334,AS,exp,38,↓,down,↓,0.981580199993914,True,13,1,0,1
PB015M39,6,335,AS,exp,40,↑,up,↑,0.8514260999945691,True,13,1,0,1
PB015M39,6,336,AS,exp,35,↓,down,↓,0.7893336999986786,True,12,1,0,1
PB015M39,6,337,AS,exp,28,↑,up,↑,0.853336300002411,True,12,1,0,1
PB015M39,6,338,AS,exp,48,↓,up,↑,1.2193528000061633,False,11,-1,1,2
PB015M39,6,339,AS,exp,49,↑,down,↓,0.8834889999998268,False,12,-1,0,2
PB015M39,6,340,AS,exp,35,↓,down,↓,0.7887544999975944,True,13,-1,0,2
PB015M39,6,341,AS,exp,31,←,left,←,0.6379538999899523,True,13,1,1,3
PB015M39,6,342,AS,exp,39,↓,down,↓,0.7237865999923088,True,12,1,0,3
PB015M39,6,343,AS,exp,47,←,left,←,1.1376997999905143,True,12,1,0,3
PB015M39,6,344,AS,exp,42,→,right,→,1.0910833000089042,True,11,1,0,3
PB015M39,6,345,AS,exp,32,↓,left,←,0.9962173999956576,False,11,-1,1,4
PB015M39,6,346,AS,exp,38,←,left,←,0.661745699995663,True,12,-1,0,4
PB015M39,6,347,AS,exp,48,↓,up,↑,1.3918032000074163,False,12,-1,0,4
PB015M39,6,348,AS,exp,45,→,right,→,0.8477768000011565,True,13,-1,0,4
PB015M39,6,349,AS,exp,49,←,left,←,0.8059857999905944,True,13,1,1,5
PB015M39,6,350,AS,exp,37,↓,up,↑,0.8990180999971926,False,12,-1,1,6
PB015M39,6,351,AS,exp,29,←,left,←,0.5847403000079794,True,13,-1,0,6
PB015M39,6,352,AS,exp,35,↓,down,↓,0.8854514999984531,True,13,1,1,7
PB015M39,6,353,AS,exp,26,↑,up,↑,0.8161783999967156,True,12,1,0,7
PB015M39,6,354,AS,exp,45,→,right,→,1.0137995999975828,True,12,1,0,7
PB015M39,6,355,AS,exp,46,←,left,←,0.8573942999937572,True,11,1,0,7
PB015M39,6,356,AS,exp,35,→,up,↑,1.0392349999892758,False,11,-1,1,8
PB015M39,6,357,AS,exp,50,↓,up,↑,1.0791995000035968,False,12,-1,0,8
PB015M39,6,358,AS,exp,35,↑,up,↑,1.0448230000038166,True,13,-1,0,8
PB015M39,6,359,AS,exp,39,←,right,→,0.8352992000000086,False,13,-1,0,8
PB015M39,6,360,AS,exp,33,↑,up,↑,0.7236082999879727,True,14,-1,0,8
PB015M39,6,361,AS,exp,35,→,up,↑,1.3632726999931037,False,14,-1,0,8
PB015M39,6,362,AS,exp,50,↓,up,↑,1.0209391999960644,False,15,-1,0,8
PB015M39,6,363,AS,exp,34,←,left,←,0.6369670999993104,True,16,-1,0,8
PB015M39,6,364,AS,exp,36,↑,up,↑,0.8813287000084529,True,16,1,1,9
PB015M39,6,365,AS,exp,36,←,left,←,0.659756599998218,True,15,1,0,9
PB015M39,6,366,AS,exp,30,↓,down,↓,0.9839154999936,True,15,1,0,9
PB015M39,6,367,AS,exp,37,↑,up,↑,0.7666725000017323,True,14,1,0,9
PB015M39,6,368,AS,exp,26,→,right,→,0.7191858999867691,True,14,1,0,9
PB015M39,6,369,AS,exp,31,←,left,←,0.6053955999959726,True,13,1,0,9
PB015M39,6,370,AS,exp,48,→,right,→,1.0666364999924554,True,13,1,0,9
PB015M39,6,371,AS,exp,31,↓,up,↑,0.8411798000015551,False,12,-1,1,10
PB015M39,6,372,AS,exp,48,←,right,→,0.9701216999965254,False,13,-1,0,10
PB015M39,6,373,AS,exp,35,→,left,←,0.561096000004909,False,14,-1,0,10
PB015M39,6,374,AS,exp,44,↓,down,↓,0.9742257999896538,True,15,-1,0,10
PB015M39,6,375,AS,exp,33,←,left,←,0.674419900009525,True,15,1,1,11
PB015M39,6,376,AS,exp,25,↑,up,↑,1.25246309999784,True,14,1,0,11
PB015M39,6,377,AS,exp,41,→,right,→,0.8464818000065861,True,14,1,0,11
PB015M39,6,378,AS,exp,30,←,left,←,0.6624481999897398,True,13,1,0,11
PB015M39,6,379,AS,exp,40,↑,down,↓,0.7877352999930736,False,13,-1,1,12
PB015M39,6,380,AS,exp,33,↓,down,↓,0.9318807000090601,True,14,-1,0,12
PB015M39,6,381,AS,exp,36,↑,left,←,0.7284549000032712,False,14,-1,0,12
PB015M39,6,382,AS,exp,35,→,right,→,0.7153420999966329,True,15,-1,0,12
PB015M39,6,383,AS,exp,27,↑,right,→,1.5591669999994338,False,15,-1,0,12
PB015M39,6,384,AS,exp,36,←,left,←,0.7057433000009041,True,16,-1,0,12
PB015M39,6,385,AS,exp,35,→,right,→,0.9781421999941813,True,16,1,1,13
PB015M39,6,386,AS,exp,37,←,left,←,0.6806653999956325,True,15,1,0,13
PB015M39,6,387,AS,exp,36,↑,up,↑,0.9075420000008307,True,15,1,0,13
PB015M39,6,388,AS,exp,50,→,right,→,0.6985363999992842,True,14,1,0,13
PB015M39,6,389,AS,exp,37,↑,up,↑,0.8966867999988608,True,14,1,0,13
PB015M39,6,390,AS,exp,50,↓,down,↓,0.7846306999999797,True,13,1,0,13
PB015M39,6,391,AS,exp,38,←,left,←,0.9669105000066338,True,13,1,0,13
PB015M39,6,392,AS,exp,39,↓,down,↓,0.7890164999989793,True,12,1,0,13
PB015M39,6,393,AS,exp,43,↑,up,↑,0.8356567000009818,True,12,1,0,13
PB015M39,6,394,AS,exp,37,↓,down,↓,0.8917177999974228,True,11,1,0,13
PB015M39,6,395,AS,exp,42,↑,up,↑,0.9780707000027178,True,11,1,0,13
PB015M39,6,396,AS,exp,39,↓,down,↓,0.9895619999879273,True,10,1,0,13
PB015M39,6,397,AS,exp,34,←,left,←,0.5762262000062037,True,10,1,0,13
PB015M39,6,398,AS,exp,44,↓,down,↓,1.0933821000071475,True,9,1,0,13
PB015M39,6,399,AS,exp,36,←,left,←,0.6301063999999315,True,9,1,0,13
PB015M39,6,400,AS,exp,30,↓,down,↓,0.9732197999983327,True,8,1,0,13
PB015M39,6,401,AS,exp,33,↑,up,↑,0.9512561000010464,True,8,1,0,13
PB015M39,6,402,AS,exp,28,←,left,←,0.5488043000077596,True,7,1,0,13
PB015M39,6,403,AS,exp,25,↑,up,↑,0.900560800000676,True,7,1,0,13
PB015M39,6,404,AS,exp,34,↓,right,→,0.9365150999947218,False,6,-1,1,14
PB015M39,7,405,AS,intra_train,47,→,right,→,0.9398581999994349,True,21,-,-,-
PB015M39,7,406,AS,intra_train,40,↓,down,↓,0.9968587000039406,True,21,-,-,-
PB015M39,7,407,AS,intra_train,49,←,left,←,0.8344881999946665,True,21,-,-,-
PB015M39,7,408,AS,intra_train,48,→,right,→,0.7729943000013009,True,21,-,-,-
PB015M39,7,409,AS,intra_train,50,↑,up,↑,1.084163699997589,True,21,-,-,-
PB015M39,7,410,AS,exp,30,←,left,←,0.8298094999918249,True,14,0,0,0
PB015M39,7,411,AS,exp,48,→,right,→,0.6041229999973439,True,14,1,0,0
PB015M39,7,412,AS,exp,29,↓,up,↑,0.962075300005381,False,13,-1,1,1
PB015M39,7,413,AS,exp,32,→,right,→,0.5810143000126118,True,14,-1,0,1
PB015M39,7,414,AS,exp,33,↓,down,↓,0.759470400007558,True,14,1,1,2
PB015M39,7,415,AS,exp,25,←,right,→,0.85384250000061,False,13,-1,1,3
PB015M39,7,416,AS,exp,36,↑,down,↓,0.8043150000012247,False,14,-1,0,3
PB015M39,7,417,AS,exp,30,→,right,→,0.819097999992664,True,15,-1,0,3
PB015M39,7,418,AS,exp,31,↑,up,↑,1.080411799994181,True,15,1,1,4
PB015M39,7,419,AS,exp,41,→,right,→,0.8930656000011368,True,14,1,0,4
PB015M39,7,420,AS,exp,48,←,left,←,0.657572700001765,True,14,1,0,4
PB015M39,7,421,AS,exp,47,→,right,→,0.7036009000003105,True,13,1,0,4
PB015M39,7,422,AS,exp,45,↓,down,↓,0.8496029999951134,True,13,1,0,4
PB015M39,7,423,AS,exp,46,→,right,→,0.7479673000052571,True,12,1,0,4
PB015M39,7,424,AS,exp,28,←,left,←,0.7828993000002811,True,12,1,0,4
PB015M39,7,425,AS,exp,37,↑,up,↑,1.1461970999953337,True,11,1,0,4
PB015M39,7,426,AS,exp,39,↓,down,↓,1.0561755999951856,True,11,1,0,4
PB015M39,7,427,AS,exp,46,→,right,→,0.7383204999932786,True,10,1,0,4
PB015M39,7,428,AS,exp,38,↓,right,→,0.7476937000028556,False,10,-1,1,5
PB015M39,7,429,AS,exp,35,←,right,→,0.7835091000015382,False,11,-1,0,5
PB015M39,7,430,AS,exp,27,↓,down,↓,0.8137340000102995,True,12,-1,0,5
PB015M39,7,431,AS,exp,37,←,left,←,0.6054720000101952,True,12,1,1,6
PB015M39,7,432,AS,exp,30,→,right,→,0.6235316999955103,True,11,1,0,6
PB015M39,7,433,AS,exp,44,↓,right,→,1.2872069000004558,False,11,-1,1,7
PB015M39,7,434,AS,exp,35,←,left,←,0.5729930999950739,True,12,-1,0,7
PB015M39,7,435,AS,exp,50,↓,down,↓,0.8817723999964073,True,12,1,1,8
PB015M39,7,436,AS,exp,38,→,right,→,0.7612598999985494,True,11,1,0,8
PB015M39,7,437,AS,exp,25,↓,down,↓,0.8677498999895761,True,11,1,0,8
PB015M39,7,438,AS,exp,33,↑,up,↑,0.8301657000120031,True,10,1,0,8
PB015M39,7,439,AS,exp,43,↓,left,←,0.8204125000047497,False,10,-1,1,9
PB015M39,7,440,AS,exp,49,←,right,→,0.9925312999985181,False,11,-1,0,9
PB015M39,7,441,AS,exp,46,↑,up,↑,0.863008100001025,True,12,-1,0,9
PB015M39,7,442,AS,exp,27,↓,down,↓,0.7413338000042131,True,12,1,1,10
PB015M39,7,443,AS,exp,29,↑,left,←,0.6421922000008635,False,11,-1,1,11
PB015M39,7,444,AS,exp,38,↓,down,↓,0.8416216000041459,True,12,-1,0,11
PB015M39,7,445,AS,exp,50,→,right,→,0.7624107000010554,True,12,1,1,12
PB015M39,7,446,AS,exp,38,←,right,→,0.5991705000051297,False,11,-1,1,13
PB015M39,7,447,AS,exp,48,↓,down,↓,0.7502538999979151,True,12,-1,0,13
PB015M39,7,448,AS,exp,33,←,left,←,0.5504646000044886,True,12,1,1,14
PB015M39,8,449,PS,intra_train,30,↑,up,↑,1.0847865999967325,True,16,-,-,-
PB015M39,8,450,PS,intra_train,39,←,left,←,0.6172823999950197,True,16,-,-,-
PB015M39,8,451,PS,intra_train,49,↑,up,↑,0.8255681000009645,True,16,-,-,-
PB015M39,8,452,PS,intra_train,31,←,left,←,0.5356829999946058,True,16,-,-,-
PB015M39,8,453,PS,intra_train,30,→,right,→,0.520432899997104,True,16,-,-,-
PB015M39,8,454,PS,exp,46,←,left,←,0.4483306000038283,True,11,0,0,0
PB015M39,8,455,PS,exp,43,→,left,←,0.8396025999973062,False,11,-1,0,0
PB015M39,8,456,PS,exp,27,←,left,←,0.46873839999898337,True,12,-1,0,0
PB015M39,8,457,PS,exp,39,↓,down,↓,0.733745400008047,True,12,1,1,1
PB015M39,8,458,PS,exp,40,↑,up,↑,0.9079715999978362,True,11,1,0,1
PB015M39,8,459,PS,exp,27,←,left,←,0.46913499999209307,True,11,1,0,1
PB015M39,8,460,PS,exp,32,↓,down,↓,0.6584156999888364,True,10,1,0,1
PB015M39,8,461,PS,exp,38,←,right,→,0.8547386999998707,False,10,-1,1,2
PB015M39,8,462,PS,exp,40,↓,down,↓,0.6584738999954425,True,11,-1,0,2
PB015M39,8,463,PS,exp,29,→,left,←,0.6321140000072774,False,11,-1,0,2
PB015M39,8,464,PS,exp,44,↓,left,←,0.7943672999972478,False,12,-1,0,2
PB015M39,8,465,PS,exp,37,→,right,→,0.6353319000045303,True,13,-1,0,2
PB015M39,8,466,PS,exp,34,↓,down,↓,0.7738015000068117,True,13,1,1,3
PB015M39,8,467,PS,exp,30,↑,up,↑,0.868180300007225,True,12,1,0,3
PB015M39,8,468,PS,exp,38,←,left,←,0.5266375999926822,True,12,1,0,3
PB015M39,8,469,PS,exp,39,↑,up,↑,0.7018591999949422,True,11,1,0,3
PB015M39,8,470,PS,exp,33,←,left,←,0.4689035000046715,True,11,1,0,3
PB015M39,8,471,PS,exp,38,↑,up,↑,0.688739400007762,True,10,1,0,3
PB015M39,8,472,PS,exp,30,←,left,←,0.48459490000095684,True,10,1,0,3
PB015M39,8,473,PS,exp,36,→,right,→,0.6933123000053456,True,9,1,0,3
PB015M39,8,474,PS,exp,49,←,left,←,0.8346434999984922,True,9,1,0,3
PB015M39,8,475,PS,exp,29,→,right,→,0.6639353000064148,True,8,1,0,3
PB015M39,8,476,PS,exp,27,←,left,←,0.7323810999951093,True,8,1,0,3
PB015M39,8,477,PS,exp,39,↑,up,↑,0.6877269999968121,True,7,1,0,3
PB015M39,8,478,PS,exp,48,→,right,→,0.8003333000087878,True,7,1,0,3
PB015M39,8,479,PS,exp,44,↑,up,↑,0.7636985999997705,True,6,1,0,3
PB015M39,8,480,PS,exp,35,→,right,→,0.6291485999972792,True,6,1,0,3
PB015M39,8,481,PS,exp,26,↑,up,↑,1.020046799996635,True,5,1,0,3
PB015M39,8,482,PS,exp,49,↓,up,↑,0.8788992000045255,False,5,-1,1,4
PB015M39,8,483,PS,exp,26,↑,left,←,1.151397600013297,False,6,-1,0,4
PB015M39,8,484,PS,exp,45,↓,down,↓,0.7205785999976797,True,7,-1,0,4
PB015M39,8,485,PS,exp,41,↑,up,↑,0.6745296999870334,True,7,1,1,5
PB015M39,8,486,PS,exp,28,↓,up,↑,0.8519498000096064,False,6,-1,1,6
PB015M39,8,487,PS,exp,39,←,left,←,0.6226241999975173,True,7,-1,0,6
PB015M39,8,488,PS,exp,27,↑,up,↑,0.8339487000048393,True,7,1,1,7
PB015M39,8,489,PS,exp,42,↓,up,↑,0.8328357999998843,False,6,-1,1,8
PB015M39,8,490,PS,exp,29,↑,left,←,0.7175446000037482,False,7,-1,0,8
PB015M39,8,491,PS,exp,40,↓,right,→,0.6298322000075132,False,8,-1,0,8
PB015M39,8,492,PS,exp,47,←,left,←,0.5846735999948578,True,9,-1,0,8
PB015M39,8,493,PS,exp,26,↑,up,↑,0.908720200008247,True,9,1,1,9
PB015M39,8,494,PS,exp,41,←,left,←,0.506423899991205,True,8,1,0,9
PB015M39,8,495,PS,exp,33,↓,down,↓,0.8375670999957947,True,8,1,0,9
PB015M39,8,496,PS,exp,50,↑,up,↑,0.7064749999990454,True,7,1,0,9
PB015M39,8,497,PS,exp,26,←,left,←,0.5116200999909779,True,7,1,0,9
PB015M39,8,498,PS,exp,34,↑,up,↑,0.7992615999974078,True,6,1,0,9
PB015M39,8,499,PS,exp,39,→,left,←,0.5330220000032568,False,6,-1,1,10
PB015M39,8,500,PS,exp,47,↑,right,→,0.47190340000088327,False,7,-1,0,10
PB015M39,8,501,PS,exp,30,←,left,←,1.3708657999959541,True,8,-1,0,10
PB015M39,8,502,PS,exp,47,↑,up,↑,0.7363021000055596,True,8,1,1,11
PB015M39,8,503,PS,exp,41,←,left,←,0.5488096999906702,True,7,1,0,11
PB015M39,8,504,PS,exp,44,↓,down,↓,0.7341459000017494,True,7,1,0,11
PB015M39,8,505,PS,exp,25,→,right,→,1.0337578000035137,True,6,1,0,11
PB015M39,8,506,PS,exp,40,←,left,←,1.007068100007018,True,6,1,0,11
PB015M39,8,507,PS,exp,45,→,right,→,1.0916146999952616,True,5,1,0,11
PB015M39,8,508,PS,exp,38,↑,up,↑,0.787541700003203,True,5,1,0,11
PB015M39,8,509,PS,exp,29,→,left,←,0.5995699000050081,False,4,-1,1,12
PB015M39,8,510,PS,exp,25,↑,left,←,0.6110183999990113,False,5,-1,0,12
PB015M39,8,511,PS,exp,25,↓,left,←,1.056864600002882,False,6,-1,0,12
PB015M39,8,512,PS,exp,43,→,right,→,0.6143790000060108,True,7,-1,0,12
PB015M39,8,513,PS,exp,39,↓,up,↑,0.7729459999973187,False,7,-1,0,12
PB015M39,8,514,PS,exp,37,←,left,←,0.5145321000018157,True,8,-1,0,12
PB015M39,8,515,PS,exp,35,→,left,←,0.590942199996789,False,8,-1,0,12
PB015M39,8,516,PS,exp,37,←,left,←,0.5440501999983098,True,9,-1,0,12
PB015M39,8,517,PS,exp,44,→,left,←,0.7600937000097474,False,9,-1,0,12
PB015M39,8,518,PS,exp,33,↑,up,↑,0.7721060999901965,True,10,-1,0,12
PB015M39,8,519,PS,exp,31,↓,left,←,1.650580000001355,False,10,-1,0,12
PB015M39,8,520,PS,exp,37,↑,up,↑,0.7002185000019381,True,11,-1,0,12
PB015M39,8,521,PS,exp,28,↓,down,↓,0.7489035000035074,True,11,1,1,13
PB015M39,8,522,PS,exp,35,↑,up,↑,0.9951782999996794,True,10,1,0,13
PB015M39,8,523,PS,exp,27,↓,left,←,0.6222997000004398,False,10,-1,1,14
