PART_ID,Block_no,Trial_no,Block_type,Trial_type,CSI,Stim_letter,Key_pressed,letter_choose,Rt,Corr,Stimulus Time,Level,Reversal,Revs_count
PB029M20,1,1,PS,train,28,↓,no_key,no_letter,-1.0,False,30,-,-,-
PB029M20,1,2,PS,train,48,→,right,→,0.6961338999681175,True,30,-,-,-
PB029M20,1,3,PS,train,48,↑,up,↑,0.6710342000005767,True,30,-,-,-
PB029M20,1,4,PS,train,43,↓,down,↓,0.5836311000166461,True,30,-,-,-
PB029M20,1,5,PS,train,32,→,right,→,0.5672304999316111,True,30,-,-,-
PB029M20,1,6,PS,train,30,↑,left,←,0.45117669994942844,False,30,-,-,-
PB029M20,1,7,PS,train,47,→,right,→,0.7536432000342757,True,30,-,-,-
PB029M20,1,8,PS,train,38,←,left,←,1.037657400011085,True,30,-,-,-
PB029M20,1,9,PS,train,37,→,right,→,0.6004660000326112,True,30,-,-,-
PB029M20,1,10,PS,train,46,↑,no_key,no_letter,-1.0,False,30,-,-,-
PB029M20,2,11,AS,train,26,→,right,→,0.7671462000580505,True,45,-,-,-
PB029M20,2,12,AS,train,39,←,left,←,0.6512000999646261,True,45,-,-,-
PB029M20,2,13,AS,train,25,↑,up,↑,0.6013030000030994,True,45,-,-,-
PB029M20,2,14,AS,train,36,→,right,→,1.0362333999946713,True,45,-,-,-
PB029M20,2,15,AS,train,30,←,left,←,0.6178561999695376,True,45,-,-,-
PB029M20,2,16,AS,train,30,↓,down,↓,0.7505854000337422,True,45,-,-,-
PB029M20,2,17,AS,train,49,←,left,←,0.7670718000736088,True,45,-,-,-
PB029M20,2,18,AS,train,35,→,right,→,0.8672468999866396,True,45,-,-,-
PB029M20,2,19,AS,train,41,↓,down,↓,0.6510894999373704,True,45,-,-,-
PB029M20,2,20,AS,train,39,→,right,→,0.8005048000486568,True,45,-,-,-
PB029M20,-,21,PS,adaptive,32,←,left,←,0.7995021999813616,True,10,0,0,0
PB029M20,-,22,PS,adaptive,39,↑,up,↑,0.7822234000777826,True,10,1,0,0
PB029M20,-,23,PS,adaptive,46,↓,down,↓,0.6070247000316158,True,9,1,0,0
PB029M20,-,24,PS,adaptive,26,↑,up,↑,0.8114135999931023,True,9,1,0,0
PB029M20,-,25,PS,adaptive,32,←,left,←,0.6270317999878898,True,8,1,0,0
PB029M20,-,26,PS,adaptive,42,→,right,→,1.0049834999954328,True,8,1,0,0
PB029M20,-,27,PS,adaptive,34,←,left,←,0.6404643999412656,True,7,1,0,0
PB029M20,-,28,PS,adaptive,39,→,up,↑,0.7338432000251487,False,7,-1,1,1
PB029M20,-,29,PS,adaptive,45,↓,down,↓,0.6686802000040188,True,8,-1,0,1
PB029M20,-,30,PS,adaptive,41,↑,right,→,0.9083884001011029,False,8,-1,0,1
PB029M20,-,31,PS,adaptive,37,←,left,←,0.6556331000756472,True,9,-1,0,1
PB029M20,-,32,PS,adaptive,49,→,right,→,0.46773090003989637,True,9,1,1,2
PB029M20,-,33,PS,adaptive,44,↑,up,↑,0.5656817000126466,True,8,1,0,2
PB029M20,-,34,PS,adaptive,50,←,left,←,0.47588059992995113,True,8,1,0,2
PB029M20,-,35,PS,adaptive,38,↓,down,↓,0.5578791999723762,True,7,1,0,2
PB029M20,-,36,PS,adaptive,37,←,left,←,0.455308600096032,True,7,1,0,2
PB029M20,-,37,PS,adaptive,50,↓,down,↓,0.5732148999813944,True,6,1,0,2
PB029M20,-,38,PS,adaptive,28,↑,up,↑,0.6744668999454007,True,6,1,0,2
PB029M20,-,39,PS,adaptive,33,→,right,→,0.5609930999344215,True,5,1,0,2
PB029M20,-,40,PS,adaptive,44,↑,right,→,0.7553174999775365,False,5,-1,1,3
PB029M20,-,41,PS,adaptive,41,↓,left,←,0.5084057999774814,False,6,-1,0,3
PB029M20,-,42,PS,adaptive,25,→,right,→,0.50407190003898,True,7,-1,0,3
PB029M20,-,43,PS,adaptive,39,←,left,←,0.5409117999952286,True,7,1,1,4
PB029M20,-,44,AS,adaptive,30,→,right,→,0.5533948000520468,True,20,0,0,0
PB029M20,-,45,AS,adaptive,43,↓,left,←,0.45048210001550615,False,20,-1,0,0
PB029M20,-,46,AS,adaptive,36,↑,down,↓,0.48379089997615665,False,21,-1,0,0
PB029M20,-,47,AS,adaptive,33,→,right,→,0.5002713999710977,True,22,-1,0,0
PB029M20,-,48,AS,adaptive,47,↑,up,↑,0.7009293999290094,True,22,1,1,1
PB029M20,-,49,AS,adaptive,38,←,left,←,0.7074512999970466,True,21,1,0,1
PB029M20,-,50,AS,adaptive,50,↑,right,→,0.48373960005119443,False,21,-1,1,2
PB029M20,-,51,AS,adaptive,27,↓,down,↓,0.8706437998916954,True,22,-1,0,2
PB029M20,-,52,AS,adaptive,33,→,right,→,0.5913290999596938,True,22,1,1,3
PB029M20,-,53,AS,adaptive,26,↑,up,↑,0.7085750999394804,True,21,1,0,3
PB029M20,-,54,AS,adaptive,39,→,right,→,0.5865850999252871,True,21,1,0,3
PB029M20,-,55,AS,adaptive,46,↑,up,↑,0.9177872999571264,True,20,1,0,3
PB029M20,-,56,AS,adaptive,46,←,left,←,0.54171239992138,True,20,1,0,3
PB029M20,-,57,AS,adaptive,25,↑,left,←,0.9653138000285253,False,19,-1,1,4
PB029M20,1,58,PS,intra_train,32,→,right,→,0.5109391000587493,True,9,-,-,-
PB029M20,1,59,PS,intra_train,49,↑,up,↑,0.5777266999939457,True,9,-,-,-
PB029M20,1,60,PS,intra_train,49,→,right,→,0.6684148999629542,True,9,-,-,-
PB029M20,1,61,PS,intra_train,27,↑,left,←,0.4104269000235945,False,9,-,-,-
PB029M20,1,62,PS,intra_train,42,←,down,↓,0.37767230009194463,False,9,-,-,-
PB029M20,1,63,PS,exp,45,↓,down,↓,0.7436510999687016,True,6,0,0,0
PB029M20,1,64,PS,exp,36,→,left,←,0.6965726000489667,False,6,-1,0,0
PB029M20,1,65,PS,exp,38,↑,left,←,0.9179891000967473,False,7,-1,0,0
PB029M20,1,66,PS,exp,50,↓,down,↓,0.9746655999915674,True,8,-1,0,0
PB029M20,1,67,PS,exp,31,↑,left,←,1.0329848000546917,False,8,-1,0,0
PB029M20,1,68,PS,exp,28,↓,down,↓,0.5853386999806389,True,9,-1,0,0
PB029M20,1,69,PS,exp,44,←,left,←,0.6615467999363318,True,9,1,1,1
PB029M20,1,70,PS,exp,38,→,right,→,0.6543716000160202,True,8,1,0,1
PB029M20,1,71,PS,exp,46,←,left,←,0.47514819994103163,True,8,1,0,1
PB029M20,1,72,PS,exp,35,↓,down,↓,0.5570212000748143,True,7,1,0,1
PB029M20,1,73,PS,exp,48,↑,left,←,0.8960884000407532,False,7,-1,1,2
PB029M20,1,74,PS,exp,49,←,left,←,0.5306179999606684,True,8,-1,0,2
PB029M20,1,75,PS,exp,44,↑,up,↑,0.626737300073728,True,8,1,1,3
PB029M20,1,76,PS,exp,25,↓,left,←,0.8675958999665454,False,7,-1,1,4
PB029M20,1,77,PS,exp,26,→,down,↓,0.6220181999960914,False,8,-1,0,4
PB029M20,1,78,PS,exp,46,←,left,←,0.4915096000768244,True,9,-1,0,4
PB029M20,1,79,PS,exp,50,↑,up,↑,0.6654753999318928,True,9,1,1,5
PB029M20,1,80,PS,exp,35,←,left,←,0.4075311999768019,True,8,1,0,5
PB029M20,1,81,PS,exp,49,↓,down,↓,0.5986731000011787,True,8,1,0,5
PB029M20,1,82,PS,exp,48,←,left,←,0.4978576999856159,True,7,1,0,5
PB029M20,1,83,PS,exp,35,→,left,←,0.4292410999769345,False,7,-1,1,6
PB029M20,1,84,PS,exp,49,↓,down,↓,0.5078522000694647,True,8,-1,0,6
PB029M20,1,85,PS,exp,50,↑,right,→,0.9373173000058159,False,8,-1,0,6
PB029M20,1,86,PS,exp,40,→,right,→,0.5223710999125615,True,9,-1,0,6
PB029M20,1,87,PS,exp,47,←,left,←,0.5018559999298304,True,9,1,1,7
PB029M20,1,88,PS,exp,47,↓,down,↓,0.7376538999378681,True,8,1,0,7
PB029M20,1,89,PS,exp,37,→,right,→,0.5097341000800952,True,8,1,0,7
PB029M20,1,90,PS,exp,38,↓,down,↓,0.7050259000388905,True,7,1,0,7
PB029M20,1,91,PS,exp,44,↑,up,↑,0.6785316000459716,True,7,1,0,7
PB029M20,1,92,PS,exp,49,→,left,←,0.48925839993171394,False,6,-1,1,8
PB029M20,1,93,PS,exp,41,↓,down,↓,0.5870350999757648,True,7,-1,0,8
PB029M20,1,94,PS,exp,49,→,right,→,0.5829812999581918,True,7,1,1,9
PB029M20,1,95,PS,exp,45,↑,down,↓,0.5493130999384448,False,6,-1,1,10
PB029M20,1,96,PS,exp,38,←,left,←,0.7679772000992671,True,7,-1,0,10
PB029M20,1,97,PS,exp,25,↑,no_key,no_letter,-1.0,False,7,-1,0,10
PB029M20,1,98,PS,exp,45,→,left,←,0.5547205000184476,False,8,-1,0,10
PB029M20,1,99,PS,exp,35,←,left,←,0.6548950000433251,True,9,-1,0,10
PB029M20,1,100,PS,exp,48,↑,up,↑,0.6439909000182524,True,9,1,1,11
PB029M20,1,101,PS,exp,27,↓,up,↑,0.7697794999694452,False,8,-1,1,12
PB029M20,1,102,PS,exp,46,↑,up,↑,0.6589212999679148,True,9,-1,0,12
PB029M20,1,103,PS,exp,35,←,left,←,0.8874945000279695,True,9,1,1,13
PB029M20,1,104,PS,exp,36,→,left,←,0.8252991000190377,False,8,-1,1,14
PB029M20,2,105,AS,intra_train,41,↑,up,↑,1.019294700003229,True,30,-,-,-
PB029M20,2,106,AS,intra_train,41,→,right,→,0.7938073000404984,True,30,-,-,-
PB029M20,2,107,AS,intra_train,48,↓,down,↓,1.1449801999842748,True,30,-,-,-
PB029M20,2,108,AS,intra_train,28,→,right,→,0.8972646999172866,True,30,-,-,-
PB029M20,2,109,AS,intra_train,38,←,left,←,0.7708490999648347,True,30,-,-,-
PB029M20,2,110,AS,exp,34,↑,up,↑,0.7538035999750718,True,20,0,0,0
PB029M20,2,111,AS,exp,37,→,right,→,1.281885200063698,True,20,1,0,0
PB029M20,2,112,AS,exp,37,←,left,←,0.6419666999718174,True,19,1,0,0
PB029M20,2,113,AS,exp,26,↑,up,↑,0.9392394000897184,True,19,1,0,0
PB029M20,2,114,AS,exp,30,←,left,←,1.05439349997323,True,18,1,0,0
PB029M20,2,115,AS,exp,29,↑,up,↑,0.9038031999953091,True,18,1,0,0
PB029M20,2,116,AS,exp,37,↓,down,↓,1.006106400047429,True,17,1,0,0
PB029M20,2,117,AS,exp,34,→,down,↓,0.7900253999978304,False,17,-1,1,1
PB029M20,2,118,AS,exp,43,↑,up,↑,1.518053000094369,True,18,-1,0,1
PB029M20,2,119,AS,exp,44,↓,down,↓,0.9267332999734208,True,18,1,1,2
PB029M20,2,120,AS,exp,25,←,left,←,0.6030661999247968,True,17,1,0,2
PB029M20,2,121,AS,exp,40,→,right,→,0.6964237000793219,True,17,1,0,2
PB029M20,2,122,AS,exp,45,↑,left,←,0.6529998000478372,False,16,-1,1,3
PB029M20,2,123,AS,exp,28,←,left,←,0.5828068000264466,True,17,-1,0,3
PB029M20,2,124,AS,exp,45,↑,up,↑,0.9225030000088736,True,17,1,1,4
PB029M20,2,125,AS,exp,49,←,left,←,0.6712905999738723,True,16,1,0,4
PB029M20,2,126,AS,exp,28,↑,up,↑,0.833559799939394,True,16,1,0,4
PB029M20,2,127,AS,exp,36,←,left,←,0.5738169000251219,True,15,1,0,4
PB029M20,2,128,AS,exp,30,→,left,←,0.5243157999357209,False,15,-1,1,5
PB029M20,2,129,AS,exp,29,←,left,←,0.525157899945043,True,16,-1,0,5
PB029M20,2,130,AS,exp,36,↓,up,↑,0.5997534000780433,False,16,-1,0,5
PB029M20,2,131,AS,exp,28,←,left,←,0.7647154000587761,True,17,-1,0,5
PB029M20,2,132,AS,exp,44,↓,down,↓,0.9425738999852911,True,17,1,1,6
PB029M20,2,133,AS,exp,31,↑,up,↑,1.2319191999267787,True,16,1,0,6
PB029M20,2,134,AS,exp,49,←,left,←,0.6010242000920698,True,16,1,0,6
PB029M20,2,135,AS,exp,40,↑,right,→,0.5261512000579387,False,15,-1,1,7
PB029M20,2,136,AS,exp,26,→,right,→,0.7593470000429079,True,16,-1,0,7
PB029M20,2,137,AS,exp,26,↓,left,←,0.6191832999465987,False,16,-1,0,7
PB029M20,2,138,AS,exp,35,←,left,←,0.6032887999899685,True,17,-1,0,7
PB029M20,2,139,AS,exp,45,↑,down,↓,0.8797984999837354,False,17,-1,0,7
PB029M20,2,140,AS,exp,34,↓,down,↓,0.68199569999706,True,18,-1,0,7
PB029M20,2,141,AS,exp,36,→,right,→,0.6607612000079826,True,18,1,1,8
PB029M20,2,142,AS,exp,38,↓,down,↓,0.6220267999451607,True,17,1,0,8
PB029M20,2,143,AS,exp,45,←,left,←,0.5811819999944419,True,17,1,0,8
PB029M20,2,144,AS,exp,33,↑,up,↑,0.5945663000456989,True,16,1,0,8
PB029M20,2,145,AS,exp,43,→,right,→,0.8078758000629023,True,16,1,0,8
PB029M20,2,146,AS,exp,25,←,left,←,0.5704525000182912,True,15,1,0,8
PB029M20,2,147,AS,exp,33,↓,down,↓,0.830017099971883,True,15,1,0,8
PB029M20,2,148,AS,exp,27,←,right,→,0.5205193000147119,False,14,-1,1,9
PB029M20,2,149,AS,exp,46,↓,down,↓,0.7047259999671951,True,15,-1,0,9
PB029M20,2,150,AS,exp,50,↑,up,↑,1.2689026000443846,True,15,1,1,10
PB029M20,2,151,AS,exp,26,←,left,←,0.5939380000345409,True,14,1,0,10
PB029M20,2,152,AS,exp,49,↓,down,↓,0.7639543999684975,True,14,1,0,10
PB029M20,2,153,AS,exp,47,↑,down,↓,0.601499600103125,False,13,-1,1,11
PB029M20,2,154,AS,exp,48,→,left,←,0.7679884999524802,False,14,-1,0,11
PB029M20,2,155,AS,exp,29,↑,up,↑,0.7830016000661999,True,15,-1,0,11
PB029M20,2,156,AS,exp,26,←,left,←,0.6115279999794438,True,15,1,1,12
PB029M20,2,157,AS,exp,31,→,left,←,0.894616499892436,False,14,-1,1,13
PB029M20,2,158,AS,exp,41,←,left,←,0.45385890000034124,True,15,-1,0,13
PB029M20,2,159,AS,exp,49,↓,down,↓,0.8051674000453204,True,15,1,1,14
PB029M20,3,160,AS,intra_train,50,↑,up,↑,1.5055240000365302,True,30,-,-,-
PB029M20,3,161,AS,intra_train,46,→,left,←,0.583977600093931,False,30,-,-,-
PB029M20,3,162,AS,intra_train,35,↓,down,↓,0.7866030000150204,True,30,-,-,-
PB029M20,3,163,AS,intra_train,49,→,right,→,0.600493700010702,True,30,-,-,-
PB029M20,3,164,AS,intra_train,30,←,left,←,0.4836695999838412,True,30,-,-,-
PB029M20,3,165,AS,exp,35,↑,up,↑,0.7354786000214517,True,20,0,0,0
PB029M20,3,166,AS,exp,37,→,right,→,0.6424410999752581,True,20,1,0,0
PB029M20,3,167,AS,exp,42,↑,up,↑,0.6226994999451563,True,19,1,0,0
PB029M20,3,168,AS,exp,47,↓,down,↓,0.7009492999641225,True,19,1,0,0
PB029M20,3,169,AS,exp,41,←,right,→,0.900528300087899,False,18,-1,1,1
PB029M20,3,170,AS,exp,25,→,right,→,0.9862747999140993,True,19,-1,0,1
PB029M20,3,171,AS,exp,36,↑,right,→,1.26564919995144,False,19,-1,0,1
PB029M20,3,172,AS,exp,31,←,left,←,0.7934985000174493,True,20,-1,0,1
PB029M20,3,173,AS,exp,44,↑,up,↑,0.7603988999035209,True,20,1,1,2
PB029M20,3,174,AS,exp,44,→,right,→,0.9498294999357313,True,19,1,0,2
PB029M20,3,175,AS,exp,43,←,left,←,1.0284374000038952,True,19,1,0,2
PB029M20,3,176,AS,exp,43,↓,down,↓,0.6617437999229878,True,18,1,0,2
PB029M20,3,177,AS,exp,44,→,right,→,0.7452638000249863,True,18,1,0,2
PB029M20,3,178,AS,exp,33,↓,down,↓,0.6967686000280082,True,17,1,0,2
PB029M20,3,179,AS,exp,26,←,left,←,0.5630352000007406,True,17,1,0,2
PB029M20,3,180,AS,exp,35,↓,down,↓,0.49010159994941205,True,16,1,0,2
PB029M20,3,181,AS,exp,44,←,left,←,0.5129754999652505,True,16,1,0,2
PB029M20,3,182,AS,exp,34,↓,down,↓,0.7916255999589339,True,15,1,0,2
PB029M20,3,183,AS,exp,35,↑,up,↑,0.9554231000365689,True,15,1,0,2
PB029M20,3,184,AS,exp,44,↓,up,↑,1.1302802000427619,False,14,-1,1,3
PB029M20,3,185,AS,exp,37,↑,up,↑,0.8142889000009745,True,15,-1,0,3
PB029M20,3,186,AS,exp,26,←,left,←,0.515204899944365,True,15,1,1,4
PB029M20,3,187,AS,exp,26,↑,up,↑,0.5357193999225274,True,14,1,0,4
PB029M20,3,188,AS,exp,31,←,left,←,0.43301749997772276,True,14,1,0,4
PB029M20,3,189,AS,exp,42,↓,down,↓,0.7122889999300241,True,13,1,0,4
PB029M20,3,190,AS,exp,28,↑,up,↑,0.6139382999390364,True,13,1,0,4
PB029M20,3,191,AS,exp,39,←,right,→,0.9301877999678254,False,12,-1,1,5
PB029M20,3,192,AS,exp,46,↓,down,↓,0.9445481000002474,True,13,-1,0,5
PB029M20,3,193,AS,exp,40,↑,down,↓,0.7639139000093564,False,13,-1,0,5
PB029M20,3,194,AS,exp,31,←,left,←,0.5485698999837041,True,14,-1,0,5
PB029M20,3,195,AS,exp,43,↑,right,→,1.5551305999979377,False,14,-1,0,5
PB029M20,3,196,AS,exp,49,↓,down,↓,0.6950371999992058,True,15,-1,0,5
PB029M20,3,197,AS,exp,38,←,left,←,0.5873043000465259,True,15,1,1,6
PB029M20,3,198,AS,exp,47,↓,down,↓,0.7935986999655142,True,14,1,0,6
PB029M20,3,199,AS,exp,45,↑,up,↑,0.8325698999688029,True,14,1,0,6
PB029M20,3,200,AS,exp,33,→,right,→,0.7494930999819189,True,13,1,0,6
PB029M20,3,201,AS,exp,45,↑,up,↑,0.7288230999838561,True,13,1,0,6
PB029M20,3,202,AS,exp,33,→,left,←,0.5836647000396624,False,12,-1,1,7
PB029M20,3,203,AS,exp,28,←,left,←,0.5652576999273151,True,13,-1,0,7
PB029M20,3,204,AS,exp,50,→,left,←,0.6015607001027092,False,13,-1,0,7
PB029M20,3,205,AS,exp,48,↓,right,→,0.647628300008364,False,14,-1,0,7
PB029M20,3,206,AS,exp,37,←,left,←,0.6497662999900058,True,15,-1,0,7
PB029M20,3,207,AS,exp,50,↑,up,↑,0.6344074999215081,True,15,1,1,8
PB029M20,3,208,AS,exp,31,↓,down,↓,1.2984535999130458,True,14,1,0,8
PB029M20,3,209,AS,exp,31,→,right,→,1.0041386999655515,True,14,1,0,8
PB029M20,3,210,AS,exp,50,←,right,→,0.8570881000487134,False,13,-1,1,9
PB029M20,3,211,AS,exp,48,↓,down,↓,0.8373533000703901,True,14,-1,0,9
PB029M20,3,212,AS,exp,45,←,right,→,0.957518900046125,False,14,-1,0,9
PB029M20,3,213,AS,exp,41,↓,up,↑,0.7926050000824034,False,15,-1,0,9
PB029M20,3,214,AS,exp,31,→,right,→,0.5976160999853164,True,16,-1,0,9
PB029M20,3,215,AS,exp,26,↑,right,→,0.8474924999754876,False,16,-1,0,9
PB029M20,3,216,AS,exp,36,↓,down,↓,0.6760163999861106,True,17,-1,0,9
PB029M20,3,217,AS,exp,45,→,left,←,0.8593690999550745,False,17,-1,0,9
PB029M20,3,218,AS,exp,35,↑,no_key,no_letter,-1.0,False,18,-1,0,9
PB029M20,3,219,AS,exp,46,←,right,→,1.0907130000414327,False,19,-1,0,9
PB029M20,3,220,AS,exp,36,↓,right,→,1.1444742999738082,False,20,-1,0,9
PB029M20,3,221,AS,exp,27,↑,up,↑,0.6273945000721142,True,21,-1,0,9
PB029M20,3,222,AS,exp,32,←,left,←,0.8077591999899596,True,21,1,1,10
PB029M20,3,223,AS,exp,27,→,right,→,0.5364728999556974,True,20,1,0,10
PB029M20,3,224,AS,exp,35,←,down,↓,1.3170250999974087,False,20,-1,1,11
PB029M20,3,225,AS,exp,44,↑,up,↑,0.5264223999110982,True,21,-1,0,11
PB029M20,3,226,AS,exp,35,←,left,←,0.5558303999714553,True,21,1,1,12
PB029M20,3,227,AS,exp,49,↑,up,↑,0.8898386000655591,True,20,1,0,12
PB029M20,3,228,AS,exp,37,↓,down,↓,0.9249384999275208,True,20,1,0,12
PB029M20,3,229,AS,exp,36,↑,up,↑,0.7601272000465542,True,19,1,0,12
PB029M20,3,230,AS,exp,37,→,right,→,0.58002829994075,True,19,1,0,12
PB029M20,3,231,AS,exp,44,←,left,←,0.5800523000070825,True,18,1,0,12
PB029M20,3,232,AS,exp,35,↓,down,↓,0.848421199945733,True,18,1,0,12
PB029M20,3,233,AS,exp,29,↑,up,↑,1.0584116000682116,True,17,1,0,12
PB029M20,3,234,AS,exp,33,←,left,←,0.5609827000880614,True,17,1,0,12
PB029M20,3,235,AS,exp,43,→,right,→,0.5241927000461146,True,16,1,0,12
PB029M20,3,236,AS,exp,25,↓,down,↓,0.7056270999601111,True,16,1,0,12
PB029M20,3,237,AS,exp,50,←,right,→,0.5197510999860242,False,15,-1,1,13
PB029M20,3,238,AS,exp,47,↓,left,←,0.46552309999242425,False,16,-1,0,13
PB029M20,3,239,AS,exp,36,↑,down,↓,0.787664599949494,False,17,-1,0,13
PB029M20,3,240,AS,exp,45,↓,down,↓,0.6866434999974445,True,18,-1,0,13
PB029M20,3,241,AS,exp,36,→,right,→,0.6095224999589846,True,18,1,1,14
PB029M20,4,242,PS,intra_train,35,←,left,←,0.5327462999848649,True,9,-,-,-
PB029M20,4,243,PS,intra_train,28,↑,up,↑,0.6035412000492215,True,9,-,-,-
PB029M20,4,244,PS,intra_train,40,←,left,←,0.5324249000987038,True,9,-,-,-
PB029M20,4,245,PS,intra_train,50,→,right,→,0.6085195000050589,True,9,-,-,-
PB029M20,4,246,PS,intra_train,42,←,left,←,0.4746902999468148,True,9,-,-,-
PB029M20,4,247,PS,exp,47,↑,up,↑,0.5427999999374151,True,6,0,0,0
PB029M20,4,248,PS,exp,39,→,left,←,0.8207283000228927,False,6,-1,0,0
PB029M20,4,249,PS,exp,35,↑,up,↑,0.9682940000202507,True,7,-1,0,0
PB029M20,4,250,PS,exp,49,→,right,→,0.6578237999929115,True,7,1,1,1
PB029M20,4,251,PS,exp,32,←,left,←,0.4865908999927342,True,6,1,0,1
PB029M20,4,252,PS,exp,28,↓,down,↓,0.8482383999507874,True,6,1,0,1
PB029M20,4,253,PS,exp,31,→,right,→,0.676668000058271,True,5,1,0,1
PB029M20,4,254,PS,exp,29,↑,up,↑,0.584506900049746,True,5,1,0,1
PB029M20,4,255,PS,exp,49,→,up,↑,0.5105631001060829,False,4,-1,1,2
PB029M20,4,256,PS,exp,49,↑,down,↓,0.5360738999443129,False,5,-1,0,2
PB029M20,4,257,PS,exp,48,←,right,→,0.6494972000364214,False,6,-1,0,2
PB029M20,4,258,PS,exp,41,↑,up,↑,0.6348461000015959,True,7,-1,0,2
PB029M20,4,259,PS,exp,39,→,right,→,0.8771102000027895,True,7,1,1,3
PB029M20,4,260,PS,exp,35,↓,right,→,0.9188635000027716,False,6,-1,1,4
PB029M20,4,261,PS,exp,39,↑,right,→,0.5680504000047222,False,7,-1,0,4
PB029M20,4,262,PS,exp,50,←,left,←,0.5924401999218389,True,8,-1,0,4
PB029M20,4,263,PS,exp,29,↓,left,←,0.49344140000175685,False,8,-1,0,4
PB029M20,4,264,PS,exp,35,↑,no_key,no_letter,-1.0,False,9,-1,0,4
PB029M20,4,265,PS,exp,32,←,left,←,0.5051280000479892,True,10,-1,0,4
PB029M20,4,266,PS,exp,47,→,right,→,0.5643498999997973,True,10,1,1,5
PB029M20,4,267,PS,exp,37,←,right,→,0.5205296000931412,False,9,-1,1,6
PB029M20,4,268,PS,exp,49,↓,down,↓,0.8613333000103012,True,10,-1,0,6
PB029M20,4,269,PS,exp,48,→,left,←,0.6853713999735191,False,10,-1,0,6
PB029M20,4,270,PS,exp,41,↓,down,↓,0.6694350999314338,True,11,-1,0,6
PB029M20,4,271,PS,exp,45,→,right,→,0.8287321999669075,True,11,1,1,7
PB029M20,4,272,PS,exp,35,↑,right,→,0.5405712999636307,False,10,-1,1,8
PB029M20,4,273,PS,exp,35,→,right,→,0.6044742000522092,True,11,-1,0,8
PB029M20,4,274,PS,exp,30,↑,up,↑,0.5956469000084326,True,11,1,1,9
PB029M20,4,275,PS,exp,48,→,right,→,0.8576765999896452,True,10,1,0,9
PB029M20,4,276,PS,exp,49,←,right,→,0.5097099000122398,False,10,-1,1,10
PB029M20,4,277,PS,exp,39,→,right,→,0.5390106999548152,True,11,-1,0,10
PB029M20,4,278,PS,exp,33,↑,up,↑,0.5592365999473259,True,11,1,1,11
PB029M20,4,279,PS,exp,33,→,down,↓,0.7928650000831112,False,10,-1,1,12
PB029M20,4,280,PS,exp,50,←,left,←,0.7965258999029174,True,11,-1,0,12
PB029M20,4,281,PS,exp,28,↑,up,↑,0.8232199000194669,True,11,1,1,13
PB029M20,4,282,PS,exp,28,→,no_key,no_letter,-1.0,False,10,-1,1,14
PB029M20,5,283,PS,intra_train,35,↓,down,↓,0.6445210999809206,True,9,-,-,-
PB029M20,5,284,PS,intra_train,46,↑,up,↑,0.6198246000567451,True,9,-,-,-
PB029M20,5,285,PS,intra_train,44,→,right,→,0.48304429999552667,True,9,-,-,-
PB029M20,5,286,PS,intra_train,42,↓,down,↓,0.9232716000406072,True,9,-,-,-
PB029M20,5,287,PS,intra_train,38,→,right,→,0.5677458998980001,True,9,-,-,-
PB029M20,5,288,PS,exp,43,↑,left,←,0.573179200058803,False,6,-1,0,0
PB029M20,5,289,PS,exp,31,←,left,←,0.633734899922274,True,7,-1,0,0
PB029M20,5,290,PS,exp,48,↑,up,↑,0.5573786000022665,True,7,1,1,1
PB029M20,5,291,PS,exp,31,↓,down,↓,0.6010827999562025,True,6,1,0,1
PB029M20,5,292,PS,exp,30,→,right,→,0.5336727000540122,True,6,1,0,1
PB029M20,5,293,PS,exp,33,↑,up,↑,0.6533858999609947,True,5,1,0,1
PB029M20,5,294,PS,exp,44,↓,down,↓,0.5096490000141785,True,5,1,0,1
PB029M20,5,295,PS,exp,25,→,left,←,0.5914213999640197,False,4,-1,1,2
PB029M20,5,296,PS,exp,29,←,right,→,1.135669399984181,False,5,-1,0,2
PB029M20,5,297,PS,exp,39,↑,up,↑,0.45858159998897463,True,6,-1,0,2
PB029M20,5,298,PS,exp,27,→,left,←,0.8482575000962242,False,6,-1,0,2
PB029M20,5,299,PS,exp,40,↑,up,↑,0.4737359000137076,True,7,-1,0,2
PB029M20,5,300,PS,exp,40,←,left,←,0.7447755000321195,True,7,1,1,3
PB029M20,5,301,PS,exp,48,↑,up,↑,1.358909699949436,True,6,1,0,3
PB029M20,5,302,PS,exp,50,→,down,↓,0.4373813000274822,False,6,-1,1,4
PB029M20,5,303,PS,exp,38,↑,up,↑,0.7036192000377923,True,7,-1,0,4
PB029M20,5,304,PS,exp,40,→,right,→,0.625230300007388,True,7,1,1,5
PB029M20,5,305,PS,exp,41,←,right,→,0.6053719000192359,False,6,-1,1,6
PB029M20,5,306,PS,exp,38,↓,down,↓,0.9139739000238478,True,7,-1,0,6
PB029M20,5,307,PS,exp,27,→,down,↓,0.48842920002061874,False,7,-1,0,6
PB029M20,5,308,PS,exp,35,↑,up,↑,0.6680585999274626,True,8,-1,0,6
PB029M20,5,309,PS,exp,25,↓,down,↓,0.6965684000169858,True,8,1,1,7
PB029M20,5,310,PS,exp,39,←,left,←,0.48948520002886653,True,7,1,0,7
PB029M20,5,311,PS,exp,40,↓,up,↑,0.5263999999733642,False,7,-1,1,8
PB029M20,5,312,PS,exp,50,→,right,→,0.6750204000854865,True,8,-1,0,8
PB029M20,5,313,PS,exp,40,↓,down,↓,0.717852900037542,True,8,1,1,9
PB029M20,5,314,PS,exp,35,←,right,→,0.50634279998485,False,7,-1,1,10
PB029M20,5,315,PS,exp,39,→,right,→,0.48085370007902384,True,8,-1,0,10
PB029M20,5,316,PS,exp,36,↓,down,↓,0.6793774999678135,True,8,1,1,11
PB029M20,5,317,PS,exp,28,↑,up,↑,0.5958136999979615,True,7,1,0,11
PB029M20,5,318,PS,exp,28,→,down,↓,0.45411080005578697,False,7,-1,1,12
PB029M20,5,319,PS,exp,26,↓,down,↓,0.5551136999856681,True,8,-1,0,12
PB029M20,5,320,PS,exp,35,↑,up,↑,0.5785507000982761,True,8,1,1,13
PB029M20,5,321,PS,exp,32,→,right,→,0.5691728999372572,True,7,1,0,13
PB029M20,5,322,PS,exp,49,↑,up,↑,0.5836812999332324,True,7,1,0,13
PB029M20,5,323,PS,exp,34,↓,down,↓,0.592783399973996,True,6,1,0,13
PB029M20,5,324,PS,exp,45,↑,down,↓,0.7470825000200421,False,6,-1,1,14
PB029M20,6,325,AS,intra_train,29,→,right,→,0.9589782999828458,True,30,-,-,-
PB029M20,6,326,AS,intra_train,47,←,left,←,0.6004083000589162,True,30,-,-,-
PB029M20,6,327,AS,intra_train,30,→,right,→,0.5842170000541955,True,30,-,-,-
PB029M20,6,328,AS,intra_train,36,↓,down,↓,0.9162228000350296,True,30,-,-,-
PB029M20,6,329,AS,intra_train,25,→,right,→,1.1622530999593437,True,30,-,-,-
PB029M20,6,330,AS,exp,29,←,right,→,0.6991272999439389,False,20,-1,0,0
PB029M20,6,331,AS,exp,43,→,down,↓,0.6826138000469655,False,21,-1,0,0
PB029M20,6,332,AS,exp,45,↑,up,↑,0.6772466999245808,True,22,-1,0,0
PB029M20,6,333,AS,exp,30,↓,down,↓,0.8788325999630615,True,22,1,1,1
PB029M20,6,334,AS,exp,49,→,right,→,0.7050297999521717,True,21,1,0,1
PB029M20,6,335,AS,exp,49,←,left,←,0.575347000034526,True,21,1,0,1
PB029M20,6,336,AS,exp,27,↓,right,→,1.0619532000273466,False,20,-1,1,2
PB029M20,6,337,AS,exp,42,↑,right,→,0.6621434999397025,False,21,-1,0,2
PB029M20,6,338,AS,exp,44,↓,down,↓,0.5888321000384167,True,22,-1,0,2
PB029M20,6,339,AS,exp,50,→,right,→,0.7942399000748992,True,22,1,1,3
PB029M20,6,340,AS,exp,31,↑,down,↓,0.7396344000007957,False,21,-1,1,4
PB029M20,6,341,AS,exp,46,↓,down,↓,0.7609971000347286,True,22,-1,0,4
PB029M20,6,342,AS,exp,50,↑,up,↑,0.7987040999578312,True,22,1,1,5
PB029M20,6,343,AS,exp,31,→,right,→,0.5404388000024483,True,21,1,0,5
PB029M20,6,344,AS,exp,38,↓,down,↓,0.660281699965708,True,21,1,0,5
PB029M20,6,345,AS,exp,38,↑,down,↓,0.9480060000205413,False,20,-1,1,6
PB029M20,6,346,AS,exp,31,←,left,←,0.8975776999723166,True,21,-1,0,6
PB029M20,6,347,AS,exp,43,→,no_key,no_letter,-1.0,False,21,-1,0,6
PB029M20,6,348,AS,exp,47,↑,up,↑,0.8393005999969319,True,22,-1,0,6
PB029M20,6,349,AS,exp,31,→,right,→,0.40044410002883524,True,22,1,1,7
PB029M20,6,350,AS,exp,50,↓,down,↓,0.6724601000314578,True,21,1,0,7
PB029M20,6,351,AS,exp,49,→,right,→,0.7343952000373974,True,21,1,0,7
PB029M20,6,352,AS,exp,50,←,left,←,0.7170620000688359,True,20,1,0,7
PB029M20,6,353,AS,exp,42,↓,down,↓,0.644157400005497,True,20,1,0,7
PB029M20,6,354,AS,exp,36,→,right,→,0.668658500071615,True,19,1,0,7
PB029M20,6,355,AS,exp,46,←,left,←,0.8093647999921814,True,19,1,0,7
PB029M20,6,356,AS,exp,44,↓,down,↓,0.8979877999518067,True,18,1,0,7
PB029M20,6,357,AS,exp,33,↑,down,↓,0.6148637000005692,False,18,-1,1,8
PB029M20,6,358,AS,exp,37,↓,down,↓,0.603672600002028,True,19,-1,0,8
PB029M20,6,359,AS,exp,28,↑,up,↑,0.7423142999177799,True,19,1,1,9
PB029M20,6,360,AS,exp,37,→,left,←,0.8643540000775829,False,18,-1,1,10
PB029M20,6,361,AS,exp,30,↓,down,↓,1.0347252000356093,True,19,-1,0,10
PB029M20,6,362,AS,exp,29,→,right,→,0.5230567998951301,True,19,1,1,11
PB029M20,6,363,AS,exp,31,↑,down,↓,0.7150729999411851,False,18,-1,1,12
PB029M20,6,364,AS,exp,38,←,no_key,no_letter,-1.0,False,19,-1,0,12
PB029M20,6,365,AS,exp,31,↓,down,↓,0.6213836999377236,True,20,-1,0,12
PB029M20,6,366,AS,exp,26,↑,down,↓,0.5494408999802545,False,20,-1,0,12
PB029M20,6,367,AS,exp,47,↓,down,↓,0.5433848999673501,True,21,-1,0,12
PB029M20,6,368,AS,exp,27,→,right,→,0.7901991000398993,True,21,1,1,13
PB029M20,6,369,AS,exp,47,↓,down,↓,0.7497213999740779,True,20,1,0,13
PB029M20,6,370,AS,exp,43,↑,up,↑,0.8238004999002442,True,20,1,0,13
PB029M20,6,371,AS,exp,48,←,left,←,0.9549946000333875,True,19,1,0,13
PB029M20,6,372,AS,exp,43,↓,down,↓,0.9303096000803635,True,19,1,0,13
PB029M20,6,373,AS,exp,38,↑,up,↑,0.6404945000540465,True,18,1,0,13
PB029M20,6,374,AS,exp,42,→,right,→,0.8295246000634506,True,18,1,0,13
PB029M20,6,375,AS,exp,41,↑,up,↑,0.7381159000797197,True,17,1,0,13
PB029M20,6,376,AS,exp,42,↓,down,↓,0.5346449000062421,True,17,1,0,13
PB029M20,6,377,AS,exp,30,↑,down,↓,0.5469000999582931,False,16,-1,1,14
PB029M20,7,378,AS,intra_train,35,→,right,→,1.8618505001068115,True,30,-,-,-
PB029M20,7,379,AS,intra_train,26,↓,down,↓,0.6171226999722421,True,30,-,-,-
PB029M20,7,380,AS,intra_train,38,→,right,→,0.6778764999471605,True,30,-,-,-
PB029M20,7,381,AS,intra_train,33,↑,no_key,no_letter,-1.0,False,30,-,-,-
PB029M20,7,382,AS,intra_train,44,←,right,→,0.7845135999377817,False,30,-,-,-
PB029M20,7,383,AS,exp,46,↑,up,↑,0.5715989000163972,True,20,0,0,0
PB029M20,7,384,AS,exp,28,↓,down,↓,0.9062837000237778,True,20,1,0,0
PB029M20,7,385,AS,exp,47,→,right,→,0.9245615999680012,True,19,1,0,0
PB029M20,7,386,AS,exp,40,↑,no_key,no_letter,-1.0,False,19,-1,1,1
PB029M20,7,387,AS,exp,45,↓,down,↓,0.9488413000945002,True,20,-1,0,1
PB029M20,7,388,AS,exp,47,→,right,→,1.7702965000644326,True,20,1,1,2
PB029M20,7,389,AS,exp,44,←,right,→,0.6135812998982146,False,19,-1,1,3
PB029M20,7,390,AS,exp,42,→,right,→,0.4337790999561548,True,20,-1,0,3
PB029M20,7,391,AS,exp,33,↑,up,↑,0.5528049999848008,True,20,1,1,4
PB029M20,7,392,AS,exp,35,↓,down,↓,1.092193100019358,True,19,1,0,4
PB029M20,7,393,AS,exp,46,→,right,→,0.58437589998357,True,19,1,0,4
PB029M20,7,394,AS,exp,32,↑,up,↑,0.5563711000140756,True,18,1,0,4
PB029M20,7,395,AS,exp,49,→,right,→,0.5237650000490248,True,18,1,0,4
PB029M20,7,396,AS,exp,26,←,right,→,0.7892242999514565,False,17,-1,1,5
PB029M20,7,397,AS,exp,41,↓,down,↓,0.8844411000609398,True,18,-1,0,5
PB029M20,7,398,AS,exp,35,→,right,→,0.5939565999433398,True,18,1,1,6
PB029M20,7,399,AS,exp,34,←,right,→,1.8826554999686778,False,17,-1,1,7
PB029M20,7,400,AS,exp,32,↑,up,↑,0.6511098000919446,True,18,-1,0,7
PB029M20,7,401,AS,exp,42,↓,down,↓,0.5975264000007883,True,18,1,1,8
PB029M20,7,402,AS,exp,34,←,right,→,0.7956034999806434,False,17,-1,1,9
PB029M20,7,403,AS,exp,37,↑,up,↑,0.5154514000751078,True,18,-1,0,9
PB029M20,7,404,AS,exp,30,→,right,→,0.49299579998478293,True,18,1,1,10
PB029M20,7,405,AS,exp,37,←,right,→,0.4756998000666499,False,17,-1,1,11
PB029M20,7,406,AS,exp,32,→,down,↓,1.1110835999716073,False,18,-1,0,11
PB029M20,7,407,AS,exp,31,↑,up,↑,0.6096878999378532,True,19,-1,0,11
PB029M20,7,408,AS,exp,32,←,left,←,0.6780157000757754,True,19,1,1,12
PB029M20,7,409,AS,exp,39,→,right,→,0.7055106000043452,True,18,1,0,12
PB029M20,7,410,AS,exp,39,←,left,←,1.079360399977304,True,18,1,0,12
PB029M20,7,411,AS,exp,46,↓,down,↓,0.9081538999453187,True,17,1,0,12
PB029M20,7,412,AS,exp,40,→,right,→,0.550947800045833,True,17,1,0,12
PB029M20,7,413,AS,exp,47,↑,up,↑,0.48419860005378723,True,16,1,0,12
PB029M20,7,414,AS,exp,34,←,down,↓,0.8085206999676302,False,16,-1,1,13
PB029M20,7,415,AS,exp,40,→,up,↑,0.8511451999656856,False,17,-1,0,13
PB029M20,7,416,AS,exp,32,←,left,←,0.9428516000043601,True,18,-1,0,13
PB029M20,7,417,AS,exp,31,→,right,→,1.0463473000563681,True,18,1,1,14
PB029M20,8,418,PS,intra_train,42,↓,down,↓,0.7307337999809533,True,9,-,-,-
PB029M20,8,419,PS,intra_train,33,→,right,→,0.8864153999602422,True,9,-,-,-
PB029M20,8,420,PS,intra_train,49,↓,down,↓,0.8260483000194654,True,9,-,-,-
PB029M20,8,421,PS,intra_train,41,↑,up,↑,0.6167625999078155,True,9,-,-,-
PB029M20,8,422,PS,intra_train,50,↓,down,↓,0.6528496999526396,True,9,-,-,-
PB029M20,8,423,PS,exp,48,←,right,→,0.47321690001990646,False,6,-1,0,0
PB029M20,8,424,PS,exp,26,→,left,←,0.7105449999216944,False,7,-1,0,0
PB029M20,8,425,PS,exp,29,↓,down,↓,0.6353150999639183,True,8,-1,0,0
PB029M20,8,426,PS,exp,34,↑,left,←,1.063189800013788,False,8,-1,0,0
PB029M20,8,427,PS,exp,43,←,right,→,0.7505016999784857,False,9,-1,0,0
PB029M20,8,428,PS,exp,39,↓,up,↑,0.49977979995310307,False,10,-1,0,0
PB029M20,8,429,PS,exp,45,→,left,←,0.45934980001766235,False,11,-1,0,0
PB029M20,8,430,PS,exp,37,↑,down,↓,0.7244197999825701,False,12,-1,0,0
PB029M20,8,431,PS,exp,32,←,left,←,0.4732654000399634,True,13,-1,0,0
PB029M20,8,432,PS,exp,45,↑,up,↑,0.7232184000313282,True,13,1,1,1
PB029M20,8,433,PS,exp,26,←,right,→,0.5924215000122786,False,12,-1,1,2
PB029M20,8,434,PS,exp,29,↑,up,↑,0.7385881999507546,True,13,-1,0,2
PB029M20,8,435,PS,exp,25,↓,down,↓,0.7351651000790298,True,13,1,1,3
PB029M20,8,436,PS,exp,46,↑,left,←,0.3337394999107346,False,12,-1,1,4
PB029M20,8,437,PS,exp,50,↓,up,↑,0.39263349992688745,False,13,-1,0,4
PB029M20,8,438,PS,exp,37,↑,down,↓,0.47605830000247806,False,14,-1,0,4
PB029M20,8,439,PS,exp,35,→,right,→,0.5365940000629053,True,15,-1,0,4
PB029M20,8,440,PS,exp,32,↓,down,↓,0.5562217999249697,True,15,1,1,5
PB029M20,8,441,PS,exp,47,←,right,→,0.666905999998562,False,14,-1,1,6
PB029M20,8,442,PS,exp,30,→,right,→,0.4403491000412032,True,15,-1,0,6
PB029M20,8,443,PS,exp,27,←,left,←,0.46637749997898936,True,15,1,1,7
PB029M20,8,444,PS,exp,34,↓,down,↓,0.6333557000616565,True,14,1,0,7
PB029M20,8,445,PS,exp,35,←,left,←,0.5125181999756023,True,14,1,0,7
PB029M20,8,446,PS,exp,35,↓,down,↓,0.5016920999623835,True,13,1,0,7
PB029M20,8,447,PS,exp,30,←,left,←,0.4585236000129953,True,13,1,0,7
PB029M20,8,448,PS,exp,39,↓,down,↓,0.581243299995549,True,12,1,0,7
PB029M20,8,449,PS,exp,31,→,right,→,0.5360043999971822,True,12,1,0,7
PB029M20,8,450,PS,exp,38,↑,up,↑,0.5447988000232726,True,11,1,0,7
PB029M20,8,451,PS,exp,26,→,right,→,0.45771320001222193,True,11,1,0,7
PB029M20,8,452,PS,exp,33,↑,up,↑,0.5610886999638751,True,10,1,0,7
PB029M20,8,453,PS,exp,31,↓,down,↓,0.405469199991785,True,10,1,0,7
PB029M20,8,454,PS,exp,27,←,left,←,0.47311829996760935,True,9,1,0,7
PB029M20,8,455,PS,exp,48,→,right,→,0.4443113999441266,True,9,1,0,7
PB029M20,8,456,PS,exp,39,↓,up,↑,0.7622689000563696,False,8,-1,1,8
PB029M20,8,457,PS,exp,26,→,left,←,0.5658665999071673,False,9,-1,0,8
PB029M20,8,458,PS,exp,43,↓,down,↓,0.487618500017561,True,10,-1,0,8
PB029M20,8,459,PS,exp,37,←,down,↓,0.7196736999321729,False,10,-1,0,8
PB029M20,8,460,PS,exp,34,↓,down,↓,0.4420238999882713,True,11,-1,0,8
PB029M20,8,461,PS,exp,26,←,left,←,0.5445146000711247,True,11,1,1,9
PB029M20,8,462,PS,exp,38,→,no_key,no_letter,-1.0,False,10,-1,1,10
PB029M20,8,463,PS,exp,26,←,left,←,0.5150745999999344,True,11,-1,0,10
PB029M20,8,464,PS,exp,49,↑,up,↑,0.5769951000111178,True,11,1,1,11
PB029M20,8,465,PS,exp,35,←,left,←,0.5310527000110596,True,10,1,0,11
PB029M20,8,466,PS,exp,34,→,right,→,0.46989309997297823,True,10,1,0,11
PB029M20,8,467,PS,exp,37,↑,up,↑,0.6189097999595106,True,9,1,0,11
PB029M20,8,468,PS,exp,49,←,down,↓,0.6751472000032663,False,9,-1,1,12
PB029M20,8,469,PS,exp,36,→,right,→,0.5054150000214577,True,10,-1,0,12
PB029M20,8,470,PS,exp,49,←,left,←,0.6206637000432238,True,10,1,1,13
PB029M20,8,471,PS,exp,47,→,right,→,0.4268182000378147,True,9,1,0,13
PB029M20,8,472,PS,exp,39,←,right,→,0.7959160000318661,False,9,-1,1,14
