PART_ID,Block_no,Trial_no,Block_type,Trial_type,CSI,Stim_letter,Key_pressed,letter_choose,Rt,Corr,Stimulus Time,Level,Reversal,Revs_count
PB021M40,1,1,PS,train,47,→,right,→,0.8933954999956768,True,30,-,-,-
PB021M40,1,2,PS,train,46,↑,no_key,no_letter,-1.0,False,30,-,-,-
PB021M40,1,3,PS,train,42,→,right,→,0.9430337999947369,True,30,-,-,-
PB021M40,1,4,PS,train,29,↓,up,↑,1.897386299999198,False,30,-,-,-
PB021M40,1,5,PS,train,47,←,left,←,0.9327572000038344,True,30,-,-,-
PB021M40,1,6,PS,train,45,→,right,→,0.8781195000046864,True,30,-,-,-
PB021M40,1,7,PS,train,43,↑,no_key,no_letter,-1.0,False,30,-,-,-
PB021M40,1,8,PS,train,45,←,no_key,no_letter,-1.0,False,30,-,-,-
PB021M40,1,9,PS,train,38,→,right,→,1.0648850000288803,True,30,-,-,-
PB021M40,1,10,PS,train,34,↑,up,↑,1.1363295000046492,True,30,-,-,-
PB021M40,2,11,AS,train,41,↓,up,↑,1.7382909000152722,False,45,-,-,-
PB021M40,2,12,AS,train,30,←,left,←,0.8838705999951344,True,45,-,-,-
PB021M40,2,13,AS,train,43,→,right,→,0.6511247000016738,True,45,-,-,-
PB021M40,2,14,AS,train,35,←,left,←,1.964545700000599,True,45,-,-,-
PB021M40,2,15,AS,train,40,→,right,→,0.7503214000025764,True,45,-,-,-
PB021M40,2,16,AS,train,27,↓,down,↓,1.728115699981572,True,45,-,-,-
PB021M40,2,17,AS,train,28,←,left,←,0.6510238999908324,True,45,-,-,-
PB021M40,2,18,AS,train,33,↓,down,↓,0.8841265999944881,True,45,-,-,-
PB021M40,2,19,AS,train,30,↑,up,↑,2.0249320000002626,True,45,-,-,-
PB021M40,2,20,AS,train,25,←,left,←,1.1429845000093337,True,45,-,-,-
PB021M40,-,21,PS,adaptive,25,→,right,→,1.020124600006966,True,10,0,0,0
PB021M40,-,22,PS,adaptive,46,↑,left,←,0.9653374999761581,False,10,-1,0,0
PB021M40,-,23,PS,adaptive,49,↓,down,↓,0.8932974000053946,True,11,-1,0,0
PB021M40,-,24,PS,adaptive,38,←,left,←,0.885011400008807,True,11,1,1,1
PB021M40,-,25,PS,adaptive,33,↓,down,↓,0.6856804999988526,True,10,1,0,1
PB021M40,-,26,PS,adaptive,28,↑,up,↑,1.5632611000037286,True,10,1,0,1
PB021M40,-,27,PS,adaptive,36,→,right,→,0.7966526999953203,True,9,1,0,1
PB021M40,-,28,PS,adaptive,45,←,right,→,0.8163206999888644,False,9,-1,1,2
PB021M40,-,29,PS,adaptive,31,→,right,→,0.8475230999756604,True,10,-1,0,2
PB021M40,-,30,PS,adaptive,38,←,left,←,0.7414533999981359,True,10,1,1,3
PB021M40,-,31,PS,adaptive,36,→,right,→,0.9058312999841291,True,9,1,0,3
PB021M40,-,32,PS,adaptive,25,←,right,→,0.700279100012267,False,9,-1,1,4
PB021M40,-,33,AS,adaptive,47,→,right,→,0.8212980000243988,True,20,0,0,0
PB021M40,-,34,AS,adaptive,35,←,left,←,0.7946817000047304,True,20,1,0,0
PB021M40,-,35,AS,adaptive,34,↑,up,↑,0.7659399999829475,True,19,1,0,0
PB021M40,-,36,AS,adaptive,49,←,right,→,0.7971028000174556,False,19,-1,1,1
PB021M40,-,37,AS,adaptive,47,→,right,→,0.7468786000099499,True,20,-1,0,1
PB021M40,-,38,AS,adaptive,28,↓,down,↓,0.8064297999953851,True,20,1,1,2
PB021M40,-,39,AS,adaptive,39,↑,up,↑,0.8755621000018436,True,19,1,0,2
PB021M40,-,40,AS,adaptive,41,←,left,←,0.8540258000139147,True,19,1,0,2
PB021M40,-,41,AS,adaptive,29,→,left,←,1.226631500001531,False,18,-1,1,3
PB021M40,-,42,AS,adaptive,48,↓,down,↓,0.9191242000088096,True,19,-1,0,3
PB021M40,-,43,AS,adaptive,46,↑,up,↑,0.9748379999946337,True,19,1,1,4
PB021M40,1,44,AS,intra_train,46,→,right,→,0.8759814999939408,True,27,-,-,-
PB021M40,1,45,AS,intra_train,32,↓,up,↑,0.8227167000004556,False,27,-,-,-
PB021M40,1,46,AS,intra_train,36,→,right,→,0.7397681000002194,True,27,-,-,-
PB021M40,1,47,AS,intra_train,25,←,left,←,0.6390121000004001,True,27,-,-,-
PB021M40,1,48,AS,intra_train,26,↑,up,↑,0.7665567999938503,True,27,-,-,-
PB021M40,1,49,AS,exp,45,←,left,←,0.658034599997336,True,18,0,0,0
PB021M40,1,50,AS,exp,37,↓,down,↓,1.0794454000133555,True,18,1,0,0
PB021M40,1,51,AS,exp,44,→,left,←,1.1562452999933157,False,17,-1,1,1
PB021M40,1,52,AS,exp,32,↓,down,↓,0.7682624000008218,True,18,-1,0,1
PB021M40,1,53,AS,exp,28,→,right,→,0.8650327999785077,True,18,1,1,2
PB021M40,1,54,AS,exp,37,↓,down,↓,0.6876549999869894,True,17,1,0,2
PB021M40,1,55,AS,exp,50,→,left,←,0.786904799984768,False,17,-1,1,3
PB021M40,1,56,AS,exp,41,↓,down,↓,0.8772190999879967,True,18,-1,0,3
PB021M40,1,57,AS,exp,37,←,left,←,0.6727829999872483,True,18,1,1,4
PB021M40,1,58,AS,exp,39,↓,down,↓,0.7758493000001181,True,17,1,0,4
PB021M40,1,59,AS,exp,28,↑,up,↑,1.3400137000135146,True,17,1,0,4
PB021M40,1,60,AS,exp,31,←,left,←,0.6835897999990266,True,16,1,0,4
PB021M40,1,61,AS,exp,34,↓,down,↓,0.8327007000043523,True,16,1,0,4
PB021M40,1,62,AS,exp,41,←,left,←,0.7350041999889072,True,15,1,0,4
PB021M40,1,63,AS,exp,50,↑,up,↑,0.9358011000149418,True,15,1,0,4
PB021M40,1,64,AS,exp,25,←,left,←,0.6759992000006605,True,14,1,0,4
PB021M40,1,65,AS,exp,40,↓,down,↓,0.9259316000097897,True,14,1,0,4
PB021M40,1,66,AS,exp,43,←,right,→,0.6573988999880385,False,13,-1,1,5
PB021M40,1,67,AS,exp,33,↓,down,↓,0.6791623999888543,True,14,-1,0,5
PB021M40,1,68,AS,exp,37,←,left,←,0.6016039999958593,True,14,1,1,6
PB021M40,1,69,AS,exp,39,↑,up,↑,1.0378200999984983,True,13,1,0,6
PB021M40,1,70,AS,exp,37,↓,down,↓,0.6939735999912955,True,13,1,0,6
PB021M40,1,71,AS,exp,47,←,left,←,0.9999429000017699,True,12,1,0,6
PB021M40,1,72,AS,exp,35,→,right,→,0.8147624999983236,True,12,1,0,6
PB021M40,1,73,AS,exp,45,↓,down,↓,0.74825019997661,True,11,1,0,6
PB021M40,1,74,AS,exp,35,←,left,←,0.6762672000040766,True,11,1,0,6
PB021M40,1,75,AS,exp,26,↑,down,↓,0.769417399977101,False,10,-1,1,7
PB021M40,1,76,AS,exp,42,←,left,←,0.7756594999809749,True,11,-1,0,7
PB021M40,1,77,AS,exp,44,↓,down,↓,0.7259699000278488,True,11,1,1,8
PB021M40,1,78,AS,exp,31,↑,up,↑,0.9225595000025351,True,10,1,0,8
PB021M40,1,79,AS,exp,31,→,right,→,0.8336180000042077,True,10,1,0,8
PB021M40,1,80,AS,exp,41,↓,down,↓,0.9041087999939919,True,9,1,0,8
PB021M40,1,81,AS,exp,47,↑,up,↑,1.091981699981261,True,9,1,0,8
PB021M40,1,82,AS,exp,28,←,left,←,0.787127599993255,True,8,1,0,8
PB021M40,1,83,AS,exp,46,→,right,→,0.887993499985896,True,8,1,0,8
PB021M40,1,84,AS,exp,46,↓,left,←,0.8731451000203378,False,7,-1,1,9
PB021M40,1,85,AS,exp,28,←,left,←,0.6631309000076726,True,8,-1,0,9
PB021M40,1,86,AS,exp,26,→,left,←,0.752816599997459,False,8,-1,0,9
PB021M40,1,87,AS,exp,25,←,left,←,0.7057988999877125,True,9,-1,0,9
PB021M40,1,88,AS,exp,33,→,right,→,0.6521305000060238,True,9,1,1,10
PB021M40,1,89,AS,exp,27,↓,left,←,0.765744000003906,False,8,-1,1,11
PB021M40,1,90,AS,exp,25,←,left,←,0.5669971999886911,True,9,-1,0,11
PB021M40,1,91,AS,exp,40,→,left,←,0.6248799000168219,False,9,-1,0,11
PB021M40,1,92,AS,exp,25,↓,down,↓,1.1347838999936357,True,10,-1,0,11
PB021M40,1,93,AS,exp,41,→,left,←,0.6928502999944612,False,10,-1,0,11
PB021M40,1,94,AS,exp,46,↑,left,←,0.9862401999998838,False,11,-1,0,11
PB021M40,1,95,AS,exp,38,↓,down,↓,0.824126100022113,True,12,-1,0,11
PB021M40,1,96,AS,exp,30,→,left,←,0.6374648000055458,False,12,-1,0,11
PB021M40,1,97,AS,exp,46,↑,up,↑,0.8769173000182491,True,13,-1,0,11
PB021M40,1,98,AS,exp,25,←,left,←,0.6607176000252366,True,13,1,1,12
PB021M40,1,99,AS,exp,31,→,right,→,0.7704897000221536,True,12,1,0,12
PB021M40,1,100,AS,exp,32,←,left,←,0.793430099991383,True,12,1,0,12
PB021M40,1,101,AS,exp,47,↓,down,↓,1.093989299988607,True,11,1,0,12
PB021M40,1,102,AS,exp,37,↑,down,↓,0.7718165999976918,False,11,-1,1,13
PB021M40,1,103,AS,exp,39,→,left,←,0.6660743999818806,False,12,-1,0,13
PB021M40,1,104,AS,exp,28,↑,left,←,1.1950467000133358,False,13,-1,0,13
PB021M40,1,105,AS,exp,37,→,right,→,0.7283877000154462,True,14,-1,0,13
PB021M40,1,106,AS,exp,44,←,left,←,0.7778242999920622,True,14,1,1,14
PB021M40,2,107,PS,intra_train,40,→,right,→,1.0401946999772917,True,15,-,-,-
PB021M40,2,108,PS,intra_train,35,←,right,→,1.141379999986384,False,15,-,-,-
PB021M40,2,109,PS,intra_train,36,→,right,→,0.8888766000163741,True,15,-,-,-
PB021M40,2,110,PS,intra_train,46,↑,up,↑,0.7777158999815583,True,15,-,-,-
PB021M40,2,111,PS,intra_train,33,→,right,→,0.6398409999965224,True,15,-,-,-
PB021M40,2,112,PS,exp,42,←,right,→,0.6318321999860927,False,10,-1,0,0
PB021M40,2,113,PS,exp,40,→,right,→,0.9389645000046585,True,11,-1,0,0
PB021M40,2,114,PS,exp,26,↑,right,→,1.013644699996803,False,11,-1,0,0
PB021M40,2,115,PS,exp,46,↓,up,↑,1.0835642000020016,False,12,-1,0,0
PB021M40,2,116,PS,exp,42,←,right,→,0.7716406999970786,False,13,-1,0,0
PB021M40,2,117,PS,exp,27,→,right,→,0.6338904000003822,True,14,-1,0,0
PB021M40,2,118,PS,exp,47,↑,down,↓,0.9316601000027731,False,14,-1,0,0
PB021M40,2,119,PS,exp,40,←,left,←,0.7010955000005197,True,15,-1,0,0
PB021M40,2,120,PS,exp,37,→,right,→,0.6533954000042286,True,15,1,1,1
PB021M40,2,121,PS,exp,37,↑,up,↑,0.9326127000094857,True,14,1,0,1
PB021M40,2,122,PS,exp,48,→,right,→,0.552943899994716,True,14,1,0,1
PB021M40,2,123,PS,exp,29,↑,right,→,0.9741659999999683,False,13,-1,1,2
PB021M40,2,124,PS,exp,31,↓,down,↓,0.7445298999955412,True,14,-1,0,2
PB021M40,2,125,PS,exp,47,→,right,→,0.5806636000052094,True,14,1,1,3
PB021M40,2,126,PS,exp,43,↑,down,↓,1.0344393999839667,False,13,-1,1,4
PB021M40,2,127,PS,exp,44,←,left,←,0.698409399978118,True,14,-1,0,4
PB021M40,2,128,PS,exp,28,→,right,→,0.7046865999873262,True,14,1,1,5
PB021M40,2,129,PS,exp,47,↓,down,↓,0.8175164999847766,True,13,1,0,5
PB021M40,2,130,PS,exp,40,↑,down,↓,0.7822545999952126,False,13,-1,1,6
PB021M40,2,131,PS,exp,45,↓,right,→,0.7784173999971244,False,14,-1,0,6
PB021M40,2,132,PS,exp,45,→,right,→,0.7135363999987021,True,15,-1,0,6
PB021M40,2,133,PS,exp,31,←,left,←,0.6810408000019379,True,15,1,1,7
PB021M40,2,134,PS,exp,49,↓,down,↓,0.8752007999864873,True,14,1,0,7
PB021M40,2,135,PS,exp,48,↑,up,↑,1.0566342999809422,True,14,1,0,7
PB021M40,2,136,PS,exp,36,→,right,→,0.6362429999862798,True,13,1,0,7
PB021M40,2,137,PS,exp,49,←,right,→,0.9556615999899805,False,13,-1,1,8
PB021M40,2,138,PS,exp,37,↓,down,↓,0.834210200002417,True,14,-1,0,8
PB021M40,2,139,PS,exp,33,←,left,←,0.7929972999845631,True,14,1,1,9
PB021M40,2,140,PS,exp,25,→,right,→,0.8756741000106558,True,13,1,0,9
PB021M40,2,141,PS,exp,26,←,left,←,0.6798295000044163,True,13,1,0,9
PB021M40,2,142,PS,exp,44,↑,right,→,0.7810209000017494,False,12,-1,1,10
PB021M40,2,143,PS,exp,43,→,right,→,0.5941518000036012,True,13,-1,0,10
PB021M40,2,144,PS,exp,49,←,left,←,0.6853451000060886,True,13,1,1,11
PB021M40,2,145,PS,exp,43,→,right,→,0.6600506999820936,True,12,1,0,11
PB021M40,2,146,PS,exp,33,↓,down,↓,0.7827956000110134,True,12,1,0,11
PB021M40,2,147,PS,exp,31,←,left,←,0.7784439000242855,True,11,1,0,11
PB021M40,2,148,PS,exp,38,→,left,←,0.8077372999978252,False,11,-1,1,12
PB021M40,2,149,PS,exp,49,←,left,←,0.5679325000091922,True,12,-1,0,12
PB021M40,2,150,PS,exp,45,↓,right,→,1.6436592999962159,False,12,-1,0,12
PB021M40,2,151,PS,exp,34,→,left,←,0.9447531999903731,False,13,-1,0,12
PB021M40,2,152,PS,exp,49,↑,up,↑,0.9618490999855567,True,14,-1,0,12
PB021M40,2,153,PS,exp,35,←,left,←,0.7412669000041205,True,14,1,1,13
PB021M40,2,154,PS,exp,33,↑,left,←,1.3647827999957372,False,13,-1,1,14
PB021M40,3,155,PS,intra_train,30,←,right,→,0.8747214000031818,False,15,-,-,-
PB021M40,3,156,PS,intra_train,31,→,left,←,1.3448565999860875,False,15,-,-,-
PB021M40,3,157,PS,intra_train,45,↓,down,↓,0.7306587999919429,True,15,-,-,-
PB021M40,3,158,PS,intra_train,35,↑,up,↑,1.082105000008596,True,15,-,-,-
PB021M40,3,159,PS,intra_train,36,↓,down,↓,1.0259537000092678,True,15,-,-,-
PB021M40,3,160,PS,exp,27,↑,up,↑,0.952193899982376,True,10,0,0,0
PB021M40,3,161,PS,exp,47,←,right,→,0.8207638000021689,False,10,-1,0,0
PB021M40,3,162,PS,exp,36,↓,up,↑,1.027636300015729,False,11,-1,0,0
PB021M40,3,163,PS,exp,27,↑,up,↑,0.7992794000019785,True,12,-1,0,0
PB021M40,3,164,PS,exp,41,→,right,→,0.5623570999887306,True,12,1,1,1
PB021M40,3,165,PS,exp,30,↑,right,→,0.675652000005357,False,11,-1,1,2
PB021M40,3,166,PS,exp,47,←,left,←,0.6585899999772664,True,12,-1,0,2
PB021M40,3,167,PS,exp,37,↓,up,↑,0.9225982000061776,False,12,-1,0,2
PB021M40,3,168,PS,exp,44,←,left,←,0.7058719999913592,True,13,-1,0,2
PB021M40,3,169,PS,exp,28,↑,up,↑,0.72746249998454,True,13,1,1,3
PB021M40,3,170,PS,exp,48,↓,down,↓,0.9645027999940794,True,12,1,0,3
PB021M40,3,171,PS,exp,44,↑,up,↑,0.715558099996997,True,12,1,0,3
PB021M40,3,172,PS,exp,29,←,up,↑,0.6497021999966819,False,11,-1,1,4
PB021M40,3,173,PS,exp,38,→,up,↑,0.8552949999866541,False,12,-1,0,4
PB021M40,3,174,PS,exp,37,←,up,↑,0.6468440000026021,False,13,-1,0,4
PB021M40,3,175,PS,exp,44,↑,up,↑,0.62713390000863,True,14,-1,0,4
PB021M40,3,176,PS,exp,40,←,left,←,0.7733339999977034,True,14,1,1,5
PB021M40,3,177,PS,exp,27,→,right,→,0.5536019999999553,True,13,1,0,5
PB021M40,3,178,PS,exp,38,←,left,←,0.8302298000198789,True,13,1,0,5
PB021M40,3,179,PS,exp,25,↑,up,↑,0.616213000001153,True,12,1,0,5
PB021M40,3,180,PS,exp,43,→,right,→,0.7651130000012927,True,12,1,0,5
PB021M40,3,181,PS,exp,42,↓,down,↓,0.794993199990131,True,11,1,0,5
PB021M40,3,182,PS,exp,49,→,right,→,1.0271307999792043,True,11,1,0,5
PB021M40,3,183,PS,exp,25,↓,left,←,0.7382057000068016,False,10,-1,1,6
PB021M40,3,184,PS,exp,38,←,left,←,0.5934439999982715,True,11,-1,0,6
PB021M40,3,185,PS,exp,36,↑,left,←,0.7534429999941494,False,11,-1,0,6
PB021M40,3,186,PS,exp,32,↓,down,↓,0.7745058999862522,True,12,-1,0,6
PB021M40,3,187,PS,exp,42,←,left,←,0.6763518000079785,True,12,1,1,7
PB021M40,3,188,PS,exp,27,→,left,←,0.8679157000151463,False,11,-1,1,8
PB021M40,3,189,PS,exp,39,↓,down,↓,1.2565107000118587,True,12,-1,0,8
PB021M40,3,190,PS,exp,26,←,left,←,0.6749746999994386,True,12,1,1,9
PB021M40,3,191,PS,exp,30,→,right,→,1.0505474000237882,True,11,1,0,9
PB021M40,3,192,PS,exp,42,↑,left,←,0.8365937999915332,False,11,-1,1,10
PB021M40,3,193,PS,exp,35,←,left,←,0.788798499997938,True,12,-1,0,10
PB021M40,3,194,PS,exp,46,→,right,→,0.6593322000117041,True,12,1,1,11
PB021M40,3,195,PS,exp,46,↓,down,↓,1.1950907000282314,True,11,1,0,11
PB021M40,3,196,PS,exp,25,↑,up,↑,0.6066065999912098,True,11,1,0,11
PB021M40,3,197,PS,exp,50,→,right,→,0.7979227000032552,True,10,1,0,11
PB021M40,3,198,PS,exp,46,←,left,←,0.623373200010974,True,10,1,0,11
PB021M40,3,199,PS,exp,38,→,right,→,0.6758843999996316,True,9,1,0,11
PB021M40,3,200,PS,exp,45,↓,down,↓,1.0164419999928214,True,9,1,0,11
PB021M40,3,201,PS,exp,46,↑,up,↑,1.3091758000082336,True,8,1,0,11
PB021M40,3,202,PS,exp,37,→,right,→,0.674946600018302,True,8,1,0,11
PB021M40,3,203,PS,exp,48,↑,up,↑,0.7204240999999456,True,7,1,0,11
PB021M40,3,204,PS,exp,43,←,left,←,1.0477848000009544,True,7,1,0,11
PB021M40,3,205,PS,exp,39,→,right,→,0.8471475999976974,True,6,1,0,11
PB021M40,3,206,PS,exp,44,←,left,←,0.8953095999895595,True,6,1,0,11
PB021M40,3,207,PS,exp,30,↑,up,↑,0.9584605999989435,True,5,1,0,11
PB021M40,3,208,PS,exp,31,↓,down,↓,0.7900754000002053,True,5,1,0,11
PB021M40,3,209,PS,exp,27,↑,left,←,0.8290504000033252,False,4,-1,1,12
PB021M40,3,210,PS,exp,49,↓,left,←,0.5907742000126746,False,5,-1,0,12
PB021M40,3,211,PS,exp,29,←,left,←,0.5943552000098862,True,6,-1,0,12
PB021M40,3,212,PS,exp,43,→,right,→,0.7700409000099171,True,6,1,1,13
PB021M40,3,213,PS,exp,38,↑,up,↑,1.0568720999872312,True,5,1,0,13
PB021M40,3,214,PS,exp,29,→,left,←,0.863405000010971,False,5,-1,1,14
PB021M40,4,215,AS,intra_train,33,↓,down,↓,1.5631886000046507,True,27,-,-,-
PB021M40,4,216,AS,intra_train,39,←,left,←,0.8049902000057045,True,27,-,-,-
PB021M40,4,217,AS,intra_train,33,↑,up,↑,1.0146765999961644,True,27,-,-,-
PB021M40,4,218,AS,intra_train,36,↓,down,↓,0.8688861000118777,True,27,-,-,-
PB021M40,4,219,AS,intra_train,27,←,left,←,0.9415676999778952,True,27,-,-,-
PB021M40,4,220,AS,exp,47,→,right,→,0.6080411000002641,True,18,0,0,0
PB021M40,4,221,AS,exp,29,↓,down,↓,1.0786973000213038,True,18,1,0,0
PB021M40,4,222,AS,exp,39,↑,up,↑,0.7984863999881782,True,17,1,0,0
PB021M40,4,223,AS,exp,33,↓,down,↓,0.6023037999984808,True,17,1,0,0
PB021M40,4,224,AS,exp,47,←,right,→,0.8948434000194538,False,16,-1,1,1
PB021M40,4,225,AS,exp,34,→,right,→,0.6780403000011574,True,17,-1,0,1
PB021M40,4,226,AS,exp,38,↑,up,↑,0.9796632999787107,True,17,1,1,2
PB021M40,4,227,AS,exp,28,←,right,→,1.0035287999780849,False,16,-1,1,3
PB021M40,4,228,AS,exp,50,↓,down,↓,0.8763680999982171,True,17,-1,0,3
PB021M40,4,229,AS,exp,28,←,left,←,1.002978800010169,True,17,1,1,4
PB021M40,4,230,AS,exp,30,↓,down,↓,0.8147445000067819,True,16,1,0,4
PB021M40,4,231,AS,exp,50,↑,up,↑,0.7048140999977477,True,16,1,0,4
PB021M40,4,232,AS,exp,30,←,left,←,0.9680121999990661,True,15,1,0,4
PB021M40,4,233,AS,exp,25,→,right,→,0.6322799999907147,True,15,1,0,4
PB021M40,4,234,AS,exp,28,←,left,←,0.6058874000154901,True,14,1,0,4
PB021M40,4,235,AS,exp,48,→,right,→,0.8258999999961816,True,14,1,0,4
PB021M40,4,236,AS,exp,37,←,left,←,0.9087936000141781,True,13,1,0,4
PB021M40,4,237,AS,exp,25,↓,down,↓,1.1178269000083674,True,13,1,0,4
PB021M40,4,238,AS,exp,41,↑,right,→,1.24054790000082,False,12,-1,1,5
PB021M40,4,239,AS,exp,31,→,right,→,0.6250373999937437,True,13,-1,0,5
PB021M40,4,240,AS,exp,25,←,left,←,0.688127599976724,True,13,1,1,6
PB021M40,4,241,AS,exp,39,↑,right,→,1.378310899977805,False,12,-1,1,7
PB021M40,4,242,AS,exp,37,→,right,→,0.8299531000084244,True,13,-1,0,7
PB021M40,4,243,AS,exp,40,↑,up,↑,1.029558599984739,True,13,1,1,8
PB021M40,4,244,AS,exp,28,→,left,←,0.6072888000053354,False,12,-1,1,9
PB021M40,4,245,AS,exp,49,←,left,←,0.6075778999947943,True,13,-1,0,9
PB021M40,4,246,AS,exp,47,↓,down,↓,1.205895099992631,True,13,1,1,10
PB021M40,4,247,AS,exp,35,←,left,←,0.7980758000048809,True,12,1,0,10
PB021M40,4,248,AS,exp,41,→,right,→,0.9768646000011358,True,12,1,0,10
PB021M40,4,249,AS,exp,45,↓,up,↑,0.9094391000107862,False,11,-1,1,11
PB021M40,4,250,AS,exp,47,←,right,→,0.7756403000093997,False,12,-1,0,11
PB021M40,4,251,AS,exp,45,↑,up,↑,0.8613896000024397,True,13,-1,0,11
PB021M40,4,252,AS,exp,34,→,left,←,0.6330216999922413,False,13,-1,0,11
PB021M40,4,253,AS,exp,39,↑,right,→,1.0061624000081792,False,14,-1,0,11
PB021M40,4,254,AS,exp,37,↓,down,↓,0.921707300003618,True,15,-1,0,11
PB021M40,4,255,AS,exp,32,→,right,→,0.5723857999837492,True,15,1,1,12
PB021M40,4,256,AS,exp,26,↓,down,↓,0.9714476999943145,True,14,1,0,12
PB021M40,4,257,AS,exp,44,←,left,←,0.6503236999851651,True,14,1,0,12
PB021M40,4,258,AS,exp,48,↓,down,↓,0.6890724000113551,True,13,1,0,12
PB021M40,4,259,AS,exp,43,→,left,←,0.8565245000063442,False,13,-1,1,13
PB021M40,4,260,AS,exp,32,↓,left,←,1.1579629000043496,False,14,-1,0,13
PB021M40,4,261,AS,exp,40,←,left,←,0.7648354000120889,True,15,-1,0,13
PB021M40,4,262,AS,exp,30,→,left,←,1.0479704000172205,False,15,-1,0,13
PB021M40,4,263,AS,exp,47,↑,up,↑,0.7991198000090662,True,16,-1,0,13
PB021M40,4,264,AS,exp,49,→,left,←,0.7886702999821864,False,16,-1,0,13
PB021M40,4,265,AS,exp,50,↓,down,↓,1.0214764999982435,True,17,-1,0,13
PB021M40,4,266,AS,exp,35,→,right,→,0.7005231999792159,True,17,1,1,14
PB021M40,5,267,AS,intra_train,41,↓,down,↓,0.8005574000126217,True,27,-,-,-
PB021M40,5,268,AS,intra_train,41,←,right,→,1.1289434999926016,False,27,-,-,-
PB021M40,5,269,AS,intra_train,40,↓,down,↓,0.8122435999976005,True,27,-,-,-
PB021M40,5,270,AS,intra_train,29,←,left,←,0.8655820999993011,True,27,-,-,-
PB021M40,5,271,AS,intra_train,46,↑,up,↑,0.7805709000094794,True,27,-,-,-
PB021M40,5,272,AS,exp,27,↓,down,↓,0.6575841000012588,True,18,0,0,0
PB021M40,5,273,AS,exp,50,←,left,←,0.9846738000051118,True,18,1,0,0
PB021M40,5,274,AS,exp,35,↓,down,↓,0.9371481999987736,True,17,1,0,0
PB021M40,5,275,AS,exp,38,↑,up,↑,1.184405500011053,True,17,1,0,0
PB021M40,5,276,AS,exp,39,→,left,←,0.705591399979312,False,16,-1,1,1
PB021M40,5,277,AS,exp,36,↓,down,↓,0.7403193000063766,True,17,-1,0,1
PB021M40,5,278,AS,exp,37,←,left,←,0.6979882000014186,True,17,1,1,2
PB021M40,5,279,AS,exp,35,→,right,→,0.6839090999856126,True,16,1,0,2
PB021M40,5,280,AS,exp,38,↑,up,↑,0.7767447000078391,True,16,1,0,2
PB021M40,5,281,AS,exp,46,↓,down,↓,1.1465775000106078,True,15,1,0,2
PB021M40,5,282,AS,exp,32,→,right,→,0.6355209999892395,True,15,1,0,2
PB021M40,5,283,AS,exp,47,↑,up,↑,0.7555296999926213,True,14,1,0,2
PB021M40,5,284,AS,exp,26,↓,down,↓,0.7722544000134803,True,14,1,0,2
PB021M40,5,285,AS,exp,43,↑,up,↑,1.0228155000077095,True,13,1,0,2
PB021M40,5,286,AS,exp,29,→,right,→,0.7248326000117231,True,13,1,0,2
PB021M40,5,287,AS,exp,49,↑,up,↑,0.9115635000052862,True,12,1,0,2
PB021M40,5,288,AS,exp,27,→,left,←,0.6526804000022821,False,12,-1,1,3
PB021M40,5,289,AS,exp,45,↓,left,←,1.565757800010033,False,13,-1,0,3
PB021M40,5,290,AS,exp,30,→,left,←,0.9135801999946125,False,14,-1,0,3
PB021M40,5,291,AS,exp,43,←,left,←,0.6508973000163678,True,15,-1,0,3
PB021M40,5,292,AS,exp,40,↓,down,↓,0.9461756000237074,True,15,1,1,4
PB021M40,5,293,AS,exp,38,→,right,→,0.9731819000153337,True,14,1,0,4
PB021M40,5,294,AS,exp,37,←,left,←,0.6156422999920323,True,14,1,0,4
PB021M40,5,295,AS,exp,33,↓,up,↑,1.0648190999927465,False,13,-1,1,5
PB021M40,5,296,AS,exp,38,↑,up,↑,0.5411664000130259,True,14,-1,0,5
PB021M40,5,297,AS,exp,34,←,right,→,0.5923284000018612,False,14,-1,0,5
PB021M40,5,298,AS,exp,25,↓,down,↓,0.7559263999864925,True,15,-1,0,5
PB021M40,5,299,AS,exp,45,→,right,→,0.564562699990347,True,15,1,1,6
PB021M40,5,300,AS,exp,34,↓,left,←,0.9999252000125125,False,14,-1,1,7
PB021M40,5,301,AS,exp,43,←,right,→,0.6036582000087947,False,15,-1,0,7
PB021M40,5,302,AS,exp,45,↑,up,↑,0.8189590999973007,True,16,-1,0,7
PB021M40,5,303,AS,exp,28,↓,down,↓,0.6741051999852061,True,16,1,1,8
PB021M40,5,304,AS,exp,27,→,right,→,0.5532671999826562,True,15,1,0,8
PB021M40,5,305,AS,exp,39,↑,up,↑,0.6963373999751639,True,15,1,0,8
PB021M40,5,306,AS,exp,25,↓,down,↓,0.7332623999973293,True,14,1,0,8
PB021M40,5,307,AS,exp,42,→,right,→,0.5118672999960836,True,14,1,0,8
PB021M40,5,308,AS,exp,42,↑,up,↑,0.7258860000001732,True,13,1,0,8
PB021M40,5,309,AS,exp,29,→,down,↓,1.1040992000198457,False,13,-1,1,9
PB021M40,5,310,AS,exp,39,↓,up,↑,1.1994280999933835,False,14,-1,0,9
PB021M40,5,311,AS,exp,30,→,right,→,0.5482514000032097,True,15,-1,0,9
PB021M40,5,312,AS,exp,38,↑,up,↑,0.5574295000114944,True,15,1,1,10
PB021M40,5,313,AS,exp,39,←,right,→,1.1818050000001676,False,14,-1,1,11
PB021M40,5,314,AS,exp,45,↑,up,↑,0.865529400005471,True,15,-1,0,11
PB021M40,5,315,AS,exp,44,→,right,→,0.5940508000203408,True,15,1,1,12
PB021M40,5,316,AS,exp,28,←,left,←,0.7427785000181757,True,14,1,0,12
PB021M40,5,317,AS,exp,29,↓,right,→,0.41827959998045117,False,14,-1,1,13
PB021M40,5,318,AS,exp,46,←,left,←,0.6843965000007302,True,15,-1,0,13
PB021M40,5,319,AS,exp,43,↑,up,↑,0.5740609999920707,True,15,1,1,14
PB021M40,6,320,PS,intra_train,41,→,right,→,0.9527769999986049,True,15,-,-,-
PB021M40,6,321,PS,intra_train,28,↑,left,←,0.887071199977072,False,15,-,-,-
PB021M40,6,322,PS,intra_train,41,←,left,←,0.6815839000046253,True,15,-,-,-
PB021M40,6,323,PS,intra_train,25,→,right,→,0.6577594999980647,True,15,-,-,-
PB021M40,6,324,PS,intra_train,25,↑,left,←,0.6474279000249226,False,15,-,-,-
PB021M40,6,325,PS,exp,25,←,right,→,0.6475425999960862,False,10,-1,0,0
PB021M40,6,326,PS,exp,46,↓,down,↓,1.124143599998206,True,11,-1,0,0
PB021M40,6,327,PS,exp,50,←,right,→,0.6179394999926444,False,11,-1,0,0
PB021M40,6,328,PS,exp,27,→,right,→,0.948978000000352,True,12,-1,0,0
PB021M40,6,329,PS,exp,41,←,left,←,0.6433280000055674,True,12,1,1,1
PB021M40,6,330,PS,exp,47,↓,right,→,0.7540781999996398,False,11,-1,1,2
PB021M40,6,331,PS,exp,37,↑,up,↑,0.952722400019411,True,12,-1,0,2
PB021M40,6,332,PS,exp,34,→,left,←,0.8793164999806322,False,12,-1,0,2
PB021M40,6,333,PS,exp,48,←,left,←,0.5699562000227161,True,13,-1,0,2
PB021M40,6,334,PS,exp,32,→,left,←,0.7606208999932278,False,13,-1,0,2
PB021M40,6,335,PS,exp,50,↑,up,↑,0.9761923999758437,True,14,-1,0,2
PB021M40,6,336,PS,exp,48,←,left,←,0.706794900004752,True,14,1,1,3
PB021M40,6,337,PS,exp,39,→,right,→,0.5382981000002474,True,13,1,0,3
PB021M40,6,338,PS,exp,42,←,left,←,0.6357827000028919,True,13,1,0,3
PB021M40,6,339,PS,exp,47,→,right,→,0.6227855999895837,True,12,1,0,3
PB021M40,6,340,PS,exp,45,←,left,←,0.7206105999939609,True,12,1,0,3
PB021M40,6,341,PS,exp,50,↓,right,→,0.916223699983675,False,11,-1,1,4
PB021M40,6,342,PS,exp,47,→,left,←,0.8426784000184853,False,12,-1,0,4
PB021M40,6,343,PS,exp,48,↓,right,→,0.7384690000035334,False,13,-1,0,4
PB021M40,6,344,PS,exp,26,→,left,←,0.8365564999985509,False,14,-1,0,4
PB021M40,6,345,PS,exp,32,↓,right,→,0.7711006999888923,False,15,-1,0,4
PB021M40,6,346,PS,exp,27,↑,up,↑,0.990686100005405,True,16,-1,0,4
PB021M40,6,347,PS,exp,50,→,right,→,0.8896817000058945,True,16,1,1,5
PB021M40,6,348,PS,exp,48,↓,right,→,0.7462881999963429,False,15,-1,1,6
PB021M40,6,349,PS,exp,35,→,right,→,0.7027426999993622,True,16,-1,0,6
PB021M40,6,350,PS,exp,43,↓,right,→,0.8797829000104684,False,16,-1,0,6
PB021M40,6,351,PS,exp,28,↑,up,↑,0.7746284000168089,True,17,-1,0,6
PB021M40,6,352,PS,exp,49,←,left,←,0.7852356999937911,True,17,1,1,7
PB021M40,6,353,PS,exp,33,↓,down,↓,1.1887765999999829,True,16,1,0,7
PB021M40,6,354,PS,exp,32,←,left,←,0.6990845999971498,True,16,1,0,7
PB021M40,6,355,PS,exp,40,↓,down,↓,1.183374999993248,True,15,1,0,7
PB021M40,6,356,PS,exp,48,←,left,←,0.8082800999982283,True,15,1,0,7
PB021M40,6,357,PS,exp,28,↑,up,↑,0.6476887000026181,True,14,1,0,7
PB021M40,6,358,PS,exp,47,→,right,→,0.6803850999858696,True,14,1,0,7
PB021M40,6,359,PS,exp,44,↓,up,↑,0.8261733999825083,False,13,-1,1,8
PB021M40,6,360,PS,exp,31,→,right,→,0.7717538000142667,True,14,-1,0,8
PB021M40,6,361,PS,exp,47,←,left,←,0.7486678000132088,True,14,1,1,9
PB021M40,6,362,PS,exp,30,↑,up,↑,0.593516000022646,True,13,1,0,9
PB021M40,6,363,PS,exp,28,↓,up,↑,0.5475432999955956,False,13,-1,1,10
PB021M40,6,364,PS,exp,45,→,right,→,0.5581776999752037,True,14,-1,0,10
PB021M40,6,365,PS,exp,49,↓,down,↓,0.9652129999885801,True,14,1,1,11
PB021M40,6,366,PS,exp,44,→,up,↑,0.987733100017067,False,13,-1,1,12
PB021M40,6,367,PS,exp,29,←,left,←,0.7169551000115462,True,14,-1,0,12
PB021M40,6,368,PS,exp,26,↓,down,↓,0.95371120001073,True,14,1,1,13
PB021M40,6,369,PS,exp,32,←,right,→,0.9752529000106733,False,13,-1,1,14
PB021M40,7,370,PS,intra_train,36,↑,up,↑,1.4747192000213545,True,15,-,-,-
PB021M40,7,371,PS,intra_train,34,↓,down,↓,0.956972499989206,True,15,-,-,-
PB021M40,7,372,PS,intra_train,39,←,left,←,0.6720229999918956,True,15,-,-,-
PB021M40,7,373,PS,intra_train,35,→,right,→,0.6637162999832071,True,15,-,-,-
PB021M40,7,374,PS,intra_train,38,←,left,←,0.8927670000120997,True,15,-,-,-
PB021M40,7,375,PS,exp,31,→,right,→,0.5486388000135776,True,10,0,0,0
PB021M40,7,376,PS,exp,37,←,left,←,0.6462444000062533,True,10,1,0,0
PB021M40,7,377,PS,exp,34,↓,down,↓,0.9099686999979895,True,9,1,0,0
PB021M40,7,378,PS,exp,45,←,right,→,0.5890757000015583,False,9,-1,1,1
PB021M40,7,379,PS,exp,42,↑,up,↑,0.763462700007949,True,10,-1,0,1
PB021M40,7,380,PS,exp,33,↓,down,↓,0.9764027000055648,True,10,1,1,2
PB021M40,7,381,PS,exp,42,←,right,→,0.9011466999945696,False,9,-1,1,3
PB021M40,7,382,PS,exp,27,→,right,→,0.5600947999919299,True,10,-1,0,3
PB021M40,7,383,PS,exp,37,←,right,→,0.4236189000075683,False,10,-1,0,3
PB021M40,7,384,PS,exp,27,↓,left,←,0.9720777000184171,False,11,-1,0,3
PB021M40,7,385,PS,exp,44,↑,up,↑,0.6786310999887064,True,12,-1,0,3
PB021M40,7,386,PS,exp,28,↓,right,→,0.8308552000089549,False,12,-1,0,3
PB021M40,7,387,PS,exp,46,→,right,→,0.6368627000192646,True,13,-1,0,3
PB021M40,7,388,PS,exp,36,↓,down,↓,0.9589658000040799,True,13,1,1,4
PB021M40,7,389,PS,exp,38,→,right,→,0.6670968999969773,True,12,1,0,4
PB021M40,7,390,PS,exp,34,↑,up,↑,0.7584132000047248,True,12,1,0,4
PB021M40,7,391,PS,exp,30,←,right,→,0.7537222999962978,False,11,-1,1,5
PB021M40,7,392,PS,exp,25,↓,down,↓,0.7971160000015516,True,12,-1,0,5
PB021M40,7,393,PS,exp,38,→,right,→,0.5963721000007354,True,12,1,1,6
PB021M40,7,394,PS,exp,30,←,left,←,0.5940945000038482,True,11,1,0,6
PB021M40,7,395,PS,exp,27,↑,up,↑,0.8434739999938756,True,11,1,0,6
PB021M40,7,396,PS,exp,50,→,up,↑,0.9127715999784414,False,10,-1,1,7
PB021M40,7,397,PS,exp,45,↑,right,→,0.525882999994792,False,11,-1,0,7
PB021M40,7,398,PS,exp,31,←,left,←,0.5875979999837,True,12,-1,0,7
PB021M40,7,399,PS,exp,37,→,right,→,0.8711263000150211,True,12,1,1,8
PB021M40,7,400,PS,exp,45,↓,down,↓,0.8080060000065714,True,11,1,0,8
PB021M40,7,401,PS,exp,33,↑,up,↑,0.5716488999896683,True,11,1,0,8
PB021M40,7,402,PS,exp,34,→,right,→,0.6672422000265215,True,10,1,0,8
PB021M40,7,403,PS,exp,29,←,left,←,0.54240690000006,True,10,1,0,8
PB021M40,7,404,PS,exp,30,↓,down,↓,0.772796000004746,True,9,1,0,8
PB021M40,7,405,PS,exp,39,→,right,→,0.7048881000082474,True,9,1,0,8
PB021M40,7,406,PS,exp,28,↑,down,↓,1.1039108999830205,False,8,-1,1,9
PB021M40,7,407,PS,exp,44,←,right,→,0.6186146000109147,False,9,-1,0,9
PB021M40,7,408,PS,exp,49,→,right,→,0.6441475999890827,True,10,-1,0,9
PB021M40,7,409,PS,exp,28,←,left,←,0.7754067000059877,True,10,1,1,10
PB021M40,7,410,PS,exp,44,↓,up,↑,0.6053294999874197,False,9,-1,1,11
PB021M40,7,411,PS,exp,33,→,right,→,0.5258450000255834,True,10,-1,0,11
PB021M40,7,412,PS,exp,37,↓,down,↓,0.716267899988452,True,10,1,1,12
PB021M40,7,413,PS,exp,50,←,left,←,0.6739221000170801,True,9,1,0,12
PB021M40,7,414,PS,exp,33,↑,up,↑,0.5216600999992806,True,9,1,0,12
PB021M40,7,415,PS,exp,46,→,up,↑,0.7331100000010338,False,8,-1,1,13
PB021M40,7,416,PS,exp,27,↓,up,↑,0.6680753999971785,False,9,-1,0,13
PB021M40,7,417,PS,exp,48,↑,up,↑,0.5701559000008274,True,10,-1,0,13
PB021M40,7,418,PS,exp,47,←,left,←,0.49717789998976514,True,10,1,1,14
PB021M40,8,419,AS,intra_train,47,↑,up,↑,1.046203699981561,True,27,-,-,-
PB021M40,8,420,AS,intra_train,28,→,right,→,0.777650400006678,True,27,-,-,-
PB021M40,8,421,AS,intra_train,34,↑,up,↑,0.6353896000073291,True,27,-,-,-
PB021M40,8,422,AS,intra_train,27,↓,up,↑,0.5503016999864485,False,27,-,-,-
PB021M40,8,423,AS,intra_train,27,→,no_key,no_letter,-1.0,False,27,-,-,-
PB021M40,8,424,AS,exp,46,↑,up,↑,0.6362204999895766,True,18,0,0,0
PB021M40,8,425,AS,exp,29,↓,down,↓,0.7401242000050843,True,18,1,0,0
PB021M40,8,426,AS,exp,32,→,right,→,0.5971412000071723,True,17,1,0,0
PB021M40,8,427,AS,exp,27,←,left,←,0.7293886999832466,True,17,1,0,0
PB021M40,8,428,AS,exp,40,↓,down,↓,1.1550238000054378,True,16,1,0,0
PB021M40,8,429,AS,exp,32,↑,down,↓,1.4486453999998048,False,16,-1,1,1
PB021M40,8,430,AS,exp,50,←,left,←,0.7806180999905337,True,17,-1,0,1
PB021M40,8,431,AS,exp,33,↑,up,↑,0.988926399993943,True,17,1,1,2
PB021M40,8,432,AS,exp,32,↓,down,↓,1.0007141999958549,True,16,1,0,2
PB021M40,8,433,AS,exp,45,→,left,←,0.7942169000161812,False,16,-1,1,3
PB021M40,8,434,AS,exp,38,↑,up,↑,0.9727225999813527,True,17,-1,0,3
PB021M40,8,435,AS,exp,35,→,left,←,0.9380778000049759,False,17,-1,0,3
PB021M40,8,436,AS,exp,27,↓,up,↑,0.960839000006672,False,18,-1,0,3
PB021M40,8,437,AS,exp,32,←,left,←,0.8755079999973532,True,19,-1,0,3
PB021M40,8,438,AS,exp,42,↓,down,↓,0.9783285000012256,True,19,1,1,4
PB021M40,8,439,AS,exp,26,←,left,←,1.3554898999864236,True,18,1,0,4
PB021M40,8,440,AS,exp,44,→,right,→,0.7288303000095766,True,18,1,0,4
PB021M40,8,441,AS,exp,28,←,left,←,0.7713150999916252,True,17,1,0,4
PB021M40,8,442,AS,exp,31,→,right,→,0.5370824999990873,True,17,1,0,4
PB021M40,8,443,AS,exp,43,↓,down,↓,0.9842797000019345,True,16,1,0,4
PB021M40,8,444,AS,exp,45,↑,left,←,1.8511381999996956,False,16,-1,1,5
PB021M40,8,445,AS,exp,33,→,left,←,0.9863527000125032,False,17,-1,0,5
PB021M40,8,446,AS,exp,37,←,left,←,0.7724967999965884,True,18,-1,0,5
PB021M40,8,447,AS,exp,45,→,left,←,0.681964000017615,False,18,-1,0,5
PB021M40,8,448,AS,exp,25,↑,up,↑,0.8189710000006016,True,19,-1,0,5
PB021M40,8,449,AS,exp,25,↓,down,↓,0.7151079000032041,True,19,1,1,6
PB021M40,8,450,AS,exp,35,↑,no_key,no_letter,-1.0,False,18,-1,1,7
PB021M40,8,451,AS,exp,31,→,right,→,0.7150009999750182,True,19,-1,0,7
PB021M40,8,452,AS,exp,28,←,left,←,0.6584795000089798,True,19,1,1,8
PB021M40,8,453,AS,exp,43,→,right,→,0.601752500020666,True,18,1,0,8
PB021M40,8,454,AS,exp,33,↓,up,↑,0.7138675000169314,False,18,-1,1,9
PB021M40,8,455,AS,exp,36,→,right,→,0.509189400007017,True,19,-1,0,9
PB021M40,8,456,AS,exp,49,←,left,←,0.9268598999769893,True,19,1,1,10
PB021M40,8,457,AS,exp,49,↓,down,↓,0.7408980999898631,True,18,1,0,10
PB021M40,8,458,AS,exp,39,→,right,→,0.537509100016905,True,18,1,0,10
PB021M40,8,459,AS,exp,25,←,left,←,1.1331524999986868,True,17,1,0,10
PB021M40,8,460,AS,exp,46,→,right,→,0.5092311000043992,True,17,1,0,10
PB021M40,8,461,AS,exp,34,↑,down,↓,0.8396852999867406,False,16,-1,1,11
PB021M40,8,462,AS,exp,30,↓,down,↓,0.6307496000081301,True,17,-1,0,11
PB021M40,8,463,AS,exp,39,→,left,←,1.1444015000015497,False,17,-1,0,11
PB021M40,8,464,AS,exp,41,↑,up,↑,0.747941899986472,True,18,-1,0,11
PB021M40,8,465,AS,exp,32,←,right,→,0.6517929999972694,False,18,-1,0,11
PB021M40,8,466,AS,exp,33,↓,down,↓,0.6830800999887288,True,19,-1,0,11
PB021M40,8,467,AS,exp,31,↑,down,↓,1.0226626000076067,False,19,-1,0,11
PB021M40,8,468,AS,exp,31,→,right,→,1.0803163000091445,True,20,-1,0,11
PB021M40,8,469,AS,exp,36,↓,down,↓,0.8115401999966707,True,20,1,1,12
PB021M40,8,470,AS,exp,43,↑,down,↓,0.5843803000170738,False,19,-1,1,13
PB021M40,8,471,AS,exp,42,↓,down,↓,0.788770499988459,True,20,-1,0,13
PB021M40,8,472,AS,exp,43,→,right,→,0.639303200005088,True,20,1,1,14
