PART_ID,Block_no,Trial_no,Block_type,Trial_type,CSI,Stim_letter,Key_pressed,letter_choose,Rt,Corr,Stimulus Time,Level,Reversal,Revs_count
PB020M36,1,1,PS,train,31,→,right,→,1.7243369000207167,True,30,-,-,-
PB020M36,1,2,PS,train,36,↑,right,→,0.4177013000007719,False,30,-,-,-
PB020M36,1,3,PS,train,49,↓,no_key,no_letter,-1.0,False,30,-,-,-
PB020M36,1,4,PS,train,33,→,right,→,0.6917654999997467,True,30,-,-,-
PB020M36,1,5,PS,train,38,↓,right,→,0.5174690000130795,False,30,-,-,-
PB020M36,1,6,PS,train,37,←,left,←,0.7045184000162408,True,30,-,-,-
PB020M36,1,7,PS,train,45,↓,left,←,1.0164915999921504,False,30,-,-,-
PB020M36,1,8,PS,train,43,→,left,←,1.7010063000197988,False,30,-,-,-
PB020M36,1,9,PS,train,28,↑,right,→,1.8998908000066876,False,30,-,-,-
PB020M36,1,10,PS,train,48,→,down,↓,1.9687176000152249,False,30,-,-,-
PB020M36,2,11,AS,train,43,↓,right,→,0.5179607000027318,False,45,-,-,-
PB020M36,2,12,AS,train,49,→,left,←,0.5676838999788743,False,45,-,-,-
PB020M36,2,13,AS,train,33,↓,right,→,0.9593547999975272,False,45,-,-,-
PB020M36,2,14,AS,train,46,←,left,←,0.5343912999960594,True,45,-,-,-
PB020M36,2,15,AS,train,40,↓,left,←,0.9714691999834031,False,45,-,-,-
PB020M36,2,16,AS,train,39,→,left,←,1.6647563999867998,False,45,-,-,-
PB020M36,2,17,AS,train,40,↓,right,→,0.9247162999818102,False,45,-,-,-
PB020M36,2,18,AS,train,43,→,left,←,2.2983778000052553,False,45,-,-,-
PB020M36,2,19,AS,train,40,↓,left,←,0.9692365000082646,False,45,-,-,-
PB020M36,2,20,AS,train,32,←,left,←,0.6679447999922559,True,45,-,-,-
PB020M36,-,21,PS,adaptive,50,↓,right,→,0.8598123000119813,False,10,-1,0,0
PB020M36,-,22,PS,adaptive,36,→,right,→,1.2146071000024676,True,11,-1,0,0
PB020M36,-,23,PS,adaptive,31,↑,down,↓,1.40686220000498,False,11,-1,0,0
PB020M36,-,24,PS,adaptive,35,←,left,←,1.4181733999866992,True,12,-1,0,0
PB020M36,-,25,PS,adaptive,26,↓,down,↓,1.0608635999960825,True,12,1,1,1
PB020M36,-,26,PS,adaptive,48,↑,up,↑,1.5844135000079405,True,11,1,0,1
PB020M36,-,27,PS,adaptive,28,↓,down,↓,0.7792210000043269,True,11,1,0,1
PB020M36,-,28,PS,adaptive,31,→,right,→,0.738862500002142,True,10,1,0,1
PB020M36,-,29,PS,adaptive,27,↓,down,↓,0.6991882000002079,True,10,1,0,1
PB020M36,-,30,PS,adaptive,43,↑,down,↓,1.1061685000022408,False,9,-1,1,2
PB020M36,-,31,PS,adaptive,35,↓,no_key,no_letter,-1.0,False,10,-1,0,2
PB020M36,-,32,PS,adaptive,42,←,left,←,0.9144632999959867,True,11,-1,0,2
PB020M36,-,33,PS,adaptive,41,→,right,→,1.029909900011262,True,11,1,1,3
PB020M36,-,34,PS,adaptive,43,↑,right,→,1.550697200000286,False,10,-1,1,4
PB020M36,-,35,AS,adaptive,36,←,right,→,1.1912811999791302,False,20,-1,0,0
PB020M36,-,36,AS,adaptive,40,↓,down,↓,1.8272756999940611,True,21,-1,0,0
PB020M36,-,37,AS,adaptive,33,↑,no_key,no_letter,-1.0,False,21,-1,0,0
PB020M36,-,38,AS,adaptive,46,↓,right,→,0.7836237000010442,False,22,-1,0,0
PB020M36,-,39,AS,adaptive,38,←,left,←,0.8742297000135295,True,23,-1,0,0
PB020M36,-,40,AS,adaptive,34,↑,right,→,1.023618000006536,False,23,-1,0,0
PB020M36,-,41,AS,adaptive,35,←,left,←,1.0075469999865163,True,24,-1,0,0
PB020M36,-,42,AS,adaptive,49,→,right,→,0.8986956000153441,True,24,1,1,1
PB020M36,-,43,AS,adaptive,50,↑,down,↓,1.033227000007173,False,23,-1,1,2
PB020M36,-,44,AS,adaptive,39,←,left,←,0.6676130999985617,True,24,-1,0,2
PB020M36,-,45,AS,adaptive,25,↑,right,→,0.816397099988535,False,24,-1,0,2
PB020M36,-,46,AS,adaptive,37,→,right,→,0.7494802000001073,True,25,-1,0,2
PB020M36,-,47,AS,adaptive,38,↓,down,↓,0.8238812000199687,True,25,1,1,3
PB020M36,-,48,AS,adaptive,30,↑,down,↓,0.7822100000048522,False,24,-1,1,4
PB020M36,1,49,PS,intra_train,46,←,left,←,1.2487503000011202,True,16,-,-,-
PB020M36,1,50,PS,intra_train,32,→,no_key,no_letter,-1.0,False,16,-,-,-
PB020M36,1,51,PS,intra_train,33,↓,down,↓,0.8277889000019059,True,16,-,-,-
PB020M36,1,52,PS,intra_train,49,↑,right,→,1.1233582999848295,False,16,-,-,-
PB020M36,1,53,PS,intra_train,34,→,right,→,0.7741799999785144,True,16,-,-,-
PB020M36,1,54,PS,exp,46,↑,left,←,1.4568902000028174,False,11,-1,0,0
PB020M36,1,55,PS,exp,41,←,no_key,no_letter,-1.0,False,12,-1,0,0
PB020M36,1,56,PS,exp,44,→,right,→,0.7322826000163332,True,13,-1,0,0
PB020M36,1,57,PS,exp,47,←,left,←,1.215133399993647,True,13,1,1,1
PB020M36,1,58,PS,exp,50,↓,left,←,1.228287999983877,False,12,-1,1,2
PB020M36,1,59,PS,exp,50,→,right,→,0.7660376999992877,True,13,-1,0,2
PB020M36,1,60,PS,exp,32,←,right,→,1.2324055000208318,False,13,-1,0,2
PB020M36,1,61,PS,exp,38,↓,down,↓,1.8985963999875821,True,14,-1,0,2
PB020M36,1,62,PS,exp,36,↑,right,→,1.029342900001211,False,14,-1,0,2
PB020M36,1,63,PS,exp,38,↓,down,↓,1.1965590000036173,True,15,-1,0,2
PB020M36,1,64,PS,exp,36,→,right,→,0.8849624000140466,True,15,1,1,3
PB020M36,1,65,PS,exp,28,←,left,←,1.2022974999854341,True,14,1,0,3
PB020M36,1,66,PS,exp,37,↑,up,↑,1.7851315999869257,True,14,1,0,3
PB020M36,1,67,PS,exp,43,→,down,↓,1.3552582999982405,False,13,-1,1,4
PB020M36,1,68,PS,exp,36,↓,down,↓,0.8772746000031475,True,14,-1,0,4
PB020M36,1,69,PS,exp,39,←,left,←,0.7131999999983236,True,14,1,1,5
PB020M36,1,70,PS,exp,44,↓,down,↓,1.578437699994538,True,13,1,0,5
PB020M36,1,71,PS,exp,46,→,right,→,0.8069484999869019,True,13,1,0,5
PB020M36,1,72,PS,exp,30,↑,up,↑,1.4447078999946825,True,12,1,0,5
PB020M36,1,73,PS,exp,32,←,left,←,0.8738375999964774,True,12,1,0,5
PB020M36,1,74,PS,exp,31,→,right,→,0.9347366000001784,True,11,1,0,5
PB020M36,1,75,PS,exp,41,←,no_key,no_letter,-1.0,False,11,-1,1,6
PB020M36,1,76,PS,exp,44,↓,right,→,0.6217327000049409,False,12,-1,0,6
PB020M36,1,77,PS,exp,34,←,left,←,0.7116864999989048,True,13,-1,0,6
PB020M36,1,78,PS,exp,46,↑,up,↑,1.0786227000062354,True,13,1,1,7
PB020M36,1,79,PS,exp,26,↓,right,→,1.0462401999975555,False,12,-1,1,8
PB020M36,1,80,PS,exp,30,↑,left,←,1.423526500002481,False,13,-1,0,8
PB020M36,1,81,PS,exp,34,→,right,→,0.5957131999894045,True,14,-1,0,8
PB020M36,1,82,PS,exp,45,←,left,←,0.6787550000008196,True,14,1,1,9
PB020M36,1,83,PS,exp,44,↓,left,←,1.2929836999974214,False,13,-1,1,10
PB020M36,1,84,PS,exp,39,↑,right,→,0.9935901999997441,False,14,-1,0,10
PB020M36,1,85,PS,exp,27,←,left,←,0.5301965000107884,True,15,-1,0,10
PB020M36,1,86,PS,exp,45,↓,down,↓,1.3981137999799103,True,15,1,1,11
PB020M36,1,87,PS,exp,25,↑,left,←,1.126435499987565,False,14,-1,1,12
PB020M36,1,88,PS,exp,33,↓,down,↓,1.10325849999208,True,15,-1,0,12
PB020M36,1,89,PS,exp,25,←,no_key,no_letter,-1.0,False,15,-1,0,12
PB020M36,1,90,PS,exp,42,↑,up,↑,1.3612973999988753,True,16,-1,0,12
PB020M36,1,91,PS,exp,41,↓,down,↓,0.9419981999963056,True,16,1,1,13
PB020M36,1,92,PS,exp,41,↑,down,↓,1.0998381999961566,False,15,-1,1,14
PB020M36,2,93,AS,intra_train,30,↓,no_key,no_letter,-1.0,False,37,-,-,-
PB020M36,2,94,AS,intra_train,39,→,right,→,1.3812866000225767,True,37,-,-,-
PB020M36,2,95,AS,intra_train,41,↓,down,↓,0.8261726000055205,True,37,-,-,-
PB020M36,2,96,AS,intra_train,36,←,no_key,no_letter,-1.0,False,37,-,-,-
PB020M36,2,97,AS,intra_train,35,↓,down,↓,1.6568589999806136,True,37,-,-,-
PB020M36,2,98,AS,exp,38,↑,left,←,1.442197500000475,False,25,-1,0,0
PB020M36,2,99,AS,exp,42,←,left,←,0.8066264000080992,True,26,-1,0,0
PB020M36,2,100,AS,exp,29,↓,right,→,1.5145501999941189,False,26,-1,0,0
PB020M36,2,101,AS,exp,49,←,left,←,1.169975800003158,True,27,-1,0,0
PB020M36,2,102,AS,exp,49,→,right,→,0.6979271000018343,True,27,1,1,1
PB020M36,2,103,AS,exp,31,↓,right,→,1.4419109000009485,False,26,-1,1,2
PB020M36,2,104,AS,exp,46,←,left,←,0.8167394000047352,True,27,-1,0,2
PB020M36,2,105,AS,exp,34,↓,down,↓,0.740580499987118,True,27,1,1,3
PB020M36,2,106,AS,exp,34,↑,right,→,1.7622138000151608,False,26,-1,1,4
PB020M36,2,107,AS,exp,33,↓,right,→,1.3616001000045799,False,27,-1,0,4
PB020M36,2,108,AS,exp,49,→,right,→,1.0953678999794647,True,28,-1,0,4
PB020M36,2,109,AS,exp,35,←,left,←,0.8514866000041366,True,28,1,1,5
PB020M36,2,110,AS,exp,43,↓,down,↓,0.8108664999890607,True,27,1,0,5
PB020M36,2,111,AS,exp,37,←,left,←,1.2416014000191353,True,27,1,0,5
PB020M36,2,112,AS,exp,39,→,right,→,0.8932404000079259,True,26,1,0,5
PB020M36,2,113,AS,exp,27,↓,down,↓,0.9403178000065964,True,26,1,0,5
PB020M36,2,114,AS,exp,38,↑,left,←,1.414917999994941,False,25,-1,1,6
PB020M36,2,115,AS,exp,37,↓,down,↓,0.6519399000098929,True,26,-1,0,6
PB020M36,2,116,AS,exp,32,→,right,→,1.2008147000160534,True,26,1,1,7
PB020M36,2,117,AS,exp,46,↓,right,→,1.2051784000068437,False,25,-1,1,8
PB020M36,2,118,AS,exp,41,←,left,←,0.6246539000130724,True,26,-1,0,8
PB020M36,2,119,AS,exp,33,→,no_key,no_letter,-1.0,False,26,-1,0,8
PB020M36,2,120,AS,exp,50,←,left,←,1.0856926999986172,True,27,-1,0,8
PB020M36,2,121,AS,exp,34,↓,left,←,1.2072121999808587,False,27,-1,0,8
PB020M36,2,122,AS,exp,26,→,right,→,0.959942499990575,True,28,-1,0,8
PB020M36,2,123,AS,exp,48,←,left,←,1.2821460000122897,True,28,1,1,9
PB020M36,2,124,AS,exp,28,↓,down,↓,0.681484000000637,True,27,1,0,9
PB020M36,2,125,AS,exp,46,↑,right,→,0.9102884000167251,False,27,-1,1,10
PB020M36,2,126,AS,exp,32,→,right,→,1.068630599998869,True,28,-1,0,10
PB020M36,2,127,AS,exp,42,↑,no_key,no_letter,-1.0,False,28,-1,0,10
PB020M36,2,128,AS,exp,43,→,no_key,no_letter,-1.0,False,29,-1,0,10
PB020M36,2,129,AS,exp,33,↑,up,↑,0.8086999999941327,True,30,-1,0,10
PB020M36,2,130,AS,exp,47,←,left,←,1.133347800001502,True,30,1,1,11
PB020M36,2,131,AS,exp,28,→,right,→,0.8098334000096656,True,29,1,0,11
PB020M36,2,132,AS,exp,31,↑,up,↑,0.9994369999913033,True,29,1,0,11
PB020M36,2,133,AS,exp,26,↓,right,→,1.2220453000045381,False,28,-1,1,12
PB020M36,2,134,AS,exp,46,→,right,→,0.8709123999869917,True,29,-1,0,12
PB020M36,2,135,AS,exp,40,↓,down,↓,0.9175525000027847,True,29,1,1,13
PB020M36,2,136,AS,exp,42,↑,up,↑,0.9497877999965567,True,28,1,0,13
PB020M36,2,137,AS,exp,31,←,left,←,0.7340312000014819,True,28,1,0,13
PB020M36,2,138,AS,exp,36,↓,down,↓,0.9830014999897685,True,27,1,0,13
PB020M36,2,139,AS,exp,30,←,left,←,0.621776600019075,True,27,1,0,13
PB020M36,2,140,AS,exp,46,→,right,→,0.818759499990847,True,26,1,0,13
PB020M36,2,141,AS,exp,32,←,left,←,0.5671034000115469,True,26,1,0,13
PB020M36,2,142,AS,exp,27,↓,down,↓,0.6255284000071697,True,25,1,0,13
PB020M36,2,143,AS,exp,39,↑,up,↑,0.739247699995758,True,25,1,0,13
PB020M36,2,144,AS,exp,39,→,right,→,0.6037588999897707,True,24,1,0,13
PB020M36,2,145,AS,exp,25,↓,down,↓,0.9384907000057865,True,24,1,0,13
PB020M36,2,146,AS,exp,28,←,left,←,1.2512604999938048,True,23,1,0,13
PB020M36,2,147,AS,exp,42,→,right,→,0.9391485000087414,True,23,1,0,13
PB020M36,2,148,AS,exp,44,↑,up,↑,0.9413634999946225,True,22,1,0,13
PB020M36,2,149,AS,exp,38,→,right,→,0.6721916999958921,True,22,1,0,13
PB020M36,2,150,AS,exp,27,↑,up,↑,0.9021762000047602,True,21,1,0,13
PB020M36,2,151,AS,exp,27,→,right,→,0.8050224000180606,True,21,1,0,13
PB020M36,2,152,AS,exp,38,←,left,←,1.3110882999899331,True,20,1,0,13
PB020M36,2,153,AS,exp,44,↑,up,↑,0.7241902000096161,True,20,1,0,13
PB020M36,2,154,AS,exp,46,→,up,↑,1.2271582999965176,False,19,-1,1,14
PB020M36,3,155,AS,intra_train,45,←,no_key,no_letter,-1.0,False,37,-,-,-
PB020M36,3,156,AS,intra_train,28,→,right,→,0.7004683999984991,True,37,-,-,-
PB020M36,3,157,AS,intra_train,31,↑,up,↑,0.7005234000098426,True,37,-,-,-
PB020M36,3,158,AS,intra_train,49,←,left,←,1.0186839000089094,True,37,-,-,-
PB020M36,3,159,AS,intra_train,48,↓,no_key,no_letter,-1.0,False,37,-,-,-
PB020M36,3,160,AS,exp,29,→,right,→,0.9798625000112224,True,25,0,0,0
PB020M36,3,161,AS,exp,45,←,left,←,0.6689254000084475,True,25,1,0,0
PB020M36,3,162,AS,exp,32,↓,down,↓,0.6737394999945536,True,24,1,0,0
PB020M36,3,163,AS,exp,30,→,right,→,1.16337670001667,True,24,1,0,0
PB020M36,3,164,AS,exp,44,↑,no_key,no_letter,-1.0,False,23,-1,1,1
PB020M36,3,165,AS,exp,50,↓,left,←,1.2708869999914896,False,24,-1,0,1
PB020M36,3,166,AS,exp,34,↑,up,↑,0.7634848000016063,True,25,-1,0,1
PB020M36,3,167,AS,exp,35,←,left,←,1.1574131000088528,True,25,1,1,2
PB020M36,3,168,AS,exp,34,↓,down,↓,0.623463099997025,True,24,1,0,2
PB020M36,3,169,AS,exp,34,↑,up,↑,0.8582868999801576,True,24,1,0,2
PB020M36,3,170,AS,exp,39,→,right,→,0.6141688999778125,True,23,1,0,2
PB020M36,3,171,AS,exp,50,←,left,←,0.6345472999964841,True,23,1,0,2
PB020M36,3,172,AS,exp,46,↑,no_key,no_letter,-1.0,False,22,-1,1,3
PB020M36,3,173,AS,exp,32,→,no_key,no_letter,-1.0,False,23,-1,0,3
PB020M36,3,174,AS,exp,25,↑,up,↑,0.6775817000016104,True,24,-1,0,3
PB020M36,3,175,AS,exp,40,←,up,↑,1.0314612000074703,False,24,-1,0,3
PB020M36,3,176,AS,exp,26,↑,up,↑,1.0739438000018708,True,25,-1,0,3
PB020M36,3,177,AS,exp,36,↓,down,↓,0.7162902999843936,True,25,1,1,4
PB020M36,3,178,AS,exp,33,→,up,↑,1.262994399992749,False,24,-1,1,5
PB020M36,3,179,AS,exp,34,←,left,←,0.8800600999966264,True,25,-1,0,5
PB020M36,3,180,AS,exp,38,↓,down,↓,0.7950289000000339,True,25,1,1,6
PB020M36,3,181,AS,exp,26,→,no_key,no_letter,-1.0,False,24,-1,1,7
PB020M36,3,182,AS,exp,50,↑,right,→,1.4193478999950457,False,25,-1,0,7
PB020M36,3,183,AS,exp,33,→,right,→,0.8280996000103187,True,26,-1,0,7
PB020M36,3,184,AS,exp,45,←,left,←,0.9430226999975275,True,26,1,1,8
PB020M36,3,185,AS,exp,25,→,no_key,no_letter,-1.0,False,25,-1,1,9
PB020M36,3,186,AS,exp,50,↓,down,↓,0.9338454999960959,True,26,-1,0,9
PB020M36,3,187,AS,exp,35,↑,up,↑,0.9806941999995615,True,26,1,1,10
PB020M36,3,188,AS,exp,42,→,right,→,0.7061804000113625,True,25,1,0,10
PB020M36,3,189,AS,exp,40,←,left,←,0.7785117000166792,True,25,1,0,10
PB020M36,3,190,AS,exp,48,→,left,←,1.3642246999952476,False,24,-1,1,11
PB020M36,3,191,AS,exp,47,↓,down,↓,0.7055998999858275,True,25,-1,0,11
PB020M36,3,192,AS,exp,43,←,left,←,1.3367762999841943,True,25,1,1,12
PB020M36,3,193,AS,exp,41,↑,up,↑,1.1209673999983352,True,24,1,0,12
PB020M36,3,194,AS,exp,34,←,no_key,no_letter,-1.0,False,24,-1,1,13
PB020M36,3,195,AS,exp,36,↑,left,←,1.394156499998644,False,25,-1,0,13
PB020M36,3,196,AS,exp,41,←,left,←,0.8276574999908917,True,26,-1,0,13
PB020M36,3,197,AS,exp,42,↓,no_key,no_letter,-1.0,False,26,-1,0,13
PB020M36,3,198,AS,exp,43,→,right,→,1.147263999999268,True,27,-1,0,13
PB020M36,3,199,AS,exp,37,↓,right,→,1.0793195999867748,False,27,-1,0,13
PB020M36,3,200,AS,exp,41,→,right,→,0.8051442000141833,True,28,-1,0,13
PB020M36,3,201,AS,exp,26,↓,down,↓,0.792168899992248,True,28,1,1,14
PB020M36,4,202,PS,intra_train,46,↑,no_key,no_letter,-1.0,False,16,-,-,-
PB020M36,4,203,PS,intra_train,50,←,left,←,1.014369300013641,True,16,-,-,-
PB020M36,4,204,PS,intra_train,43,↓,left,←,1.7753883999830578,False,16,-,-,-
PB020M36,4,205,PS,intra_train,43,←,left,←,0.870716600009473,True,16,-,-,-
PB020M36,4,206,PS,intra_train,41,↑,right,→,1.1847948999784421,False,16,-,-,-
PB020M36,4,207,PS,exp,32,←,left,←,0.7299218999978621,True,11,0,0,0
PB020M36,4,208,PS,exp,47,↓,right,→,0.8773916999925859,False,11,-1,0,0
PB020M36,4,209,PS,exp,33,↑,up,↑,0.9268380999856163,True,12,-1,0,0
PB020M36,4,210,PS,exp,35,→,right,→,0.7082082999986596,True,12,1,1,1
PB020M36,4,211,PS,exp,42,↓,left,←,1.3006451000110246,False,11,-1,1,2
PB020M36,4,212,PS,exp,33,↑,up,↑,0.719910300016636,True,12,-1,0,2
PB020M36,4,213,PS,exp,34,←,left,←,0.6591401000041515,True,12,1,1,3
PB020M36,4,214,PS,exp,49,↓,down,↓,0.6281346000032499,True,11,1,0,3
PB020M36,4,215,PS,exp,44,→,right,→,0.6389026999822818,True,11,1,0,3
PB020M36,4,216,PS,exp,27,↑,left,←,1.0593217999849003,False,10,-1,1,4
PB020M36,4,217,PS,exp,42,↓,down,↓,0.7998798000044189,True,11,-1,0,4
PB020M36,4,218,PS,exp,38,→,right,→,0.633622599998489,True,11,1,1,5
PB020M36,4,219,PS,exp,44,↓,right,→,1.065414899989264,False,10,-1,1,6
PB020M36,4,220,PS,exp,33,↑,up,↑,0.7539539000135846,True,11,-1,0,6
PB020M36,4,221,PS,exp,35,→,right,→,0.6301510999910533,True,11,1,1,7
PB020M36,4,222,PS,exp,45,↑,left,←,1.0222957000078168,False,10,-1,1,8
PB020M36,4,223,PS,exp,44,→,right,→,0.6781931000004988,True,11,-1,0,8
PB020M36,4,224,PS,exp,46,↑,up,↑,0.7550751999951899,True,11,1,1,9
PB020M36,4,225,PS,exp,38,→,right,→,0.9648581999936141,True,10,1,0,9
PB020M36,4,226,PS,exp,46,←,left,←,0.7683228999958374,True,10,1,0,9
PB020M36,4,227,PS,exp,29,↓,down,↓,1.2908934000006411,True,9,1,0,9
PB020M36,4,228,PS,exp,29,↑,up,↑,0.7951260000118054,True,9,1,0,9
PB020M36,4,229,PS,exp,25,→,left,←,0.8743730999995023,False,8,-1,1,10
PB020M36,4,230,PS,exp,34,↓,down,↓,0.7537492999981623,True,9,-1,0,10
PB020M36,4,231,PS,exp,37,←,left,←,0.8259956999972928,True,9,1,1,11
PB020M36,4,232,PS,exp,48,↑,down,↓,1.1055842000059783,False,8,-1,1,12
PB020M36,4,233,PS,exp,27,↓,right,→,1.0471136999840382,False,9,-1,0,12
PB020M36,4,234,PS,exp,38,←,left,←,1.013422799995169,True,10,-1,0,12
PB020M36,4,235,PS,exp,29,↓,down,↓,0.6213479000143707,True,10,1,1,13
PB020M36,4,236,PS,exp,40,←,right,→,1.365899199998239,False,9,-1,1,14
PB020M36,5,237,PS,intra_train,26,→,left,←,1.2125353000010364,False,16,-,-,-
PB020M36,5,238,PS,intra_train,25,↑,up,↑,0.777464200014947,True,16,-,-,-
PB020M36,5,239,PS,intra_train,33,↓,down,↓,0.9586044999887235,True,16,-,-,-
PB020M36,5,240,PS,intra_train,25,←,left,←,0.8303078000026289,True,16,-,-,-
PB020M36,5,241,PS,intra_train,36,↑,up,↑,0.7249854999827221,True,16,-,-,-
PB020M36,5,242,PS,exp,46,→,right,→,0.7932166999962647,True,11,0,0,0
PB020M36,5,243,PS,exp,40,↓,down,↓,0.7009614999988116,True,11,1,0,0
PB020M36,5,244,PS,exp,26,→,down,↓,0.9472771000000648,False,10,-1,1,1
PB020M36,5,245,PS,exp,45,↑,up,↑,0.654364899994107,True,11,-1,0,1
PB020M36,5,246,PS,exp,43,→,down,↓,1.064007600012701,False,11,-1,0,1
PB020M36,5,247,PS,exp,42,←,left,←,0.7129244999960065,True,12,-1,0,1
PB020M36,5,248,PS,exp,48,↑,up,↑,0.757517399993958,True,12,1,1,2
PB020M36,5,249,PS,exp,48,←,up,↑,0.8981425999954809,False,11,-1,1,3
PB020M36,5,250,PS,exp,46,→,right,→,0.5622954000136815,True,12,-1,0,3
PB020M36,5,251,PS,exp,50,↓,down,↓,0.6690340999921318,True,12,1,1,4
PB020M36,5,252,PS,exp,38,→,right,→,0.6661968999833334,True,11,1,0,4
PB020M36,5,253,PS,exp,44,↑,right,→,1.1331994000065606,False,11,-1,1,5
PB020M36,5,254,PS,exp,33,↓,left,←,1.0900263000221457,False,12,-1,0,5
PB020M36,5,255,PS,exp,27,↑,right,→,1.3058512000134215,False,13,-1,0,5
PB020M36,5,256,PS,exp,44,→,right,→,0.8334406999929342,True,14,-1,0,5
PB020M36,5,257,PS,exp,43,↓,down,↓,0.8075002999976277,True,14,1,1,6
PB020M36,5,258,PS,exp,38,→,right,→,0.6325553999922704,True,13,1,0,6
PB020M36,5,259,PS,exp,46,←,left,←,1.0331382999720518,True,13,1,0,6
PB020M36,5,260,PS,exp,25,↓,down,↓,0.7468881999957375,True,12,1,0,6
PB020M36,5,261,PS,exp,29,→,right,→,0.952118099987274,True,12,1,0,6
PB020M36,5,262,PS,exp,43,↑,up,↑,1.1015598999802023,True,11,1,0,6
PB020M36,5,263,PS,exp,43,←,left,←,1.0318556999845896,True,11,1,0,6
PB020M36,5,264,PS,exp,26,→,left,←,1.1405123000149615,False,10,-1,1,7
PB020M36,5,265,PS,exp,38,←,down,↓,0.9230193000112195,False,11,-1,0,7
PB020M36,5,266,PS,exp,31,↓,down,↓,0.6266076999891084,True,12,-1,0,7
PB020M36,5,267,PS,exp,36,→,right,→,0.9323277999938,True,12,1,1,8
PB020M36,5,268,PS,exp,33,↓,right,→,1.3915417000243906,False,11,-1,1,9
PB020M36,5,269,PS,exp,36,↑,up,↑,0.7391831999993883,True,12,-1,0,9
PB020M36,5,270,PS,exp,45,→,right,→,0.6621798999840394,True,12,1,1,10
PB020M36,5,271,PS,exp,43,↓,down,↓,0.7300340000074357,True,11,1,0,10
PB020M36,5,272,PS,exp,50,→,right,→,1.2624690999800805,True,11,1,0,10
PB020M36,5,273,PS,exp,25,↑,up,↑,0.7354113000037614,True,10,1,0,10
PB020M36,5,274,PS,exp,34,→,right,→,0.5834112000011373,True,10,1,0,10
PB020M36,5,275,PS,exp,35,←,right,→,1.1660214000148699,False,9,-1,1,11
PB020M36,5,276,PS,exp,44,↓,down,↓,1.449237599998014,True,10,-1,0,11
PB020M36,5,277,PS,exp,40,←,left,←,0.7668822999985423,True,10,1,1,12
PB020M36,5,278,PS,exp,31,↓,down,↓,1.0523926000169013,True,9,1,0,12
PB020M36,5,279,PS,exp,39,↑,left,←,1.5842410999757703,False,9,-1,1,13
PB020M36,5,280,PS,exp,48,←,left,←,0.972323599999072,True,10,-1,0,13
PB020M36,5,281,PS,exp,31,↓,down,↓,0.8141760999860708,True,10,1,1,14
PB020M36,6,282,AS,intra_train,47,←,left,←,1.6729384000063874,True,37,-,-,-
PB020M36,6,283,AS,intra_train,30,→,right,→,1.0459789999877103,True,37,-,-,-
PB020M36,6,284,AS,intra_train,25,↓,down,↓,0.7338111999852117,True,37,-,-,-
PB020M36,6,285,AS,intra_train,37,←,right,→,1.1981864000263158,False,37,-,-,-
PB020M36,6,286,AS,intra_train,38,→,right,→,0.9823440999898594,True,37,-,-,-
PB020M36,6,287,AS,exp,29,↓,down,↓,0.7252660999947693,True,25,0,0,0
PB020M36,6,288,AS,exp,40,↑,up,↑,1.0288686999992933,True,25,1,0,0
PB020M36,6,289,AS,exp,49,←,no_key,no_letter,-1.0,False,24,-1,1,1
PB020M36,6,290,AS,exp,38,↑,up,↑,1.0047608999884687,True,25,-1,0,1
PB020M36,6,291,AS,exp,33,↓,down,↓,0.9068296999903396,True,25,1,1,2
PB020M36,6,292,AS,exp,32,→,right,→,0.8640461000031792,True,24,1,0,2
PB020M36,6,293,AS,exp,27,↑,up,↑,0.9360329000046477,True,24,1,0,2
PB020M36,6,294,AS,exp,40,→,right,→,0.7553186999866739,True,23,1,0,2
PB020M36,6,295,AS,exp,37,↓,up,↑,0.9591721000033431,False,23,-1,1,3
PB020M36,6,296,AS,exp,35,→,right,→,0.9028395999921486,True,24,-1,0,3
PB020M36,6,297,AS,exp,39,←,left,←,0.8287330000021029,True,24,1,1,4
PB020M36,6,298,AS,exp,26,→,up,↑,1.1391090999823064,False,23,-1,1,5
PB020M36,6,299,AS,exp,32,↓,down,↓,0.6891654999926686,True,24,-1,0,5
PB020M36,6,300,AS,exp,46,→,right,→,0.5180580000160262,True,24,1,1,6
PB020M36,6,301,AS,exp,37,↑,up,↑,0.6124279999930877,True,23,1,0,6
PB020M36,6,302,AS,exp,44,←,up,↑,1.311303800001042,False,23,-1,1,7
PB020M36,6,303,AS,exp,40,↓,down,↓,0.6233825000235811,True,24,-1,0,7
PB020M36,6,304,AS,exp,26,←,left,←,1.5222505999845453,True,24,1,1,8
PB020M36,6,305,AS,exp,38,↑,up,↑,0.683012499997858,True,23,1,0,8
PB020M36,6,306,AS,exp,35,→,right,→,0.7851984000008088,True,23,1,0,8
PB020M36,6,307,AS,exp,31,↓,up,↑,0.9250217000080738,False,22,-1,1,9
PB020M36,6,308,AS,exp,25,→,right,→,0.708660600008443,True,23,-1,0,9
PB020M36,6,309,AS,exp,26,←,left,←,0.797444900003029,True,23,1,1,10
PB020M36,6,310,AS,exp,41,→,right,→,0.8478326000040397,True,22,1,0,10
PB020M36,6,311,AS,exp,39,↑,up,↑,0.594886700011557,True,22,1,0,10
PB020M36,6,312,AS,exp,36,↓,down,↓,0.6919518999930006,True,21,1,0,10
PB020M36,6,313,AS,exp,36,←,left,←,0.7196820999961346,True,21,1,0,10
PB020M36,6,314,AS,exp,43,↓,no_key,no_letter,-1.0,False,20,-1,1,11
PB020M36,6,315,AS,exp,39,→,left,←,1.1281626999843866,False,21,-1,0,11
PB020M36,6,316,AS,exp,38,↑,up,↑,0.8126916000037454,True,22,-1,0,11
PB020M36,6,317,AS,exp,48,←,left,←,0.8085397999966517,True,22,1,1,12
PB020M36,6,318,AS,exp,34,→,right,→,0.8228983999870252,True,21,1,0,12
PB020M36,6,319,AS,exp,35,↑,up,↑,0.7465169999923091,True,21,1,0,12
PB020M36,6,320,AS,exp,30,↓,no_key,no_letter,-1.0,False,20,-1,1,13
PB020M36,6,321,AS,exp,33,←,left,←,0.778803399996832,True,21,-1,0,13
PB020M36,6,322,AS,exp,44,↓,down,↓,0.7504446000093594,True,21,1,1,14
PB020M36,7,323,AS,intra_train,40,←,left,←,1.1221831000002567,True,37,-,-,-
PB020M36,7,324,AS,intra_train,38,↑,up,↑,0.6503388999844901,True,37,-,-,-
PB020M36,7,325,AS,intra_train,47,←,left,←,0.8165156999893952,True,37,-,-,-
PB020M36,7,326,AS,intra_train,37,↓,down,↓,0.6507688999990933,True,37,-,-,-
PB020M36,7,327,AS,intra_train,34,→,right,→,0.6338161999883596,True,37,-,-,-
PB020M36,7,328,AS,exp,38,↑,no_key,no_letter,-1.0,False,25,-1,0,0
PB020M36,7,329,AS,exp,34,←,left,←,0.6642709999869112,True,26,-1,0,0
PB020M36,7,330,AS,exp,41,→,right,→,0.5671538000169676,True,26,1,1,1
PB020M36,7,331,AS,exp,28,↑,up,↑,1.1320386999868788,True,25,1,0,1
PB020M36,7,332,AS,exp,28,→,right,→,0.5504248999932315,True,25,1,0,1
PB020M36,7,333,AS,exp,26,↓,down,↓,1.1199595999787562,True,24,1,0,1
PB020M36,7,334,AS,exp,40,←,no_key,no_letter,-1.0,False,24,-1,1,2
PB020M36,7,335,AS,exp,33,↓,down,↓,0.9648525000084192,True,25,-1,0,2
PB020M36,7,336,AS,exp,39,↑,up,↑,0.6983066000102554,True,25,1,1,3
PB020M36,7,337,AS,exp,44,↓,down,↓,0.6435494000033941,True,24,1,0,3
PB020M36,7,338,AS,exp,45,↑,up,↑,1.1608220000052825,True,24,1,0,3
PB020M36,7,339,AS,exp,26,↓,down,↓,0.927578699978767,True,23,1,0,3
PB020M36,7,340,AS,exp,48,→,right,→,0.9461618000059389,True,23,1,0,3
PB020M36,7,341,AS,exp,34,←,left,←,0.7077704000112135,True,22,1,0,3
PB020M36,7,342,AS,exp,28,↓,down,↓,0.7349627999938093,True,22,1,0,3
PB020M36,7,343,AS,exp,33,→,right,→,0.7439925000071526,True,21,1,0,3
PB020M36,7,344,AS,exp,35,↑,up,↑,0.9119886999833398,True,21,1,0,3
PB020M36,7,345,AS,exp,29,↓,down,↓,0.6251289999927394,True,20,1,0,3
PB020M36,7,346,AS,exp,40,←,left,←,1.0818547999951988,True,20,1,0,3
PB020M36,7,347,AS,exp,42,↑,up,↑,0.6779804999823682,True,19,1,0,3
PB020M36,7,348,AS,exp,42,↓,down,↓,0.5594219999911729,True,19,1,0,3
PB020M36,7,349,AS,exp,42,←,down,↓,1.2999922999879345,False,18,-1,1,4
PB020M36,7,350,AS,exp,49,→,down,↓,1.3177571000123862,False,19,-1,0,4
PB020M36,7,351,AS,exp,47,↓,down,↓,0.7797538999875542,True,20,-1,0,4
PB020M36,7,352,AS,exp,28,↑,up,↑,1.864780600008089,True,20,1,1,5
PB020M36,7,353,AS,exp,35,↓,down,↓,0.9861716000013985,True,19,1,0,5
PB020M36,7,354,AS,exp,27,↑,up,↑,1.2794432000082452,True,19,1,0,5
PB020M36,7,355,AS,exp,26,←,left,←,0.7508482999983244,True,18,1,0,5
PB020M36,7,356,AS,exp,46,→,right,→,1.0025966000102926,True,18,1,0,5
PB020M36,7,357,AS,exp,49,↑,up,↑,0.6274556999851484,True,17,1,0,5
PB020M36,7,358,AS,exp,35,↓,down,↓,0.6455011999933049,True,17,1,0,5
PB020M36,7,359,AS,exp,38,→,right,→,0.8588428999937605,True,16,1,0,5
PB020M36,7,360,AS,exp,25,←,down,↓,0.8787224999978207,False,16,-1,1,6
PB020M36,7,361,AS,exp,32,↓,no_key,no_letter,-1.0,False,17,-1,0,6
PB020M36,7,362,AS,exp,50,↑,left,←,1.3007569999899715,False,18,-1,0,6
PB020M36,7,363,AS,exp,34,↓,right,→,0.7791145000082906,False,19,-1,0,6
PB020M36,7,364,AS,exp,26,→,up,↑,1.2699329999741167,False,20,-1,0,6
PB020M36,7,365,AS,exp,30,↓,down,↓,0.9031877999950666,True,21,-1,0,6
PB020M36,7,366,AS,exp,33,←,left,←,0.8898284999886528,True,21,1,1,7
PB020M36,7,367,AS,exp,48,→,right,→,0.8870751000067685,True,20,1,0,7
PB020M36,7,368,AS,exp,44,←,down,↓,1.8792492999928072,False,20,-1,1,8
PB020M36,7,369,AS,exp,35,↑,up,↑,0.9105750999879092,True,21,-1,0,8
PB020M36,7,370,AS,exp,32,↓,up,↑,1.174302200000966,False,21,-1,0,8
PB020M36,7,371,AS,exp,40,↑,up,↑,0.9388215999933891,True,22,-1,0,8
PB020M36,7,372,AS,exp,39,→,right,→,0.8268505999876652,True,22,1,1,9
PB020M36,7,373,AS,exp,45,↑,up,↑,0.806006900005741,True,21,1,0,9
PB020M36,7,374,AS,exp,27,→,right,→,0.7580223999975715,True,21,1,0,9
PB020M36,7,375,AS,exp,47,←,left,←,0.9351782000157982,True,20,1,0,9
PB020M36,7,376,AS,exp,29,↓,up,↑,1.0002950000052806,False,20,-1,1,10
PB020M36,7,377,AS,exp,31,↑,up,↑,0.8996728000056464,True,21,-1,0,10
PB020M36,7,378,AS,exp,49,↓,down,↓,1.1575818000128493,True,21,1,1,11
PB020M36,7,379,AS,exp,42,←,left,←,1.1752288999850862,True,20,1,0,11
PB020M36,7,380,AS,exp,48,→,no_key,no_letter,-1.0,False,20,-1,1,12
PB020M36,7,381,AS,exp,44,↑,up,↑,0.8186234999739099,True,21,-1,0,12
PB020M36,7,382,AS,exp,37,↓,down,↓,0.7036155999812763,True,21,1,1,13
PB020M36,7,383,AS,exp,26,→,right,→,0.7387790000066161,True,20,1,0,13
PB020M36,7,384,AS,exp,44,↓,down,↓,0.6652228999882936,True,20,1,0,13
PB020M36,7,385,AS,exp,28,→,right,→,0.7767533000151161,True,19,1,0,13
PB020M36,7,386,AS,exp,30,←,left,←,1.3656374999845866,True,19,1,0,13
PB020M36,7,387,AS,exp,28,→,right,→,0.8303748999896925,True,18,1,0,13
PB020M36,7,388,AS,exp,30,←,left,←,0.8485311999975238,True,18,1,0,13
PB020M36,7,389,AS,exp,42,↑,left,←,1.324010400014231,False,17,-1,1,14
PB020M36,8,390,PS,intra_train,48,→,left,←,1.2645241999998689,False,16,-,-,-
PB020M36,8,391,PS,intra_train,37,↓,down,↓,0.7908078000182286,True,16,-,-,-
PB020M36,8,392,PS,intra_train,36,↑,up,↑,0.7828139000048395,True,16,-,-,-
PB020M36,8,393,PS,intra_train,36,↓,down,↓,0.696858900017105,True,16,-,-,-
PB020M36,8,394,PS,intra_train,49,↑,up,↑,0.6797560000268277,True,16,-,-,-
PB020M36,8,395,PS,exp,40,↓,down,↓,0.7034962000034284,True,11,0,0,0
PB020M36,8,396,PS,exp,35,→,up,↑,0.9956554000091273,False,11,-1,0,0
PB020M36,8,397,PS,exp,40,↑,up,↑,0.6157399000076111,True,12,-1,0,0
PB020M36,8,398,PS,exp,41,→,right,→,0.7340678999898955,True,12,1,1,1
PB020M36,8,399,PS,exp,34,↑,up,↑,0.6872522000048775,True,11,1,0,1
PB020M36,8,400,PS,exp,29,←,left,←,1.0113343999837525,True,11,1,0,1
PB020M36,8,401,PS,exp,28,→,right,→,0.8144517000182532,True,10,1,0,1
PB020M36,8,402,PS,exp,34,←,left,←,0.7141192999843042,True,10,1,0,1
PB020M36,8,403,PS,exp,41,↓,left,←,1.7073794000025373,False,9,-1,1,2
PB020M36,8,404,PS,exp,38,↑,right,→,0.8182365999964532,False,10,-1,0,2
PB020M36,8,405,PS,exp,38,↓,no_key,no_letter,-1.0,False,11,-1,0,2
PB020M36,8,406,PS,exp,28,←,right,→,1.0532909000176005,False,12,-1,0,2
PB020M36,8,407,PS,exp,45,→,right,→,0.7137891000020318,True,13,-1,0,2
PB020M36,8,408,PS,exp,31,↓,right,→,0.8284918999997899,False,13,-1,0,2
PB020M36,8,409,PS,exp,39,↑,up,↑,0.6655804000038188,True,14,-1,0,2
PB020M36,8,410,PS,exp,41,→,right,→,0.7572786999808159,True,14,1,1,3
PB020M36,8,411,PS,exp,49,↑,up,↑,0.6782537999970373,True,13,1,0,3
PB020M36,8,412,PS,exp,41,↓,down,↓,0.6099662000196986,True,13,1,0,3
PB020M36,8,413,PS,exp,28,↑,up,↑,0.7153501000138931,True,12,1,0,3
PB020M36,8,414,PS,exp,48,→,right,→,0.7516487999819219,True,12,1,0,3
PB020M36,8,415,PS,exp,49,↑,up,↑,0.5738897999981418,True,11,1,0,3
PB020M36,8,416,PS,exp,43,→,right,→,0.6586347999982536,True,11,1,0,3
PB020M36,8,417,PS,exp,44,↓,down,↓,0.625166799989529,True,10,1,0,3
PB020M36,8,418,PS,exp,40,↑,right,→,1.088016499998048,False,10,-1,1,4
PB020M36,8,419,PS,exp,40,↓,down,↓,0.6567109000170603,True,11,-1,0,4
PB020M36,8,420,PS,exp,41,→,right,→,0.6215004999830853,True,11,1,1,5
PB020M36,8,421,PS,exp,33,↑,up,↑,0.7034469999780413,True,10,1,0,5
PB020M36,8,422,PS,exp,50,→,right,→,0.6466753999993671,True,10,1,0,5
PB020M36,8,423,PS,exp,47,↑,up,↑,0.8985884000139777,True,9,1,0,5
PB020M36,8,424,PS,exp,27,→,right,→,0.6002289000025485,True,9,1,0,5
PB020M36,8,425,PS,exp,41,↑,no_key,no_letter,-1.0,False,8,-1,1,6
PB020M36,8,426,PS,exp,30,→,right,→,0.6843325000081677,True,9,-1,0,6
PB020M36,8,427,PS,exp,36,↑,up,↑,0.6835236000188161,True,9,1,1,7
PB020M36,8,428,PS,exp,28,↓,up,↑,0.7915373999858275,False,8,-1,1,8
PB020M36,8,429,PS,exp,28,→,right,→,0.812664400000358,True,9,-1,0,8
PB020M36,8,430,PS,exp,45,↓,down,↓,0.73993129999144,True,9,1,1,9
PB020M36,8,431,PS,exp,30,↑,up,↑,0.5614395000156946,True,8,1,0,9
PB020M36,8,432,PS,exp,42,←,left,←,0.9396029000054114,True,8,1,0,9
PB020M36,8,433,PS,exp,41,↑,up,↑,0.6627651000162587,True,7,1,0,9
PB020M36,8,434,PS,exp,25,→,right,→,0.6182858999818563,True,7,1,0,9
PB020M36,8,435,PS,exp,29,↓,up,↑,0.937983300013002,False,6,-1,1,10
PB020M36,8,436,PS,exp,31,←,left,←,0.6878713000041898,True,7,-1,0,10
PB020M36,8,437,PS,exp,47,↓,left,←,1.6484725000045728,False,7,-1,0,10
PB020M36,8,438,PS,exp,26,↑,up,↑,0.6227572999778204,True,8,-1,0,10
PB020M36,8,439,PS,exp,40,→,up,↑,0.8817670999851543,False,8,-1,0,10
PB020M36,8,440,PS,exp,33,↑,up,↑,0.5844563000136986,True,9,-1,0,10
PB020M36,8,441,PS,exp,47,↓,down,↓,0.7010463000042364,True,9,1,1,11
PB020M36,8,442,PS,exp,43,←,left,←,0.5758724999905098,True,8,1,0,11
PB020M36,8,443,PS,exp,44,→,right,→,0.6712595999997575,True,8,1,0,11
PB020M36,8,444,PS,exp,40,↓,up,↑,0.756590499979211,False,7,-1,1,12
PB020M36,8,445,PS,exp,38,↑,up,↑,0.5491252000210807,True,8,-1,0,12
PB020M36,8,446,PS,exp,32,↓,up,↑,0.6733429000014439,False,8,-1,0,12
PB020M36,8,447,PS,exp,49,←,left,←,0.6829666999983601,True,9,-1,0,12
PB020M36,8,448,PS,exp,25,↑,left,←,1.33296070000506,False,9,-1,0,12
PB020M36,8,449,PS,exp,44,←,left,←,0.81323960001464,True,10,-1,0,12
PB020M36,8,450,PS,exp,39,↓,down,↓,0.5708456999855116,True,10,1,1,13
PB020M36,8,451,PS,exp,28,↑,left,←,0.854271999996854,False,9,-1,1,14
