PART_ID,Block_no,Trial_no,Block_type,Trial_type,CSI,Stim_letter,Key_pressed,letter_choose,Rt,Corr,Stimulus Time,Level,Reversal,Revs_count
PB031M18,1,1,PS,train,28,←,left,←,0.6005632999585941,True,30,-,-,-
PB031M18,1,2,PS,train,29,↓,left,←,0.567249100015033,False,30,-,-,-
PB031M18,1,3,PS,train,41,↑,no_key,no_letter,-1.0,False,30,-,-,-
PB031M18,1,4,PS,train,49,→,right,→,0.6750315999961458,True,30,-,-,-
PB031M18,1,5,PS,train,26,←,left,←,0.4838053999701515,True,30,-,-,-
PB031M18,1,6,PS,train,44,↑,up,↑,0.6004948999616317,True,30,-,-,-
PB031M18,1,7,PS,train,50,→,right,→,0.5338846999802627,True,30,-,-,-
PB031M18,1,8,PS,train,29,↑,up,↑,0.5338010999839753,True,30,-,-,-
PB031M18,1,9,PS,train,39,↓,down,↓,1.02666470000986,True,30,-,-,-
PB031M18,1,10,PS,train,28,→,right,→,0.48384110000915825,True,30,-,-,-
PB031M18,2,11,AS,train,36,↑,up,↑,0.6183896999573335,True,45,-,-,-
PB031M18,2,12,AS,train,44,→,right,→,0.5676817999919876,True,45,-,-,-
PB031M18,2,13,AS,train,47,↓,down,↓,0.8005737999919802,True,45,-,-,-
PB031M18,2,14,AS,train,31,↑,up,↑,0.5845618000021204,True,45,-,-,-
PB031M18,2,15,AS,train,42,←,left,←,0.8170108000049368,True,45,-,-,-
PB031M18,2,16,AS,train,36,↑,up,↑,0.6176523999893107,True,45,-,-,-
PB031M18,2,17,AS,train,25,↓,down,↓,0.7837045000051148,True,45,-,-,-
PB031M18,2,18,AS,train,44,→,right,→,0.667725499952212,True,45,-,-,-
PB031M18,2,19,AS,train,33,↓,down,↓,0.8838131999946199,True,45,-,-,-
PB031M18,2,20,AS,train,35,←,left,←,0.994405800011009,True,45,-,-,-
PB031M18,-,21,PS,adaptive,38,↑,no_key,no_letter,-1.0,False,10,-1,0,0
PB031M18,-,22,PS,adaptive,45,←,left,←,0.874597400019411,True,11,-1,0,0
PB031M18,-,23,PS,adaptive,34,→,right,→,0.8114553999621421,True,11,1,1,1
PB031M18,-,24,PS,adaptive,43,↓,down,↓,0.4723134000087157,True,10,1,0,1
PB031M18,-,25,PS,adaptive,41,↑,up,↑,0.5982319999602623,True,10,1,0,1
PB031M18,-,26,PS,adaptive,37,→,down,↓,0.7121675999951549,False,9,-1,1,2
PB031M18,-,27,PS,adaptive,41,↓,left,←,0.5695122999604791,False,10,-1,0,2
PB031M18,-,28,PS,adaptive,30,←,left,←,0.5027776999631897,True,11,-1,0,2
PB031M18,-,29,PS,adaptive,30,→,right,→,0.40780380001524463,True,11,1,1,3
PB031M18,-,30,PS,adaptive,30,↓,down,↓,0.5735936999553815,True,10,1,0,3
PB031M18,-,31,PS,adaptive,25,→,right,→,0.442466999986209,True,10,1,0,3
PB031M18,-,32,PS,adaptive,31,←,left,←,0.5168367000296712,True,9,1,0,3
PB031M18,-,33,PS,adaptive,31,→,right,→,0.4667788000078872,True,9,1,0,3
PB031M18,-,34,PS,adaptive,25,←,left,←,0.4310708999983035,True,8,1,0,3
PB031M18,-,35,PS,adaptive,28,↓,down,↓,0.45368380000581965,True,8,1,0,3
PB031M18,-,36,PS,adaptive,33,→,right,→,0.6342085000360385,True,7,1,0,3
PB031M18,-,37,PS,adaptive,40,↓,down,↓,0.4549014000222087,True,7,1,0,3
PB031M18,-,38,PS,adaptive,42,→,right,→,0.4702681000344455,True,6,1,0,3
PB031M18,-,39,PS,adaptive,47,↓,right,→,0.658366699994076,False,6,-1,1,4
PB031M18,-,40,AS,adaptive,37,→,right,→,0.6863614999456331,True,20,0,0,0
PB031M18,-,41,AS,adaptive,36,↓,right,→,0.7770876999711618,False,20,-1,0,0
PB031M18,-,42,AS,adaptive,28,→,right,→,0.5240119000081904,True,21,-1,0,0
PB031M18,-,43,AS,adaptive,39,↑,up,↑,0.8690848000114784,True,21,1,1,1
PB031M18,-,44,AS,adaptive,27,←,left,←,0.8169871999998577,True,20,1,0,1
PB031M18,-,45,AS,adaptive,39,↓,down,↓,0.7757064999896102,True,20,1,0,1
PB031M18,-,46,AS,adaptive,41,↑,down,↓,0.6444337000139058,False,19,-1,1,2
PB031M18,-,47,AS,adaptive,48,→,up,↑,0.36723780003376305,False,20,-1,0,2
PB031M18,-,48,AS,adaptive,48,←,left,←,0.48384050000458956,True,21,-1,0,2
PB031M18,-,49,AS,adaptive,48,↑,left,←,0.7790097999968566,False,21,-1,0,2
PB031M18,-,50,AS,adaptive,34,→,right,→,0.41704440000467,True,22,-1,0,2
PB031M18,-,51,AS,adaptive,36,↑,up,↑,0.5390297000412829,True,22,1,1,3
PB031M18,-,52,AS,adaptive,47,↓,left,←,0.6176239000051282,False,21,-1,1,4
PB031M18,1,53,AS,intra_train,38,↑,up,↑,0.6837076999945566,True,33,-,-,-
PB031M18,1,54,AS,intra_train,25,↓,down,↓,1.035494200012181,True,33,-,-,-
PB031M18,1,55,AS,intra_train,49,←,left,←,0.5010405000066385,True,33,-,-,-
PB031M18,1,56,AS,intra_train,29,→,right,→,0.48444789997301996,True,33,-,-,-
PB031M18,1,57,AS,intra_train,39,↑,up,↑,0.633711599977687,True,33,-,-,-
PB031M18,1,58,AS,exp,31,←,left,←,0.6422724000294693,True,22,0,0,0
PB031M18,1,59,AS,exp,50,↓,left,←,1.226436399971135,False,22,-1,0,0
PB031M18,1,60,AS,exp,40,→,right,→,0.8054341999813914,True,23,-1,0,0
PB031M18,1,61,AS,exp,42,↓,left,←,0.7802766999811865,False,23,-1,0,0
PB031M18,1,62,AS,exp,27,→,right,→,0.8289772000280209,True,24,-1,0,0
PB031M18,1,63,AS,exp,46,↑,up,↑,0.7638030999805778,True,24,1,1,1
PB031M18,1,64,AS,exp,41,←,left,←,0.4837143999757245,True,23,1,0,1
PB031M18,1,65,AS,exp,37,↑,up,↑,0.6246699999901466,True,23,1,0,1
PB031M18,1,66,AS,exp,50,↓,down,↓,0.6508824999909848,True,22,1,0,1
PB031M18,1,67,AS,exp,39,←,left,←,0.6115569999674335,True,22,1,0,1
PB031M18,1,68,AS,exp,48,↑,up,↑,0.8825353999854997,True,21,1,0,1
PB031M18,1,69,AS,exp,31,↓,left,←,0.7340384999988601,False,21,-1,1,2
PB031M18,1,70,AS,exp,42,→,right,→,0.6350521999993362,True,22,-1,0,2
PB031M18,1,71,AS,exp,39,↑,up,↑,0.6867850000271574,True,22,1,1,3
PB031M18,1,72,AS,exp,46,↓,down,↓,0.8128967999946326,True,21,1,0,3
PB031M18,1,73,AS,exp,35,→,right,→,0.7470536000328138,True,21,1,0,3
PB031M18,1,74,AS,exp,32,←,left,←,0.9659869999741204,True,20,1,0,3
PB031M18,1,75,AS,exp,50,→,right,→,0.5289669000194408,True,20,1,0,3
PB031M18,1,76,AS,exp,42,↓,down,↓,0.7402245000121184,True,19,1,0,3
PB031M18,1,77,AS,exp,39,↑,up,↑,0.6771759999683127,True,19,1,0,3
PB031M18,1,78,AS,exp,41,←,left,←,0.6847545999917202,True,18,1,0,3
PB031M18,1,79,AS,exp,44,↑,up,↑,0.6361416000290774,True,18,1,0,3
PB031M18,1,80,AS,exp,34,←,left,←,0.704411800019443,True,17,1,0,3
PB031M18,1,81,AS,exp,27,↑,up,↑,0.6614334999467246,True,17,1,0,3
PB031M18,1,82,AS,exp,46,←,left,←,0.5348244999768212,True,16,1,0,3
PB031M18,1,83,AS,exp,41,↓,left,←,0.9846313000307418,False,16,-1,1,4
PB031M18,1,84,AS,exp,32,↑,down,↓,1.0666776000289246,False,17,-1,0,4
PB031M18,1,85,AS,exp,42,↓,down,↓,0.7184428999898955,True,18,-1,0,4
PB031M18,1,86,AS,exp,25,↑,up,↑,0.792801600007806,True,18,1,1,5
PB031M18,1,87,AS,exp,34,↓,down,↓,1.0884262999752536,True,17,1,0,5
PB031M18,1,88,AS,exp,29,↑,up,↑,0.561785499972757,True,17,1,0,5
PB031M18,1,89,AS,exp,26,←,left,←,0.479324700019788,True,16,1,0,5
PB031M18,1,90,AS,exp,50,→,right,→,0.5770926999975927,True,16,1,0,5
PB031M18,1,91,AS,exp,38,↑,left,←,0.8777467000181787,False,15,-1,1,6
PB031M18,1,92,AS,exp,32,↓,down,↓,0.6755713000311516,True,16,-1,0,6
PB031M18,1,93,AS,exp,38,→,right,→,0.4843245999654755,True,16,1,1,7
PB031M18,1,94,AS,exp,40,↑,up,↑,0.7834917000145651,True,15,1,0,7
PB031M18,1,95,AS,exp,43,→,right,→,0.4537042999872938,True,15,1,0,7
PB031M18,1,96,AS,exp,41,↓,down,↓,0.5731225999770686,True,14,1,0,7
PB031M18,1,97,AS,exp,41,→,down,↓,0.7511876000207849,False,14,-1,1,8
PB031M18,1,98,AS,exp,27,↓,right,→,0.7071835999959148,False,15,-1,0,8
PB031M18,1,99,AS,exp,41,←,right,→,0.5267101000063121,False,16,-1,0,8
PB031M18,1,100,AS,exp,30,↑,up,↑,0.6251498999772593,True,17,-1,0,8
PB031M18,1,101,AS,exp,47,→,right,→,0.7224487999919802,True,17,1,1,9
PB031M18,1,102,AS,exp,39,↓,up,↑,0.7839164999895729,False,16,-1,1,10
PB031M18,1,103,AS,exp,30,←,left,←,1.3497463000239804,True,17,-1,0,10
PB031M18,1,104,AS,exp,32,↑,right,→,0.7517170000355691,False,17,-1,0,10
PB031M18,1,105,AS,exp,44,↓,down,↓,0.6757807999965735,True,18,-1,0,10
PB031M18,1,106,AS,exp,30,↑,down,↓,0.7960359000135213,False,18,-1,0,10
PB031M18,1,107,AS,exp,46,→,right,→,0.7475571999675594,True,19,-1,0,10
PB031M18,1,108,AS,exp,33,←,no_key,no_letter,-1.0,False,19,-1,0,10
PB031M18,1,109,AS,exp,45,→,right,→,0.6200304999947548,True,20,-1,0,10
PB031M18,1,110,AS,exp,44,↑,left,←,1.0408139000064693,False,20,-1,0,10
PB031M18,1,111,AS,exp,35,→,right,→,0.5746047999709845,True,21,-1,0,10
PB031M18,1,112,AS,exp,48,↑,up,↑,0.7142248999443837,True,21,1,1,11
PB031M18,1,113,AS,exp,45,←,left,←,0.6057830000063404,True,20,1,0,11
PB031M18,1,114,AS,exp,48,→,right,→,0.7176022000494413,True,20,1,0,11
PB031M18,1,115,AS,exp,46,↑,right,→,0.6323676999891177,False,19,-1,1,12
PB031M18,1,116,AS,exp,32,→,left,←,0.6959753000410274,False,20,-1,0,12
PB031M18,1,117,AS,exp,29,↑,up,↑,0.6952608000137843,True,21,-1,0,12
PB031M18,1,118,AS,exp,32,↓,down,↓,0.5801407999824733,True,21,1,1,13
PB031M18,1,119,AS,exp,25,←,left,←,0.5630671000108123,True,20,1,0,13
PB031M18,1,120,AS,exp,34,↑,up,↑,0.5689131999970414,True,20,1,0,13
PB031M18,1,121,AS,exp,27,→,left,←,0.8215689999633469,False,19,-1,1,14
PB031M18,2,122,PS,intra_train,45,←,left,←,0.7055857999948785,True,10,-,-,-
PB031M18,2,123,PS,intra_train,30,↑,right,→,0.8361443000030704,False,10,-,-,-
PB031M18,2,124,PS,intra_train,27,↓,down,↓,0.629755700007081,True,10,-,-,-
PB031M18,2,125,PS,intra_train,49,↑,up,↑,0.6700507999630645,True,10,-,-,-
PB031M18,2,126,PS,intra_train,41,→,left,←,0.9624170999741182,False,10,-,-,-
PB031M18,2,127,PS,exp,41,↑,up,↑,0.607462799991481,True,7,0,0,0
PB031M18,2,128,PS,exp,34,↓,down,↓,0.6295301000354812,True,7,1,0,0
PB031M18,2,129,PS,exp,29,→,left,←,0.600124099990353,False,6,-1,1,1
PB031M18,2,130,PS,exp,33,←,up,↑,0.5159579999744892,False,7,-1,0,1
PB031M18,2,131,PS,exp,40,↑,right,→,0.5345745999948122,False,8,-1,0,1
PB031M18,2,132,PS,exp,25,←,left,←,0.7433724000002258,True,9,-1,0,1
PB031M18,2,133,PS,exp,44,→,left,←,0.4178390000015497,False,9,-1,0,1
PB031M18,2,134,PS,exp,25,←,left,←,0.5559082999825478,True,10,-1,0,1
PB031M18,2,135,PS,exp,37,→,right,→,0.6123748999671079,True,10,1,1,2
PB031M18,2,136,PS,exp,33,↓,down,↓,0.4660833000089042,True,9,1,0,2
PB031M18,2,137,PS,exp,38,→,right,→,0.5162255000323057,True,9,1,0,2
PB031M18,2,138,PS,exp,38,↓,down,↓,0.8982764999964274,True,8,1,0,2
PB031M18,2,139,PS,exp,33,→,right,→,0.5096866000094451,True,8,1,0,2
PB031M18,2,140,PS,exp,25,↓,right,→,0.6737231999868527,False,7,-1,1,3
PB031M18,2,141,PS,exp,39,←,down,↓,0.7623105000238866,False,8,-1,0,3
PB031M18,2,142,PS,exp,36,→,right,→,0.4951291999896057,True,9,-1,0,3
PB031M18,2,143,PS,exp,27,↓,right,→,0.8913692000205629,False,9,-1,0,3
PB031M18,2,144,PS,exp,50,↑,up,↑,1.156531399989035,True,10,-1,0,3
PB031M18,2,145,PS,exp,38,←,left,←,0.4325189999653958,True,10,1,1,4
PB031M18,2,146,PS,exp,30,→,no_key,no_letter,-1.0,False,9,-1,1,5
PB031M18,2,147,PS,exp,28,↑,up,↑,1.369442600000184,True,10,-1,0,5
PB031M18,2,148,PS,exp,50,→,right,→,0.6337473999592476,True,10,1,1,6
PB031M18,2,149,PS,exp,31,↓,right,→,0.5115272999973968,False,9,-1,1,7
PB031M18,2,150,PS,exp,30,←,left,←,0.503398000029847,True,10,-1,0,7
PB031M18,2,151,PS,exp,34,→,right,→,0.5784395000082441,True,10,1,1,8
PB031M18,2,152,PS,exp,29,↑,up,↑,0.7942508000414819,True,9,1,0,8
PB031M18,2,153,PS,exp,39,←,left,←,0.46960739995120093,True,9,1,0,8
PB031M18,2,154,PS,exp,30,↓,down,↓,0.8485114000504836,True,8,1,0,8
PB031M18,2,155,PS,exp,35,↑,up,↑,0.5888290000148118,True,8,1,0,8
PB031M18,2,156,PS,exp,47,←,right,→,0.4452562999795191,False,7,-1,1,9
PB031M18,2,157,PS,exp,32,→,right,→,0.6206080000265501,True,8,-1,0,9
PB031M18,2,158,PS,exp,47,←,up,↑,0.2671858000103384,False,8,-1,0,9
PB031M18,2,159,PS,exp,30,↑,left,←,0.6727194000268355,False,9,-1,0,9
PB031M18,2,160,PS,exp,47,←,left,←,0.5264961000066251,True,10,-1,0,9
PB031M18,2,161,PS,exp,35,→,up,↑,0.6946423000190407,False,10,-1,0,9
PB031M18,2,162,PS,exp,39,↓,right,→,0.651394699991215,False,11,-1,0,9
PB031M18,2,163,PS,exp,47,←,left,←,0.5069879999500699,True,12,-1,0,9
PB031M18,2,164,PS,exp,46,↑,up,↑,0.5001268000341952,True,12,1,1,10
PB031M18,2,165,PS,exp,39,→,right,→,0.4499616999528371,True,11,1,0,10
PB031M18,2,166,PS,exp,34,↑,up,↑,0.5067546999780461,True,11,1,0,10
PB031M18,2,167,PS,exp,49,←,left,←,0.48209340003086254,True,10,1,0,10
PB031M18,2,168,PS,exp,30,↓,down,↓,0.7395184999913909,True,10,1,0,10
PB031M18,2,169,PS,exp,29,↑,up,↑,0.7903917000512592,True,9,1,0,10
PB031M18,2,170,PS,exp,41,→,right,→,0.871520499989856,True,9,1,0,10
PB031M18,2,171,PS,exp,34,↓,down,↓,0.7129994999850169,True,8,1,0,10
PB031M18,2,172,PS,exp,26,←,down,↓,0.6269990999717265,False,8,-1,1,11
PB031M18,2,173,PS,exp,37,↑,up,↑,0.594945699966047,True,9,-1,0,11
PB031M18,2,174,PS,exp,38,→,right,→,0.4474631999619305,True,9,1,1,12
PB031M18,2,175,PS,exp,40,↓,down,↓,0.6230130000039935,True,8,1,0,12
PB031M18,2,176,PS,exp,25,↑,up,↑,0.5534962999518029,True,8,1,0,12
PB031M18,2,177,PS,exp,40,→,right,→,0.619047700020019,True,7,1,0,12
PB031M18,2,178,PS,exp,35,↓,down,↓,0.4918387000216171,True,7,1,0,12
PB031M18,2,179,PS,exp,48,↑,up,↑,0.6065089999465272,True,6,1,0,12
PB031M18,2,180,PS,exp,31,↓,down,↓,0.6136495000100695,True,6,1,0,12
PB031M18,2,181,PS,exp,26,←,down,↓,0.7030780000495724,False,5,-1,1,13
PB031M18,2,182,PS,exp,25,→,up,↑,0.5771799999638461,False,6,-1,0,13
PB031M18,2,183,PS,exp,45,←,left,←,0.699933499970939,True,7,-1,0,13
PB031M18,2,184,PS,exp,30,→,up,↑,0.9376856999588199,False,7,-1,0,13
PB031M18,2,185,PS,exp,44,↓,right,→,0.34367309999652207,False,8,-1,0,13
PB031M18,2,186,PS,exp,35,←,left,←,0.7193028000183403,True,9,-1,0,13
PB031M18,2,187,PS,exp,29,→,right,→,0.49608680000528693,True,9,1,1,14
PB031M18,3,188,PS,intra_train,26,←,left,←,0.6058851000270806,True,10,-,-,-
PB031M18,3,189,PS,intra_train,25,→,right,→,0.459613100043498,True,10,-,-,-
PB031M18,3,190,PS,intra_train,28,↓,right,→,0.36858619999838993,False,10,-,-,-
PB031M18,3,191,PS,intra_train,33,←,left,←,0.6024583000107668,True,10,-,-,-
PB031M18,3,192,PS,intra_train,38,↓,left,←,0.6855364000075497,False,10,-,-,-
PB031M18,3,193,PS,exp,26,←,left,←,0.5441966000362299,True,7,0,0,0
PB031M18,3,194,PS,exp,36,↓,left,←,0.7610649000271223,False,7,-1,0,0
PB031M18,3,195,PS,exp,29,←,left,←,0.6385845000040717,True,8,-1,0,0
PB031M18,3,196,PS,exp,35,→,right,→,0.32870810001622885,True,8,1,1,1
PB031M18,3,197,PS,exp,29,←,left,←,0.3418097000103444,True,7,1,0,1
PB031M18,3,198,PS,exp,36,↓,left,←,0.2503708000294864,False,7,-1,1,2
PB031M18,3,199,PS,exp,45,→,down,↓,0.323736899998039,False,8,-1,0,2
PB031M18,3,200,PS,exp,33,↑,left,←,0.4747541000251658,False,9,-1,0,2
PB031M18,3,201,PS,exp,41,↓,right,→,0.2669924999936484,False,10,-1,0,2
PB031M18,3,202,PS,exp,40,↑,up,↑,0.6853632000274956,True,11,-1,0,2
PB031M18,3,203,PS,exp,40,→,right,→,0.46362609998323023,True,11,1,1,3
PB031M18,3,204,PS,exp,30,↑,right,→,0.6066290999879129,False,10,-1,1,4
PB031M18,3,205,PS,exp,35,←,up,↑,0.6384121999726631,False,11,-1,0,4
PB031M18,3,206,PS,exp,40,→,left,←,0.21734370000194758,False,12,-1,0,4
PB031M18,3,207,PS,exp,46,←,left,←,0.5186663999920711,True,13,-1,0,4
PB031M18,3,208,PS,exp,38,↑,up,↑,0.5822218999965116,True,13,1,1,5
PB031M18,3,209,PS,exp,29,←,left,←,0.4487943999702111,True,12,1,0,5
PB031M18,3,210,PS,exp,25,↑,up,↑,0.4625755000161007,True,12,1,0,5
PB031M18,3,211,PS,exp,35,→,up,↑,0.7138649999978952,False,11,-1,1,6
PB031M18,3,212,PS,exp,25,↓,down,↓,0.8698373999795876,True,12,-1,0,6
PB031M18,3,213,PS,exp,27,←,left,←,0.5444819999975152,True,12,1,1,7
PB031M18,3,214,PS,exp,27,→,right,→,0.493017700035125,True,11,1,0,7
PB031M18,3,215,PS,exp,41,↓,left,←,0.47547090001171455,False,11,-1,1,8
PB031M18,3,216,PS,exp,43,→,right,→,0.5510994999785908,True,12,-1,0,8
PB031M18,3,217,PS,exp,42,↓,down,↓,0.5755417000036687,True,12,1,1,9
PB031M18,3,218,PS,exp,27,←,left,←,0.8662799999583513,True,11,1,0,9
PB031M18,3,219,PS,exp,41,→,right,→,0.3966517000226304,True,11,1,0,9
PB031M18,3,220,PS,exp,28,←,left,←,0.5573070999816991,True,10,1,0,9
PB031M18,3,221,PS,exp,35,↓,down,↓,0.6058805000502616,True,10,1,0,9
PB031M18,3,222,PS,exp,36,→,right,→,0.634348499996122,True,9,1,0,9
PB031M18,3,223,PS,exp,36,←,no_key,no_letter,-1.0,False,9,-1,1,10
PB031M18,3,224,PS,exp,25,→,right,→,0.45029730000533164,True,10,-1,0,10
PB031M18,3,225,PS,exp,28,←,left,←,0.6408642000169493,True,10,1,1,11
PB031M18,3,226,PS,exp,34,→,right,→,0.5118553999927826,True,9,1,0,11
PB031M18,3,227,PS,exp,44,↓,down,↓,0.48799029999645427,True,9,1,0,11
PB031M18,3,228,PS,exp,46,↑,up,↑,0.8101096000173129,True,8,1,0,11
PB031M18,3,229,PS,exp,38,←,left,←,0.5109096000087447,True,8,1,0,11
PB031M18,3,230,PS,exp,26,↑,down,↓,0.5336791999870911,False,7,-1,1,12
PB031M18,3,231,PS,exp,49,→,right,→,0.7068275999627076,True,8,-1,0,12
PB031M18,3,232,PS,exp,35,↓,down,↓,0.44575240003177896,True,8,1,1,13
PB031M18,3,233,PS,exp,26,←,down,↓,0.49892770004225895,False,7,-1,1,14
PB031M18,4,234,AS,intra_train,38,→,right,→,0.817502100020647,True,33,-,-,-
PB031M18,4,235,AS,intra_train,28,↑,up,↑,1.8706465999712236,True,33,-,-,-
PB031M18,4,236,AS,intra_train,29,↓,down,↓,0.8674120000214316,True,33,-,-,-
PB031M18,4,237,AS,intra_train,48,←,left,←,0.550571299972944,True,33,-,-,-
PB031M18,4,238,AS,intra_train,34,↓,down,↓,0.9626831999630667,True,33,-,-,-
PB031M18,4,239,AS,exp,46,↑,up,↑,0.839297299971804,True,22,0,0,0
PB031M18,4,240,AS,exp,39,←,up,↑,1.0988814000156708,False,22,-1,0,0
PB031M18,4,241,AS,exp,36,↓,up,↑,0.7095496000256389,False,23,-1,0,0
PB031M18,4,242,AS,exp,26,→,up,↑,1.4164960999623872,False,24,-1,0,0
PB031M18,4,243,AS,exp,26,↓,down,↓,0.7085396000184119,True,25,-1,0,0
PB031M18,4,244,AS,exp,50,←,left,←,0.5971152000129223,True,25,1,1,1
PB031M18,4,245,AS,exp,46,↑,up,↑,0.719722300011199,True,24,1,0,1
PB031M18,4,246,AS,exp,35,←,left,←,0.6745353000005707,True,24,1,0,1
PB031M18,4,247,AS,exp,32,↑,up,↑,0.7062644999823533,True,23,1,0,1
PB031M18,4,248,AS,exp,42,→,right,→,0.48384030000306666,True,23,1,0,1
PB031M18,4,249,AS,exp,50,←,left,←,0.6804808999877423,True,22,1,0,1
PB031M18,4,250,AS,exp,50,↑,up,↑,1.3296051999786869,True,22,1,0,1
PB031M18,4,251,AS,exp,26,→,right,→,0.7559860000037588,True,21,1,0,1
PB031M18,4,252,AS,exp,32,↑,up,↑,0.6507611999986693,True,21,1,0,1
PB031M18,4,253,AS,exp,33,→,right,→,0.5633791000000201,True,20,1,0,1
PB031M18,4,254,AS,exp,44,←,left,←,0.8029381000087596,True,20,1,0,1
PB031M18,4,255,AS,exp,48,↑,up,↑,0.6056333999731578,True,19,1,0,1
PB031M18,4,256,AS,exp,34,→,right,→,0.6626264000078663,True,19,1,0,1
PB031M18,4,257,AS,exp,30,←,left,←,0.6109142000204884,True,18,1,0,1
PB031M18,4,258,AS,exp,29,↑,up,↑,0.5831569000147283,True,18,1,0,1
PB031M18,4,259,AS,exp,47,←,left,←,0.3836079000029713,True,17,1,0,1
PB031M18,4,260,AS,exp,27,↓,up,↑,0.6174682999844663,False,17,-1,1,2
PB031M18,4,261,AS,exp,27,→,right,→,0.6837663000333123,True,18,-1,0,2
PB031M18,4,262,AS,exp,32,←,left,←,0.38363029999891296,True,18,1,1,3
PB031M18,4,263,AS,exp,27,↑,up,↑,0.692293600004632,True,17,1,0,3
PB031M18,4,264,AS,exp,27,→,right,→,0.5307078000041656,True,17,1,0,3
PB031M18,4,265,AS,exp,40,↑,left,←,0.40035020001232624,False,16,-1,1,4
PB031M18,4,266,AS,exp,33,←,left,←,0.486593300011009,True,17,-1,0,4
PB031M18,4,267,AS,exp,39,↑,up,↑,0.456641299999319,True,17,1,1,5
PB031M18,4,268,AS,exp,27,←,up,↑,0.5382161000161432,False,16,-1,1,6
PB031M18,4,269,AS,exp,26,→,left,←,0.9714586000191048,False,17,-1,0,6
PB031M18,4,270,AS,exp,44,←,left,←,0.543293500028085,True,18,-1,0,6
PB031M18,4,271,AS,exp,26,↓,up,↑,0.6406549999956042,False,18,-1,0,6
PB031M18,4,272,AS,exp,26,→,up,↑,0.7559417000156827,False,19,-1,0,6
PB031M18,4,273,AS,exp,43,↑,up,↑,0.5373396999784745,True,20,-1,0,6
PB031M18,4,274,AS,exp,25,→,left,←,0.5911896000034176,False,20,-1,0,6
PB031M18,4,275,AS,exp,44,←,left,←,1.1871020999969915,True,21,-1,0,6
PB031M18,4,276,AS,exp,31,→,right,→,0.7371940999873914,True,21,1,1,7
PB031M18,4,277,AS,exp,42,←,left,←,0.631354300014209,True,20,1,0,7
PB031M18,4,278,AS,exp,36,→,right,→,1.4122135000070557,True,20,1,0,7
PB031M18,4,279,AS,exp,47,↓,right,→,0.38362889998825267,False,19,-1,1,8
PB031M18,4,280,AS,exp,50,↑,up,↑,0.8571003000251949,True,20,-1,0,8
PB031M18,4,281,AS,exp,29,←,left,←,0.8318801000132225,True,20,1,1,9
PB031M18,4,282,AS,exp,26,↑,down,↓,1.0323952999897301,False,19,-1,1,10
PB031M18,4,283,AS,exp,47,→,up,↑,0.8153026000363752,False,20,-1,0,10
PB031M18,4,284,AS,exp,43,←,left,←,0.7915891999728046,True,21,-1,0,10
PB031M18,4,285,AS,exp,26,↑,left,←,0.8348846000153571,False,21,-1,0,10
PB031M18,4,286,AS,exp,40,←,left,←,0.5949640999897383,True,22,-1,0,10
PB031M18,4,287,AS,exp,46,↑,up,↑,0.7233822999987751,True,22,1,1,11
PB031M18,4,288,AS,exp,34,→,right,→,0.665745300007984,True,21,1,0,11
PB031M18,4,289,AS,exp,43,↓,down,↓,0.6852441999944858,True,21,1,0,11
PB031M18,4,290,AS,exp,31,←,down,↓,1.1593583999783732,False,20,-1,1,12
PB031M18,4,291,AS,exp,46,↓,right,→,0.38391129998490214,False,21,-1,0,12
PB031M18,4,292,AS,exp,49,→,right,→,0.5003397000255063,True,22,-1,0,12
PB031M18,4,293,AS,exp,29,←,left,←,1.019603399967309,True,22,1,1,13
PB031M18,4,294,AS,exp,44,↓,down,↓,0.6349345000344329,True,21,1,0,13
PB031M18,4,295,AS,exp,34,←,down,↓,1.5033330000005662,False,21,-1,1,14
PB031M18,5,296,AS,intra_train,41,↑,up,↑,0.9381196000031196,True,33,-,-,-
PB031M18,5,297,AS,intra_train,33,←,left,←,0.5505376999499276,True,33,-,-,-
PB031M18,5,298,AS,intra_train,34,↓,down,↓,0.746637100004591,True,33,-,-,-
PB031M18,5,299,AS,intra_train,45,→,right,→,0.7207094999612309,True,33,-,-,-
PB031M18,5,300,AS,intra_train,49,←,left,←,0.6005143000511453,True,33,-,-,-
PB031M18,5,301,AS,exp,33,↓,down,↓,0.6751182000152767,True,22,0,0,0
PB031M18,5,302,AS,exp,45,↑,up,↑,0.7936953000025824,True,22,1,0,0
PB031M18,5,303,AS,exp,36,↓,down,↓,0.6598651999956928,True,21,1,0,0
PB031M18,5,304,AS,exp,29,→,right,→,0.5736342000309378,True,21,1,0,0
PB031M18,5,305,AS,exp,25,↓,down,↓,0.5891865000012331,True,20,1,0,0
PB031M18,5,306,AS,exp,49,↑,up,↑,0.25097279995679855,True,20,1,0,0
PB031M18,5,307,AS,exp,27,←,down,↓,0.8379863000009209,False,19,-1,1,1
PB031M18,5,308,AS,exp,25,↓,down,↓,0.36713550001149997,True,20,-1,0,1
PB031M18,5,309,AS,exp,27,↑,up,↑,0.8535930999787524,True,20,1,1,2
PB031M18,5,310,AS,exp,41,↓,down,↓,0.7742601999780163,True,19,1,0,2
PB031M18,5,311,AS,exp,31,←,up,↑,0.740792499971576,False,19,-1,1,3
PB031M18,5,312,AS,exp,47,↑,up,↑,0.8344395000021905,True,20,-1,0,3
PB031M18,5,313,AS,exp,47,↓,down,↓,0.4671783999656327,True,20,1,1,4
PB031M18,5,314,AS,exp,49,↑,no_key,no_letter,-1.0,False,19,-1,1,5
PB031M18,5,315,AS,exp,36,→,down,↓,0.99119560001418,False,20,-1,0,5
PB031M18,5,316,AS,exp,37,←,left,←,0.654617199965287,True,21,-1,0,5
PB031M18,5,317,AS,exp,25,→,right,→,0.6207628000411205,True,21,1,1,6
PB031M18,5,318,AS,exp,30,←,left,←,0.9954416999826208,True,20,1,0,6
PB031M18,5,319,AS,exp,42,↑,up,↑,0.7387859000009485,True,20,1,0,6
PB031M18,5,320,AS,exp,32,↓,down,↓,0.8506957999779843,True,19,1,0,6
PB031M18,5,321,AS,exp,33,↑,up,↑,0.5611935000051744,True,19,1,0,6
PB031M18,5,322,AS,exp,34,←,left,←,0.7598623000085354,True,18,1,0,6
PB031M18,5,323,AS,exp,45,→,right,→,0.7035105000250041,True,18,1,0,6
PB031M18,5,324,AS,exp,26,←,left,←,0.5796283999807201,True,17,1,0,6
PB031M18,5,325,AS,exp,31,→,right,→,1.1306627999874763,True,17,1,0,6
PB031M18,5,326,AS,exp,42,↓,down,↓,0.5389111000113189,True,16,1,0,6
PB031M18,5,327,AS,exp,47,→,right,→,0.4966531999525614,True,16,1,0,6
PB031M18,5,328,AS,exp,33,←,down,↓,0.8452619999879971,False,15,-1,1,7
PB031M18,5,329,AS,exp,49,↓,right,→,0.5597796000074595,False,16,-1,0,7
PB031M18,5,330,AS,exp,30,←,left,←,1.022043900040444,True,17,-1,0,7
PB031M18,5,331,AS,exp,33,↑,down,↓,0.7393758000107482,False,17,-1,0,7
PB031M18,5,332,AS,exp,26,←,down,↓,0.8128670000005513,False,18,-1,0,7
PB031M18,5,333,AS,exp,34,↑,left,←,1.068024600041099,False,19,-1,0,7
PB031M18,5,334,AS,exp,28,←,left,←,0.760225200036075,True,20,-1,0,7
PB031M18,5,335,AS,exp,25,↓,down,↓,0.6943526000250131,True,20,1,1,8
PB031M18,5,336,AS,exp,41,←,down,↓,0.6420960000250489,False,19,-1,1,9
PB031M18,5,337,AS,exp,44,→,no_key,no_letter,-1.0,False,20,-1,0,9
PB031M18,5,338,AS,exp,40,↑,up,↑,0.8796729000168853,True,21,-1,0,9
PB031M18,5,339,AS,exp,25,→,right,→,0.7688561999821104,True,21,1,1,10
PB031M18,5,340,AS,exp,50,↓,down,↓,0.5448126000119373,True,20,1,0,10
PB031M18,5,341,AS,exp,40,→,right,→,0.5267524999799207,True,20,1,0,10
PB031M18,5,342,AS,exp,48,←,left,←,0.7308961999951862,True,19,1,0,10
PB031M18,5,343,AS,exp,39,→,right,→,0.5758610999910161,True,19,1,0,10
PB031M18,5,344,AS,exp,38,←,left,←,0.7494568999973126,True,18,1,0,10
PB031M18,5,345,AS,exp,33,↑,up,↑,0.8895715000107884,True,18,1,0,10
PB031M18,5,346,AS,exp,46,↓,down,↓,0.5239642999949865,True,17,1,0,10
PB031M18,5,347,AS,exp,46,→,right,→,0.5273978000041097,True,17,1,0,10
PB031M18,5,348,AS,exp,30,↓,down,↓,0.5397776999743655,True,16,1,0,10
PB031M18,5,349,AS,exp,28,↑,up,↑,0.7234340000431985,True,16,1,0,10
PB031M18,5,350,AS,exp,25,←,up,↑,0.7347713999915868,False,15,-1,1,11
PB031M18,5,351,AS,exp,33,→,right,→,0.4454227999667637,True,16,-1,0,11
PB031M18,5,352,AS,exp,43,↑,up,↑,0.6894306999747641,True,16,1,1,12
PB031M18,5,353,AS,exp,46,→,right,→,0.28380199999082834,True,15,1,0,12
PB031M18,5,354,AS,exp,29,↓,down,↓,0.5798078999505378,True,15,1,0,12
PB031M18,5,355,AS,exp,48,↑,down,↓,0.5023950999602675,False,14,-1,1,13
PB031M18,5,356,AS,exp,35,←,right,→,0.6015629000030458,False,15,-1,0,13
PB031M18,5,357,AS,exp,32,→,right,→,0.33377199998358265,True,16,-1,0,13
PB031M18,5,358,AS,exp,35,←,right,→,0.9115730000194162,False,16,-1,0,13
PB031M18,5,359,AS,exp,42,→,right,→,0.6665750000393018,True,17,-1,0,13
PB031M18,5,360,AS,exp,32,↓,down,↓,0.7835292000090703,True,17,1,1,14
PB031M18,6,361,PS,intra_train,27,↑,down,↓,0.857436099962797,False,10,-,-,-
PB031M18,6,362,PS,intra_train,41,↓,down,↓,0.5827704999828711,True,10,-,-,-
PB031M18,6,363,PS,intra_train,27,→,right,→,0.4698882999946363,True,10,-,-,-
PB031M18,6,364,PS,intra_train,36,↑,up,↑,0.5815372000215575,True,10,-,-,-
PB031M18,6,365,PS,intra_train,28,←,left,←,0.6386144999996759,True,10,-,-,-
PB031M18,6,366,PS,exp,45,↓,down,↓,0.6537581000011414,True,7,0,0,0
PB031M18,6,367,PS,exp,42,↑,up,↑,0.461718300008215,True,7,1,0,0
PB031M18,6,368,PS,exp,33,↓,up,↑,0.6237964000320062,False,6,-1,1,1
PB031M18,6,369,PS,exp,35,→,right,→,0.4075940999900922,True,7,-1,0,1
PB031M18,6,370,PS,exp,47,↓,up,↑,0.3728895999956876,False,7,-1,0,1
PB031M18,6,371,PS,exp,29,→,up,↑,0.4544828999787569,False,8,-1,0,1
PB031M18,6,372,PS,exp,31,↓,left,←,0.40665449999505654,False,9,-1,0,1
PB031M18,6,373,PS,exp,43,↑,up,↑,0.6185684999800287,True,10,-1,0,1
PB031M18,6,374,PS,exp,38,↓,down,↓,1.2155984999844804,True,10,1,1,2
PB031M18,6,375,PS,exp,38,→,down,↓,0.5567387999617495,False,9,-1,1,3
PB031M18,6,376,PS,exp,46,↑,up,↑,0.10099830001126975,True,10,-1,0,3
PB031M18,6,377,PS,exp,48,→,no_key,no_letter,-1.0,False,10,-1,0,3
PB031M18,6,378,PS,exp,49,←,right,→,0.5487296000355855,False,11,-1,0,3
PB031M18,6,379,PS,exp,39,↑,up,↑,0.6356783999945037,True,12,-1,0,3
PB031M18,6,380,PS,exp,42,→,right,→,0.45863639999879524,True,12,1,1,4
PB031M18,6,381,PS,exp,42,↑,left,←,0.38574810000136495,False,11,-1,1,5
PB031M18,6,382,PS,exp,35,→,up,↑,0.2839145999751054,False,12,-1,0,5
PB031M18,6,383,PS,exp,40,↓,down,↓,0.6441432000137866,True,13,-1,0,5
PB031M18,6,384,PS,exp,27,→,right,→,0.45052720000967383,True,13,1,1,6
PB031M18,6,385,PS,exp,38,↓,down,↓,0.47854380001081154,True,12,1,0,6
PB031M18,6,386,PS,exp,32,←,left,←,0.4648661000537686,True,12,1,0,6
PB031M18,6,387,PS,exp,42,→,right,→,0.4438514999928884,True,11,1,0,6
PB031M18,6,388,PS,exp,36,↓,down,↓,0.5690021999762394,True,11,1,0,6
PB031M18,6,389,PS,exp,27,→,right,→,0.4499344999785535,True,10,1,0,6
PB031M18,6,390,PS,exp,44,←,left,←,0.44097930000862107,True,10,1,0,6
PB031M18,6,391,PS,exp,43,→,right,→,0.38865900004748255,True,9,1,0,6
PB031M18,6,392,PS,exp,48,↑,up,↑,0.5769588999683037,True,9,1,0,6
PB031M18,6,393,PS,exp,48,→,right,→,0.554176900011953,True,8,1,0,6
PB031M18,6,394,PS,exp,36,↓,down,↓,0.5398872999940068,True,8,1,0,6
PB031M18,6,395,PS,exp,26,→,right,→,0.4705058999825269,True,7,1,0,6
PB031M18,6,396,PS,exp,35,↓,down,↓,0.448419600026682,True,7,1,0,6
PB031M18,6,397,PS,exp,46,↑,right,→,0.42797160003101453,False,6,-1,1,7
PB031M18,6,398,PS,exp,26,←,down,↓,0.30047339998418465,False,7,-1,0,7
PB031M18,6,399,PS,exp,50,↓,down,↓,0.4462638999684714,True,8,-1,0,7
PB031M18,6,400,PS,exp,33,←,left,←,0.5214085999759845,True,8,1,1,8
PB031M18,6,401,PS,exp,43,→,right,→,0.5274483999819495,True,7,1,0,8
PB031M18,6,402,PS,exp,44,↓,down,↓,0.486180100007914,True,7,1,0,8
PB031M18,6,403,PS,exp,43,→,down,↓,0.6001265000086278,False,6,-1,1,9
PB031M18,6,404,PS,exp,46,←,right,→,0.5154440000187606,False,7,-1,0,9
PB031M18,6,405,PS,exp,41,↓,right,→,0.6022687000222504,False,8,-1,0,9
PB031M18,6,406,PS,exp,27,→,down,↓,0.5851398999802768,False,9,-1,0,9
PB031M18,6,407,PS,exp,35,↑,no_key,no_letter,-1.0,False,10,-1,0,9
PB031M18,6,408,PS,exp,33,←,right,→,0.6631549000157975,False,11,-1,0,9
PB031M18,6,409,PS,exp,43,↓,down,↓,0.5551221999921836,True,12,-1,0,9
PB031M18,6,410,PS,exp,27,←,left,←,0.912317999987863,True,12,1,1,10
PB031M18,6,411,PS,exp,32,↓,down,↓,0.47860759997274727,True,11,1,0,10
PB031M18,6,412,PS,exp,32,↑,up,↑,0.7112343000480905,True,11,1,0,10
PB031M18,6,413,PS,exp,43,→,right,→,0.5099103000247851,True,10,1,0,10
PB031M18,6,414,PS,exp,43,↓,down,↓,0.5615595999988727,True,10,1,0,10
PB031M18,6,415,PS,exp,34,→,up,↑,0.7915425000246614,False,9,-1,1,11
PB031M18,6,416,PS,exp,49,↓,right,→,0.454748300020583,False,10,-1,0,11
PB031M18,6,417,PS,exp,26,↑,up,↑,0.4886596000287682,True,11,-1,0,11
PB031M18,6,418,PS,exp,49,↓,down,↓,0.5943742000381462,True,11,1,1,12
PB031M18,6,419,PS,exp,35,↑,up,↑,0.5330751000437886,True,10,1,0,12
PB031M18,6,420,PS,exp,43,→,right,→,0.3862776000169106,True,10,1,0,12
PB031M18,6,421,PS,exp,43,↓,down,↓,0.6851524999947287,True,9,1,0,12
PB031M18,6,422,PS,exp,48,↑,up,↑,0.6805546999676153,True,9,1,0,12
PB031M18,6,423,PS,exp,31,←,right,→,0.36017170001287013,False,8,-1,1,13
PB031M18,6,424,PS,exp,30,→,right,→,0.433892700006254,True,9,-1,0,13
PB031M18,6,425,PS,exp,48,↓,up,↑,0.5226531000225805,False,9,-1,0,13
PB031M18,6,426,PS,exp,42,→,right,→,0.5232683999929577,True,10,-1,0,13
PB031M18,6,427,PS,exp,41,←,left,←,0.39789189997827634,True,10,1,1,14
PB031M18,7,428,PS,intra_train,26,↑,up,↑,0.48032600001897663,True,10,-,-,-
PB031M18,7,429,PS,intra_train,35,↓,down,↓,0.70024450001074,True,10,-,-,-
PB031M18,7,430,PS,intra_train,25,→,right,→,0.47381579998182133,True,10,-,-,-
PB031M18,7,431,PS,intra_train,39,↑,right,→,0.3443645000224933,False,10,-,-,-
PB031M18,7,432,PS,intra_train,48,↓,down,↓,0.5482225999585353,True,10,-,-,-
PB031M18,7,433,PS,exp,30,↑,down,↓,0.4650699999765493,False,7,-1,0,0
PB031M18,7,434,PS,exp,50,←,right,→,0.5535961000132374,False,8,-1,0,0
PB031M18,7,435,PS,exp,49,↑,up,↑,0.10115740000037476,True,9,-1,0,0
PB031M18,7,436,PS,exp,50,↓,right,→,0.5855675000348128,False,9,-1,0,0
PB031M18,7,437,PS,exp,40,↑,up,↑,0.5005295000155456,True,10,-1,0,0
PB031M18,7,438,PS,exp,26,↓,right,→,0.8420756999985315,False,10,-1,0,0
PB031M18,7,439,PS,exp,43,←,up,↑,0.36309320002328604,False,11,-1,0,0
PB031M18,7,440,PS,exp,32,↑,up,↑,0.4682387000066228,True,12,-1,0,0
PB031M18,7,441,PS,exp,28,←,left,←,0.33378450002055615,True,12,1,1,1
PB031M18,7,442,PS,exp,27,↑,up,↑,0.38515769998775795,True,11,1,0,1
PB031M18,7,443,PS,exp,32,↓,down,↓,0.7248118999996223,True,11,1,0,1
PB031M18,7,444,PS,exp,35,←,left,←,0.44054520002100617,True,10,1,0,1
PB031M18,7,445,PS,exp,46,↓,up,↑,0.6076241999980994,False,10,-1,1,2
PB031M18,7,446,PS,exp,37,←,left,←,0.43472750001819804,True,11,-1,0,2
PB031M18,7,447,PS,exp,27,↓,down,↓,0.5665751999476925,True,11,1,1,3
PB031M18,7,448,PS,exp,35,↑,left,←,0.8626427999697626,False,10,-1,1,4
PB031M18,7,449,PS,exp,28,↓,left,←,0.41556980001041666,False,11,-1,0,4
PB031M18,7,450,PS,exp,34,←,left,←,0.4995119000086561,True,12,-1,0,4
PB031M18,7,451,PS,exp,45,→,left,←,0.33376080001471564,False,12,-1,0,4
PB031M18,7,452,PS,exp,38,↑,left,←,0.5730633999919519,False,13,-1,0,4
PB031M18,7,453,PS,exp,44,↓,down,↓,0.5799547999631613,True,14,-1,0,4
PB031M18,7,454,PS,exp,39,→,right,→,0.6203748999978416,True,14,1,1,5
PB031M18,7,455,PS,exp,29,↓,down,↓,0.6035336999921128,True,13,1,0,5
PB031M18,7,456,PS,exp,35,↑,up,↑,0.6136710999999195,True,13,1,0,5
PB031M18,7,457,PS,exp,50,←,left,←,0.49723840004298836,True,12,1,0,5
PB031M18,7,458,PS,exp,50,→,right,→,0.47914210002636537,True,12,1,0,5
PB031M18,7,459,PS,exp,26,↑,left,←,0.5575523999868892,False,11,-1,1,6
PB031M18,7,460,PS,exp,26,↓,down,↓,0.49922009999863803,True,12,-1,0,6
PB031M18,7,461,PS,exp,35,←,left,←,0.6208736000116915,True,12,1,1,7
PB031M18,7,462,PS,exp,29,↓,down,↓,0.44602940004551783,True,11,1,0,7
PB031M18,7,463,PS,exp,26,↑,left,←,0.41534609999507666,False,11,-1,1,8
PB031M18,7,464,PS,exp,46,←,left,←,0.5139161999686621,True,12,-1,0,8
PB031M18,7,465,PS,exp,26,↓,down,↓,0.47504200000548735,True,12,1,1,9
PB031M18,7,466,PS,exp,44,↑,right,→,0.40618910000193864,False,11,-1,1,10
PB031M18,7,467,PS,exp,49,←,no_key,no_letter,-1.0,False,12,-1,0,10
PB031M18,7,468,PS,exp,35,↓,right,→,0.5090159999672323,False,13,-1,0,10
PB031M18,7,469,PS,exp,32,←,right,→,0.36694869998609647,False,14,-1,0,10
PB031M18,7,470,PS,exp,29,↓,left,←,0.3671697999816388,False,15,-1,0,10
PB031M18,7,471,PS,exp,49,↑,up,↑,0.6240165999624878,True,16,-1,0,10
PB031M18,7,472,PS,exp,46,→,right,→,0.5782025000080466,True,16,1,1,11
PB031M18,7,473,PS,exp,41,↑,right,→,0.3503838999895379,False,15,-1,1,12
PB031M18,7,474,PS,exp,47,←,up,↑,0.4003781999927014,False,16,-1,0,12
PB031M18,7,475,PS,exp,40,↓,right,→,0.3672032000031322,False,17,-1,0,12
PB031M18,7,476,PS,exp,28,→,right,→,0.49935840000398457,True,18,-1,0,12
PB031M18,7,477,PS,exp,47,↓,down,↓,0.7366073000011966,True,18,1,1,13
PB031M18,7,478,PS,exp,44,←,left,←,0.4616228999802843,True,17,1,0,13
PB031M18,7,479,PS,exp,42,→,right,→,0.4754881000262685,True,17,1,0,13
PB031M18,7,480,PS,exp,38,↑,left,←,0.28380859998287633,False,16,-1,1,14
PB031M18,8,481,AS,intra_train,47,→,right,→,0.6005011000088416,True,33,-,-,-
PB031M18,8,482,AS,intra_train,30,↓,down,↓,0.48450610000872985,True,33,-,-,-
PB031M18,8,483,AS,intra_train,27,←,left,←,0.8839877999853343,True,33,-,-,-
PB031M18,8,484,AS,intra_train,46,↑,up,↑,0.84602520003682,True,33,-,-,-
PB031M18,8,485,AS,intra_train,41,→,right,→,0.7845116999815218,True,33,-,-,-
PB031M18,8,486,AS,exp,35,↑,up,↑,0.9400736000388861,True,22,0,0,0
PB031M18,8,487,AS,exp,30,→,right,→,0.4503374999621883,True,22,1,0,0
PB031M18,8,488,AS,exp,35,↑,up,↑,0.4005094000021927,True,21,1,0,0
PB031M18,8,489,AS,exp,26,→,right,→,0.46710130001883954,True,21,1,0,0
PB031M18,8,490,AS,exp,28,←,right,→,0.5971535999560729,False,20,-1,1,1
PB031M18,8,491,AS,exp,47,↓,down,↓,0.6664364000316709,True,21,-1,0,1
PB031M18,8,492,AS,exp,25,←,left,←,0.5820712999557145,True,21,1,1,2
PB031M18,8,493,AS,exp,45,→,right,→,0.46710609999718145,True,20,1,0,2
PB031M18,8,494,AS,exp,33,←,left,←,0.4171794999856502,True,20,1,0,2
PB031M18,8,495,AS,exp,46,↑,right,→,0.5920391000108793,False,19,-1,1,3
PB031M18,8,496,AS,exp,25,↓,up,↑,0.79979540000204,False,20,-1,0,3
PB031M18,8,497,AS,exp,28,↑,right,→,0.524090500024613,False,21,-1,0,3
PB031M18,8,498,AS,exp,38,→,right,→,0.5899735999992117,True,22,-1,0,3
PB031M18,8,499,AS,exp,30,←,up,↑,0.542195099988021,False,22,-1,0,3
PB031M18,8,500,AS,exp,49,↑,left,←,0.35125710000284016,False,23,-1,0,3
PB031M18,8,501,AS,exp,49,→,up,↑,0.334434499964118,False,24,-1,0,3
PB031M18,8,502,AS,exp,32,←,left,←,0.5005185000482015,True,25,-1,0,3
PB031M18,8,503,AS,exp,31,↓,right,→,0.596654299995862,False,25,-1,0,3
PB031M18,8,504,AS,exp,29,↑,up,↑,0.4506217000307515,True,26,-1,0,3
PB031M18,8,505,AS,exp,39,↓,down,↓,0.5506301000132225,True,26,1,1,4
PB031M18,8,506,AS,exp,49,←,left,←,0.5170240000006743,True,25,1,0,4
PB031M18,8,507,AS,exp,29,↑,up,↑,0.7851922999834642,True,25,1,0,4
PB031M18,8,508,AS,exp,25,→,up,↑,0.8583057000068948,False,24,-1,1,5
PB031M18,8,509,AS,exp,36,↑,up,↑,0.5005245000356808,True,25,-1,0,5
PB031M18,8,510,AS,exp,29,←,left,←,0.5337923999759369,True,25,1,1,6
PB031M18,8,511,AS,exp,40,↓,up,↑,0.6208227000315674,False,24,-1,1,7
PB031M18,8,512,AS,exp,37,↑,up,↑,0.4337006999994628,True,25,-1,0,7
PB031M18,8,513,AS,exp,39,↓,down,↓,0.5171469000051729,True,25,1,1,8
PB031M18,8,514,AS,exp,26,←,left,←,0.5707802000106312,True,24,1,0,8
PB031M18,8,515,AS,exp,31,→,left,←,0.4672038999851793,False,24,-1,1,9
PB031M18,8,516,AS,exp,25,↓,down,↓,0.9244882999919355,True,25,-1,0,9
PB031M18,8,517,AS,exp,33,→,up,↑,0.8012123000225984,False,25,-1,0,9
PB031M18,8,518,AS,exp,27,↓,down,↓,0.4836218999698758,True,26,-1,0,9
PB031M18,8,519,AS,exp,35,←,left,←,0.48374560003867373,True,26,1,1,10
PB031M18,8,520,AS,exp,50,↓,down,↓,0.6011043000034988,True,25,1,0,10
PB031M18,8,521,AS,exp,26,→,right,→,0.6788028000155464,True,25,1,0,10
PB031M18,8,522,AS,exp,46,↑,up,↑,0.5793943999451585,True,24,1,0,10
PB031M18,8,523,AS,exp,45,→,up,↑,0.6178261000313796,False,24,-1,1,11
PB031M18,8,524,AS,exp,49,←,left,←,0.902497700008098,True,25,-1,0,11
PB031M18,8,525,AS,exp,49,↓,down,↓,0.933652899984736,True,25,1,1,12
PB031M18,8,526,AS,exp,26,←,left,←,0.48379969998495653,True,24,1,0,12
PB031M18,8,527,AS,exp,49,↑,left,←,0.36766330001410097,False,24,-1,1,13
PB031M18,8,528,AS,exp,36,←,up,↑,0.3679153000121005,False,25,-1,0,13
PB031M18,8,529,AS,exp,42,→,right,→,0.5671474999981001,True,26,-1,0,13
PB031M18,8,530,AS,exp,26,↑,up,↑,0.7648172000190243,True,26,1,1,14
