PART_ID,Block_no,Trial_no,Block_type,Trial_type,CSI,Stim_letter,Key_pressed,letter_choose,Rt,Corr,Stimulus Time,Level,Reversal,Revs_count
PB049K21,1,1,PS,train,30,←,no_key,no_letter,-1.0,False,30,-,-,-
PB049K21,1,2,PS,train,31,↑,up,↑,1.1676022000028752,True,30,-,-,-
PB049K21,1,3,PS,train,29,↓,down,↓,0.7566791999997804,True,30,-,-,-
PB049K21,1,4,PS,train,46,↑,up,↑,0.6805655999924056,True,30,-,-,-
PB049K21,1,5,PS,train,35,←,no_key,no_letter,-1.0,False,30,-,-,-
PB049K21,1,6,PS,train,38,↑,no_key,no_letter,-1.0,False,30,-,-,-
PB049K21,1,7,PS,train,30,←,left,←,0.6862569999939296,True,30,-,-,-
PB049K21,1,8,PS,train,39,→,right,→,0.5836603000061586,True,30,-,-,-
PB049K21,1,9,PS,train,40,←,left,←,0.5339144000026863,True,30,-,-,-
PB049K21,1,10,PS,train,50,→,right,→,0.5505921000003582,True,30,-,-,-
PB049K21,2,11,AS,train,39,↓,down,↓,0.7179112000012537,True,45,-,-,-
PB049K21,2,12,AS,train,37,↑,up,↑,0.6843711999972584,True,45,-,-,-
PB049K21,2,13,AS,train,26,↓,down,↓,1.172531300006085,True,45,-,-,-
PB049K21,2,14,AS,train,37,↑,up,↑,0.9221383999974933,True,45,-,-,-
PB049K21,2,15,AS,train,43,→,right,→,0.5178264999995008,True,45,-,-,-
PB049K21,2,16,AS,train,25,↑,up,↑,0.8170971999934409,True,45,-,-,-
PB049K21,2,17,AS,train,40,←,left,←,0.6344540999998571,True,45,-,-,-
PB049K21,2,18,AS,train,42,↓,down,↓,0.8840382000053069,True,45,-,-,-
PB049K21,2,19,AS,train,40,→,right,→,0.5678518999920925,True,45,-,-,-
PB049K21,2,20,AS,train,50,↓,down,↓,0.8001537999953143,True,45,-,-,-
PB049K21,-,21,PS,adaptive,45,←,left,←,0.4450503999978537,True,10,0,0,0
PB049K21,-,22,PS,adaptive,38,→,right,→,0.4445569999952568,True,10,1,0,0
PB049K21,-,23,PS,adaptive,47,←,left,←,0.832752000002074,True,9,1,0,0
PB049K21,-,24,PS,adaptive,26,↑,up,↑,0.447421500008204,True,9,1,0,0
PB049K21,-,25,PS,adaptive,26,↓,down,↓,0.6389048999990337,True,8,1,0,0
PB049K21,-,26,PS,adaptive,34,↑,up,↑,0.46578139999473933,True,8,1,0,0
PB049K21,-,27,PS,adaptive,44,←,left,←,0.7198485999979312,True,7,1,0,0
PB049K21,-,28,PS,adaptive,47,→,right,→,0.540230500002508,True,7,1,0,0
PB049K21,-,29,PS,adaptive,49,↑,up,↑,0.5304276000097161,True,6,1,0,0
PB049K21,-,30,PS,adaptive,45,←,left,←,0.5372571000043536,True,6,1,0,0
PB049K21,-,31,PS,adaptive,28,→,right,→,0.5198104999872157,True,5,1,0,0
PB049K21,-,32,PS,adaptive,30,←,left,←,0.5073330999875907,True,5,1,0,0
PB049K21,-,33,PS,adaptive,25,↓,right,→,0.7768453000026057,False,4,-1,1,1
PB049K21,-,34,PS,adaptive,30,↑,up,↑,0.5998184999916703,True,5,-1,0,1
PB049K21,-,35,PS,adaptive,29,←,left,←,0.5511636000010185,True,5,1,1,2
PB049K21,-,36,PS,adaptive,26,↑,left,←,0.6122999000072014,False,4,-1,1,3
PB049K21,-,37,PS,adaptive,49,←,left,←,0.589349999994738,True,5,-1,0,3
PB049K21,-,38,PS,adaptive,40,↓,left,←,0.5107927000062773,False,5,-1,0,3
PB049K21,-,39,PS,adaptive,50,→,left,←,0.7071370999910869,False,6,-1,0,3
PB049K21,-,40,PS,adaptive,35,←,left,←,0.5918934000073932,True,7,-1,0,3
PB049K21,-,41,PS,adaptive,32,↑,left,←,0.6014233000023523,False,7,-1,0,3
PB049K21,-,42,PS,adaptive,39,←,left,←,0.4779514999972889,True,8,-1,0,3
PB049K21,-,43,PS,adaptive,47,→,left,←,0.5856689000065671,False,8,-1,0,3
PB049K21,-,44,PS,adaptive,33,↑,up,↑,0.6604062999977032,True,9,-1,0,3
PB049K21,-,45,PS,adaptive,41,↓,left,←,0.5564706000004662,False,9,-1,0,3
PB049K21,-,46,PS,adaptive,42,↑,left,←,0.4650451999914367,False,10,-1,0,3
PB049K21,-,47,PS,adaptive,26,←,left,←,0.5839414999936707,True,11,-1,0,3
PB049K21,-,48,PS,adaptive,40,↑,left,←,0.5059594999911496,False,11,-1,0,3
PB049K21,-,49,PS,adaptive,31,↓,left,←,0.7503205999964848,False,12,-1,0,3
PB049K21,-,50,PS,adaptive,38,↑,left,←,0.74246540000604,False,13,-1,0,3
PB049K21,-,51,PS,adaptive,37,↓,left,←,0.4413327000074787,False,14,-1,0,3
PB049K21,-,52,PS,adaptive,37,↑,left,←,1.4033705999900121,False,15,-1,0,3
PB049K21,-,53,PS,adaptive,35,→,right,→,0.5953700000100071,True,16,-1,0,3
PB049K21,-,54,PS,adaptive,30,↑,left,←,0.6213473999960115,False,16,-1,0,3
PB049K21,-,55,PS,adaptive,34,↓,down,↓,1.6029073999961838,True,17,-1,0,3
PB049K21,-,56,PS,adaptive,27,↑,up,↑,1.0853133000055095,True,17,1,1,4
PB049K21,-,57,AS,adaptive,46,←,left,←,0.6486686999996891,True,20,0,0,0
PB049K21,-,58,AS,adaptive,36,→,right,→,0.6185534999967786,True,20,1,0,0
PB049K21,-,59,AS,adaptive,30,↑,up,↑,0.9428305999899749,True,19,1,0,0
PB049K21,-,60,AS,adaptive,36,↓,down,↓,0.7058893999928841,True,19,1,0,0
PB049K21,-,61,AS,adaptive,26,↑,up,↑,0.6673155000025872,True,18,1,0,0
PB049K21,-,62,AS,adaptive,47,→,right,→,0.8288688000029651,True,18,1,0,0
PB049K21,-,63,AS,adaptive,44,←,left,←,0.6082514000008814,True,17,1,0,0
PB049K21,-,64,AS,adaptive,39,→,left,←,0.7385659999999916,False,17,-1,1,1
PB049K21,-,65,AS,adaptive,45,↑,left,←,1.0449787999968976,False,18,-1,0,1
PB049K21,-,66,AS,adaptive,30,↓,down,↓,0.7556837000011001,True,19,-1,0,1
PB049K21,-,67,AS,adaptive,31,↑,up,↑,0.7324219000001904,True,19,1,1,2
PB049K21,-,68,AS,adaptive,31,→,right,→,0.5659892999974545,True,18,1,0,2
PB049K21,-,69,AS,adaptive,39,↑,up,↑,0.8053825999959372,True,18,1,0,2
PB049K21,-,70,AS,adaptive,30,↓,down,↓,0.6172227999923052,True,17,1,0,2
PB049K21,-,71,AS,adaptive,46,→,right,→,0.5218277999956626,True,17,1,0,2
PB049K21,-,72,AS,adaptive,44,←,left,←,0.8528297000011662,True,16,1,0,2
PB049K21,-,73,AS,adaptive,44,↑,up,↑,0.6430797999928473,True,16,1,0,2
PB049K21,-,74,AS,adaptive,40,↓,down,↓,0.6040066999994451,True,15,1,0,2
PB049K21,-,75,AS,adaptive,31,←,left,←,0.6723812999989605,True,15,1,0,2
PB049K21,-,76,AS,adaptive,33,→,right,→,0.6455824000004213,True,14,1,0,2
PB049K21,-,77,AS,adaptive,48,↓,down,↓,0.6889117000100669,True,14,1,0,2
PB049K21,-,78,AS,adaptive,44,↑,down,↓,0.9469049000035739,False,13,-1,1,3
PB049K21,-,79,AS,adaptive,32,↓,down,↓,0.6470819999958621,True,14,-1,0,3
PB049K21,-,80,AS,adaptive,32,←,left,←,0.6092425999959232,True,14,1,1,4
PB049K21,1,81,AS,intra_train,35,↑,up,↑,0.7631281999929342,True,19,-,-,-
PB049K21,1,82,AS,intra_train,28,←,left,←,0.6200784999964526,True,19,-,-,-
PB049K21,1,83,AS,intra_train,29,↓,down,↓,0.7815738999925088,True,19,-,-,-
PB049K21,1,84,AS,intra_train,43,←,left,←,0.6600622999976622,True,19,-,-,-
PB049K21,1,85,AS,intra_train,41,↑,up,↑,0.519354400006705,True,19,-,-,-
PB049K21,1,86,AS,exp,26,→,right,→,0.8987395000003744,True,13,0,0,0
PB049K21,1,87,AS,exp,33,↓,left,←,1.0659002999891527,False,13,-1,0,0
PB049K21,1,88,AS,exp,38,→,right,→,0.8127330999996047,True,14,-1,0,0
PB049K21,1,89,AS,exp,49,←,left,←,1.1150639000115916,True,14,1,1,1
PB049K21,1,90,AS,exp,34,↑,left,←,0.8152796999929706,False,13,-1,1,2
PB049K21,1,91,AS,exp,48,→,right,→,0.7177273000124842,True,14,-1,0,2
PB049K21,1,92,AS,exp,34,←,left,←,0.6918150999990758,True,14,1,1,3
PB049K21,1,93,AS,exp,29,→,right,→,0.708705099998042,True,13,1,0,3
PB049K21,1,94,AS,exp,44,↑,up,↑,0.684310299999197,True,13,1,0,3
PB049K21,1,95,AS,exp,34,→,right,→,0.6078227999969386,True,12,1,0,3
PB049K21,1,96,AS,exp,27,←,left,←,0.634630600005039,True,12,1,0,3
PB049K21,1,97,AS,exp,35,↑,up,↑,0.5455645000038203,True,11,1,0,3
PB049K21,1,98,AS,exp,33,↓,up,↑,0.6526180000073509,False,11,-1,1,4
PB049K21,1,99,AS,exp,42,←,left,←,0.7565210000029765,True,12,-1,0,4
PB049K21,1,100,AS,exp,34,↑,up,↑,0.7886194000020623,True,12,1,1,5
PB049K21,1,101,AS,exp,45,←,left,←,0.6889292999985628,True,11,1,0,5
PB049K21,1,102,AS,exp,39,→,left,←,0.6198829999921145,False,11,-1,1,6
PB049K21,1,103,AS,exp,39,←,left,←,0.757012100002612,True,12,-1,0,6
PB049K21,1,104,AS,exp,37,↑,up,↑,0.7913553999969736,True,12,1,1,7
PB049K21,1,105,AS,exp,27,↓,no_key,no_letter,-1.0,False,11,-1,1,8
PB049K21,1,106,AS,exp,49,←,left,←,0.593184299999848,True,12,-1,0,8
PB049K21,1,107,AS,exp,40,↑,up,↑,0.8697489000041969,True,12,1,1,9
PB049K21,1,108,AS,exp,38,→,right,→,0.6386021999933291,True,11,1,0,9
PB049K21,1,109,AS,exp,25,←,left,←,0.7695162000018172,True,11,1,0,9
PB049K21,1,110,AS,exp,39,↓,down,↓,0.6461482000013348,True,10,1,0,9
PB049K21,1,111,AS,exp,40,←,left,←,0.6072168999962742,True,10,1,0,9
PB049K21,1,112,AS,exp,32,↓,down,↓,0.5510860000067623,True,9,1,0,9
PB049K21,1,113,AS,exp,46,←,left,←,0.6311290000012377,True,9,1,0,9
PB049K21,1,114,AS,exp,30,↓,down,↓,0.6912336999957915,True,8,1,0,9
PB049K21,1,115,AS,exp,33,→,left,←,1.0370817999937572,False,8,-1,1,10
PB049K21,1,116,AS,exp,48,↑,up,↑,0.7116431000031298,True,9,-1,0,10
PB049K21,1,117,AS,exp,34,→,right,→,0.6965388000098756,True,9,1,1,11
PB049K21,1,118,AS,exp,42,←,left,←,0.6675113000092097,True,8,1,0,11
PB049K21,1,119,AS,exp,27,↑,up,↑,0.9553252999903634,True,8,1,0,11
PB049K21,1,120,AS,exp,38,↓,up,↑,0.9140590000024531,False,7,-1,1,12
PB049K21,1,121,AS,exp,41,↑,down,↓,0.7840059000009205,False,8,-1,0,12
PB049K21,1,122,AS,exp,38,←,left,←,0.8287453000084497,True,9,-1,0,12
PB049K21,1,123,AS,exp,50,→,down,↓,1.1159711000073003,False,9,-1,0,12
PB049K21,1,124,AS,exp,35,←,left,←,0.8861037000024226,True,10,-1,0,12
PB049K21,1,125,AS,exp,28,↓,down,↓,0.8509780000022147,True,10,1,1,13
PB049K21,1,126,AS,exp,50,↑,left,←,1.44719669999904,False,9,-1,1,14
PB049K21,2,127,PS,intra_train,33,←,left,←,0.5171946000045864,True,24,-,-,-
PB049K21,2,128,PS,intra_train,27,→,no_key,no_letter,-1.0,False,24,-,-,-
PB049K21,2,129,PS,intra_train,45,←,left,←,1.0354412000015145,True,24,-,-,-
PB049K21,2,130,PS,intra_train,41,→,right,→,0.5172592000017175,True,24,-,-,-
PB049K21,2,131,PS,intra_train,41,↑,up,↑,0.6346619999967515,True,24,-,-,-
PB049K21,2,132,PS,exp,43,↓,down,↓,0.6507373999920674,True,16,0,0,0
PB049K21,2,133,PS,exp,38,→,right,→,0.6334088000003248,True,16,1,0,0
PB049K21,2,134,PS,exp,44,↓,down,↓,0.6955020000023069,True,15,1,0,0
PB049K21,2,135,PS,exp,49,↑,up,↑,0.5771368999994593,True,15,1,0,0
PB049K21,2,136,PS,exp,32,→,right,→,0.6111470999894664,True,14,1,0,0
PB049K21,2,137,PS,exp,38,↑,up,↑,0.47720069999923,True,14,1,0,0
PB049K21,2,138,PS,exp,31,↓,down,↓,0.7327184999885503,True,13,1,0,0
PB049K21,2,139,PS,exp,34,↑,up,↑,0.4687358000082895,True,13,1,0,0
PB049K21,2,140,PS,exp,29,→,right,→,0.5166539000056218,True,12,1,0,0
PB049K21,2,141,PS,exp,30,↑,up,↑,0.5504868999996688,True,12,1,0,0
PB049K21,2,142,PS,exp,29,←,left,←,0.5221159999928204,True,11,1,0,0
PB049K21,2,143,PS,exp,41,→,right,→,0.4904747000109637,True,11,1,0,0
PB049K21,2,144,PS,exp,32,←,left,←,0.6248240999993868,True,10,1,0,0
PB049K21,2,145,PS,exp,46,↓,down,↓,1.110079999998561,True,10,1,0,0
PB049K21,2,146,PS,exp,30,↑,up,↑,0.6175254999980098,True,9,1,0,0
PB049K21,2,147,PS,exp,39,→,right,→,0.6110484999953769,True,9,1,0,0
PB049K21,2,148,PS,exp,47,↓,down,↓,0.66935039999953,True,8,1,0,0
PB049K21,2,149,PS,exp,39,←,left,←,0.49091259999840986,True,8,1,0,0
PB049K21,2,150,PS,exp,38,↓,left,←,0.8473226000060095,False,7,-1,1,1
PB049K21,2,151,PS,exp,33,→,right,→,0.5506706000014674,True,8,-1,0,1
PB049K21,2,152,PS,exp,31,↑,up,↑,0.5917167000006884,True,8,1,1,2
PB049K21,2,153,PS,exp,34,↓,left,←,0.678341899998486,False,7,-1,1,3
PB049K21,2,154,PS,exp,41,↑,up,↑,0.492131299994071,True,8,-1,0,3
PB049K21,2,155,PS,exp,39,→,right,→,0.6126001000084216,True,8,1,1,4
PB049K21,2,156,PS,exp,48,←,left,←,0.5870555000001332,True,7,1,0,4
PB049K21,2,157,PS,exp,45,→,right,→,0.5626164999994216,True,7,1,0,4
PB049K21,2,158,PS,exp,47,↓,left,←,0.7348411999992095,False,6,-1,1,5
PB049K21,2,159,PS,exp,47,←,left,←,0.6034265000052983,True,7,-1,0,5
PB049K21,2,160,PS,exp,50,↓,left,←,0.7385601999994833,False,7,-1,0,5
PB049K21,2,161,PS,exp,44,←,left,←,0.5519237000116846,True,8,-1,0,5
PB049K21,2,162,PS,exp,27,↑,up,↑,0.5303183999931207,True,8,1,1,6
PB049K21,2,163,PS,exp,37,←,left,←,0.4961637999949744,True,7,1,0,6
PB049K21,2,164,PS,exp,32,→,right,→,0.5020840999932261,True,7,1,0,6
PB049K21,2,165,PS,exp,35,←,left,←,0.5343705999985104,True,6,1,0,6
PB049K21,2,166,PS,exp,40,→,right,→,0.46401219999825116,True,6,1,0,6
PB049K21,2,167,PS,exp,26,←,left,←,0.5452094000065699,True,5,1,0,6
PB049K21,2,168,PS,exp,25,→,right,→,0.5779370999953244,True,5,1,0,6
PB049K21,2,169,PS,exp,48,↑,up,↑,0.4794382999971276,True,4,1,0,6
PB049K21,2,170,PS,exp,26,↓,left,←,0.6721522000007099,False,4,-1,1,7
PB049K21,2,171,PS,exp,47,↑,left,←,0.704082299998845,False,5,-1,0,7
PB049K21,2,172,PS,exp,31,↓,down,↓,0.7302367000083905,True,6,-1,0,7
PB049K21,2,173,PS,exp,39,←,left,←,0.555772399995476,True,6,1,1,8
PB049K21,2,174,PS,exp,43,→,right,→,0.521855200000573,True,5,1,0,8
PB049K21,2,175,PS,exp,33,↓,left,←,0.7873010000039358,False,5,-1,1,9
PB049K21,2,176,PS,exp,27,→,right,→,0.9973390999948606,True,6,-1,0,9
PB049K21,2,177,PS,exp,25,←,left,←,0.6771214000036707,True,6,1,1,10
PB049K21,2,178,PS,exp,28,↑,down,↓,1.2486514000047464,False,5,-1,1,11
PB049K21,2,179,PS,exp,37,←,left,←,0.6066376000089804,True,6,-1,0,11
PB049K21,2,180,PS,exp,32,→,right,→,0.8727227999916067,True,6,1,1,12
PB049K21,2,181,PS,exp,27,←,left,←,0.5568965999991633,True,5,1,0,12
PB049K21,2,182,PS,exp,31,→,right,→,0.5310104999953182,True,5,1,0,12
PB049K21,2,183,PS,exp,37,↑,left,←,0.48773009999422356,False,4,-1,1,13
PB049K21,2,184,PS,exp,27,←,left,←,0.5410068000055617,True,5,-1,0,13
PB049K21,2,185,PS,exp,48,↑,right,→,0.5475248000002466,False,5,-1,0,13
PB049K21,2,186,PS,exp,25,↓,left,←,0.7261846000037622,False,6,-1,0,13
PB049K21,2,187,PS,exp,47,→,right,→,0.591169399995124,True,7,-1,0,13
PB049K21,2,188,PS,exp,34,↓,right,→,0.8237329999974463,False,7,-1,0,13
PB049K21,2,189,PS,exp,41,↑,left,←,0.6878517000004649,False,8,-1,0,13
PB049K21,2,190,PS,exp,25,→,right,→,0.5037015999987489,True,9,-1,0,13
PB049K21,2,191,PS,exp,37,↑,up,↑,0.5887916999927256,True,9,1,1,14
PB049K21,3,192,PS,intra_train,29,←,left,←,0.4670122000097763,True,24,-,-,-
PB049K21,3,193,PS,intra_train,47,↓,down,↓,0.6858619999984512,True,24,-,-,-
PB049K21,3,194,PS,intra_train,36,↑,up,↑,2.0031047000084072,True,24,-,-,-
PB049K21,3,195,PS,intra_train,43,↓,down,↓,0.6643363000039244,True,24,-,-,-
PB049K21,3,196,PS,intra_train,31,←,left,←,0.48374489998968784,True,24,-,-,-
PB049K21,3,197,PS,exp,37,↑,up,↑,0.6886970999912592,True,16,0,0,0
PB049K21,3,198,PS,exp,27,←,left,←,0.5983522000024095,True,16,1,0,0
PB049K21,3,199,PS,exp,29,↓,down,↓,0.5412698000000091,True,15,1,0,0
PB049K21,3,200,PS,exp,38,←,left,←,0.5526826999994228,True,15,1,0,0
PB049K21,3,201,PS,exp,28,→,right,→,0.45082430000184104,True,14,1,0,0
PB049K21,3,202,PS,exp,47,↓,down,↓,0.6693879999947967,True,14,1,0,0
PB049K21,3,203,PS,exp,37,→,right,→,0.5163145999977132,True,13,1,0,0
PB049K21,3,204,PS,exp,37,↓,down,↓,0.6964880999876186,True,13,1,0,0
PB049K21,3,205,PS,exp,45,←,left,←,0.4177990000025602,True,12,1,0,0
PB049K21,3,206,PS,exp,34,→,right,→,0.4612150000029942,True,12,1,0,0
PB049K21,3,207,PS,exp,40,←,left,←,0.5943164999916917,True,11,1,0,0
PB049K21,3,208,PS,exp,42,↑,up,↑,0.5644961999933003,True,11,1,0,0
PB049K21,3,209,PS,exp,43,↓,down,↓,0.5690950999996858,True,10,1,0,0
PB049K21,3,210,PS,exp,31,←,left,←,0.5048538999981247,True,10,1,0,0
PB049K21,3,211,PS,exp,47,→,right,→,0.8915933000098448,True,9,1,0,0
PB049K21,3,212,PS,exp,41,←,left,←,0.5926712999935262,True,9,1,0,0
PB049K21,3,213,PS,exp,33,↓,down,↓,0.6633843000017805,True,8,1,0,0
PB049K21,3,214,PS,exp,31,←,left,←,0.506192300003022,True,8,1,0,0
PB049K21,3,215,PS,exp,38,↓,down,↓,0.5004139999946347,True,7,1,0,0
PB049K21,3,216,PS,exp,41,↑,up,↑,0.5815584000083618,True,7,1,0,0
PB049K21,3,217,PS,exp,44,↓,down,↓,0.6797120000119321,True,6,1,0,0
PB049K21,3,218,PS,exp,47,←,left,←,0.6422308000037447,True,6,1,0,0
PB049K21,3,219,PS,exp,27,↓,up,↑,0.7615329000109341,False,5,-1,1,1
PB049K21,3,220,PS,exp,44,↑,up,↑,0.5712507999996888,True,6,-1,0,1
PB049K21,3,221,PS,exp,25,←,left,←,0.6281924999930197,True,6,1,1,2
PB049K21,3,222,PS,exp,45,→,right,→,0.716296800004784,True,5,1,0,2
PB049K21,3,223,PS,exp,38,←,left,←,0.6247104999929434,True,5,1,0,2
PB049K21,3,224,PS,exp,46,↓,left,←,0.693327600005432,False,4,-1,1,3
PB049K21,3,225,PS,exp,35,←,right,→,0.680338699996355,False,5,-1,0,3
PB049K21,3,226,PS,exp,29,→,right,→,0.5862235999957193,True,6,-1,0,3
PB049K21,3,227,PS,exp,39,↓,down,↓,0.5823257000010926,True,6,1,1,4
PB049K21,3,228,PS,exp,30,→,right,→,0.4525909999938449,True,5,1,0,4
PB049K21,3,229,PS,exp,34,↑,up,↑,0.5621206000068923,True,5,1,0,4
PB049K21,3,230,PS,exp,32,←,left,←,0.5748525999952108,True,4,1,0,4
PB049K21,3,231,PS,exp,32,↓,left,←,0.47062110000115354,False,4,-1,1,5
PB049K21,3,232,PS,exp,30,←,left,←,0.5513830999989295,True,5,-1,0,5
PB049K21,3,233,PS,exp,36,→,right,→,0.7601548000093317,True,5,1,1,6
PB049K21,3,234,PS,exp,44,↓,left,←,0.45444570000108797,False,4,-1,1,7
PB049K21,3,235,PS,exp,30,←,left,←,0.5249594000051729,True,5,-1,0,7
PB049K21,3,236,PS,exp,39,↑,up,↑,0.5246263000008184,True,5,1,1,8
PB049K21,3,237,PS,exp,30,→,left,←,0.5767327000066871,False,4,-1,1,9
PB049K21,3,238,PS,exp,50,←,right,→,0.5377805000025546,False,5,-1,0,9
PB049K21,3,239,PS,exp,34,↑,left,←,0.6511360000004061,False,6,-1,0,9
PB049K21,3,240,PS,exp,38,↓,down,↓,0.6122620999958599,True,7,-1,0,9
PB049K21,3,241,PS,exp,41,↑,up,↑,0.604627900000196,True,7,1,1,10
PB049K21,3,242,PS,exp,27,←,left,←,0.5590295000001788,True,6,1,0,10
PB049K21,3,243,PS,exp,32,↓,left,←,0.5566726999968523,False,6,-1,1,11
PB049K21,3,244,PS,exp,50,↑,right,→,0.5994826999958605,False,7,-1,0,11
PB049K21,3,245,PS,exp,48,→,right,→,0.5508283999952255,True,8,-1,0,11
PB049K21,3,246,PS,exp,38,↑,up,↑,0.5731740000046557,True,8,1,1,12
PB049K21,3,247,PS,exp,38,←,right,→,0.5581185000046389,False,7,-1,1,13
PB049K21,3,248,PS,exp,39,→,right,→,0.5741246999969007,True,8,-1,0,13
PB049K21,3,249,PS,exp,50,↑,up,↑,0.5349522000033176,True,8,1,1,14
PB049K21,4,250,AS,intra_train,27,↓,down,↓,1.2553825999930268,True,19,-,-,-
PB049K21,4,251,AS,intra_train,40,↑,up,↑,0.8310104000120191,True,19,-,-,-
PB049K21,4,252,AS,intra_train,37,→,right,→,0.5907823000015924,True,19,-,-,-
PB049K21,4,253,AS,intra_train,47,↓,down,↓,0.7195588000031421,True,19,-,-,-
PB049K21,4,254,AS,intra_train,48,↑,up,↑,0.7232240000012098,True,19,-,-,-
PB049K21,4,255,AS,exp,37,←,right,→,0.6812328000087291,False,13,-1,0,0
PB049K21,4,256,AS,exp,35,→,right,→,0.6765529999975115,True,14,-1,0,0
PB049K21,4,257,AS,exp,29,←,left,←,0.6056757999904221,True,14,1,1,1
PB049K21,4,258,AS,exp,46,→,right,→,0.8252483999967808,True,13,1,0,1
PB049K21,4,259,AS,exp,28,←,right,→,1.0730172000039602,False,13,-1,1,2
PB049K21,4,260,AS,exp,26,↓,left,←,0.850274399999762,False,14,-1,0,2
PB049K21,4,261,AS,exp,43,↑,up,↑,0.5953318000101717,True,15,-1,0,2
PB049K21,4,262,AS,exp,37,↓,down,↓,0.8112738999916473,True,15,1,1,3
PB049K21,4,263,AS,exp,29,←,left,←,0.7410187999921618,True,14,1,0,3
PB049K21,4,264,AS,exp,35,↑,up,↑,0.7293215999961831,True,14,1,0,3
PB049K21,4,265,AS,exp,38,↓,down,↓,0.716217900000629,True,13,1,0,3
PB049K21,4,266,AS,exp,42,→,right,→,0.7009740000066813,True,13,1,0,3
PB049K21,4,267,AS,exp,42,←,up,↑,0.7839403999969363,False,12,-1,1,4
PB049K21,4,268,AS,exp,50,↓,down,↓,0.8524498000042513,True,13,-1,0,4
PB049K21,4,269,AS,exp,29,↑,left,←,0.849049800002831,False,13,-1,0,4
PB049K21,4,270,AS,exp,33,→,right,→,0.7292056000005687,True,14,-1,0,4
PB049K21,4,271,AS,exp,25,←,right,→,0.8540202999865869,False,14,-1,0,4
PB049K21,4,272,AS,exp,33,↓,down,↓,0.887284999989788,True,15,-1,0,4
PB049K21,4,273,AS,exp,46,↑,up,↑,0.7397026999969967,True,15,1,1,5
PB049K21,4,274,AS,exp,50,←,left,←,0.735212200001115,True,14,1,0,5
PB049K21,4,275,AS,exp,29,→,right,→,0.6884099000017159,True,14,1,0,5
PB049K21,4,276,AS,exp,42,←,right,→,0.6929401999950642,False,13,-1,1,6
PB049K21,4,277,AS,exp,33,→,right,→,0.7900306000083219,True,14,-1,0,6
PB049K21,4,278,AS,exp,38,←,left,←,0.653935399997863,True,14,1,1,7
PB049K21,4,279,AS,exp,44,↑,up,↑,0.6303486000106204,True,13,1,0,7
PB049K21,4,280,AS,exp,31,↓,up,↑,0.6565575999993598,False,13,-1,1,8
PB049K21,4,281,AS,exp,44,←,left,←,0.6591164999990724,True,14,-1,0,8
PB049K21,4,282,AS,exp,47,→,right,→,0.6450284000020474,True,14,1,1,9
PB049K21,4,283,AS,exp,36,←,left,←,0.6195391000073869,True,13,1,0,9
PB049K21,4,284,AS,exp,37,↑,up,↑,0.6162874000001466,True,13,1,0,9
PB049K21,4,285,AS,exp,28,←,left,←,0.518162399996072,True,12,1,0,9
PB049K21,4,286,AS,exp,44,↓,right,→,0.4862323999986984,False,12,-1,1,10
PB049K21,4,287,AS,exp,49,→,right,→,0.6441906999971252,True,13,-1,0,10
PB049K21,4,288,AS,exp,39,↓,left,←,0.6940176000061911,False,13,-1,0,10
PB049K21,4,289,AS,exp,28,←,left,←,0.5883724000013899,True,14,-1,0,10
PB049K21,4,290,AS,exp,25,→,right,→,0.6249234999995679,True,14,1,1,11
PB049K21,4,291,AS,exp,30,↑,down,↓,0.7577522000065073,False,13,-1,1,12
PB049K21,4,292,AS,exp,34,←,right,→,0.7611152000026777,False,14,-1,0,12
PB049K21,4,293,AS,exp,45,→,right,→,0.5940832000051159,True,15,-1,0,12
PB049K21,4,294,AS,exp,39,↓,down,↓,0.6441388999955961,True,15,1,1,13
PB049K21,4,295,AS,exp,50,←,left,←,0.6328815000015311,True,14,1,0,13
PB049K21,4,296,AS,exp,47,→,right,→,0.5431127000047127,True,14,1,0,13
PB049K21,4,297,AS,exp,36,←,left,←,0.5976705000066431,True,13,1,0,13
PB049K21,4,298,AS,exp,41,↓,down,↓,0.6744217999948887,True,13,1,0,13
PB049K21,4,299,AS,exp,45,←,right,→,0.5941750000056345,False,12,-1,1,14
PB049K21,5,300,AS,intra_train,32,→,right,→,1.404025099996943,True,19,-,-,-
PB049K21,5,301,AS,intra_train,48,↑,up,↑,0.5917819999885978,True,19,-,-,-
PB049K21,5,302,AS,intra_train,33,→,right,→,0.72383030000492,True,19,-,-,-
PB049K21,5,303,AS,intra_train,27,↑,up,↑,0.6941935000068042,True,19,-,-,-
PB049K21,5,304,AS,intra_train,35,→,right,→,0.585303699990618,True,19,-,-,-
PB049K21,5,305,AS,exp,47,↓,down,↓,0.6321844000049168,True,13,0,0,0
PB049K21,5,306,AS,exp,48,↑,up,↑,0.5841677999997046,True,13,1,0,0
PB049K21,5,307,AS,exp,31,→,right,→,0.6207269000005908,True,12,1,0,0
PB049K21,5,308,AS,exp,36,←,up,↑,0.8537698000000091,False,12,-1,1,1
PB049K21,5,309,AS,exp,48,↓,left,←,0.680676299991319,False,13,-1,0,1
PB049K21,5,310,AS,exp,46,←,left,←,0.785471499999403,True,14,-1,0,1
PB049K21,5,311,AS,exp,34,↓,down,↓,0.9385244000004604,True,14,1,1,2
PB049K21,5,312,AS,exp,33,←,left,←,0.6279910000012023,True,13,1,0,2
PB049K21,5,313,AS,exp,45,→,right,→,0.6971552000031807,True,13,1,0,2
PB049K21,5,314,AS,exp,32,←,left,←,0.5694235999981174,True,12,1,0,2
PB049K21,5,315,AS,exp,25,↓,down,↓,0.6506682999897748,True,12,1,0,2
PB049K21,5,316,AS,exp,37,←,left,←,0.5510514999914449,True,11,1,0,2
PB049K21,5,317,AS,exp,40,↑,up,↑,0.714930899994215,True,11,1,0,2
PB049K21,5,318,AS,exp,44,→,right,→,0.8641750999959186,True,10,1,0,2
PB049K21,5,319,AS,exp,30,←,down,↓,0.8064653999899747,False,10,-1,1,3
PB049K21,5,320,AS,exp,37,→,right,→,0.5877431999979308,True,11,-1,0,3
PB049K21,5,321,AS,exp,49,↓,down,↓,0.6177598999929614,True,11,1,1,4
PB049K21,5,322,AS,exp,43,↑,up,↑,0.6473192999983439,True,10,1,0,4
PB049K21,5,323,AS,exp,26,←,left,←,0.6199484999960987,True,10,1,0,4
PB049K21,5,324,AS,exp,50,→,right,→,0.6800512000045273,True,9,1,0,4
PB049K21,5,325,AS,exp,48,←,left,←,0.6121151999977883,True,9,1,0,4
PB049K21,5,326,AS,exp,48,↑,right,→,0.6707576000044355,False,8,-1,1,5
PB049K21,5,327,AS,exp,43,←,left,←,0.7026516000041738,True,9,-1,0,5
PB049K21,5,328,AS,exp,43,↓,right,→,0.6837492000049679,False,9,-1,0,5
PB049K21,5,329,AS,exp,41,→,right,→,0.6486792999930913,True,10,-1,0,5
PB049K21,5,330,AS,exp,50,↑,left,←,0.6042033999983687,False,10,-1,0,5
PB049K21,5,331,AS,exp,25,→,right,→,0.4556598000053782,True,11,-1,0,5
PB049K21,5,332,AS,exp,44,↓,down,↓,0.48107330000493675,True,11,1,1,6
PB049K21,5,333,AS,exp,50,→,left,←,0.6150830999977188,False,10,-1,1,7
PB049K21,5,334,AS,exp,39,←,left,←,0.6022522999992361,True,11,-1,0,7
PB049K21,5,335,AS,exp,29,→,no_key,no_letter,-1.0,False,11,-1,0,7
PB049K21,5,336,AS,exp,35,↓,down,↓,0.7479442000039853,True,12,-1,0,7
PB049K21,5,337,AS,exp,30,↑,left,←,0.6423786000086693,False,12,-1,0,7
PB049K21,5,338,AS,exp,39,→,right,→,0.6393288999970537,True,13,-1,0,7
PB049K21,5,339,AS,exp,46,↓,down,↓,0.6004878000094322,True,13,1,1,8
PB049K21,5,340,AS,exp,40,↑,right,→,0.590217400007532,False,12,-1,1,9
PB049K21,5,341,AS,exp,34,→,right,→,0.7124577999929897,True,13,-1,0,9
PB049K21,5,342,AS,exp,32,↑,up,↑,0.8666607000050135,True,13,1,1,10
PB049K21,5,343,AS,exp,44,↓,down,↓,0.6933812999923248,True,12,1,0,10
PB049K21,5,344,AS,exp,48,→,right,→,0.549638500000583,True,12,1,0,10
PB049K21,5,345,AS,exp,42,↑,up,↑,0.6643412999983411,True,11,1,0,10
PB049K21,5,346,AS,exp,40,→,right,→,0.6515512000041781,True,11,1,0,10
PB049K21,5,347,AS,exp,35,←,right,→,0.5928852000070037,False,10,-1,1,11
PB049K21,5,348,AS,exp,36,→,left,←,0.7666758000123082,False,11,-1,0,11
PB049K21,5,349,AS,exp,44,↓,down,↓,0.6353735000011511,True,12,-1,0,11
PB049K21,5,350,AS,exp,33,→,right,→,0.7009454000071855,True,12,1,1,12
PB049K21,5,351,AS,exp,39,↓,up,↑,0.8668692000064766,False,11,-1,1,13
PB049K21,5,352,AS,exp,32,→,right,→,0.7021837999927811,True,12,-1,0,13
PB049K21,5,353,AS,exp,27,↑,down,↓,0.7527480999997351,False,12,-1,0,13
PB049K21,5,354,AS,exp,30,→,right,→,0.6631472000008216,True,13,-1,0,13
PB049K21,5,355,AS,exp,27,↑,right,→,1.14272780000465,False,13,-1,0,13
PB049K21,5,356,AS,exp,32,↓,down,↓,0.7088794000010239,True,14,-1,0,13
PB049K21,5,357,AS,exp,41,↑,up,↑,0.7795857000019168,True,14,1,1,14
PB049K21,6,358,PS,intra_train,37,→,right,→,1.871636399999261,True,24,-,-,-
PB049K21,6,359,PS,intra_train,43,↓,down,↓,0.6565446999884443,True,24,-,-,-
PB049K21,6,360,PS,intra_train,39,→,right,→,1.239885899994988,True,24,-,-,-
PB049K21,6,361,PS,intra_train,27,←,left,←,0.4836811999994097,True,24,-,-,-
PB049K21,6,362,PS,intra_train,37,↓,down,↓,0.7605707000038819,True,24,-,-,-
PB049K21,6,363,PS,exp,44,←,left,←,0.6624428000068292,True,16,0,0,0
PB049K21,6,364,PS,exp,38,↓,down,↓,0.6501174000004539,True,16,1,0,0
PB049K21,6,365,PS,exp,36,←,left,←,0.47129359999962617,True,15,1,0,0
PB049K21,6,366,PS,exp,32,→,right,→,0.5838947000011103,True,15,1,0,0
PB049K21,6,367,PS,exp,43,↑,up,↑,0.5555022000044119,True,14,1,0,0
PB049K21,6,368,PS,exp,36,→,right,→,0.5144273999903817,True,14,1,0,0
PB049K21,6,369,PS,exp,50,←,left,←,0.4736115999985486,True,13,1,0,0
PB049K21,6,370,PS,exp,41,→,right,→,0.44829319999553263,True,13,1,0,0
PB049K21,6,371,PS,exp,34,↑,up,↑,0.4916691999969771,True,12,1,0,0
PB049K21,6,372,PS,exp,35,→,right,→,0.43537810000998434,True,12,1,0,0
PB049K21,6,373,PS,exp,28,↓,down,↓,0.5722630000091158,True,11,1,0,0
PB049K21,6,374,PS,exp,40,←,left,←,0.3745282000018051,True,11,1,0,0
PB049K21,6,375,PS,exp,48,↓,down,↓,0.5223261999926763,True,10,1,0,0
PB049K21,6,376,PS,exp,44,←,left,←,0.38607690000208095,True,10,1,0,0
PB049K21,6,377,PS,exp,41,→,right,→,0.37765419999777805,True,9,1,0,0
PB049K21,6,378,PS,exp,50,↓,down,↓,0.5378677000117023,True,9,1,0,0
PB049K21,6,379,PS,exp,38,←,left,←,0.4839825000090059,True,8,1,0,0
PB049K21,6,380,PS,exp,31,↓,down,↓,0.5325356999965152,True,8,1,0,0
PB049K21,6,381,PS,exp,43,→,right,→,0.5067842999997083,True,7,1,0,0
PB049K21,6,382,PS,exp,46,↓,down,↓,0.5246268000046257,True,7,1,0,0
PB049K21,6,383,PS,exp,38,↑,up,↑,0.5412175999954343,True,6,1,0,0
PB049K21,6,384,PS,exp,29,→,right,→,0.511048899992602,True,6,1,0,0
PB049K21,6,385,PS,exp,29,←,right,→,0.9515437000081874,False,5,-1,1,1
PB049K21,6,386,PS,exp,34,↑,up,↑,0.7047592000017175,True,6,-1,0,1
PB049K21,6,387,PS,exp,42,↓,down,↓,0.580283800009056,True,6,1,1,2
PB049K21,6,388,PS,exp,44,↑,right,→,0.6743585999938659,False,5,-1,1,3
PB049K21,6,389,PS,exp,35,←,left,←,0.5865090000006603,True,6,-1,0,3
PB049K21,6,390,PS,exp,40,↑,up,↑,0.5097607000061544,True,6,1,1,4
PB049K21,6,391,PS,exp,28,↓,down,↓,0.7682320000021718,True,5,1,0,4
PB049K21,6,392,PS,exp,49,↑,left,←,0.5418180000124266,False,5,-1,1,5
PB049K21,6,393,PS,exp,25,←,left,←,0.4724237000045832,True,6,-1,0,5
PB049K21,6,394,PS,exp,48,↓,down,↓,0.5095360999985132,True,6,1,1,6
PB049K21,6,395,PS,exp,45,→,right,→,0.5688431000016863,True,5,1,0,6
PB049K21,6,396,PS,exp,37,↑,up,↑,0.4506760999938706,True,5,1,0,6
PB049K21,6,397,PS,exp,38,←,left,←,0.48846699998830445,True,4,1,0,6
PB049K21,6,398,PS,exp,42,→,right,→,0.4803313000011258,True,4,1,0,6
PB049K21,6,399,PS,exp,38,↑,down,↓,0.41209330000856426,False,3,-1,1,7
PB049K21,6,400,PS,exp,48,←,left,←,1.1788271000114037,True,4,-1,0,7
PB049K21,6,401,PS,exp,49,↓,right,→,0.5991339000029257,False,4,-1,0,7
PB049K21,6,402,PS,exp,29,↑,left,←,0.878406099989661,False,5,-1,0,7
PB049K21,6,403,PS,exp,37,↓,left,←,0.7221717999927932,False,6,-1,0,7
PB049K21,6,404,PS,exp,36,←,left,←,0.43949580000480637,True,7,-1,0,7
PB049K21,6,405,PS,exp,35,↑,left,←,0.3206725999916671,False,7,-1,0,7
PB049K21,6,406,PS,exp,48,↓,down,↓,0.5103275000001304,True,8,-1,0,7
PB049K21,6,407,PS,exp,49,→,right,→,0.5107258999923943,True,8,1,1,8
PB049K21,6,408,PS,exp,47,↑,up,↑,0.51520320000418,True,7,1,0,8
PB049K21,6,409,PS,exp,32,↓,left,←,0.4852930000051856,False,7,-1,1,9
PB049K21,6,410,PS,exp,49,↑,up,↑,0.4936992000002647,True,8,-1,0,9
PB049K21,6,411,PS,exp,45,←,left,←,0.5064311000023736,True,8,1,1,10
PB049K21,6,412,PS,exp,35,↑,up,↑,0.5273623999964911,True,7,1,0,10
PB049K21,6,413,PS,exp,41,↓,down,↓,0.49759630000335164,True,7,1,0,10
PB049K21,6,414,PS,exp,44,→,left,←,0.4566810000105761,False,6,-1,1,11
PB049K21,6,415,PS,exp,50,←,left,←,0.6030649000022095,True,7,-1,0,11
PB049K21,6,416,PS,exp,26,→,right,→,1.3017602000036277,True,7,1,1,12
PB049K21,6,417,PS,exp,25,←,left,←,0.5748872000112897,True,6,1,0,12
PB049K21,6,418,PS,exp,44,→,left,←,0.5488757999992231,False,6,-1,1,13
PB049K21,6,419,PS,exp,33,↑,up,↑,0.6692381000029854,True,7,-1,0,13
PB049K21,6,420,PS,exp,36,←,left,←,0.7539695000014035,True,7,1,1,14
PB049K21,7,421,PS,intra_train,33,↓,down,↓,0.9556201999948826,True,24,-,-,-
PB049K21,7,422,PS,intra_train,41,→,right,→,0.5336363000096753,True,24,-,-,-
PB049K21,7,423,PS,intra_train,48,←,left,←,0.45049289999587927,True,24,-,-,-
PB049K21,7,424,PS,intra_train,32,↑,up,↑,0.5171523000026355,True,24,-,-,-
PB049K21,7,425,PS,intra_train,37,↓,down,↓,0.6120848999998998,True,24,-,-,-
PB049K21,7,426,PS,exp,43,↑,up,↑,0.4848115000058897,True,16,0,0,0
PB049K21,7,427,PS,exp,49,←,left,←,1.3457058000058169,True,16,1,0,0
PB049K21,7,428,PS,exp,50,↑,up,↑,0.5033621999900788,True,15,1,0,0
PB049K21,7,429,PS,exp,36,↓,down,↓,0.6927355999941938,True,15,1,0,0
PB049K21,7,430,PS,exp,49,←,left,←,0.4900984999985667,True,14,1,0,0
PB049K21,7,431,PS,exp,41,↓,down,↓,0.6360121000034269,True,14,1,0,0
PB049K21,7,432,PS,exp,41,←,left,←,0.4851011999999173,True,13,1,0,0
PB049K21,7,433,PS,exp,37,→,right,→,0.5464962999976706,True,13,1,0,0
PB049K21,7,434,PS,exp,25,↓,down,↓,0.532868199996301,True,12,1,0,0
PB049K21,7,435,PS,exp,43,↑,up,↑,0.5347586999996565,True,12,1,0,0
PB049K21,7,436,PS,exp,30,←,left,←,0.46316749999823514,True,11,1,0,0
PB049K21,7,437,PS,exp,32,↑,up,↑,0.5114756999973906,True,11,1,0,0
PB049K21,7,438,PS,exp,39,←,left,←,0.4912722000008216,True,10,1,0,0
PB049K21,7,439,PS,exp,28,↓,down,↓,0.5836264999961713,True,10,1,0,0
PB049K21,7,440,PS,exp,44,←,left,←,0.47370290000981186,True,9,1,0,0
PB049K21,7,441,PS,exp,32,↑,up,↑,0.48920139999245293,True,9,1,0,0
PB049K21,7,442,PS,exp,35,→,right,→,0.5828655999939656,True,8,1,0,0
PB049K21,7,443,PS,exp,31,↓,down,↓,0.5133459999924526,True,8,1,0,0
PB049K21,7,444,PS,exp,31,←,left,←,0.5116998000012245,True,7,1,0,0
PB049K21,7,445,PS,exp,33,→,right,→,0.49503659999754746,True,7,1,0,0
PB049K21,7,446,PS,exp,32,↓,left,←,0.5549533000012161,False,6,-1,1,1
PB049K21,7,447,PS,exp,32,↑,up,↑,0.7230292999884114,True,7,-1,0,1
PB049K21,7,448,PS,exp,37,↓,left,←,0.5498249999945983,False,7,-1,0,1
PB049K21,7,449,PS,exp,44,↑,up,↑,0.5854148999933386,True,8,-1,0,1
PB049K21,7,450,PS,exp,40,→,right,→,0.7667543999996269,True,8,1,1,2
PB049K21,7,451,PS,exp,31,↑,left,←,0.5046051999961492,False,7,-1,1,3
PB049K21,7,452,PS,exp,44,→,right,→,0.5454691000049934,True,8,-1,0,3
PB049K21,7,453,PS,exp,37,←,left,←,0.6019950000045355,True,8,1,1,4
PB049K21,7,454,PS,exp,34,↑,up,↑,0.5263790000026347,True,7,1,0,4
PB049K21,7,455,PS,exp,26,←,left,←,0.5073078999994323,True,7,1,0,4
PB049K21,7,456,PS,exp,42,↓,right,→,0.6792042999877594,False,6,-1,1,5
PB049K21,7,457,PS,exp,38,↑,up,↑,0.546447899992927,True,7,-1,0,5
PB049K21,7,458,PS,exp,35,→,right,→,0.5529000999958953,True,7,1,1,6
PB049K21,7,459,PS,exp,27,↑,left,←,1.0266274000023259,False,6,-1,1,7
PB049K21,7,460,PS,exp,39,←,left,←,0.46969690000696573,True,7,-1,0,7
PB049K21,7,461,PS,exp,32,↓,down,↓,0.6867299000005005,True,7,1,1,8
PB049K21,7,462,PS,exp,28,↑,up,↑,0.6885899000044446,True,6,1,0,8
PB049K21,7,463,PS,exp,35,→,right,→,0.6153359000018099,True,6,1,0,8
PB049K21,7,464,PS,exp,47,↓,left,←,0.819769499998074,False,5,-1,1,9
PB049K21,7,465,PS,exp,30,→,right,→,0.7379232999956002,True,6,-1,0,9
PB049K21,7,466,PS,exp,27,↓,down,↓,0.5751335999957519,True,6,1,1,10
PB049K21,7,467,PS,exp,31,↑,left,←,0.5625957000011113,False,5,-1,1,11
PB049K21,7,468,PS,exp,39,↓,down,↓,0.7409721000003628,True,6,-1,0,11
PB049K21,7,469,PS,exp,27,↑,left,←,0.547703400006867,False,6,-1,0,11
PB049K21,7,470,PS,exp,38,↓,down,↓,0.6449358999961987,True,7,-1,0,11
PB049K21,7,471,PS,exp,32,→,right,→,0.5058097000000998,True,7,1,1,12
PB049K21,7,472,PS,exp,38,↓,down,↓,0.8815928999974858,True,6,1,0,12
PB049K21,7,473,PS,exp,44,←,left,←,0.5599879000073997,True,6,1,0,12
PB049K21,7,474,PS,exp,45,→,right,→,0.9261340000084601,True,5,1,0,12
PB049K21,7,475,PS,exp,43,↓,down,↓,0.7636149000027217,True,5,1,0,12
PB049K21,7,476,PS,exp,30,←,left,←,0.5653227000002516,True,4,1,0,12
PB049K21,7,477,PS,exp,37,↑,right,→,0.6998596000048565,False,4,-1,1,13
PB049K21,7,478,PS,exp,28,→,right,→,0.6396220999886282,True,5,-1,0,13
PB049K21,7,479,PS,exp,50,←,left,←,0.7041981999936979,True,5,1,1,14
PB049K21,8,480,AS,intra_train,39,↓,down,↓,1.05139949999284,True,19,-,-,-
PB049K21,8,481,AS,intra_train,37,→,right,→,0.7179210000031162,True,19,-,-,-
PB049K21,8,482,AS,intra_train,38,←,left,←,0.6674545999994734,True,19,-,-,-
PB049K21,8,483,AS,intra_train,46,↓,down,↓,0.5477021999977296,True,19,-,-,-
PB049K21,8,484,AS,intra_train,41,←,left,←,0.5425534999958472,True,19,-,-,-
PB049K21,8,485,AS,exp,33,↓,down,↓,0.7399694000050658,True,13,0,0,0
PB049K21,8,486,AS,exp,44,↑,up,↑,0.9294042999972589,True,13,1,0,0
PB049K21,8,487,AS,exp,34,↓,left,←,0.7699562000052538,False,12,-1,1,1
PB049K21,8,488,AS,exp,50,↑,up,↑,0.7340423999994528,True,13,-1,0,1
PB049K21,8,489,AS,exp,42,←,left,←,0.5088217000011355,True,13,1,1,2
PB049K21,8,490,AS,exp,33,↑,left,←,0.8126566999999341,False,12,-1,1,3
PB049K21,8,491,AS,exp,26,→,right,→,0.5941146999975899,True,13,-1,0,3
PB049K21,8,492,AS,exp,30,←,left,←,0.5756342000095174,True,13,1,1,4
PB049K21,8,493,AS,exp,33,↓,down,↓,0.7714540000015404,True,12,1,0,4
PB049K21,8,494,AS,exp,29,↑,up,↑,0.6225611999980174,True,12,1,0,4
PB049K21,8,495,AS,exp,34,→,right,→,0.9246604000072693,True,11,1,0,4
PB049K21,8,496,AS,exp,25,↑,left,←,0.7081117999914568,False,11,-1,1,5
PB049K21,8,497,AS,exp,39,→,left,←,0.6708231999946292,False,12,-1,0,5
PB049K21,8,498,AS,exp,48,←,left,←,0.6993557000096189,True,13,-1,0,5
PB049K21,8,499,AS,exp,45,↑,left,←,0.7925173999974504,False,13,-1,0,5
PB049K21,8,500,AS,exp,43,↓,down,↓,1.058603800003766,True,14,-1,0,5
PB049K21,8,501,AS,exp,35,→,right,→,0.5887645000038901,True,14,1,1,6
PB049K21,8,502,AS,exp,27,↑,left,←,1.0075234999967506,False,13,-1,1,7
PB049K21,8,503,AS,exp,38,←,left,←,0.7193138000002364,True,14,-1,0,7
PB049K21,8,504,AS,exp,35,→,right,→,0.5942658999993,True,14,1,1,8
PB049K21,8,505,AS,exp,44,↑,up,↑,0.960577399993781,True,13,1,0,8
PB049K21,8,506,AS,exp,30,←,right,→,0.9225825000030454,False,13,-1,1,9
PB049K21,8,507,AS,exp,33,↓,down,↓,0.6445349999994505,True,14,-1,0,9
PB049K21,8,508,AS,exp,43,←,left,←,0.6319929000019329,True,14,1,1,10
PB049K21,8,509,AS,exp,39,→,left,←,0.6572613999887835,False,13,-1,1,11
PB049K21,8,510,AS,exp,37,↑,left,←,0.8258689999929629,False,14,-1,0,11
PB049K21,8,511,AS,exp,38,←,left,←,0.702450199998566,True,15,-1,0,11
PB049K21,8,512,AS,exp,41,↑,up,↑,0.9477017999888631,True,15,1,1,12
PB049K21,8,513,AS,exp,47,→,right,→,0.7297145000047749,True,14,1,0,12
PB049K21,8,514,AS,exp,34,↓,down,↓,0.7778028000029735,True,14,1,0,12
PB049K21,8,515,AS,exp,33,↑,right,→,1.2080011000070954,False,13,-1,1,13
PB049K21,8,516,AS,exp,28,→,right,→,0.9520900000061374,True,14,-1,0,13
PB049K21,8,517,AS,exp,37,←,left,←,0.8558989999874029,True,14,1,1,14
