PART_ID,Block_no,Trial_no,Block_type,Trial_type,CSI,Stim_letter,Key_pressed,letter_choose,Rt,Corr,Stimulus Time,Level,Reversal,Revs_count
PB041K19,1,1,PS,train,33,←,left,←,0.8144491000000471,True,30,-,-,-
PB041K19,1,2,PS,train,42,↓,down,↓,1.0119646000000557,True,30,-,-,-
PB041K19,1,3,PS,train,36,↑,up,↑,0.8417835999998715,True,30,-,-,-
PB041K19,1,4,PS,train,32,→,right,→,1.1346850999998424,True,30,-,-,-
PB041K19,1,5,PS,train,38,↓,down,↓,1.1624045999999453,True,30,-,-,-
PB041K19,1,6,PS,train,27,→,right,→,0.7005303999999342,True,30,-,-,-
PB041K19,1,7,PS,train,33,↑,up,↑,0.8122616000000562,True,30,-,-,-
PB041K19,1,8,PS,train,49,→,right,→,1.0152570000000196,True,30,-,-,-
PB041K19,1,9,PS,train,34,↑,up,↑,0.8994624999997995,True,30,-,-,-
PB041K19,1,10,PS,train,27,←,left,←,0.8260265000001255,True,30,-,-,-
PB041K19,2,11,AS,train,45,→,right,→,0.8004525999999714,True,45,-,-,-
PB041K19,2,12,AS,train,26,↑,up,↑,0.767103200000065,True,45,-,-,-
PB041K19,2,13,AS,train,44,→,right,→,0.6502882999998292,True,45,-,-,-
PB041K19,2,14,AS,train,28,←,left,←,0.9670641999998679,True,45,-,-,-
PB041K19,2,15,AS,train,37,↓,down,↓,0.9970929999999498,True,45,-,-,-
PB041K19,2,16,AS,train,42,←,left,←,0.7012807999999495,True,45,-,-,-
PB041K19,2,17,AS,train,25,↓,down,↓,0.8838576000000558,True,45,-,-,-
PB041K19,2,18,AS,train,31,↑,no_key,no_letter,-1.0,False,45,-,-,-
PB041K19,2,19,AS,train,36,→,right,→,0.701272999999901,True,45,-,-,-
PB041K19,2,20,AS,train,47,↓,down,↓,0.8504677000000811,True,45,-,-,-
PB041K19,-,21,PS,adaptive,46,↑,up,↑,0.5048002000000906,True,10,0,0,0
PB041K19,-,22,PS,adaptive,38,↓,down,↓,0.5561881999999514,True,10,1,0,0
PB041K19,-,23,PS,adaptive,35,→,right,→,0.9160196000000269,True,9,1,0,0
PB041K19,-,24,PS,adaptive,42,←,left,←,0.6759600000000319,True,9,1,0,0
PB041K19,-,25,PS,adaptive,40,↑,up,↑,0.8413886999999249,True,8,1,0,0
PB041K19,-,26,PS,adaptive,50,↓,down,↓,0.7361197000000175,True,8,1,0,0
PB041K19,-,27,PS,adaptive,47,←,left,←,0.8570156999999199,True,7,1,0,0
PB041K19,-,28,PS,adaptive,26,↑,up,↑,0.9581783999999516,True,7,1,0,0
PB041K19,-,29,PS,adaptive,30,↓,down,↓,0.7995573000000604,True,6,1,0,0
PB041K19,-,30,PS,adaptive,35,↑,up,↑,0.8767448999999488,True,6,1,0,0
PB041K19,-,31,PS,adaptive,46,↓,down,↓,0.85810430000015,True,5,1,0,0
PB041K19,-,32,PS,adaptive,35,←,left,←,0.853697000000011,True,5,1,0,0
PB041K19,-,33,PS,adaptive,30,↓,up,↑,0.7751926000000822,False,4,-1,1,1
PB041K19,-,34,PS,adaptive,25,→,right,→,0.8649964000001091,True,5,-1,0,1
PB041K19,-,35,PS,adaptive,37,←,left,←,0.7580666000003475,True,5,1,1,2
PB041K19,-,36,PS,adaptive,49,→,right,→,0.841313199999604,True,4,1,0,2
PB041K19,-,37,PS,adaptive,49,↑,left,←,0.6520095000000765,False,4,-1,1,3
PB041K19,-,38,PS,adaptive,28,↓,left,←,0.970430800000031,False,5,-1,0,3
PB041K19,-,39,PS,adaptive,39,←,up,↑,0.7462666000001263,False,6,-1,0,3
PB041K19,-,40,PS,adaptive,36,↓,left,←,0.8775540999999976,False,7,-1,0,3
PB041K19,-,41,PS,adaptive,41,←,left,←,0.7309818999997333,True,8,-1,0,3
PB041K19,-,42,PS,adaptive,37,→,right,→,0.9727996999999959,True,8,1,1,4
PB041K19,-,43,AS,adaptive,29,←,left,←,0.7057144000000335,True,20,0,0,0
PB041K19,-,44,AS,adaptive,31,↓,down,↓,0.8235718999999335,True,20,1,0,0
PB041K19,-,45,AS,adaptive,37,↑,up,↑,0.7693248000000494,True,19,1,0,0
PB041K19,-,46,AS,adaptive,36,↓,down,↓,0.7893450999999914,True,19,1,0,0
PB041K19,-,47,AS,adaptive,29,↑,up,↑,0.7355858999999327,True,18,1,0,0
PB041K19,-,48,AS,adaptive,45,→,right,→,0.7524450999999317,True,18,1,0,0
PB041K19,-,49,AS,adaptive,37,↑,down,↓,1.1164330000001428,False,17,-1,1,1
PB041K19,-,50,AS,adaptive,28,→,right,→,0.6924976999998762,True,18,-1,0,1
PB041K19,-,51,AS,adaptive,33,↓,down,↓,1.0774846999997862,True,18,1,1,2
PB041K19,-,52,AS,adaptive,49,←,left,←,0.6408784999998716,True,17,1,0,2
PB041K19,-,53,AS,adaptive,35,↓,down,↓,0.7526177000004282,True,17,1,0,2
PB041K19,-,54,AS,adaptive,28,←,left,←,0.9315019999999095,True,16,1,0,2
PB041K19,-,55,AS,adaptive,38,↑,up,↑,0.7842717999997149,True,16,1,0,2
PB041K19,-,56,AS,adaptive,34,↓,down,↓,0.8460891999998239,True,15,1,0,2
PB041K19,-,57,AS,adaptive,28,←,down,↓,1.915736299999935,False,15,-1,1,3
PB041K19,-,58,AS,adaptive,38,↓,down,↓,0.7576728999997613,True,16,-1,0,3
PB041K19,-,59,AS,adaptive,50,↑,up,↑,1.0378504000000248,True,16,1,1,4
PB041K19,1,60,AS,intra_train,46,↓,down,↓,0.6789214999998876,True,22,-,-,-
PB041K19,1,61,AS,intra_train,35,←,left,←,0.5812602000000879,True,22,-,-,-
PB041K19,1,62,AS,intra_train,31,↓,down,↓,0.7764016000000993,True,22,-,-,-
PB041K19,1,63,AS,intra_train,29,↑,up,↑,0.8985357999999906,True,22,-,-,-
PB041K19,1,64,AS,intra_train,25,↓,down,↓,0.7519263999997747,True,22,-,-,-
PB041K19,1,65,AS,exp,28,↑,up,↑,0.9374787000001561,True,15,0,0,0
PB041K19,1,66,AS,exp,28,←,up,↑,1.1645155000001068,False,15,-1,0,0
PB041K19,1,67,AS,exp,48,→,right,→,0.7439163999997618,True,16,-1,0,0
PB041K19,1,68,AS,exp,46,↑,up,↑,1.0909613000003446,True,16,1,1,1
PB041K19,1,69,AS,exp,29,↓,up,↑,0.9823687999996764,False,15,-1,1,2
PB041K19,1,70,AS,exp,36,←,left,←,0.8347022000002653,True,16,-1,0,2
PB041K19,1,71,AS,exp,38,→,right,→,0.7738976000000548,True,16,1,1,3
PB041K19,1,72,AS,exp,34,↑,up,↑,1.0608258000002024,True,15,1,0,3
PB041K19,1,73,AS,exp,42,↓,down,↓,0.9051277999997183,True,15,1,0,3
PB041K19,1,74,AS,exp,45,→,right,→,0.6302823999999418,True,14,1,0,3
PB041K19,1,75,AS,exp,37,↓,right,→,0.9333732999998574,False,14,-1,1,4
PB041K19,1,76,AS,exp,26,→,right,→,0.7570596999998997,True,15,-1,0,4
PB041K19,1,77,AS,exp,37,↑,up,↑,0.9671607000000222,True,15,1,1,5
PB041K19,1,78,AS,exp,41,↓,down,↓,0.8146663000002263,True,14,1,0,5
PB041K19,1,79,AS,exp,49,←,left,←,1.1585159999999632,True,14,1,0,5
PB041K19,1,80,AS,exp,32,↓,right,→,0.8004773000002388,False,13,-1,1,6
PB041K19,1,81,AS,exp,48,↑,up,↑,0.7801202999999077,True,14,-1,0,6
PB041K19,1,82,AS,exp,30,→,right,→,0.5532176000001527,True,14,1,1,7
PB041K19,1,83,AS,exp,35,↑,left,←,0.7456029999998464,False,13,-1,1,8
PB041K19,1,84,AS,exp,42,←,down,↓,0.7730930000002445,False,14,-1,0,8
PB041K19,1,85,AS,exp,38,↓,right,→,0.8736060999999609,False,15,-1,0,8
PB041K19,1,86,AS,exp,27,→,right,→,0.7567380000000412,True,16,-1,0,8
PB041K19,1,87,AS,exp,49,←,left,←,0.7658630000000812,True,16,1,1,9
PB041K19,1,88,AS,exp,43,→,right,→,0.6582102000002124,True,15,1,0,9
PB041K19,1,89,AS,exp,46,←,left,←,0.824447400000281,True,15,1,0,9
PB041K19,1,90,AS,exp,37,→,right,→,0.6095313999999235,True,14,1,0,9
PB041K19,1,91,AS,exp,30,←,left,←,0.7423235999999633,True,14,1,0,9
PB041K19,1,92,AS,exp,32,↓,left,←,0.8839519000002838,False,13,-1,1,10
PB041K19,1,93,AS,exp,37,↑,up,↑,0.7530710000000909,True,14,-1,0,10
PB041K19,1,94,AS,exp,45,←,right,→,0.9710683999996945,False,14,-1,0,10
PB041K19,1,95,AS,exp,40,↓,left,←,1.076871199999914,False,15,-1,0,10
PB041K19,1,96,AS,exp,32,↑,up,↑,1.2659255000003213,True,16,-1,0,10
PB041K19,1,97,AS,exp,44,→,up,↑,0.9446677000000818,False,16,-1,0,10
PB041K19,1,98,AS,exp,47,↑,up,↑,0.9853376000000935,True,17,-1,0,10
PB041K19,1,99,AS,exp,44,→,right,→,0.8738091999998687,True,17,1,1,11
PB041K19,1,100,AS,exp,26,↑,down,↓,1.4513560000000325,False,16,-1,1,12
PB041K19,1,101,AS,exp,47,→,right,→,0.8604995999999119,True,17,-1,0,12
PB041K19,1,102,AS,exp,48,↓,down,↓,0.9536737999997058,True,17,1,1,13
PB041K19,1,103,AS,exp,44,←,left,←,1.0958504999998695,True,16,1,0,13
PB041K19,1,104,AS,exp,39,→,right,→,0.8250521999998455,True,16,1,0,13
PB041K19,1,105,AS,exp,31,↓,down,↓,0.6955167000000984,True,15,1,0,13
PB041K19,1,106,AS,exp,35,←,left,←,0.6122512000001734,True,15,1,0,13
PB041K19,1,107,AS,exp,48,↑,right,→,0.938307999999779,False,14,-1,1,14
PB041K19,2,108,PS,intra_train,34,←,left,←,0.6027044000002206,True,10,-,-,-
PB041K19,2,109,PS,intra_train,47,→,right,→,0.6570088000003125,True,10,-,-,-
PB041K19,2,110,PS,intra_train,48,←,left,←,0.6228101000001516,True,10,-,-,-
PB041K19,2,111,PS,intra_train,33,→,right,→,0.508119699999952,True,10,-,-,-
PB041K19,2,112,PS,intra_train,28,←,left,←,0.6227875999998105,True,10,-,-,-
PB041K19,2,113,PS,exp,33,↑,right,→,1.10388039999998,False,7,-1,0,0
PB041K19,2,114,PS,exp,42,←,left,←,0.6172667000000729,True,8,-1,0,0
PB041K19,2,115,PS,exp,48,↑,left,←,0.7740041000001838,False,8,-1,0,0
PB041K19,2,116,PS,exp,39,←,left,←,0.6571794999999838,True,9,-1,0,0
PB041K19,2,117,PS,exp,43,↑,up,↑,1.4461455999999089,True,9,1,1,1
PB041K19,2,118,PS,exp,46,↓,down,↓,0.6109170999998241,True,8,1,0,1
PB041K19,2,119,PS,exp,32,↑,up,↑,0.8354871999999887,True,8,1,0,1
PB041K19,2,120,PS,exp,35,←,left,←,0.6622932000000219,True,7,1,0,1
PB041K19,2,121,PS,exp,38,↑,up,↑,0.7586037999999462,True,7,1,0,1
PB041K19,2,122,PS,exp,48,→,up,↑,0.8364506000002621,False,6,-1,1,2
PB041K19,2,123,PS,exp,27,↓,down,↓,0.7908690999997816,True,7,-1,0,2
PB041K19,2,124,PS,exp,32,→,up,↑,0.995969999999943,False,7,-1,0,2
PB041K19,2,125,PS,exp,31,↓,down,↓,0.6944951999998921,True,8,-1,0,2
PB041K19,2,126,PS,exp,48,↑,up,↑,0.7843505999999252,True,8,1,1,3
PB041K19,2,127,PS,exp,49,→,down,↓,0.8736693999999261,False,7,-1,1,4
PB041K19,2,128,PS,exp,27,↑,up,↑,0.7428454999999303,True,8,-1,0,4
PB041K19,2,129,PS,exp,40,←,left,←,0.6928364000000329,True,8,1,1,5
PB041K19,2,130,PS,exp,33,↓,right,→,0.739686299999903,False,7,-1,1,6
PB041K19,2,131,PS,exp,44,↑,right,→,0.5901469000000361,False,8,-1,0,6
PB041K19,2,132,PS,exp,49,←,left,←,0.5701248999998825,True,9,-1,0,6
PB041K19,2,133,PS,exp,41,↓,down,↓,0.7975772999998298,True,9,1,1,7
PB041K19,2,134,PS,exp,42,←,down,↓,0.6240278000000217,False,8,-1,1,8
PB041K19,2,135,PS,exp,43,↑,up,↑,0.838346300000012,True,9,-1,0,8
PB041K19,2,136,PS,exp,40,↓,down,↓,0.736841700000241,True,9,1,1,9
PB041K19,2,137,PS,exp,30,←,left,←,0.9631778000002669,True,8,1,0,9
PB041K19,2,138,PS,exp,35,↑,up,↑,0.8485117000000173,True,8,1,0,9
PB041K19,2,139,PS,exp,44,←,left,←,0.7441829999997935,True,7,1,0,9
PB041K19,2,140,PS,exp,34,↓,down,↓,0.5569470000000365,True,7,1,0,9
PB041K19,2,141,PS,exp,31,←,left,←,0.6578100000001541,True,6,1,0,9
PB041K19,2,142,PS,exp,35,↑,up,↑,0.7244785000002594,True,6,1,0,9
PB041K19,2,143,PS,exp,47,→,right,→,0.515623400000095,True,5,1,0,9
PB041K19,2,144,PS,exp,28,←,left,←,0.6904144000000088,True,5,1,0,9
PB041K19,2,145,PS,exp,48,→,left,←,0.7819534999998723,False,4,-1,1,10
PB041K19,2,146,PS,exp,49,←,right,→,0.5937604999999166,False,5,-1,0,10
PB041K19,2,147,PS,exp,36,→,up,↑,0.8013995999999679,False,6,-1,0,10
PB041K19,2,148,PS,exp,47,↓,down,↓,0.8362434000000576,True,7,-1,0,10
PB041K19,2,149,PS,exp,30,→,right,→,0.25040519999993194,True,7,1,1,11
PB041K19,2,150,PS,exp,29,←,left,←,0.395607999999811,True,6,1,0,11
PB041K19,2,151,PS,exp,41,↓,left,←,0.4838522000000012,False,6,-1,1,12
PB041K19,2,152,PS,exp,46,↑,down,↓,1.1872622999999294,False,7,-1,0,12
PB041K19,2,153,PS,exp,46,→,up,↑,0.2171515999998519,False,8,-1,0,12
PB041K19,2,154,PS,exp,39,↑,up,↑,0.7980554000000666,True,9,-1,0,12
PB041K19,2,155,PS,exp,35,↓,down,↓,0.6889486999998553,True,9,1,1,13
PB041K19,2,156,PS,exp,30,↑,up,↑,0.7316710000000057,True,8,1,0,13
PB041K19,2,157,PS,exp,44,←,left,←,0.6466272000002391,True,8,1,0,13
PB041K19,2,158,PS,exp,47,↓,down,↓,0.684917100000348,True,7,1,0,13
PB041K19,2,159,PS,exp,48,↑,up,↑,0.6600134000000253,True,7,1,0,13
PB041K19,2,160,PS,exp,46,↓,right,→,0.7212868999999955,False,6,-1,1,14
PB041K19,3,161,PS,intra_train,46,↑,up,↑,0.5271918000003097,True,10,-,-,-
PB041K19,3,162,PS,intra_train,47,→,right,→,0.5913724000001821,True,10,-,-,-
PB041K19,3,163,PS,intra_train,46,←,left,←,0.5158263000002989,True,10,-,-,-
PB041K19,3,164,PS,intra_train,25,↑,up,↑,0.5871357000000899,True,10,-,-,-
PB041K19,3,165,PS,intra_train,37,→,right,→,0.5988548000000264,True,10,-,-,-
PB041K19,3,166,PS,exp,36,↑,up,↑,0.6399465999998029,True,7,0,0,0
PB041K19,3,167,PS,exp,39,↓,down,↓,0.8722420999997667,True,7,1,0,0
PB041K19,3,168,PS,exp,41,↑,up,↑,0.6003881999999976,True,6,1,0,0
PB041K19,3,169,PS,exp,49,↓,up,↑,0.7330336999998508,False,6,-1,1,1
PB041K19,3,170,PS,exp,41,←,left,←,0.7257933000000776,True,7,-1,0,1
PB041K19,3,171,PS,exp,28,→,right,→,0.6217012000001887,True,7,1,1,2
PB041K19,3,172,PS,exp,47,↓,right,→,0.8844146000001274,False,6,-1,1,3
PB041K19,3,173,PS,exp,36,→,right,→,0.7005526000002646,True,7,-1,0,3
PB041K19,3,174,PS,exp,40,↓,right,→,0.9682060999998612,False,7,-1,0,3
PB041K19,3,175,PS,exp,31,←,left,←,0.5988871999998082,True,8,-1,0,3
PB041K19,3,176,PS,exp,49,↓,right,→,0.7842758000001595,False,8,-1,0,3
PB041K19,3,177,PS,exp,36,←,left,←,0.6044870000000628,True,9,-1,0,3
PB041K19,3,178,PS,exp,32,→,right,→,0.5913606999997683,True,9,1,1,4
PB041K19,3,179,PS,exp,26,↑,left,←,0.6687522000001991,False,8,-1,1,5
PB041K19,3,180,PS,exp,47,←,left,←,0.537706099999923,True,9,-1,0,5
PB041K19,3,181,PS,exp,25,↓,down,↓,0.5578417000001537,True,9,1,1,6
PB041K19,3,182,PS,exp,39,→,right,→,0.5755678999998963,True,8,1,0,6
PB041K19,3,183,PS,exp,43,↑,up,↑,1.020313200000146,True,8,1,0,6
PB041K19,3,184,PS,exp,49,↓,down,↓,0.7181249999998727,True,7,1,0,6
PB041K19,3,185,PS,exp,48,←,left,←,0.6609475999998722,True,7,1,0,6
PB041K19,3,186,PS,exp,29,↓,down,↓,0.6802714000000378,True,6,1,0,6
PB041K19,3,187,PS,exp,44,→,right,→,0.49680990000024394,True,6,1,0,6
PB041K19,3,188,PS,exp,50,←,left,←,0.6524977999997645,True,5,1,0,6
PB041K19,3,189,PS,exp,38,↓,down,↓,0.6091666000002078,True,5,1,0,6
PB041K19,3,190,PS,exp,46,→,right,→,0.5591231000003063,True,4,1,0,6
PB041K19,3,191,PS,exp,42,↓,left,←,0.6891091000002234,False,4,-1,1,7
PB041K19,3,192,PS,exp,25,→,right,→,0.4730376000002252,True,5,-1,0,7
PB041K19,3,193,PS,exp,28,←,left,←,0.7013382999998612,True,5,1,1,8
PB041K19,3,194,PS,exp,30,↑,up,↑,0.763863599999695,True,4,1,0,8
PB041K19,3,195,PS,exp,31,→,right,→,0.5299369000003935,True,4,1,0,8
PB041K19,3,196,PS,exp,33,↑,left,←,0.9260685999997804,False,3,-1,1,9
PB041K19,3,197,PS,exp,36,←,right,→,0.6072143000001233,False,4,-1,0,9
PB041K19,3,198,PS,exp,31,↑,left,←,0.62604440000041,False,5,-1,0,9
PB041K19,3,199,PS,exp,30,↓,down,↓,0.7975564000003033,True,6,-1,0,9
PB041K19,3,200,PS,exp,44,↑,right,→,0.824625400000059,False,6,-1,0,9
PB041K19,3,201,PS,exp,39,↓,down,↓,0.4952671000000919,True,7,-1,0,9
PB041K19,3,202,PS,exp,30,→,right,→,0.5332508999999845,True,7,1,1,10
PB041K19,3,203,PS,exp,43,↑,up,↑,0.7906488999997237,True,6,1,0,10
PB041K19,3,204,PS,exp,46,→,down,↓,0.8475744999996095,False,6,-1,1,11
PB041K19,3,205,PS,exp,30,←,left,←,0.7589511000001039,True,7,-1,0,11
PB041K19,3,206,PS,exp,33,→,right,→,0.5050330000003669,True,7,1,1,12
PB041K19,3,207,PS,exp,42,↓,down,↓,1.013750699999946,True,6,1,0,12
PB041K19,3,208,PS,exp,37,←,left,←,0.5952704999999696,True,6,1,0,12
PB041K19,3,209,PS,exp,28,→,right,→,0.5615423999997802,True,5,1,0,12
PB041K19,3,210,PS,exp,44,↑,up,↑,0.8048119000000042,True,5,1,0,12
PB041K19,3,211,PS,exp,30,→,right,→,0.7685943000001316,True,4,1,0,12
PB041K19,3,212,PS,exp,47,←,left,←,0.771562499999618,True,4,1,0,12
PB041K19,3,213,PS,exp,46,↑,right,→,0.6013474999999744,False,3,-1,1,13
PB041K19,3,214,PS,exp,39,↓,left,←,0.9426140999999006,False,4,-1,0,13
PB041K19,3,215,PS,exp,28,←,right,→,0.6475082000001748,False,5,-1,0,13
PB041K19,3,216,PS,exp,42,→,left,←,0.9864145000001372,False,6,-1,0,13
PB041K19,3,217,PS,exp,35,↑,up,↑,0.6545759000000544,True,7,-1,0,13
PB041K19,3,218,PS,exp,33,↓,down,↓,0.6335063000001355,True,7,1,1,14
PB041K19,4,219,AS,intra_train,46,←,left,←,0.5711197000000539,True,22,-,-,-
PB041K19,4,220,AS,intra_train,26,↑,no_key,no_letter,-1.0,False,22,-,-,-
PB041K19,4,221,AS,intra_train,36,→,right,→,0.7413209999999708,True,22,-,-,-
PB041K19,4,222,AS,intra_train,47,←,left,←,1.760884100000112,True,22,-,-,-
PB041K19,4,223,AS,intra_train,46,→,left,←,1.1698421000000963,False,22,-,-,-
PB041K19,4,224,AS,exp,35,↓,down,↓,0.7089100999996845,True,15,0,0,0
PB041K19,4,225,AS,exp,43,←,up,↑,1.1488438999999744,False,15,-1,0,0
PB041K19,4,226,AS,exp,44,↑,up,↑,1.1770744999998897,True,16,-1,0,0
PB041K19,4,227,AS,exp,49,→,right,→,0.9850350000001526,True,16,1,1,1
PB041K19,4,228,AS,exp,44,↑,up,↑,0.9164958000001207,True,15,1,0,1
PB041K19,4,229,AS,exp,47,↓,down,↓,0.9048446000001604,True,15,1,0,1
PB041K19,4,230,AS,exp,44,↑,down,↓,1.5183451999996578,False,14,-1,1,2
PB041K19,4,231,AS,exp,30,↓,up,↑,0.9676362999998673,False,15,-1,0,2
PB041K19,4,232,AS,exp,35,→,right,→,0.5266220999997131,True,16,-1,0,2
PB041K19,4,233,AS,exp,33,↓,down,↓,0.7214997000000949,True,16,1,1,3
PB041K19,4,234,AS,exp,31,→,down,↓,0.7681874999998399,False,15,-1,1,4
PB041K19,4,235,AS,exp,34,←,left,←,0.6664255000000594,True,16,-1,0,4
PB041K19,4,236,AS,exp,39,↓,down,↓,0.6185571999999411,True,16,1,1,5
PB041K19,4,237,AS,exp,46,↑,up,↑,0.7793886999997994,True,15,1,0,5
PB041K19,4,238,AS,exp,36,←,left,←,0.5677009999999427,True,15,1,0,5
PB041K19,4,239,AS,exp,43,↓,down,↓,0.6693119999999908,True,14,1,0,5
PB041K19,4,240,AS,exp,49,←,left,←,1.052030299999842,True,14,1,0,5
PB041K19,4,241,AS,exp,28,→,right,→,0.6157843999999386,True,13,1,0,5
PB041K19,4,242,AS,exp,32,↓,down,↓,0.5018986000000041,True,13,1,0,5
PB041K19,4,243,AS,exp,39,←,right,→,0.7903369999999086,False,12,-1,1,6
PB041K19,4,244,AS,exp,34,→,right,→,0.768562600000223,True,13,-1,0,6
PB041K19,4,245,AS,exp,45,↑,up,↑,0.6932788999997683,True,13,1,1,7
PB041K19,4,246,AS,exp,37,↓,down,↓,0.8194026999999551,True,12,1,0,7
PB041K19,4,247,AS,exp,29,←,left,←,0.5804878000003555,True,12,1,0,7
PB041K19,4,248,AS,exp,37,→,right,→,0.9092312000002494,True,11,1,0,7
PB041K19,4,249,AS,exp,42,↓,down,↓,0.5534944999999425,True,11,1,0,7
PB041K19,4,250,AS,exp,38,←,left,←,0.6607396999997945,True,10,1,0,7
PB041K19,4,251,AS,exp,38,↓,right,→,0.8128388000000086,False,10,-1,1,8
PB041K19,4,252,AS,exp,32,↑,down,↓,0.8220031000000745,False,11,-1,0,8
PB041K19,4,253,AS,exp,26,←,left,←,0.7989029000000301,True,12,-1,0,8
PB041K19,4,254,AS,exp,30,↓,up,↑,1.054827800000112,False,12,-1,0,8
PB041K19,4,255,AS,exp,47,←,left,←,0.5393803000001753,True,13,-1,0,8
PB041K19,4,256,AS,exp,42,↓,up,↑,1.2452648000003137,False,13,-1,0,8
PB041K19,4,257,AS,exp,25,→,right,→,0.6455544999998892,True,14,-1,0,8
PB041K19,4,258,AS,exp,40,↓,down,↓,0.7771225999999842,True,14,1,1,9
PB041K19,4,259,AS,exp,32,→,right,→,0.7696516999999403,True,13,1,0,9
PB041K19,4,260,AS,exp,31,↓,up,↑,0.9082274000002144,False,13,-1,1,10
PB041K19,4,261,AS,exp,46,→,right,→,0.6015537000002951,True,14,-1,0,10
PB041K19,4,262,AS,exp,39,↑,up,↑,0.8728422999997747,True,14,1,1,11
PB041K19,4,263,AS,exp,28,↓,up,↑,0.8306320000001506,False,13,-1,1,12
PB041K19,4,264,AS,exp,32,→,left,←,0.9968967999998313,False,14,-1,0,12
PB041K19,4,265,AS,exp,49,←,left,←,0.7294018000002325,True,15,-1,0,12
PB041K19,4,266,AS,exp,35,→,right,→,0.612448399999721,True,15,1,1,13
PB041K19,4,267,AS,exp,40,↑,up,↑,0.848225100000036,True,14,1,0,13
PB041K19,4,268,AS,exp,29,↓,down,↓,0.7651182000004155,True,14,1,0,13
PB041K19,4,269,AS,exp,47,↑,up,↑,0.6540305000003173,True,13,1,0,13
PB041K19,4,270,AS,exp,42,←,left,←,0.5871305999999095,True,13,1,0,13
PB041K19,4,271,AS,exp,50,↑,up,↑,0.7020265999999538,True,12,1,0,13
PB041K19,4,272,AS,exp,30,→,right,→,0.7077054000001226,True,12,1,0,13
PB041K19,4,273,AS,exp,25,←,left,←,0.626908000000185,True,11,1,0,13
PB041K19,4,274,AS,exp,48,↑,up,↑,0.5102938999998514,True,11,1,0,13
PB041K19,4,275,AS,exp,28,↓,up,↑,0.9117160000000695,False,10,-1,1,14
PB041K19,5,276,AS,intra_train,30,→,right,→,0.6011309000000438,True,22,-,-,-
PB041K19,5,277,AS,intra_train,29,↑,no_key,no_letter,-1.0,False,22,-,-,-
PB041K19,5,278,AS,intra_train,42,←,left,←,0.6162570000001324,True,22,-,-,-
PB041K19,5,279,AS,intra_train,44,↓,down,↓,0.8517648000001827,True,22,-,-,-
PB041K19,5,280,AS,intra_train,27,→,right,→,0.6691463000001932,True,22,-,-,-
PB041K19,5,281,AS,exp,37,↑,up,↑,0.7270732000001772,True,15,0,0,0
PB041K19,5,282,AS,exp,25,←,right,→,0.7755560000000514,False,15,-1,0,0
PB041K19,5,283,AS,exp,28,↑,up,↑,0.4566027999999278,True,16,-1,0,0
PB041K19,5,284,AS,exp,47,↓,right,→,0.9437855999999556,False,16,-1,0,0
PB041K19,5,285,AS,exp,34,↑,up,↑,0.4901574000000437,True,17,-1,0,0
PB041K19,5,286,AS,exp,50,←,left,←,0.5636234999997214,True,17,1,1,1
PB041K19,5,287,AS,exp,28,↑,right,→,0.7527424999998402,False,16,-1,1,2
PB041K19,5,288,AS,exp,27,→,right,→,0.5429213000002164,True,17,-1,0,2
PB041K19,5,289,AS,exp,40,↓,right,→,0.849518800000169,False,17,-1,0,2
PB041K19,5,290,AS,exp,25,→,right,→,0.8823302999999214,True,18,-1,0,2
PB041K19,5,291,AS,exp,26,↓,down,↓,0.7560471000001598,True,18,1,1,3
PB041K19,5,292,AS,exp,36,→,no_key,no_letter,-1.0,False,17,-1,1,4
PB041K19,5,293,AS,exp,39,←,right,→,0.8810413999999582,False,18,-1,0,4
PB041K19,5,294,AS,exp,30,↓,down,↓,0.788285999999971,True,19,-1,0,4
PB041K19,5,295,AS,exp,42,←,left,←,1.0918899000002966,True,19,1,1,5
PB041K19,5,296,AS,exp,33,↓,down,↓,0.8045853999997234,True,18,1,0,5
PB041K19,5,297,AS,exp,33,↑,up,↑,0.7370145999998385,True,18,1,0,5
PB041K19,5,298,AS,exp,30,←,right,→,1.2068612000002759,False,17,-1,1,6
PB041K19,5,299,AS,exp,43,→,down,↓,1.0145980000002055,False,18,-1,0,6
PB041K19,5,300,AS,exp,39,↓,down,↓,0.6566698999999971,True,19,-1,0,6
PB041K19,5,301,AS,exp,39,←,left,←,1.0326728999998522,True,19,1,1,7
PB041K19,5,302,AS,exp,38,→,right,→,0.5981823000001896,True,18,1,0,7
PB041K19,5,303,AS,exp,46,↓,down,↓,0.6455952000001162,True,18,1,0,7
PB041K19,5,304,AS,exp,29,→,right,→,0.6465097000000242,True,17,1,0,7
PB041K19,5,305,AS,exp,41,↓,down,↓,0.5102208000002975,True,17,1,0,7
PB041K19,5,306,AS,exp,39,↑,left,←,1.4587601000002905,False,16,-1,1,8
PB041K19,5,307,AS,exp,25,→,right,→,0.6167429000001903,True,17,-1,0,8
PB041K19,5,308,AS,exp,46,←,left,←,1.2692493999998078,True,17,1,1,9
PB041K19,5,309,AS,exp,37,↑,left,←,1.001090799999929,False,16,-1,1,10
PB041K19,5,310,AS,exp,34,←,left,←,0.7684541999997236,True,17,-1,0,10
PB041K19,5,311,AS,exp,38,↓,down,↓,1.040497900000446,True,17,1,1,11
PB041K19,5,312,AS,exp,30,←,left,←,0.7784408999996231,True,16,1,0,11
PB041K19,5,313,AS,exp,36,→,right,→,0.5450212999999167,True,16,1,0,11
PB041K19,5,314,AS,exp,25,←,right,→,0.8402697999999873,False,15,-1,1,12
PB041K19,5,315,AS,exp,44,↓,down,↓,0.5305343999998513,True,16,-1,0,12
PB041K19,5,316,AS,exp,39,↑,down,↓,0.9312012999998842,False,16,-1,0,12
PB041K19,5,317,AS,exp,49,←,left,←,0.8948651999999129,True,17,-1,0,12
PB041K19,5,318,AS,exp,32,↓,down,↓,0.544333800000004,True,17,1,1,13
PB041K19,5,319,AS,exp,44,←,left,←,0.551311799999894,True,16,1,0,13
PB041K19,5,320,AS,exp,43,↓,down,↓,0.5140446000000338,True,16,1,0,13
PB041K19,5,321,AS,exp,26,↑,up,↑,1.3137630000001081,True,15,1,0,13
PB041K19,5,322,AS,exp,36,←,left,←,0.9649623999998767,True,15,1,0,13
PB041K19,5,323,AS,exp,25,↓,down,↓,0.9400002000002132,True,14,1,0,13
PB041K19,5,324,AS,exp,34,←,left,←,0.7952629999999772,True,14,1,0,13
PB041K19,5,325,AS,exp,31,↑,up,↑,0.7745724000001246,True,13,1,0,13
PB041K19,5,326,AS,exp,42,→,left,←,0.8114151000004313,False,13,-1,1,14
PB041K19,6,327,PS,intra_train,41,←,left,←,0.6173907000002146,True,10,-,-,-
PB041K19,6,328,PS,intra_train,44,↑,up,↑,0.5782765000003565,True,10,-,-,-
PB041K19,6,329,PS,intra_train,42,→,right,→,0.5894035000001168,True,10,-,-,-
PB041K19,6,330,PS,intra_train,29,↑,up,↑,0.6388809999998557,True,10,-,-,-
PB041K19,6,331,PS,intra_train,30,↓,down,↓,0.7642186999996738,True,10,-,-,-
PB041K19,6,332,PS,exp,39,←,left,←,0.5577020999999149,True,7,0,0,0
PB041K19,6,333,PS,exp,34,→,right,→,0.6920144999999138,True,7,1,0,0
PB041K19,6,334,PS,exp,45,↓,down,↓,0.6219361999997091,True,6,1,0,0
PB041K19,6,335,PS,exp,34,↑,up,↑,0.7109128000001874,True,6,1,0,0
PB041K19,6,336,PS,exp,27,→,up,↑,1.3186209000000417,False,5,-1,1,1
PB041K19,6,337,PS,exp,46,↑,no_key,no_letter,-1.0,False,6,-1,0,1
PB041K19,6,338,PS,exp,45,↓,down,↓,0.7147733000001608,True,7,-1,0,1
PB041K19,6,339,PS,exp,35,→,down,↓,1.037545599999703,False,7,-1,0,1
PB041K19,6,340,PS,exp,50,↑,down,↓,0.6879309000000831,False,8,-1,0,1
PB041K19,6,341,PS,exp,39,←,left,←,0.5893826000001354,True,9,-1,0,1
PB041K19,6,342,PS,exp,27,↑,down,↓,1.409302999999909,False,9,-1,0,1
PB041K19,6,343,PS,exp,49,↓,down,↓,0.4529747999999927,True,10,-1,0,1
PB041K19,6,344,PS,exp,38,←,left,←,0.5947903999999653,True,10,1,1,2
PB041K19,6,345,PS,exp,34,↑,up,↑,0.6595594999998866,True,9,1,0,2
PB041K19,6,346,PS,exp,33,↓,down,↓,0.6619816999996146,True,9,1,0,2
PB041K19,6,347,PS,exp,31,↑,up,↑,0.7140070999998898,True,8,1,0,2
PB041K19,6,348,PS,exp,29,←,up,↑,0.9084047999999711,False,8,-1,1,3
PB041K19,6,349,PS,exp,38,↑,down,↓,0.9243785999997272,False,9,-1,0,3
PB041K19,6,350,PS,exp,28,↓,up,↑,0.7740926999999829,False,10,-1,0,3
PB041K19,6,351,PS,exp,50,←,left,←,0.5603762000000643,True,11,-1,0,3
PB041K19,6,352,PS,exp,36,↓,down,↓,0.637341699999979,True,11,1,1,4
PB041K19,6,353,PS,exp,37,↑,up,↑,0.6353538000003027,True,10,1,0,4
PB041K19,6,354,PS,exp,25,↓,down,↓,0.6411713000002237,True,10,1,0,4
PB041K19,6,355,PS,exp,35,→,right,→,0.6340979000001425,True,9,1,0,4
PB041K19,6,356,PS,exp,46,↑,up,↑,0.5999523999998928,True,9,1,0,4
PB041K19,6,357,PS,exp,38,←,left,←,0.5154225999999653,True,8,1,0,4
PB041K19,6,358,PS,exp,41,→,right,→,0.5353517999997166,True,8,1,0,4
PB041K19,6,359,PS,exp,42,↑,up,↑,0.7072539999999208,True,7,1,0,4
PB041K19,6,360,PS,exp,46,→,no_key,no_letter,-1.0,False,7,-1,1,5
PB041K19,6,361,PS,exp,50,↑,right,→,0.6034420000000864,False,8,-1,0,5
PB041K19,6,362,PS,exp,36,→,right,→,0.7557615000000624,True,9,-1,0,5
PB041K19,6,363,PS,exp,26,↑,up,↑,0.5491459999998369,True,9,1,1,6
PB041K19,6,364,PS,exp,49,↓,up,↑,0.6184078000001136,False,8,-1,1,7
PB041K19,6,365,PS,exp,49,↑,up,↑,0.5673354000000472,True,9,-1,0,7
PB041K19,6,366,PS,exp,27,→,right,→,0.5237557999998899,True,9,1,1,8
PB041K19,6,367,PS,exp,25,↑,up,↑,0.5328964000000269,True,8,1,0,8
PB041K19,6,368,PS,exp,32,→,right,→,0.4186898000002657,True,8,1,0,8
PB041K19,6,369,PS,exp,39,↓,down,↓,0.732491299999765,True,7,1,0,8
PB041K19,6,370,PS,exp,31,←,down,↓,0.8130220000002737,False,7,-1,1,9
PB041K19,6,371,PS,exp,48,↑,right,→,0.4430071999995562,False,8,-1,0,9
PB041K19,6,372,PS,exp,49,←,left,←,0.7874047999998766,True,9,-1,0,9
PB041K19,6,373,PS,exp,29,↑,up,↑,0.7130395999997745,True,9,1,1,10
PB041K19,6,374,PS,exp,29,→,right,→,0.4920928000001368,True,8,1,0,10
PB041K19,6,375,PS,exp,45,←,left,←,0.571825600000011,True,8,1,0,10
PB041K19,6,376,PS,exp,36,↓,down,↓,0.7004691000001912,True,7,1,0,10
PB041K19,6,377,PS,exp,29,↑,up,↑,0.6215433000002122,True,7,1,0,10
PB041K19,6,378,PS,exp,45,←,left,←,0.5398365999999442,True,6,1,0,10
PB041K19,6,379,PS,exp,39,↓,down,↓,0.6153864000002613,True,6,1,0,10
PB041K19,6,380,PS,exp,25,→,right,→,0.5498019999999997,True,5,1,0,10
PB041K19,6,381,PS,exp,43,↓,no_key,no_letter,-1.0,False,5,-1,1,11
PB041K19,6,382,PS,exp,42,←,left,←,0.5974322000001848,True,6,-1,0,11
PB041K19,6,383,PS,exp,35,↓,no_key,no_letter,-1.0,False,6,-1,0,11
PB041K19,6,384,PS,exp,27,↑,up,↑,0.588213099999848,True,7,-1,0,11
PB041K19,6,385,PS,exp,28,←,left,←,0.4919807999999648,True,7,1,1,12
PB041K19,6,386,PS,exp,50,→,right,→,0.5288519000000633,True,6,1,0,12
PB041K19,6,387,PS,exp,28,↑,left,←,0.6543249999999716,False,6,-1,1,13
PB041K19,6,388,PS,exp,41,→,right,→,0.6121579000000565,True,7,-1,0,13
PB041K19,6,389,PS,exp,33,↓,no_key,no_letter,-1.0,False,7,-1,0,13
PB041K19,6,390,PS,exp,46,↑,up,↑,0.6887961000002178,True,8,-1,0,13
PB041K19,6,391,PS,exp,34,→,up,↑,0.8519260999996732,False,8,-1,0,13
PB041K19,6,392,PS,exp,48,←,right,→,0.8104551000001265,False,9,-1,0,13
PB041K19,6,393,PS,exp,41,↑,up,↑,0.5031951999999364,True,10,-1,0,13
PB041K19,6,394,PS,exp,32,→,right,→,0.5055084000000534,True,10,1,1,14
PB041K19,7,395,PS,intra_train,38,←,left,←,1.628759700000046,True,10,-,-,-
PB041K19,7,396,PS,intra_train,49,→,right,→,0.4787464999999429,True,10,-,-,-
PB041K19,7,397,PS,intra_train,34,←,left,←,0.45115020000002914,True,10,-,-,-
PB041K19,7,398,PS,intra_train,34,→,right,→,0.9247030999999879,True,10,-,-,-
PB041K19,7,399,PS,intra_train,48,←,left,←,0.5781787999999324,True,10,-,-,-
PB041K19,7,400,PS,exp,41,→,right,→,0.4813467999997556,True,7,0,0,0
PB041K19,7,401,PS,exp,47,←,left,←,0.5438851000003524,True,7,1,0,0
PB041K19,7,402,PS,exp,26,→,right,→,0.5309349000003749,True,6,1,0,0
PB041K19,7,403,PS,exp,32,↑,right,→,0.5402610999999524,False,6,-1,1,1
PB041K19,7,404,PS,exp,29,→,left,←,0.6547467000000324,False,7,-1,0,1
PB041K19,7,405,PS,exp,28,↑,up,↑,0.4773462000002837,True,8,-1,0,1
PB041K19,7,406,PS,exp,33,↓,down,↓,0.5401758000002701,True,8,1,1,2
PB041K19,7,407,PS,exp,33,→,right,→,0.3756035999999767,True,7,1,0,2
PB041K19,7,408,PS,exp,38,←,left,←,0.46192480000036085,True,7,1,0,2
PB041K19,7,409,PS,exp,37,↑,up,↑,0.4759389000000738,True,6,1,0,2
PB041K19,7,410,PS,exp,42,←,left,←,0.6019987999998193,True,6,1,0,2
PB041K19,7,411,PS,exp,32,↑,down,↓,0.5885170000001381,False,5,-1,1,3
PB041K19,7,412,PS,exp,28,←,right,→,0.18376130000024204,False,6,-1,0,3
PB041K19,7,413,PS,exp,28,↓,down,↓,0.6854825000000346,True,7,-1,0,3
PB041K19,7,414,PS,exp,27,→,right,→,0.5474199000000226,True,7,1,1,4
PB041K19,7,415,PS,exp,28,↑,up,↑,0.4740607000003365,True,6,1,0,4
PB041K19,7,416,PS,exp,45,←,left,←,0.688137000000097,True,6,1,0,4
PB041K19,7,417,PS,exp,29,↓,left,←,0.7012818999996853,False,5,-1,1,5
PB041K19,7,418,PS,exp,39,→,right,→,0.5258903000003556,True,6,-1,0,5
PB041K19,7,419,PS,exp,40,↑,up,↑,0.4615563000002112,True,6,1,1,6
PB041K19,7,420,PS,exp,26,←,down,↓,0.6150005999998029,False,5,-1,1,7
PB041K19,7,421,PS,exp,44,↓,down,↓,0.4846127000000706,True,6,-1,0,7
PB041K19,7,422,PS,exp,44,→,down,↓,0.5829509999998663,False,6,-1,0,7
PB041K19,7,423,PS,exp,29,←,left,←,0.7394924000000174,True,7,-1,0,7
PB041K19,7,424,PS,exp,25,→,left,←,0.580906799999866,False,7,-1,0,7
PB041K19,7,425,PS,exp,39,↓,down,↓,0.4853208000004088,True,8,-1,0,7
PB041K19,7,426,PS,exp,27,←,left,←,0.551965100000416,True,8,1,1,8
PB041K19,7,427,PS,exp,38,↓,down,↓,0.5178800999997293,True,7,1,0,8
PB041K19,7,428,PS,exp,44,↑,up,↑,0.7300784999997632,True,7,1,0,8
PB041K19,7,429,PS,exp,49,↓,down,↓,0.6994953999997051,True,6,1,0,8
PB041K19,7,430,PS,exp,44,←,left,←,0.62612769999987,True,6,1,0,8
PB041K19,7,431,PS,exp,43,→,right,→,0.6272928999997021,True,5,1,0,8
PB041K19,7,432,PS,exp,48,←,left,←,0.7400870000001305,True,5,1,0,8
PB041K19,7,433,PS,exp,43,↑,right,→,0.6077972999996746,False,4,-1,1,9
PB041K19,7,434,PS,exp,44,→,right,→,0.4913265999998657,True,5,-1,0,9
PB041K19,7,435,PS,exp,50,↑,left,←,0.5797064000003047,False,5,-1,0,9
PB041K19,7,436,PS,exp,33,→,right,→,0.5593257999998968,True,6,-1,0,9
PB041K19,7,437,PS,exp,49,←,left,←,0.4932707000002665,True,6,1,1,10
PB041K19,7,438,PS,exp,36,→,right,→,0.4658959000003051,True,5,1,0,10
PB041K19,7,439,PS,exp,49,↓,right,→,0.28275570000005246,False,5,-1,1,11
PB041K19,7,440,PS,exp,25,↑,down,↓,0.5478628999999273,False,6,-1,0,11
PB041K19,7,441,PS,exp,25,←,left,←,0.5937236999998277,True,7,-1,0,11
PB041K19,7,442,PS,exp,32,→,right,→,0.4233937999997579,True,7,1,1,12
PB041K19,7,443,PS,exp,33,↓,down,↓,0.5739149999999427,True,6,1,0,12
PB041K19,7,444,PS,exp,44,→,right,→,0.5113599000001159,True,6,1,0,12
PB041K19,7,445,PS,exp,28,↑,left,←,0.680945900000097,False,5,-1,1,13
PB041K19,7,446,PS,exp,50,→,right,→,0.44407300000011674,True,6,-1,0,13
PB041K19,7,447,PS,exp,43,↑,up,↑,0.7475985999999466,True,6,1,1,14
PB041K19,8,448,AS,intra_train,30,↓,down,↓,0.587785900000199,True,22,-,-,-
PB041K19,8,449,AS,intra_train,46,→,right,→,0.5589701999997487,True,22,-,-,-
PB041K19,8,450,AS,intra_train,26,↑,up,↑,0.824182600000313,True,22,-,-,-
PB041K19,8,451,AS,intra_train,50,↓,down,↓,0.8110999999998967,True,22,-,-,-
PB041K19,8,452,AS,intra_train,40,←,left,←,0.7208749999999782,True,22,-,-,-
PB041K19,8,453,AS,exp,40,→,right,→,0.6951963000001342,True,15,0,0,0
PB041K19,8,454,AS,exp,48,↑,right,→,0.8013731000000917,False,15,-1,0,0
PB041K19,8,455,AS,exp,36,↓,down,↓,0.8627113999996254,True,16,-1,0,0
PB041K19,8,456,AS,exp,34,←,left,←,0.5343898000000991,True,16,1,1,1
PB041K19,8,457,AS,exp,29,↓,down,↓,0.6765442999999323,True,15,1,0,1
PB041K19,8,458,AS,exp,44,↑,no_key,no_letter,-1.0,False,15,-1,1,2
PB041K19,8,459,AS,exp,41,←,right,→,0.8454994999997325,False,16,-1,0,2
PB041K19,8,460,AS,exp,48,→,right,→,0.7176872000000003,True,17,-1,0,2
PB041K19,8,461,AS,exp,46,↑,up,↑,0.7286497000000054,True,17,1,1,3
PB041K19,8,462,AS,exp,34,←,left,←,0.7063543999997819,True,16,1,0,3
PB041K19,8,463,AS,exp,25,→,no_key,no_letter,-1.0,False,16,-1,1,4
PB041K19,8,464,AS,exp,37,↓,down,↓,0.6831763999998657,True,17,-1,0,4
PB041K19,8,465,AS,exp,36,→,left,←,0.6681287000001248,False,17,-1,0,4
PB041K19,8,466,AS,exp,26,←,left,←,0.4978273000001536,True,18,-1,0,4
PB041K19,8,467,AS,exp,27,↑,up,↑,0.8784198999996988,True,18,1,1,5
PB041K19,8,468,AS,exp,26,←,left,←,0.6615729000000101,True,17,1,0,5
PB041K19,8,469,AS,exp,36,↑,up,↑,0.6792242999999871,True,17,1,0,5
PB041K19,8,470,AS,exp,38,←,left,←,0.4721994999999879,True,16,1,0,5
PB041K19,8,471,AS,exp,47,↓,down,↓,0.6353984000002129,True,16,1,0,5
PB041K19,8,472,AS,exp,48,→,right,→,0.8531270999997105,True,15,1,0,5
PB041K19,8,473,AS,exp,33,↑,up,↑,0.946675900000173,True,15,1,0,5
PB041K19,8,474,AS,exp,34,↓,down,↓,1.0378398000002562,True,14,1,0,5
PB041K19,8,475,AS,exp,44,→,left,←,0.8569147999996858,False,14,-1,1,6
PB041K19,8,476,AS,exp,32,←,right,→,0.6521734999996625,False,15,-1,0,6
PB041K19,8,477,AS,exp,35,↑,up,↑,0.47705980000000636,True,16,-1,0,6
PB041K19,8,478,AS,exp,37,→,left,←,0.7536834000002273,False,16,-1,0,6
PB041K19,8,479,AS,exp,29,↑,up,↑,0.521786499999962,True,17,-1,0,6
PB041K19,8,480,AS,exp,42,→,right,→,0.4593979000001127,True,17,1,1,7
PB041K19,8,481,AS,exp,37,↑,up,↑,0.45403940000005605,True,16,1,0,7
PB041K19,8,482,AS,exp,43,↓,up,↑,0.4002549000001636,False,16,-1,1,8
PB041K19,8,483,AS,exp,39,→,right,→,0.6857264999998733,True,17,-1,0,8
PB041K19,8,484,AS,exp,25,↓,down,↓,0.41678909999973257,True,17,1,1,9
PB041K19,8,485,AS,exp,44,→,right,→,0.5655370999998013,True,16,1,0,9
PB041K19,8,486,AS,exp,43,←,left,←,1.1374092000000928,True,16,1,0,9
PB041K19,8,487,AS,exp,29,↑,up,↑,0.6359522000002471,True,15,1,0,9
PB041K19,8,488,AS,exp,38,↓,right,→,0.7585214000000633,False,15,-1,1,10
PB041K19,8,489,AS,exp,25,→,right,→,0.5311772000000019,True,16,-1,0,10
PB041K19,8,490,AS,exp,40,←,left,←,0.4742818999998235,True,16,1,1,11
PB041K19,8,491,AS,exp,31,↓,down,↓,0.9285405999999057,True,15,1,0,11
PB041K19,8,492,AS,exp,38,↑,down,↓,0.8922155000000203,False,15,-1,1,12
PB041K19,8,493,AS,exp,27,→,right,→,0.4385900999996011,True,16,-1,0,12
PB041K19,8,494,AS,exp,49,←,left,←,0.7220382000000427,True,16,1,1,13
PB041K19,8,495,AS,exp,42,↑,up,↑,0.8070701000001463,True,15,1,0,13
PB041K19,8,496,AS,exp,48,↓,down,↓,0.698562800000218,True,15,1,0,13
PB041K19,8,497,AS,exp,31,↑,up,↑,0.6491629000001922,True,14,1,0,13
PB041K19,8,498,AS,exp,37,↓,up,↑,0.8337040000001252,False,14,-1,1,14
