PART_ID,Block_no,Trial_no,Block_type,Trial_type,CSI,Stim_letter,Key_pressed,letter_choose,Rt,Corr,Stimulus Time,Level,Reversal,Revs_count
PB058K40,1,1,PS,train,33,↑,left,←,1.5874524000100791,False,30,-,-,-
PB058K40,1,2,PS,train,36,→,right,→,0.9460734999738634,True,30,-,-,-
PB058K40,1,3,PS,train,48,↓,left,←,0.6698825999628752,False,30,-,-,-
PB058K40,1,4,PS,train,31,↑,no_key,no_letter,-1.0,False,30,-,-,-
PB058K40,1,5,PS,train,45,→,right,→,1.0108152999309823,True,30,-,-,-
PB058K40,1,6,PS,train,35,←,left,←,0.8462342999409884,True,30,-,-,-
PB058K40,1,7,PS,train,30,↓,left,←,0.9398817999754101,False,30,-,-,-
PB058K40,1,8,PS,train,49,↑,left,←,0.8406887999735773,False,30,-,-,-
PB058K40,1,9,PS,train,25,→,right,→,0.8089431000407785,True,30,-,-,-
PB058K40,1,10,PS,train,45,↓,right,→,1.508729499997571,False,30,-,-,-
PB058K40,2,11,AS,train,27,←,left,←,2.3209301999304444,True,45,-,-,-
PB058K40,2,12,AS,train,31,↑,left,←,0.6845879999455065,False,45,-,-,-
PB058K40,2,13,AS,train,46,→,left,←,1.854696199996397,False,45,-,-,-
PB058K40,2,14,AS,train,29,↓,left,←,1.882111300015822,False,45,-,-,-
PB058K40,2,15,AS,train,28,→,right,→,1.1680153999477625,True,45,-,-,-
PB058K40,2,16,AS,train,41,←,left,←,1.1658995000179857,True,45,-,-,-
PB058K40,2,17,AS,train,28,→,left,←,1.4114662000210956,False,45,-,-,-
PB058K40,2,18,AS,train,49,←,right,→,1.4495963999070227,False,45,-,-,-
PB058K40,2,19,AS,train,40,→,right,→,1.9766781999496743,True,45,-,-,-
PB058K40,2,20,AS,train,42,↑,right,→,1.224534900044091,False,45,-,-,-
PB058K40,-,21,PS,adaptive,30,←,left,←,1.6830976998899132,True,10,0,0,0
PB058K40,-,22,PS,adaptive,28,→,left,←,1.4124585000099614,False,10,-1,0,0
PB058K40,-,23,PS,adaptive,45,↓,left,←,0.9426866999128833,False,11,-1,0,0
PB058K40,-,24,PS,adaptive,25,↑,right,→,1.3088865999598056,False,12,-1,0,0
PB058K40,-,25,PS,adaptive,37,←,left,←,1.1134076999733225,True,13,-1,0,0
PB058K40,-,26,PS,adaptive,43,→,left,←,1.3919343000743538,False,13,-1,0,0
PB058K40,-,27,PS,adaptive,35,←,right,→,1.2811204999452457,False,14,-1,0,0
PB058K40,-,28,PS,adaptive,39,→,right,→,1.106976900016889,True,15,-1,0,0
PB058K40,-,29,PS,adaptive,30,←,left,←,1.2187959000002593,True,15,1,1,1
PB058K40,-,30,PS,adaptive,49,↑,right,→,1.0497054998995736,False,14,-1,1,2
PB058K40,-,31,PS,adaptive,44,←,right,→,1.3160275999689475,False,15,-1,0,2
PB058K40,-,32,PS,adaptive,45,↑,right,→,1.3389098000479862,False,16,-1,0,2
PB058K40,-,33,PS,adaptive,48,↓,right,→,1.42098709999118,False,17,-1,0,2
PB058K40,-,34,PS,adaptive,35,→,right,→,0.8882317999377847,True,18,-1,0,2
PB058K40,-,35,PS,adaptive,41,↓,left,←,1.2729310999857262,False,18,-1,0,2
PB058K40,-,36,PS,adaptive,29,→,right,→,1.579155300045386,True,19,-1,0,2
PB058K40,-,37,PS,adaptive,40,←,right,→,1.519198799971491,False,19,-1,0,2
PB058K40,-,38,PS,adaptive,40,↑,up,↑,1.7064862999832258,True,20,-1,0,2
PB058K40,-,39,PS,adaptive,42,←,left,←,1.3745493000606075,True,20,1,1,3
PB058K40,-,40,PS,adaptive,32,→,right,→,0.8789715000893921,True,19,1,0,3
PB058K40,-,41,PS,adaptive,40,←,left,←,1.098020999925211,True,19,1,0,3
PB058K40,-,42,PS,adaptive,34,→,right,→,0.922661199932918,True,18,1,0,3
PB058K40,-,43,PS,adaptive,33,←,left,←,0.8371835999423638,True,18,1,0,3
PB058K40,-,44,PS,adaptive,32,→,right,→,1.0847686999477446,True,17,1,0,3
PB058K40,-,45,PS,adaptive,38,←,left,←,1.1734269000589848,True,17,1,0,3
PB058K40,-,46,PS,adaptive,34,→,right,→,0.862298300024122,True,16,1,0,3
PB058K40,-,47,PS,adaptive,33,↓,down,↓,1.0975042999489233,True,16,1,0,3
PB058K40,-,48,PS,adaptive,26,←,left,←,0.9447020000079647,True,15,1,0,3
PB058K40,-,49,PS,adaptive,50,↑,up,↑,1.5480484999716282,True,15,1,0,3
PB058K40,-,50,PS,adaptive,27,↓,down,↓,1.0696591000305489,True,14,1,0,3
PB058K40,-,51,PS,adaptive,27,→,right,→,1.0345406000269577,True,14,1,0,3
PB058K40,-,52,PS,adaptive,45,←,left,←,0.8380482000065967,True,13,1,0,3
PB058K40,-,53,PS,adaptive,30,↓,down,↓,0.983052600058727,True,13,1,0,3
PB058K40,-,54,PS,adaptive,40,←,left,←,1.0188344999914989,True,12,1,0,3
PB058K40,-,55,PS,adaptive,42,↓,down,↓,0.9605871000094339,True,12,1,0,3
PB058K40,-,56,PS,adaptive,33,←,right,→,1.0065513999434188,False,11,-1,1,4
PB058K40,-,57,AS,adaptive,49,→,left,←,1.4539949999889359,False,20,-1,0,0
PB058K40,-,58,AS,adaptive,43,↑,down,↓,1.2485976999159902,False,21,-1,0,0
PB058K40,-,59,AS,adaptive,31,↓,left,←,1.424676000024192,False,22,-1,0,0
PB058K40,-,60,AS,adaptive,45,←,right,→,1.3776978000532836,False,23,-1,0,0
PB058K40,-,61,AS,adaptive,30,→,left,←,1.6197383999824524,False,24,-1,0,0
PB058K40,-,62,AS,adaptive,44,↓,right,→,1.380532699986361,False,25,-1,0,0
PB058K40,-,63,AS,adaptive,41,↑,up,↑,1.6785979999694973,True,26,-1,0,0
PB058K40,-,64,AS,adaptive,45,→,right,→,1.1976533000124618,True,26,1,1,1
PB058K40,-,65,AS,adaptive,50,↓,down,↓,1.6602546999929473,True,25,1,0,1
PB058K40,-,66,AS,adaptive,30,↑,right,→,1.3244038000702858,False,25,-1,1,2
PB058K40,-,67,AS,adaptive,43,←,left,←,1.1071078999666497,True,26,-1,0,2
PB058K40,-,68,AS,adaptive,28,↑,down,↓,1.7792581000830978,False,26,-1,0,2
PB058K40,-,69,AS,adaptive,30,←,left,←,0.9954928999068215,True,27,-1,0,2
PB058K40,-,70,AS,adaptive,38,→,right,→,1.1611940000439063,True,27,1,1,3
PB058K40,-,71,AS,adaptive,48,←,right,→,1.4343662000028417,False,26,-1,1,4
PB058K40,1,72,PS,intra_train,49,→,right,→,0.9417760000796989,True,18,-,-,-
PB058K40,1,73,PS,intra_train,32,↓,down,↓,1.1817997000180185,True,18,-,-,-
PB058K40,1,74,PS,intra_train,45,←,left,←,1.004399099969305,True,18,-,-,-
PB058K40,1,75,PS,intra_train,37,↓,down,↓,1.0623461999930441,True,18,-,-,-
PB058K40,1,76,PS,intra_train,42,←,left,←,0.8883466999977827,True,18,-,-,-
PB058K40,1,77,PS,exp,29,→,right,→,0.9200241999933496,True,12,0,0,0
PB058K40,1,78,PS,exp,41,←,left,←,0.9910441000247374,True,12,1,0,0
PB058K40,1,79,PS,exp,31,↓,down,↓,1.505528200068511,True,11,1,0,0
PB058K40,1,80,PS,exp,41,→,right,→,0.9068540999433026,True,11,1,0,0
PB058K40,1,81,PS,exp,25,↑,up,↑,1.094327500090003,True,10,1,0,0
PB058K40,1,82,PS,exp,31,↓,down,↓,0.857371799997054,True,10,1,0,0
PB058K40,1,83,PS,exp,46,→,right,→,0.9213124000234529,True,9,1,0,0
PB058K40,1,84,PS,exp,45,←,left,←,1.0420161000220105,True,9,1,0,0
PB058K40,1,85,PS,exp,27,→,right,→,0.8916251000482589,True,8,1,0,0
PB058K40,1,86,PS,exp,33,↓,down,↓,0.875737699912861,True,8,1,0,0
PB058K40,1,87,PS,exp,26,→,right,→,0.9343897000653669,True,7,1,0,0
PB058K40,1,88,PS,exp,49,←,left,←,1.029021400026977,True,7,1,0,0
PB058K40,1,89,PS,exp,40,↑,down,↓,0.9638506000628695,False,6,-1,1,1
PB058K40,1,90,PS,exp,41,←,left,←,0.963870600098744,True,7,-1,0,1
PB058K40,1,91,PS,exp,45,↑,left,←,1.1563006000360474,False,7,-1,0,1
PB058K40,1,92,PS,exp,29,←,left,←,0.9517222000285983,True,8,-1,0,1
PB058K40,1,93,PS,exp,43,↑,up,↑,0.9448271999135613,True,8,1,1,2
PB058K40,1,94,PS,exp,39,←,left,←,0.9926314000040293,True,7,1,0,2
PB058K40,1,95,PS,exp,30,↓,down,↓,0.986365299904719,True,7,1,0,2
PB058K40,1,96,PS,exp,45,↑,up,↑,0.9256212000036612,True,6,1,0,2
PB058K40,1,97,PS,exp,32,↓,down,↓,0.8892538000363857,True,6,1,0,2
PB058K40,1,98,PS,exp,37,←,left,←,0.872634100029245,True,5,1,0,2
PB058K40,1,99,PS,exp,46,↓,right,→,1.1568797000218183,False,5,-1,1,3
PB058K40,1,100,PS,exp,29,↑,left,←,1.0320444999961182,False,6,-1,0,3
PB058K40,1,101,PS,exp,48,→,down,↓,0.9086950999917462,False,7,-1,0,3
PB058K40,1,102,PS,exp,42,←,left,←,0.9325839000521228,True,8,-1,0,3
PB058K40,1,103,PS,exp,37,↓,down,↓,0.9905887000495568,True,8,1,1,4
PB058K40,1,104,PS,exp,50,↑,down,↓,1.411459300084971,False,7,-1,1,5
PB058K40,1,105,PS,exp,33,↓,down,↓,0.832695999997668,True,8,-1,0,5
PB058K40,1,106,PS,exp,28,↑,down,↓,0.8733864999376237,False,8,-1,0,5
PB058K40,1,107,PS,exp,31,←,down,↓,1.1305141999619082,False,9,-1,0,5
PB058K40,1,108,PS,exp,42,↑,down,↓,1.2268753999378532,False,10,-1,0,5
PB058K40,1,109,PS,exp,42,←,left,←,0.9452188999857754,True,11,-1,0,5
PB058K40,1,110,PS,exp,35,↑,down,↓,1.013773599988781,False,11,-1,0,5
PB058K40,1,111,PS,exp,46,→,down,↓,0.9929384000133723,False,12,-1,0,5
PB058K40,1,112,PS,exp,33,↓,down,↓,1.0629423999926075,True,13,-1,0,5
PB058K40,1,113,PS,exp,30,↑,down,↓,0.9294961000559852,False,13,-1,0,5
PB058K40,1,114,PS,exp,27,↓,down,↓,0.8174146999372169,True,14,-1,0,5
PB058K40,1,115,PS,exp,33,↑,up,↑,0.9091446999227628,True,14,1,1,6
PB058K40,1,116,PS,exp,34,→,left,←,1.1014775999356061,False,13,-1,1,7
PB058K40,1,117,PS,exp,49,↑,down,↓,0.9381460000295192,False,14,-1,0,7
PB058K40,1,118,PS,exp,25,↓,down,↓,0.954705800046213,True,15,-1,0,7
PB058K40,1,119,PS,exp,45,↑,up,↑,0.9930697999661788,True,15,1,1,8
PB058K40,1,120,PS,exp,32,←,left,←,1.0710244999499992,True,14,1,0,8
PB058K40,1,121,PS,exp,30,↑,up,↑,1.097519199945964,True,14,1,0,8
PB058K40,1,122,PS,exp,46,↓,down,↓,0.9010881000431255,True,13,1,0,8
PB058K40,1,123,PS,exp,35,→,right,→,0.8208590000867844,True,13,1,0,8
PB058K40,1,124,PS,exp,36,↑,down,↓,1.1928559000371024,False,12,-1,1,9
PB058K40,1,125,PS,exp,43,↓,down,↓,0.8711308999918401,True,13,-1,0,9
PB058K40,1,126,PS,exp,43,↑,up,↑,0.9472725000232458,True,13,1,1,10
PB058K40,1,127,PS,exp,26,←,left,←,0.908912800019607,True,12,1,0,10
PB058K40,1,128,PS,exp,39,↑,up,↑,0.8468187999678776,True,12,1,0,10
PB058K40,1,129,PS,exp,41,←,left,←,0.8163150999462232,True,11,1,0,10
PB058K40,1,130,PS,exp,25,↓,down,↓,0.9273595999693498,True,11,1,0,10
PB058K40,1,131,PS,exp,46,←,left,←,0.9440144000109285,True,10,1,0,10
PB058K40,1,132,PS,exp,48,↓,down,↓,0.9644045000895858,True,10,1,0,10
PB058K40,1,133,PS,exp,44,↑,down,↓,1.0051443999400362,False,9,-1,1,11
PB058K40,1,134,PS,exp,44,↓,down,↓,0.7602462000213563,True,10,-1,0,11
PB058K40,1,135,PS,exp,44,→,right,→,0.8004919999511912,True,10,1,1,12
PB058K40,1,136,PS,exp,29,↑,down,↓,0.9197545000351965,False,9,-1,1,13
PB058K40,1,137,PS,exp,30,→,right,→,0.9346657000714913,True,10,-1,0,13
PB058K40,1,138,PS,exp,42,↓,down,↓,0.8201185999205336,True,10,1,1,14
PB058K40,2,139,AS,intra_train,38,↑,up,↑,1.6606791000813246,True,40,-,-,-
PB058K40,2,140,AS,intra_train,27,←,left,←,1.0760908999945968,True,40,-,-,-
PB058K40,2,141,AS,intra_train,35,↑,up,↑,1.2394729000516236,True,40,-,-,-
PB058K40,2,142,AS,intra_train,48,←,left,←,1.0492503999266773,True,40,-,-,-
PB058K40,2,143,AS,intra_train,35,→,right,→,1.440033100079745,True,40,-,-,-
PB058K40,2,144,AS,exp,34,↑,up,↑,1.1378864999860525,True,27,0,0,0
PB058K40,2,145,AS,exp,33,→,right,→,1.2541854000883177,True,27,1,0,0
PB058K40,2,146,AS,exp,49,↑,right,→,1.4430820000125095,False,26,-1,1,1
PB058K40,2,147,AS,exp,34,←,left,←,1.0540948000270873,True,27,-1,0,1
PB058K40,2,148,AS,exp,45,→,right,→,1.17083369998727,True,27,1,1,2
PB058K40,2,149,AS,exp,32,←,left,←,1.0960830000694841,True,26,1,0,2
PB058K40,2,150,AS,exp,48,↑,up,↑,1.197133900015615,True,26,1,0,2
PB058K40,2,151,AS,exp,42,↓,down,↓,1.6714241999434307,True,25,1,0,2
PB058K40,2,152,AS,exp,38,←,right,→,1.1355896999593824,False,25,-1,1,3
PB058K40,2,153,AS,exp,49,↑,left,←,1.0712118999799713,False,26,-1,0,3
PB058K40,2,154,AS,exp,30,←,left,←,1.0006104999920353,True,27,-1,0,3
PB058K40,2,155,AS,exp,31,↑,up,↑,1.1407456999877468,True,27,1,1,4
PB058K40,2,156,AS,exp,45,↓,down,↓,0.9189992999890819,True,26,1,0,4
PB058K40,2,157,AS,exp,47,→,right,→,1.1083901999518275,True,26,1,0,4
PB058K40,2,158,AS,exp,50,←,down,↓,1.3329497000668198,False,25,-1,1,5
PB058K40,2,159,AS,exp,50,↓,down,↓,0.8706813000608236,True,26,-1,0,5
PB058K40,2,160,AS,exp,25,→,right,→,1.1897289999760687,True,26,1,1,6
PB058K40,2,161,AS,exp,35,↓,down,↓,1.1154426001012325,True,25,1,0,6
PB058K40,2,162,AS,exp,32,→,right,→,0.9952920000068843,True,25,1,0,6
PB058K40,2,163,AS,exp,25,↑,down,↓,1.173748799948953,False,24,-1,1,7
PB058K40,2,164,AS,exp,45,→,right,→,1.0668958000605926,True,25,-1,0,7
PB058K40,2,165,AS,exp,42,↓,down,↓,0.8733104000566527,True,25,1,1,8
PB058K40,2,166,AS,exp,40,↑,up,↑,0.9257663999451324,True,24,1,0,8
PB058K40,2,167,AS,exp,28,←,right,→,1.4252837999956682,False,24,-1,1,9
PB058K40,2,168,AS,exp,40,→,right,→,0.8950075999600813,True,25,-1,0,9
PB058K40,2,169,AS,exp,34,↓,down,↓,0.8892868999391794,True,25,1,1,10
PB058K40,2,170,AS,exp,50,←,right,→,1.0154050999553874,False,24,-1,1,11
PB058K40,2,171,AS,exp,33,↑,right,→,1.426748900092207,False,25,-1,0,11
PB058K40,2,172,AS,exp,41,←,left,←,0.8750906999921426,True,26,-1,0,11
PB058K40,2,173,AS,exp,43,↓,down,↓,1.0991139999823645,True,26,1,1,12
PB058K40,2,174,AS,exp,50,←,right,→,1.0109920999966562,False,25,-1,1,13
PB058K40,2,175,AS,exp,29,↑,right,→,1.2099962000502273,False,26,-1,0,13
PB058K40,2,176,AS,exp,48,←,left,←,0.8352151999715716,True,27,-1,0,13
PB058K40,2,177,AS,exp,31,↓,right,→,1.5107381999259815,False,27,-1,0,13
PB058K40,2,178,AS,exp,39,←,right,→,1.1836373000405729,False,28,-1,0,13
PB058K40,2,179,AS,exp,42,↑,up,↑,0.9094731999794021,True,29,-1,0,13
PB058K40,2,180,AS,exp,43,←,left,←,1.4909534000325948,True,29,1,1,14
PB058K40,3,181,AS,intra_train,29,→,right,→,1.2176836000289768,True,40,-,-,-
PB058K40,3,182,AS,intra_train,33,↑,up,↑,1.3874474000185728,True,40,-,-,-
PB058K40,3,183,AS,intra_train,36,↓,down,↓,1.1573340999893844,True,40,-,-,-
PB058K40,3,184,AS,intra_train,46,←,left,←,1.1508311999496073,True,40,-,-,-
PB058K40,3,185,AS,intra_train,28,→,right,→,0.9843117001000792,True,40,-,-,-
PB058K40,3,186,AS,exp,43,↑,up,↑,1.2939412000123411,True,27,0,0,0
PB058K40,3,187,AS,exp,42,→,right,→,1.0166146999690682,True,27,1,0,0
PB058K40,3,188,AS,exp,47,↓,down,↓,0.9794622999615967,True,26,1,0,0
PB058K40,3,189,AS,exp,25,←,left,←,1.0094621001044288,True,26,1,0,0
PB058K40,3,190,AS,exp,35,↓,right,→,1.266340299975127,False,25,-1,1,1
PB058K40,3,191,AS,exp,29,↑,down,↓,1.239856000058353,False,26,-1,0,1
PB058K40,3,192,AS,exp,41,↓,down,↓,1.2347366000758484,True,27,-1,0,1
PB058K40,3,193,AS,exp,40,←,left,←,0.8603097000159323,True,27,1,1,2
PB058K40,3,194,AS,exp,35,↓,down,↓,0.9310407000593841,True,26,1,0,2
PB058K40,3,195,AS,exp,29,→,right,→,0.9111873999936506,True,26,1,0,2
PB058K40,3,196,AS,exp,31,↓,down,↓,0.7917180999647826,True,25,1,0,2
PB058K40,3,197,AS,exp,40,↑,down,↓,1.053785500000231,False,25,-1,1,3
PB058K40,3,198,AS,exp,36,→,right,→,0.9550808999920264,True,26,-1,0,3
PB058K40,3,199,AS,exp,25,↓,down,↓,1.018112999969162,True,26,1,1,4
PB058K40,3,200,AS,exp,31,→,right,→,0.9039533999748528,True,25,1,0,4
PB058K40,3,201,AS,exp,34,↑,down,↓,1.5465492999646813,False,25,-1,1,5
PB058K40,3,202,AS,exp,27,↓,down,↓,0.8240127000026405,True,26,-1,0,5
PB058K40,3,203,AS,exp,40,→,right,→,0.9965591999934986,True,26,1,1,6
PB058K40,3,204,AS,exp,31,←,right,→,1.0157213000347838,False,25,-1,1,7
PB058K40,3,205,AS,exp,27,↓,right,→,1.0670595000265166,False,26,-1,0,7
PB058K40,3,206,AS,exp,37,←,left,←,1.0196380000561476,True,27,-1,0,7
PB058K40,3,207,AS,exp,27,↑,up,↑,1.256355999968946,True,27,1,1,8
PB058K40,3,208,AS,exp,25,→,right,→,0.9976673000492156,True,26,1,0,8
PB058K40,3,209,AS,exp,48,↑,down,↓,1.2290347999660298,False,26,-1,1,9
PB058K40,3,210,AS,exp,46,↓,down,↓,0.8620424999389797,True,27,-1,0,9
PB058K40,3,211,AS,exp,48,←,left,←,0.8705628999741748,True,27,1,1,10
PB058K40,3,212,AS,exp,44,→,right,→,0.9436228999402374,True,26,1,0,10
PB058K40,3,213,AS,exp,43,↑,up,↑,1.1086904000258073,True,26,1,0,10
PB058K40,3,214,AS,exp,45,↓,down,↓,0.8095915999729186,True,25,1,0,10
PB058K40,3,215,AS,exp,37,↑,down,↓,1.298982199979946,False,25,-1,1,11
PB058K40,3,216,AS,exp,32,↓,down,↓,1.133876399951987,True,26,-1,0,11
PB058K40,3,217,AS,exp,29,↑,up,↑,1.206102199968882,True,26,1,1,12
PB058K40,3,218,AS,exp,50,→,right,→,0.9844493999844417,True,25,1,0,12
PB058K40,3,219,AS,exp,47,↓,down,↓,0.8255570000037551,True,25,1,0,12
PB058K40,3,220,AS,exp,32,→,right,→,1.025937799946405,True,24,1,0,12
PB058K40,3,221,AS,exp,47,↑,down,↓,1.384161000023596,False,24,-1,1,13
PB058K40,3,222,AS,exp,43,→,right,→,1.1974331999663264,True,25,-1,0,13
PB058K40,3,223,AS,exp,42,↑,up,↑,1.126503200037405,True,25,1,1,14
PB058K40,4,224,PS,intra_train,48,→,right,→,0.9130879000294954,True,18,-,-,-
PB058K40,4,225,PS,intra_train,48,↑,up,↑,0.9613946999888867,True,18,-,-,-
PB058K40,4,226,PS,intra_train,49,→,no_key,no_letter,-1.0,False,18,-,-,-
PB058K40,4,227,PS,intra_train,49,←,left,←,1.1529445999767631,True,18,-,-,-
PB058K40,4,228,PS,intra_train,48,→,right,→,1.002007900038734,True,18,-,-,-
PB058K40,4,229,PS,exp,47,↑,up,↑,0.9563055000035092,True,12,0,0,0
PB058K40,4,230,PS,exp,31,←,left,←,1.1220933999866247,True,12,1,0,0
PB058K40,4,231,PS,exp,34,↑,up,↑,0.9979264000430703,True,11,1,0,0
PB058K40,4,232,PS,exp,32,→,right,→,0.8039814999792725,True,11,1,0,0
PB058K40,4,233,PS,exp,50,↑,up,↑,1.048311599995941,True,10,1,0,0
PB058K40,4,234,PS,exp,49,→,right,→,0.9867989999474958,True,10,1,0,0
PB058K40,4,235,PS,exp,45,↑,down,↓,1.0214056000113487,False,9,-1,1,1
PB058K40,4,236,PS,exp,41,↓,down,↓,0.8205875999992713,True,10,-1,0,1
PB058K40,4,237,PS,exp,46,↑,up,↑,1.0218017000006512,True,10,1,1,2
PB058K40,4,238,PS,exp,31,←,left,←,0.9436440001009032,True,9,1,0,2
PB058K40,4,239,PS,exp,30,→,right,→,0.8185032999608666,True,9,1,0,2
PB058K40,4,240,PS,exp,25,↑,up,↑,1.0537683999864385,True,8,1,0,2
PB058K40,4,241,PS,exp,27,↓,down,↓,0.9559820999857038,True,8,1,0,2
PB058K40,4,242,PS,exp,25,↑,up,↑,0.8813870999729261,True,7,1,0,2
PB058K40,4,243,PS,exp,35,↓,down,↓,0.7609734000870958,True,7,1,0,2
PB058K40,4,244,PS,exp,29,←,left,←,0.8068374000722542,True,6,1,0,2
PB058K40,4,245,PS,exp,50,↓,down,↓,0.8425871999934316,True,6,1,0,2
PB058K40,4,246,PS,exp,26,←,left,←,0.8403092999942601,True,5,1,0,2
PB058K40,4,247,PS,exp,29,↑,up,↑,0.9056783999549225,True,5,1,0,2
PB058K40,4,248,PS,exp,41,←,left,←,0.8599016999360174,True,4,1,0,2
PB058K40,4,249,PS,exp,38,↑,down,↓,0.871469400008209,False,4,-1,1,3
PB058K40,4,250,PS,exp,39,←,left,←,0.835614199982956,True,5,-1,0,3
PB058K40,4,251,PS,exp,35,→,down,↓,1.7497214999748394,False,5,-1,0,3
PB058K40,4,252,PS,exp,29,←,left,←,0.7475247000111267,True,6,-1,0,3
PB058K40,4,253,PS,exp,32,↓,down,↓,0.8221139999805018,True,6,1,1,4
PB058K40,4,254,PS,exp,28,→,right,→,0.7653575000585988,True,5,1,0,4
PB058K40,4,255,PS,exp,44,↑,up,↑,1.0235906000016257,True,5,1,0,4
PB058K40,4,256,PS,exp,47,→,left,←,0.9710502000525594,False,4,-1,1,5
PB058K40,4,257,PS,exp,44,←,down,↓,1.0025464000646025,False,5,-1,0,5
PB058K40,4,258,PS,exp,25,↓,down,↓,0.8596754999598488,True,6,-1,0,5
PB058K40,4,259,PS,exp,25,←,down,↓,0.896488199941814,False,6,-1,0,5
PB058K40,4,260,PS,exp,50,↓,down,↓,0.8185644000768661,True,7,-1,0,5
PB058K40,4,261,PS,exp,47,↑,down,↓,0.952509899972938,False,7,-1,0,5
PB058K40,4,262,PS,exp,33,→,right,→,0.8491676999256015,True,8,-1,0,5
PB058K40,4,263,PS,exp,30,↓,down,↓,0.9088271000655368,True,8,1,1,6
PB058K40,4,264,PS,exp,50,→,right,→,0.8174782000714913,True,7,1,0,6
PB058K40,4,265,PS,exp,36,↓,down,↓,1.0010591000318527,True,7,1,0,6
PB058K40,4,266,PS,exp,31,→,down,↓,0.9455328999320045,False,6,-1,1,7
PB058K40,4,267,PS,exp,33,↑,right,→,0.932721900055185,False,7,-1,0,7
PB058K40,4,268,PS,exp,40,→,right,→,0.8791501000523567,True,8,-1,0,7
PB058K40,4,269,PS,exp,34,↓,down,↓,0.8050547000020742,True,8,1,1,8
PB058K40,4,270,PS,exp,30,↑,right,→,1.0188771999673918,False,7,-1,1,9
PB058K40,4,271,PS,exp,28,→,right,→,0.8707722000544891,True,8,-1,0,9
PB058K40,4,272,PS,exp,26,↓,right,→,0.8245710999472067,False,8,-1,0,9
PB058K40,4,273,PS,exp,42,→,right,→,0.7336836999747902,True,9,-1,0,9
PB058K40,4,274,PS,exp,32,←,left,←,1.1003713000100106,True,9,1,1,10
PB058K40,4,275,PS,exp,41,→,right,→,0.7452702999580652,True,8,1,0,10
PB058K40,4,276,PS,exp,49,↓,down,↓,0.9866718000266701,True,8,1,0,10
PB058K40,4,277,PS,exp,49,→,right,→,0.8475510000716895,True,7,1,0,10
PB058K40,4,278,PS,exp,36,↑,down,↓,0.7896371999522671,False,7,-1,1,11
PB058K40,4,279,PS,exp,38,←,left,←,0.8636758999200538,True,8,-1,0,11
PB058K40,4,280,PS,exp,39,↑,up,↑,0.8993816000875086,True,8,1,1,12
PB058K40,4,281,PS,exp,28,→,right,→,0.8806772000389174,True,7,1,0,12
PB058K40,4,282,PS,exp,44,↑,down,↓,0.971287599997595,False,7,-1,1,13
PB058K40,4,283,PS,exp,25,↓,down,↓,0.8108359000179917,True,8,-1,0,13
PB058K40,4,284,PS,exp,38,→,right,→,1.1565721000079066,True,8,1,1,14
PB058K40,5,285,PS,intra_train,27,↓,down,↓,1.2183279999298975,True,18,-,-,-
PB058K40,5,286,PS,intra_train,42,→,right,→,0.9748197000008076,True,18,-,-,-
PB058K40,5,287,PS,intra_train,27,↓,down,↓,0.9467685000272468,True,18,-,-,-
PB058K40,5,288,PS,intra_train,35,→,right,→,0.8652159000048414,True,18,-,-,-
PB058K40,5,289,PS,intra_train,29,↑,up,↑,1.1759045999497175,True,18,-,-,-
PB058K40,5,290,PS,exp,43,→,right,→,0.826376499957405,True,12,0,0,0
PB058K40,5,291,PS,exp,48,↓,down,↓,0.8158142999745905,True,12,1,0,0
PB058K40,5,292,PS,exp,40,←,left,←,0.8512021000497043,True,11,1,0,0
PB058K40,5,293,PS,exp,31,↑,up,↑,0.8997689000098035,True,11,1,0,0
PB058K40,5,294,PS,exp,32,←,left,←,1.0934374000644311,True,10,1,0,0
PB058K40,5,295,PS,exp,32,↓,down,↓,0.8319055999163538,True,10,1,0,0
PB058K40,5,296,PS,exp,40,←,left,←,0.8936872000340372,True,9,1,0,0
PB058K40,5,297,PS,exp,40,↓,down,↓,0.7685687000630423,True,9,1,0,0
PB058K40,5,298,PS,exp,46,←,right,→,0.7989419000223279,False,8,-1,1,1
PB058K40,5,299,PS,exp,41,↑,down,↓,0.80598549998831,False,9,-1,0,1
PB058K40,5,300,PS,exp,49,←,left,←,0.8413253999315202,True,10,-1,0,1
PB058K40,5,301,PS,exp,44,→,right,→,0.7759998999536037,True,10,1,1,2
PB058K40,5,302,PS,exp,45,↓,down,↓,0.8714345999760553,True,9,1,0,2
PB058K40,5,303,PS,exp,38,↑,up,↑,0.9091813999693841,True,9,1,0,2
PB058K40,5,304,PS,exp,28,→,down,↓,0.9598475999664515,False,8,-1,1,3
PB058K40,5,305,PS,exp,25,↓,down,↓,0.7884187999879941,True,9,-1,0,3
PB058K40,5,306,PS,exp,45,↑,up,↑,0.8059157999232411,True,9,1,1,4
PB058K40,5,307,PS,exp,27,→,right,→,1.0769270999589935,True,8,1,0,4
PB058K40,5,308,PS,exp,46,↓,down,↓,0.7714940999867395,True,8,1,0,4
PB058K40,5,309,PS,exp,45,←,right,→,0.954638299997896,False,7,-1,1,5
PB058K40,5,310,PS,exp,44,↑,up,↑,0.8647702999878675,True,8,-1,0,5
PB058K40,5,311,PS,exp,46,→,right,→,0.7938783999998122,True,8,1,1,6
PB058K40,5,312,PS,exp,33,↓,down,↓,0.940093099954538,True,7,1,0,6
PB058K40,5,313,PS,exp,26,←,right,→,0.8524793999968097,False,7,-1,1,7
PB058K40,5,314,PS,exp,46,↑,down,↓,0.9134022999787703,False,8,-1,0,7
PB058K40,5,315,PS,exp,37,↓,down,↓,0.8104667000006884,True,9,-1,0,7
PB058K40,5,316,PS,exp,27,↑,up,↑,0.9233478000387549,True,9,1,1,8
PB058K40,5,317,PS,exp,39,↓,right,→,0.9821422999957576,False,8,-1,1,9
PB058K40,5,318,PS,exp,33,→,right,→,0.9395038000075147,True,9,-1,0,9
PB058K40,5,319,PS,exp,32,↑,up,↑,0.9039988999720663,True,9,1,1,10
PB058K40,5,320,PS,exp,42,→,right,→,0.7885838999645784,True,8,1,0,10
PB058K40,5,321,PS,exp,47,↑,up,↑,0.8803226000163704,True,8,1,0,10
PB058K40,5,322,PS,exp,40,→,right,→,0.7643589999061078,True,7,1,0,10
PB058K40,5,323,PS,exp,28,↑,down,↓,1.022498399950564,False,7,-1,1,11
PB058K40,5,324,PS,exp,46,←,right,→,0.939580800011754,False,8,-1,0,11
PB058K40,5,325,PS,exp,35,↓,left,←,1.214665099978447,False,9,-1,0,11
PB058K40,5,326,PS,exp,28,→,right,→,0.9552412000484765,True,10,-1,0,11
PB058K40,5,327,PS,exp,37,←,left,←,0.92227990005631,True,10,1,1,12
PB058K40,5,328,PS,exp,32,→,right,→,1.0778722999384627,True,9,1,0,12
PB058K40,5,329,PS,exp,47,↓,left,←,1.0419076000107452,False,9,-1,1,13
PB058K40,5,330,PS,exp,50,↑,left,←,1.097085400018841,False,10,-1,0,13
PB058K40,5,331,PS,exp,45,←,left,←,0.7977199999149889,True,11,-1,0,13
PB058K40,5,332,PS,exp,28,↑,down,↓,0.966628700029105,False,11,-1,0,13
PB058K40,5,333,PS,exp,42,→,right,→,0.8502276999643072,True,12,-1,0,13
PB058K40,5,334,PS,exp,30,←,left,←,0.9379559999797493,True,12,1,1,14
PB058K40,6,335,AS,intra_train,49,↑,left,←,1.8265607999637723,False,40,-,-,-
PB058K40,6,336,AS,intra_train,41,↓,down,↓,0.9661106000421569,True,40,-,-,-
PB058K40,6,337,AS,intra_train,25,→,right,→,1.3135581999085844,True,40,-,-,-
PB058K40,6,338,AS,intra_train,29,↓,down,↓,1.252905499888584,True,40,-,-,-
PB058K40,6,339,AS,intra_train,46,←,left,←,1.085524299996905,True,40,-,-,-
PB058K40,6,340,AS,exp,46,↑,down,↓,1.4612776000285521,False,27,-1,0,0
PB058K40,6,341,AS,exp,48,→,down,↓,1.187548300018534,False,28,-1,0,0
PB058K40,6,342,AS,exp,46,↓,down,↓,1.0924622000893578,True,29,-1,0,0
PB058K40,6,343,AS,exp,47,→,left,←,1.2582510000793263,False,29,-1,0,0
PB058K40,6,344,AS,exp,41,↑,up,↑,1.0011874999618158,True,30,-1,0,0
PB058K40,6,345,AS,exp,41,↓,down,↓,1.1016061999835074,True,30,1,1,1
PB058K40,6,346,AS,exp,26,←,left,←,1.0230170999420807,True,29,1,0,1
PB058K40,6,347,AS,exp,32,→,right,→,1.0400862999958917,True,29,1,0,1
PB058K40,6,348,AS,exp,31,←,left,←,0.9323480000020936,True,28,1,0,1
PB058K40,6,349,AS,exp,48,↑,down,↓,1.1467509999638423,False,28,-1,1,2
PB058K40,6,350,AS,exp,40,↓,down,↓,0.831425299984403,True,29,-1,0,2
PB058K40,6,351,AS,exp,41,↑,up,↑,0.8852766999043524,True,29,1,1,3
PB058K40,6,352,AS,exp,44,→,right,→,1.0173743000486866,True,28,1,0,3
PB058K40,6,353,AS,exp,25,↓,down,↓,0.832146699889563,True,28,1,0,3
PB058K40,6,354,AS,exp,25,↑,up,↑,0.8536776000401005,True,27,1,0,3
PB058K40,6,355,AS,exp,36,↓,right,→,1.2350631000008434,False,27,-1,1,4
PB058K40,6,356,AS,exp,46,↑,up,↑,1.2242841999977827,True,28,-1,0,4
PB058K40,6,357,AS,exp,40,→,right,→,0.8205833999672905,True,28,1,1,5
PB058K40,6,358,AS,exp,32,↓,left,←,1.2677075000246987,False,27,-1,1,6
PB058K40,6,359,AS,exp,44,→,right,→,1.1835279000224546,True,28,-1,0,6
PB058K40,6,360,AS,exp,49,←,right,→,1.0248714999761432,False,28,-1,0,6
PB058K40,6,361,AS,exp,46,↑,up,↑,1.2366519999923185,True,29,-1,0,6
PB058K40,6,362,AS,exp,41,→,right,→,1.1628539999946952,True,29,1,1,7
PB058K40,6,363,AS,exp,34,↓,right,→,1.2652098999824375,False,28,-1,1,8
PB058K40,6,364,AS,exp,31,→,right,→,0.747758699930273,True,29,-1,0,8
PB058K40,6,365,AS,exp,25,↑,up,↑,1.2766409000614658,True,29,1,1,9
PB058K40,6,366,AS,exp,45,←,left,←,1.2145687999436632,True,28,1,0,9
PB058K40,6,367,AS,exp,30,↑,up,↑,1.1227915999479592,True,28,1,0,9
PB058K40,6,368,AS,exp,40,←,up,↑,1.3007676000706851,False,27,-1,1,10
PB058K40,6,369,AS,exp,27,↑,up,↑,1.0156167999375612,True,28,-1,0,10
PB058K40,6,370,AS,exp,43,←,left,←,0.9564898000098765,True,28,1,1,11
PB058K40,6,371,AS,exp,47,↑,left,←,1.3157711999956518,False,27,-1,1,12
PB058K40,6,372,AS,exp,33,→,right,→,1.1392642999999225,True,28,-1,0,12
PB058K40,6,373,AS,exp,29,↓,down,↓,0.8368769999360666,True,28,1,1,13
PB058K40,6,374,AS,exp,31,↑,up,↑,1.1721100000431761,True,27,1,0,13
PB058K40,6,375,AS,exp,26,↓,down,↓,1.235476900008507,True,27,1,0,13
PB058K40,6,376,AS,exp,36,↑,up,↑,1.2476315000094473,True,26,1,0,13
PB058K40,6,377,AS,exp,25,←,left,←,0.8972154000075534,True,26,1,0,13
PB058K40,6,378,AS,exp,46,→,right,→,0.9199227000353858,True,25,1,0,13
PB058K40,6,379,AS,exp,35,↓,down,↓,0.8228681999025866,True,25,1,0,13
PB058K40,6,380,AS,exp,49,←,left,←,0.922664999961853,True,24,1,0,13
PB058K40,6,381,AS,exp,45,↑,up,↑,1.049708400038071,True,24,1,0,13
PB058K40,6,382,AS,exp,26,↓,down,↓,0.8307329999515787,True,23,1,0,13
PB058K40,6,383,AS,exp,32,↑,up,↑,1.1698399999877438,True,23,1,0,13
PB058K40,6,384,AS,exp,25,←,down,↓,1.004300000029616,False,22,-1,1,14
PB058K40,7,385,AS,intra_train,46,↑,up,↑,1.5648723999038339,True,40,-,-,-
PB058K40,7,386,AS,intra_train,25,→,right,→,0.8896938000107184,True,40,-,-,-
PB058K40,7,387,AS,intra_train,25,↓,down,↓,0.9149464999791235,True,40,-,-,-
PB058K40,7,388,AS,intra_train,46,↑,up,↑,1.1497917000669986,True,40,-,-,-
PB058K40,7,389,AS,intra_train,50,←,left,←,0.952882600016892,True,40,-,-,-
PB058K40,7,390,AS,exp,26,→,right,→,0.8505760999396443,True,27,0,0,0
PB058K40,7,391,AS,exp,48,↓,down,↓,1.0299545000307262,True,27,1,0,0
PB058K40,7,392,AS,exp,37,←,left,←,0.7931087999604642,True,26,1,0,0
PB058K40,7,393,AS,exp,28,→,right,→,0.9808086999692023,True,26,1,0,0
PB058K40,7,394,AS,exp,32,↓,down,↓,0.8487088999245316,True,25,1,0,0
PB058K40,7,395,AS,exp,41,→,right,→,0.8716866999166086,True,25,1,0,0
PB058K40,7,396,AS,exp,45,↑,right,→,1.073456900077872,False,24,-1,1,1
PB058K40,7,397,AS,exp,29,←,left,←,1.1863446000497788,True,25,-1,0,1
PB058K40,7,398,AS,exp,36,↓,right,→,0.9433127000229433,False,25,-1,0,1
PB058K40,7,399,AS,exp,47,←,left,←,1.027857800014317,True,26,-1,0,1
PB058K40,7,400,AS,exp,35,↓,down,↓,0.8763960000360385,True,26,1,1,2
PB058K40,7,401,AS,exp,43,→,right,→,0.9342329000355676,True,25,1,0,2
PB058K40,7,402,AS,exp,25,↑,up,↑,1.1268689000280574,True,25,1,0,2
PB058K40,7,403,AS,exp,37,←,left,←,0.8391057000262663,True,24,1,0,2
PB058K40,7,404,AS,exp,46,→,right,→,0.78746359993238,True,24,1,0,2
PB058K40,7,405,AS,exp,26,←,left,←,0.7978401000145823,True,23,1,0,2
PB058K40,7,406,AS,exp,49,↓,down,↓,1.1357557999435812,True,23,1,0,2
PB058K40,7,407,AS,exp,30,→,right,→,0.8269380999263376,True,22,1,0,2
PB058K40,7,408,AS,exp,41,←,right,→,0.9837730000726879,False,22,-1,1,3
PB058K40,7,409,AS,exp,42,→,right,→,1.002219200017862,True,23,-1,0,3
PB058K40,7,410,AS,exp,44,←,left,←,0.7839724000077695,True,23,1,1,4
PB058K40,7,411,AS,exp,38,↓,down,↓,0.8456807999173179,True,22,1,0,4
PB058K40,7,412,AS,exp,42,→,right,→,0.97387979994528,True,22,1,0,4
PB058K40,7,413,AS,exp,26,↑,up,↑,0.9614138999022543,True,21,1,0,4
PB058K40,7,414,AS,exp,38,←,left,←,0.8431272000307217,True,21,1,0,4
PB058K40,7,415,AS,exp,34,↓,down,↓,0.7768474000040442,True,20,1,0,4
PB058K40,7,416,AS,exp,31,←,right,→,0.9475977000547573,False,20,-1,1,5
PB058K40,7,417,AS,exp,35,→,right,→,0.7479740999406204,True,21,-1,0,5
PB058K40,7,418,AS,exp,25,↑,no_key,no_letter,-1.0,False,21,-1,0,5
PB058K40,7,419,AS,exp,40,→,right,→,1.0289980999659747,True,22,-1,0,5
PB058K40,7,420,AS,exp,34,↓,left,←,1.5842964999610558,False,22,-1,0,5
PB058K40,7,421,AS,exp,35,→,right,→,1.0470350999385118,True,23,-1,0,5
PB058K40,7,422,AS,exp,46,↑,up,↑,0.9402963999891654,True,23,1,1,6
PB058K40,7,423,AS,exp,25,→,right,→,0.8659295999677852,True,22,1,0,6
PB058K40,7,424,AS,exp,46,←,left,←,0.8775063999928534,True,22,1,0,6
PB058K40,7,425,AS,exp,26,↑,down,↓,1.0194853000575677,False,21,-1,1,7
PB058K40,7,426,AS,exp,48,←,right,→,0.9032868000213057,False,22,-1,0,7
PB058K40,7,427,AS,exp,46,↓,down,↓,0.7214696999872103,True,23,-1,0,7
PB058K40,7,428,AS,exp,35,←,left,←,0.8005533999530599,True,23,1,1,8
PB058K40,7,429,AS,exp,38,↑,up,↑,1.2121027000248432,True,22,1,0,8
PB058K40,7,430,AS,exp,29,↓,down,↓,0.9621562999673188,True,22,1,0,8
PB058K40,7,431,AS,exp,49,→,right,→,0.912890600040555,True,21,1,0,8
PB058K40,7,432,AS,exp,40,↓,down,↓,0.9951426000334322,True,21,1,0,8
PB058K40,7,433,AS,exp,27,↑,up,↑,0.8321366999298334,True,20,1,0,8
PB058K40,7,434,AS,exp,26,↓,down,↓,0.6602590999100357,True,20,1,0,8
PB058K40,7,435,AS,exp,48,→,right,→,0.7665721999946982,True,19,1,0,8
PB058K40,7,436,AS,exp,36,←,left,←,0.8591060999315232,True,19,1,0,8
PB058K40,7,437,AS,exp,49,↑,up,↑,0.9008812000975013,True,18,1,0,8
PB058K40,7,438,AS,exp,35,←,left,←,0.7881955999182537,True,18,1,0,8
PB058K40,7,439,AS,exp,39,↑,up,↑,0.7797510999953374,True,17,1,0,8
PB058K40,7,440,AS,exp,49,←,right,→,0.9454094999236986,False,17,-1,1,9
PB058K40,7,441,AS,exp,42,↓,down,↓,0.728137300000526,True,18,-1,0,9
PB058K40,7,442,AS,exp,27,→,left,←,0.9470093999989331,False,18,-1,0,9
PB058K40,7,443,AS,exp,46,←,left,←,0.8718936999794096,True,19,-1,0,9
PB058K40,7,444,AS,exp,46,→,right,→,0.8293027000036091,True,19,1,1,10
PB058K40,7,445,AS,exp,41,↑,left,←,1.1655051000416279,False,18,-1,1,11
PB058K40,7,446,AS,exp,35,↓,down,↓,0.9687586000654846,True,19,-1,0,11
PB058K40,7,447,AS,exp,47,←,left,←,0.9079957000212744,True,19,1,1,12
PB058K40,7,448,AS,exp,35,↑,down,↓,0.9758334000362083,False,18,-1,1,13
PB058K40,7,449,AS,exp,30,↓,down,↓,0.9630638000089675,True,19,-1,0,13
PB058K40,7,450,AS,exp,46,↑,left,←,1.2658299000468105,False,19,-1,0,13
PB058K40,7,451,AS,exp,41,←,right,→,0.8784571000142023,False,20,-1,0,13
PB058K40,7,452,AS,exp,30,→,right,→,1.009695200016722,True,21,-1,0,13
PB058K40,7,453,AS,exp,36,↑,up,↑,0.7929693999467418,True,21,1,1,14
PB058K40,8,454,PS,intra_train,32,↓,down,↓,1.2516364000039175,True,18,-,-,-
PB058K40,8,455,PS,intra_train,41,←,left,←,0.8783037000102922,True,18,-,-,-
PB058K40,8,456,PS,intra_train,26,↓,down,↓,0.9034979999996722,True,18,-,-,-
PB058K40,8,457,PS,intra_train,35,→,right,→,0.8375406000996009,True,18,-,-,-
PB058K40,8,458,PS,intra_train,45,↑,up,↑,0.969403599970974,True,18,-,-,-
PB058K40,8,459,PS,exp,42,↓,down,↓,0.8489913999801502,True,12,0,0,0
PB058K40,8,460,PS,exp,50,→,right,→,0.7754676999757066,True,12,1,0,0
PB058K40,8,461,PS,exp,34,↑,up,↑,0.9885727999499068,True,11,1,0,0
PB058K40,8,462,PS,exp,35,←,left,←,0.898336400045082,True,11,1,0,0
PB058K40,8,463,PS,exp,50,↓,down,↓,0.7873706000391394,True,10,1,0,0
PB058K40,8,464,PS,exp,35,↑,up,↑,0.9024415999883786,True,10,1,0,0
PB058K40,8,465,PS,exp,47,→,left,←,1.0164694000268355,False,9,-1,1,1
PB058K40,8,466,PS,exp,32,←,left,←,0.7894001000095159,True,10,-1,0,1
PB058K40,8,467,PS,exp,50,↑,up,↑,0.86252860003151,True,10,1,1,2
PB058K40,8,468,PS,exp,35,↓,down,↓,0.858770800055936,True,9,1,0,2
PB058K40,8,469,PS,exp,31,←,left,←,0.9804877999704331,True,9,1,0,2
PB058K40,8,470,PS,exp,44,↑,up,↑,0.9069166999543086,True,8,1,0,2
PB058K40,8,471,PS,exp,28,→,left,←,0.9569524000398815,False,8,-1,1,3
PB058K40,8,472,PS,exp,31,↓,down,↓,0.8766198999946937,True,9,-1,0,3
PB058K40,8,473,PS,exp,48,↑,right,→,1.0376018000533804,False,9,-1,0,3
PB058K40,8,474,PS,exp,25,→,left,←,1.3202284999424592,False,10,-1,0,3
PB058K40,8,475,PS,exp,45,↓,down,↓,0.7861275000032037,True,11,-1,0,3
PB058K40,8,476,PS,exp,38,←,left,←,0.8194702999899164,True,11,1,1,4
PB058K40,8,477,PS,exp,35,→,left,←,0.7966966999229044,False,10,-1,1,5
PB058K40,8,478,PS,exp,37,↑,up,↑,0.8900897999992594,True,11,-1,0,5
PB058K40,8,479,PS,exp,32,←,right,→,1.0977220999775454,False,11,-1,0,5
PB058K40,8,480,PS,exp,47,↑,up,↑,0.8763998000649735,True,12,-1,0,5
PB058K40,8,481,PS,exp,49,↓,right,→,0.908248099964112,False,12,-1,0,5
PB058K40,8,482,PS,exp,35,→,right,→,0.8614478999515995,True,13,-1,0,5
PB058K40,8,483,PS,exp,30,↑,right,→,1.1307273000711575,False,13,-1,0,5
PB058K40,8,484,PS,exp,48,↓,down,↓,0.8480700000654906,True,14,-1,0,5
PB058K40,8,485,PS,exp,49,←,left,←,0.9369378000264987,True,14,1,1,6
PB058K40,8,486,PS,exp,46,↑,up,↑,0.8849695000099018,True,13,1,0,6
PB058K40,8,487,PS,exp,38,←,left,←,0.8537213000236079,True,13,1,0,6
PB058K40,8,488,PS,exp,38,→,right,→,0.8683345000026748,True,12,1,0,6
PB058K40,8,489,PS,exp,40,←,left,←,0.8120194000657648,True,12,1,0,6
PB058K40,8,490,PS,exp,30,↑,up,↑,0.8800926000112668,True,11,1,0,6
PB058K40,8,491,PS,exp,33,←,left,←,0.7946965000592172,True,11,1,0,6
PB058K40,8,492,PS,exp,40,↑,up,↑,1.0393446000525728,True,10,1,0,6
PB058K40,8,493,PS,exp,28,←,left,←,0.8860133000416681,True,10,1,0,6
PB058K40,8,494,PS,exp,44,↑,up,↑,0.9360297999810427,True,9,1,0,6
PB058K40,8,495,PS,exp,37,→,right,→,0.8626959999091923,True,9,1,0,6
PB058K40,8,496,PS,exp,37,←,left,←,0.9430610999697819,True,8,1,0,6
PB058K40,8,497,PS,exp,29,→,left,←,0.85105879988987,False,8,-1,1,7
PB058K40,8,498,PS,exp,35,←,left,←,0.7735453000059351,True,9,-1,0,7
PB058K40,8,499,PS,exp,29,↓,down,↓,0.8857798000099137,True,9,1,1,8
PB058K40,8,500,PS,exp,35,↑,left,←,0.9057368999347091,False,8,-1,1,9
PB058K40,8,501,PS,exp,48,→,right,→,0.8723663999699056,True,9,-1,0,9
PB058K40,8,502,PS,exp,36,←,left,←,0.7803881999570876,True,9,1,1,10
PB058K40,8,503,PS,exp,28,↓,down,↓,1.0801426999969408,True,8,1,0,10
PB058K40,8,504,PS,exp,27,→,right,→,0.8683887999504805,True,8,1,0,10
PB058K40,8,505,PS,exp,48,↑,down,↓,0.9809500999981537,False,7,-1,1,11
PB058K40,8,506,PS,exp,46,↓,down,↓,0.7638746999436989,True,8,-1,0,11
PB058K40,8,507,PS,exp,33,→,right,→,0.7030763000948355,True,8,1,1,12
PB058K40,8,508,PS,exp,44,↓,down,↓,0.798934799968265,True,7,1,0,12
PB058K40,8,509,PS,exp,27,↑,up,↑,0.8188617000123486,True,7,1,0,12
PB058K40,8,510,PS,exp,37,→,left,←,0.8486769999144599,False,6,-1,1,13
PB058K40,8,511,PS,exp,47,↑,down,↓,1.0344211000483483,False,7,-1,0,13
PB058K40,8,512,PS,exp,43,↓,down,↓,0.8487877000588924,True,8,-1,0,13
PB058K40,8,513,PS,exp,37,→,right,→,0.7766151999821886,True,8,1,1,14
