PART_ID,Trial_no,Trial_type,CSI,Stim_letter,Key_pressed,letter_choose,Rt,Corr,Stimulus Time,nDropped
156K28S2,1,training,120,↑,up,↑,0.601027199998498,True,60,0
156K28S2,2,training,120,↑,up,↑,0.46700450000935234,True,60,0
156K28S2,3,training,120,←,left,←,0.6087578999868128,True,60,0
156K28S2,4,training,120,↓,down,↓,0.4600446000113152,True,60,0
156K28S2,5,training,120,↑,up,↑,0.4912602000113111,True,60,0
156K28S2,6,training,120,→,right,→,0.4767264999973122,True,60,0
156K28S2,7,training,120,↓,down,↓,0.41832050000084564,True,60,0
156K28S2,8,training,120,→,left,←,0.6335456999950111,False,60,0
156K28S2,9,training,120,→,right,→,0.6165107000269927,True,60,0
156K28S2,10,training,120,↓,down,↓,0.5832603999879211,True,60,0
156K28S2,11,training,120,↑,up,↑,0.5497664999857079,True,60,0
156K28S2,12,training,120,→,right,→,0.6959988000162411,True,60,0
156K28S2,13,training,120,↓,down,↓,0.6499946000112686,True,60,0
156K28S2,14,training,120,↓,down,↓,0.5001467000111006,True,60,0
156K28S2,15,training,120,↓,down,↓,0.48520080000162125,True,60,0
156K28S2,16,training,120,↑,up,↑,0.5087524999980815,True,60,0
156K28S2,17,training,120,→,right,→,0.5254184000077657,True,60,0
156K28S2,18,training,120,→,right,→,0.4353918000124395,True,60,0
156K28S2,19,training,120,↑,up,↑,0.5508567999931984,True,60,0
156K28S2,20,training,120,←,left,←,0.467378400004236,True,60,0
156K28S2,21,no_adaptation,120,←,left,←,0.5122472000075504,True,36,0
156K28S2,22,no_adaptation,120,↑,up,↑,0.5881980000121985,True,36,0
156K28S2,23,no_adaptation,120,↑,up,↑,0.4933174999896437,True,36,0
156K28S2,24,no_adaptation,120,→,right,→,0.5777881999965757,True,36,0
156K28S2,25,no_adaptation,120,↓,down,↓,0.7391899999929592,True,36,0
156K28S2,26,no_adaptation,120,→,right,→,0.5102861000050325,True,36,0
156K28S2,27,no_adaptation,120,↓,down,↓,0.4420862999977544,True,36,0
156K28S2,28,no_adaptation,120,↑,up,↑,0.5771073999931104,True,36,0
156K28S2,29,no_adaptation,120,↓,down,↓,0.6263395000132732,True,36,0
156K28S2,30,no_adaptation,120,↑,up,↑,0.47394769999664277,True,36,0
156K28S2,31,no_adaptation,120,↓,down,↓,1.287498699995922,True,36,0
156K28S2,32,no_adaptation,120,→,right,→,0.5968314999772701,True,36,0
156K28S2,33,no_adaptation,120,↓,down,↓,0.7575813000148628,True,36,0
156K28S2,34,no_adaptation,120,↓,down,↓,0.4884678999951575,True,36,0
156K28S2,35,no_adaptation,120,←,left,←,0.6371696999995038,True,36,0
156K28S2,36,no_adaptation,120,↓,down,↓,0.500767999998061,True,36,0
156K28S2,37,no_adaptation,120,↓,down,↓,0.43391130000236444,True,36,0
156K28S2,38,no_adaptation,120,↓,down,↓,0.48741219998919405,True,36,0
156K28S2,39,no_adaptation,120,↓,down,↓,0.4924223000125494,True,36,0
156K28S2,40,no_adaptation,120,←,down,↓,0.7451002999732736,False,36,0
156K28S2,41,training,101,←,left,←,0.5821369999903254,True,36,0
156K28S2,42,training,103,↑,up,↑,0.556812800001353,True,36,1
156K28S2,43,experiment,59,↓,down,↓,0.5393267999752425,True,36,1
156K28S2,44,experiment,54,↓,down,↓,0.4688632999896072,True,36,1
156K28S2,45,experiment,63,↓,down,↓,1.3248464000062086,True,36,0
156K28S2,46,experiment,55,↑,up,↑,0.5826752000139095,True,36,1
156K28S2,47,experiment,96,←,left,←,0.5278153000108432,True,36,1
156K28S2,48,experiment,53,→,right,→,0.6094139999768231,True,36,1
156K28S2,49,experiment,51,←,left,←,0.520706599985715,True,36,1
156K28S2,50,experiment,66,↑,up,↑,0.5582501000026241,True,36,1
156K28S2,51,experiment,76,←,left,←,1.1512288999801967,True,36,1
156K28S2,52,experiment,60,↓,down,↓,0.4704775999998674,True,36,1
156K28S2,53,experiment,85,↑,up,↑,0.5595474000147078,True,36,1
156K28S2,54,experiment,78,↑,up,↑,0.5194314999971539,True,36,1
156K28S2,55,experiment,73,↓,down,↓,0.47540440000011586,True,36,1
156K28S2,56,experiment,57,↓,down,↓,1.0782857000012882,True,36,0
156K28S2,57,experiment,65,↓,down,↓,0.8457258999987971,True,36,1
156K28S2,58,experiment,68,←,left,←,0.48593439999967813,True,36,1
156K28S2,59,experiment,98,↓,down,↓,0.43380899998010136,True,36,1
156K28S2,60,experiment,92,←,left,←,0.49098899998352863,True,36,0
156K28S2,61,experiment,94,↑,up,↑,0.38385069998912513,True,36,1
156K28S2,62,experiment,106,→,right,→,0.5902329999953508,True,36,1
156K28S2,63,experiment,102,↑,up,↑,0.5248071999812964,True,36,1
156K28S2,64,experiment,87,←,left,←,0.4422068999847397,True,36,1
156K28S2,65,experiment,50,↑,up,↑,0.6733794999890961,True,36,0
156K28S2,66,experiment,95,↓,down,↓,0.47189799998886883,True,36,1
156K28S2,67,experiment,81,→,right,→,0.5296459000092,True,36,1
156K28S2,68,experiment,77,↑,up,↑,0.5631530999962706,True,36,1
156K28S2,69,experiment,82,→,right,→,0.618032599973958,True,36,1
156K28S2,70,experiment,64,→,right,→,0.5484491999959573,True,36,1
156K28S2,71,experiment,61,↑,up,↑,0.5788297999824863,True,36,1
156K28S2,72,experiment,93,↓,down,↓,0.5177046000026166,True,36,1
156K28S2,73,experiment,75,→,left,←,0.8401725000003353,False,36,1
156K28S2,74,experiment,80,←,left,←,0.5322789999772795,True,36,1
156K28S2,75,experiment,99,↓,down,↓,0.5509496000013314,True,36,1
156K28S2,76,experiment,105,↓,down,↓,0.558652899984736,True,36,1
156K28S2,77,experiment,103,←,left,←,0.5505872000067029,True,36,1
156K28S2,78,experiment,97,←,left,←,0.5608966000145301,True,36,1
156K28S2,79,experiment,88,↓,down,↓,0.4332840999995824,True,36,1
156K28S2,80,experiment,79,→,right,→,0.48251399997388944,True,36,0
156K28S2,81,experiment,72,↓,down,↓,0.5193687000137288,True,36,1
156K28S2,82,experiment,58,→,right,→,0.57608299999265,True,36,1
156K28S2,83,experiment,100,←,left,←,0.544680499995593,True,36,1
156K28S2,84,experiment,71,→,right,→,0.4510021999885794,True,36,1
156K28S2,85,experiment,107,→,right,→,0.4257461999950465,True,36,0
156K28S2,86,experiment,69,←,left,←,0.5024647999962326,True,36,0
156K28S2,87,experiment,91,→,right,→,0.4171009999990929,True,36,1
156K28S2,88,experiment,90,←,left,←,0.48620350001147017,True,36,0
156K28S2,89,experiment,48,→,right,→,0.6188057000108529,True,36,1
156K28S2,90,experiment,83,←,left,←,0.631133899994893,True,36,3
156K28S2,91,experiment,52,↓,down,↓,0.5703713000111748,True,36,1
156K28S2,92,experiment,108,↓,down,↓,1.3115047999890521,True,36,1
156K28S2,93,experiment,70,↓,down,↓,0.49255559997982346,True,36,1
156K28S2,94,experiment,56,←,left,←,0.5343375000229571,True,36,1
156K28S2,95,experiment,104,↓,down,↓,1.0306502000021283,True,36,1
156K28S2,96,experiment,74,↓,down,↓,0.3829466000024695,True,36,1
156K28S2,97,experiment,89,↓,down,↓,0.5211951000092085,True,36,0
156K28S2,98,experiment,86,↑,up,↑,0.39175959999556653,True,36,1
156K28S2,99,experiment,62,↓,down,↓,0.3660737999889534,True,36,0
156K28S2,100,experiment,101,↑,up,↑,0.4505176999955438,True,36,0
156K28S2,101,experiment,49,→,right,→,0.6733160000003409,True,36,0
156K28S2,102,experiment,67,↑,up,↑,0.4419818999886047,True,36,1
156K28S2,103,experiment,84,↓,down,↓,0.35870680000516586,True,36,0
156K28S2,104,training,66,←,left,←,0.35042560001602396,True,35,3
156K28S2,105,training,95,→,right,→,0.5379223999916576,True,35,0
156K28S2,106,experiment,100,←,left,←,0.5479086000123061,True,35,1
156K28S2,107,experiment,103,↓,down,↓,0.9961881999915931,True,35,1
156K28S2,108,experiment,99,←,left,←,0.4172885000007227,True,35,1
156K28S2,109,experiment,108,←,left,←,0.37563319999026135,True,35,0
156K28S2,110,experiment,86,←,right,→,0.5879444000020158,False,35,0
156K28S2,111,experiment,105,↓,down,↓,0.3752667999942787,True,35,1
156K28S2,112,experiment,104,↓,down,↓,0.434044299996458,True,35,0
156K28S2,113,experiment,107,↓,down,↓,0.4005256000091322,True,35,0
156K28S2,114,experiment,97,←,left,←,0.7159363999962807,True,35,0
156K28S2,115,experiment,93,←,left,←,0.5050601999973878,True,35,1
156K28S2,116,experiment,82,↓,down,↓,0.4903238999831956,True,35,1
156K28S2,117,experiment,73,↑,up,↑,0.59084350001649,True,35,1
156K28S2,118,experiment,66,↑,down,↓,0.4740614000183996,False,35,1
156K28S2,119,experiment,63,↑,up,↑,0.5698761999956332,True,35,1
156K28S2,120,experiment,56,↑,up,↑,0.43460330000380054,True,35,1
156K28S2,121,experiment,60,↓,down,↓,0.46854630002053455,True,35,0
156K28S2,122,experiment,72,←,left,←,0.4347788000013679,True,35,1
156K28S2,123,experiment,53,↓,down,↓,0.9983909000002313,True,35,0
156K28S2,124,experiment,65,↓,down,↓,0.6895355000160635,True,35,1
156K28S2,125,experiment,89,↓,down,↓,0.520744100009324,True,35,1
156K28S2,126,experiment,57,→,right,→,0.4813441000005696,True,35,1
156K28S2,127,experiment,77,↑,up,↑,0.6691000999999233,True,35,1
156K28S2,128,experiment,78,←,left,←,0.42611670002224855,True,35,1
156K28S2,129,experiment,55,→,right,→,0.4171763999911491,True,35,1
156K28S2,130,experiment,61,↓,down,↓,0.4255907000042498,True,35,0
156K28S2,131,experiment,58,↓,down,↓,0.39149259999976493,True,35,0
156K28S2,132,experiment,64,←,left,←,0.6400305999850389,True,35,0
156K28S2,133,experiment,83,←,left,←,0.5873739999951795,True,35,1
156K28S2,134,experiment,92,↓,down,↓,0.46984159998828545,True,35,1
156K28S2,135,experiment,74,←,left,←,0.3833504000212997,True,35,1
156K28S2,136,experiment,62,←,left,←,0.5746994000219274,True,35,0
156K28S2,137,experiment,87,↓,down,↓,0.5635120999941137,True,35,1
156K28S2,138,experiment,51,↑,up,↑,0.9405276000034064,True,35,1
156K28S2,139,experiment,68,→,right,→,0.6165566999989096,True,35,1
156K28S2,140,experiment,85,→,right,→,0.7484275000169873,True,35,1
156K28S2,141,experiment,91,↓,down,↓,0.5608982999983709,True,35,1
156K28S2,142,experiment,52,→,right,→,0.5454135999898426,True,35,1
156K28S2,143,experiment,80,↑,up,↑,0.4422097999777179,True,35,1
156K28S2,144,experiment,84,↓,down,↓,0.4843082000152208,True,35,1
156K28S2,145,experiment,88,↓,down,↓,0.5719490999763366,True,35,1
156K28S2,146,experiment,95,←,left,←,0.5178687000006903,True,35,1
156K28S2,147,experiment,75,↑,up,↑,0.609023500001058,True,35,1
156K28S2,148,experiment,102,←,left,←,0.5513732999970671,True,35,1
156K28S2,149,experiment,59,↓,down,↓,0.5341363000043202,True,35,1
156K28S2,150,experiment,106,↓,down,↓,0.5260972999967635,True,35,1
156K28S2,151,experiment,70,←,left,←,0.44239229999948293,True,35,1
156K28S2,152,experiment,98,←,left,←,0.5443050999892876,True,35,0
156K28S2,153,experiment,101,→,right,→,0.6657884000160266,True,35,1
156K28S2,154,experiment,71,→,right,→,0.62397770001553,True,35,1
156K28S2,155,experiment,76,→,right,→,0.48632250001537614,True,35,1
156K28S2,156,experiment,49,→,right,→,0.6271022000000812,True,35,1
156K28S2,157,experiment,94,↑,up,↑,0.6756661999970675,True,35,1
156K28S2,158,experiment,54,→,right,→,0.5429751000192482,True,35,1
156K28S2,159,experiment,96,→,right,→,0.4982855999842286,True,35,1
156K28S2,160,experiment,79,↓,down,↓,0.6282239000138361,True,35,1
156K28S2,161,experiment,81,↑,up,↑,0.6009159000241198,True,35,1
156K28S2,162,experiment,67,←,left,←,1.027393199998187,True,35,1
156K28S2,163,experiment,50,↑,up,↑,0.6342268000007607,True,35,1
156K28S2,164,experiment,69,→,right,→,0.45937910000793636,True,35,1
156K28S2,165,experiment,48,↑,up,↑,0.520281699980842,True,35,0
156K28S2,166,experiment,90,↓,down,↓,0.7578346999944188,True,35,1
156K28S2,167,training,89,↓,down,↓,0.3839796000102069,True,34,0
156K28S2,168,training,86,→,right,→,0.9821477000077721,True,34,0
156K28S2,169,experiment,90,↑,up,↑,0.6098457000043709,True,34,1
156K28S2,170,experiment,83,↓,down,↓,0.6142667999956757,True,34,1
156K28S2,171,experiment,86,→,right,→,0.40071389998774976,True,34,1
156K28S2,172,experiment,52,↑,up,↑,0.47265800001332536,True,34,1
156K28S2,173,experiment,76,↓,down,↓,0.4925652999954764,True,34,1
156K28S2,174,experiment,98,←,left,←,0.4652582999842707,True,34,1
156K28S2,175,experiment,101,↑,up,↑,0.5812387999903876,True,34,1
156K28S2,176,experiment,68,↓,down,↓,0.5437149000063073,True,34,1
156K28S2,177,experiment,88,→,right,→,0.6451687999942806,True,34,1
156K28S2,178,experiment,97,↑,up,↑,0.4994570999988355,True,34,1
156K28S2,179,experiment,54,↓,down,↓,0.6620154999836814,True,34,1
156K28S2,180,experiment,57,→,right,→,0.6649670000188053,True,34,1
156K28S2,181,experiment,59,↑,up,↑,0.5792743999918457,True,34,1
156K28S2,182,experiment,89,→,right,→,0.6631772000109777,True,34,1
156K28S2,183,experiment,96,↓,down,↓,0.5328490000101738,True,34,1
156K28S2,184,experiment,106,→,right,→,0.6131900000036694,True,34,1
156K28S2,185,experiment,91,↓,down,↓,0.41639880000730045,True,34,1
156K28S2,186,experiment,93,↓,down,↓,0.408817799994722,True,34,0
156K28S2,187,experiment,48,→,right,→,1.0152095000084955,True,34,1
156K28S2,188,experiment,102,↓,down,↓,0.5651148000033572,True,34,1
156K28S2,189,experiment,75,↑,up,↑,0.566269699978875,True,34,1
156K28S2,190,experiment,50,↓,down,↓,0.5437237000151072,True,34,1
156K28S2,191,experiment,108,↑,up,↑,0.5023115999938454,True,34,1
156K28S2,192,experiment,56,←,left,←,0.5040982999780681,True,34,1
156K28S2,193,experiment,63,↑,up,↑,0.433196300000418,True,34,1
156K28S2,194,experiment,70,↓,down,↓,0.5351926000148524,True,34,0
156K28S2,195,experiment,94,↓,down,↓,0.39217020000796765,True,34,1
156K28S2,196,experiment,62,→,left,←,1.0234779999882448,False,34,0
156K28S2,197,experiment,60,↑,up,↑,0.5383880000154022,True,34,1
156K28S2,198,experiment,49,←,left,←,0.5568782000045758,True,34,1
156K28S2,199,experiment,87,↑,up,↑,0.46644560000277124,True,34,1
156K28S2,200,experiment,61,↓,down,↓,0.5880706000025384,True,34,1
156K28S2,201,experiment,79,←,left,←,0.46704229997703806,True,34,1
156K28S2,202,experiment,105,↓,down,↓,0.5013882000057492,True,34,1
156K28S2,203,experiment,81,↓,down,↓,0.45553340000333264,True,34,1
156K28S2,204,experiment,65,←,left,←,0.4952276000112761,True,34,1
156K28S2,205,experiment,84,↓,down,↓,0.47187700000358745,True,34,1
156K28S2,206,experiment,51,→,right,→,0.6440426000044681,True,34,1
156K28S2,207,experiment,80,→,right,→,0.5362242000119295,True,34,1
156K28S2,208,experiment,58,↓,down,↓,0.4884484999929555,True,34,1
156K28S2,209,experiment,67,→,right,→,0.47884540000814013,True,34,1
156K28S2,210,experiment,74,↑,up,↑,0.6116061999928206,True,34,1
156K28S2,211,experiment,78,↑,up,↑,0.8336979000014253,True,34,1
156K28S2,212,experiment,71,↑,up,↑,0.47378800000296906,True,34,1
156K28S2,213,experiment,104,→,right,→,0.4331904000137001,True,34,1
156K28S2,214,experiment,77,→,right,→,0.5376730999851134,True,34,0
156K28S2,215,experiment,53,↓,up,↑,0.6350134999956936,False,34,1
156K28S2,216,experiment,82,↓,down,↓,0.47894249999080785,True,34,1
156K28S2,217,experiment,107,↓,down,↓,0.7446942999958992,True,34,1
156K28S2,218,experiment,100,←,left,←,0.35878520002006553,True,34,1
156K28S2,219,experiment,92,↑,up,↑,0.4938622000045143,True,34,0
156K28S2,220,experiment,72,↓,down,↓,0.49853929999517277,True,34,1
156K28S2,221,experiment,95,↑,up,↑,0.5598895000002813,True,34,1
156K28S2,222,experiment,55,↑,up,↑,0.5436341000022367,True,34,1
156K28S2,223,experiment,103,→,right,→,0.6161400999990292,True,34,1
156K28S2,224,experiment,69,↓,down,↓,0.521386700012954,True,34,1
156K28S2,225,experiment,64,↓,down,↓,0.4875164999975823,True,34,1
156K28S2,226,experiment,85,↓,down,↓,0.4096621999924537,True,34,1
156K28S2,227,experiment,99,↓,down,↓,0.5191134000197053,True,34,0
156K28S2,228,experiment,66,↓,down,↓,0.37525330000789836,True,34,1
156K28S2,229,experiment,73,→,right,→,0.45451130002038553,True,34,1
156K28S2,230,training,74,↓,down,↓,1.020141999993939,True,33,0
156K28S2,231,training,56,→,right,→,0.6011712999898009,True,33,1
156K28S2,232,experiment,67,↓,down,↓,0.6834342000074685,True,33,1
156K28S2,233,experiment,97,←,left,←,0.4964066999964416,True,33,1
156K28S2,234,experiment,61,↑,up,↑,0.6089983999845572,True,33,1
156K28S2,235,experiment,50,↑,up,↑,0.4801502000191249,True,33,1
156K28S2,236,experiment,87,↑,right,→,1.096394499996677,False,33,1
156K28S2,237,experiment,71,←,left,←,1.0775426999898627,True,33,1
156K28S2,238,experiment,51,←,left,←,1.6182221000199206,True,33,1
156K28S2,239,experiment,60,→,right,→,0.6068336000025738,True,33,1
156K28S2,240,experiment,93,↑,up,↑,0.5120634000049904,True,33,1
156K28S2,241,experiment,53,←,left,←,0.5384439000044949,True,33,1
156K28S2,242,experiment,68,←,left,←,0.9588119999971241,True,33,1
156K28S2,243,experiment,91,→,right,→,0.5947296000085771,True,33,1
156K28S2,244,experiment,59,↓,down,↓,0.4800184000050649,True,33,1
156K28S2,245,experiment,106,↑,up,↑,0.5139198000251781,True,33,1
156K28S2,246,experiment,95,↓,down,↓,0.4258325999835506,True,33,1
156K28S2,247,experiment,65,↓,down,↓,0.6158514999842737,True,33,0
156K28S2,248,experiment,52,↑,up,↑,0.6704275000083726,True,33,1
156K28S2,249,experiment,84,←,left,←,0.4882414999883622,True,33,1
156K28S2,250,experiment,82,←,left,←,0.47429579999879934,True,33,1
156K28S2,251,experiment,63,←,left,←,0.5387424000073224,True,33,1
156K28S2,252,experiment,105,→,right,→,0.6504334000055678,True,33,1
156K28S2,253,experiment,80,←,left,←,0.5907280000101309,True,33,1
156K28S2,254,experiment,78,↑,up,↑,0.5894335000193678,True,33,1
156K28S2,255,experiment,92,↑,up,↑,0.47182050000992604,True,33,1
156K28S2,256,experiment,100,↑,up,↑,0.46808389999205247,True,33,1
156K28S2,257,experiment,79,↓,down,↓,0.6479352999886032,True,33,1
156K28S2,258,experiment,88,↓,up,↑,0.8571654999977909,False,33,1
156K28S2,259,experiment,89,←,left,←,0.5217400999972597,True,33,1
156K28S2,260,experiment,73,→,right,→,0.5810519000224303,True,33,1
156K28S2,261,experiment,107,↓,down,↓,1.0429558999894653,True,33,1
156K28S2,262,experiment,58,↓,down,↓,0.7184498000133317,True,33,1
156K28S2,263,experiment,57,→,right,→,0.5435848000051919,True,33,1
156K28S2,264,experiment,101,↑,up,↑,0.5607564999954775,True,33,1
156K28S2,265,experiment,85,←,left,←,0.5346735000202898,True,33,1
156K28S2,266,experiment,81,→,right,→,0.5188885999959894,True,33,1
156K28S2,267,experiment,69,↑,down,↓,0.6358622999978252,False,33,1
156K28S2,268,experiment,66,↓,down,↓,0.5971801999839954,True,33,1
156K28S2,269,experiment,70,↑,up,↑,0.6146227999997791,True,33,1
156K28S2,270,experiment,55,↓,down,↓,0.5158958999963943,True,33,1
156K28S2,271,experiment,86,↑,up,↑,0.571233900001971,True,33,1
156K28S2,272,experiment,56,←,left,←,0.5221072999993339,True,33,1
156K28S2,273,experiment,75,→,right,→,0.5247161000152119,True,33,1
156K28S2,274,experiment,64,↓,down,↓,0.6191102000011597,True,33,1
156K28S2,275,experiment,49,→,right,→,0.6104295999975875,True,33,1
156K28S2,276,experiment,94,↑,up,↑,0.5795074999914505,True,33,1
156K28S2,277,experiment,48,←,left,←,0.5650926000089385,True,33,1
156K28S2,278,experiment,72,→,right,→,0.686580400011735,True,33,1
156K28S2,279,experiment,104,←,left,←,0.9935855000221636,True,33,1
156K28S2,280,experiment,54,↓,down,↓,0.6406268000137061,True,33,1
156K28S2,281,experiment,108,↑,up,↑,0.8033804000006057,True,33,1
156K28S2,282,experiment,77,←,left,←,0.4744047000131104,True,33,1
156K28S2,283,experiment,74,→,right,→,0.5913009000068996,True,33,1
156K28S2,284,experiment,76,←,left,←,0.4176590999995824,True,33,1
156K28S2,285,experiment,96,↑,up,↑,0.39137609998579137,True,33,1
156K28S2,286,experiment,98,↓,down,↓,0.542190300009679,True,33,0
156K28S2,287,experiment,90,↓,down,↓,0.5550743999774568,True,33,1
156K28S2,288,experiment,103,→,right,→,0.4516251999884844,True,33,1
156K28S2,289,experiment,102,↓,down,↓,0.5595604999980424,True,33,1
156K28S2,290,experiment,99,←,left,←,0.5929528999840841,True,33,1
156K28S2,291,experiment,83,↓,down,↓,0.6624918000015896,True,33,1
156K28S2,292,experiment,62,→,right,→,1.0233508999808691,True,33,1
156K28S2,293,training,64,→,right,→,0.5637408999900799,True,32,0
156K28S2,294,training,67,←,left,←,0.39247650001198053,True,32,1
156K28S2,295,experiment,57,↓,down,↓,0.47663780002039857,True,32,1
156K28S2,296,experiment,72,←,left,←,0.5541039999807253,True,32,1
156K28S2,297,experiment,60,↑,up,↑,0.592685799987521,True,32,1
156K28S2,298,experiment,71,↑,up,↑,1.1298091000062414,True,32,1
156K28S2,299,experiment,64,↑,up,↑,1.304347900004359,True,32,1
156K28S2,300,experiment,86,↓,down,↓,0.40043059998424724,True,32,1
156K28S2,301,experiment,88,←,left,←,0.6589540000131819,True,32,0
156K28S2,302,experiment,106,↑,up,↑,0.6455873000086285,True,32,1
156K28S2,303,experiment,77,↑,up,↑,0.5948834999871906,True,32,1
156K28S2,304,experiment,93,→,right,→,0.44569560000672936,True,32,1
156K28S2,305,experiment,61,↓,down,↓,0.6230904999829363,True,32,1
156K28S2,306,experiment,63,←,left,←,0.5460894000134431,True,32,1
156K28S2,307,experiment,99,↑,up,↑,0.47538290001102723,True,32,1
156K28S2,308,experiment,66,←,left,←,0.5791576000046916,True,32,1
156K28S2,309,experiment,79,←,left,←,0.45049670001026243,True,32,1
156K28S2,310,experiment,76,←,left,←,0.5113886000181083,True,32,1
156K28S2,311,experiment,87,←,left,←,0.4867126999888569,True,32,1
156K28S2,312,experiment,70,↑,up,↑,0.4685907000093721,True,32,1
156K28S2,313,experiment,67,↑,up,↑,0.484331799991196,True,32,1
156K28S2,314,experiment,104,←,left,←,1.0147263999970164,True,32,1
156K28S2,315,experiment,98,↓,down,↓,0.5022957999899518,True,32,1
156K28S2,316,experiment,97,↓,down,↓,0.6106089999957476,True,32,1
156K28S2,317,experiment,68,↓,down,↓,0.5882541000028141,True,32,1
156K28S2,318,experiment,56,↑,up,↑,0.5623984000121709,True,32,1
156K28S2,319,experiment,55,↓,up,↑,0.673922499991022,False,32,1
156K28S2,320,experiment,51,→,right,→,0.6865692999854218,True,32,1
156K28S2,321,experiment,94,↓,up,↑,0.4173646999988705,False,32,1
156K28S2,322,experiment,108,↓,down,↓,0.4803253000136465,True,32,0
156K28S2,323,experiment,52,↓,down,↓,0.916095900000073,True,32,1
156K28S2,324,experiment,96,←,left,←,0.5123751999926753,True,32,1
156K28S2,325,experiment,80,←,left,←,0.44232349999947473,True,32,1
156K28S2,326,experiment,107,↓,down,↓,0.6288057000201661,True,32,1
156K28S2,327,experiment,105,→,right,→,0.4332428999769036,True,32,1
156K28S2,328,experiment,78,↓,down,↓,0.5340775999939069,True,32,0
156K28S2,329,experiment,89,↑,up,↑,1.0597060000000056,True,32,1
156K28S2,330,experiment,102,↑,up,↑,0.5845519000140484,True,32,1
156K28S2,331,experiment,54,↑,up,↑,0.47142419998999685,True,32,1
156K28S2,332,experiment,58,←,left,←,0.5056798000005074,True,32,1
156K28S2,333,experiment,83,←,left,←,0.5381838000030257,True,32,1
156K28S2,334,experiment,101,↓,down,↓,0.6999175999953877,True,32,1
156K28S2,335,experiment,69,↓,down,↓,0.553352899994934,True,32,1
156K28S2,336,experiment,50,↓,down,↓,0.4993145000189543,True,32,1
156K28S2,337,experiment,81,→,right,→,1.0928798000095412,True,32,1
156K28S2,338,experiment,65,↓,down,↓,0.5484162000066135,True,32,1
156K28S2,339,experiment,92,↑,up,↑,0.6242942000098992,True,32,1
156K28S2,340,experiment,103,↑,up,↑,0.5177516000112519,True,32,1
156K28S2,341,experiment,74,↓,down,↓,0.6250131000124384,True,32,1
156K28S2,342,experiment,95,→,right,→,0.9289082999748643,True,32,1
156K28S2,343,experiment,49,←,left,←,0.5319660999812186,True,32,1
156K28S2,344,experiment,59,→,right,→,0.49124339999980293,True,32,1
156K28S2,345,experiment,85,↑,up,↑,0.436472799978219,True,32,1
156K28S2,346,experiment,84,↓,down,↓,0.6627953000133857,True,32,1
156K28S2,347,experiment,91,→,right,→,0.5183610999956727,True,32,1
156K28S2,348,experiment,82,↓,down,↓,0.6230426999973133,True,32,1
156K28S2,349,experiment,90,→,right,→,1.0812899000011384,True,32,1
156K28S2,350,experiment,75,↑,up,↑,0.5732066000055056,True,32,1
156K28S2,351,experiment,53,←,left,←,0.41649520001374185,True,32,1
156K28S2,352,experiment,62,↑,up,↑,0.5521807000041008,True,32,0
156K28S2,353,experiment,48,→,right,→,0.43490780002321117,True,32,1
156K28S2,354,experiment,100,→,right,→,0.7603352000005543,True,32,0
156K28S2,355,experiment,73,←,left,←,0.44281770000816323,True,32,1
156K28S2,356,training,75,←,left,←,0.4088407999952324,True,31,0
156K28S2,357,training,54,→,right,→,0.4457551999948919,True,31,1
156K28S2,358,experiment,49,↓,down,↓,0.5397516999801155,True,31,1
156K28S2,359,experiment,52,→,right,→,0.5975674999936018,True,31,1
156K28S2,360,experiment,54,→,right,→,0.5000015999830794,True,31,1
156K28S2,361,experiment,69,←,left,←,0.400565199990524,True,31,1
156K28S2,362,experiment,78,→,right,→,0.47962660001940094,True,31,0
156K28S2,363,experiment,93,←,left,←,0.9660251000022981,True,31,1
156K28S2,364,experiment,92,→,right,→,0.5775213000015356,True,31,1
156K28S2,365,experiment,66,←,left,←,0.40089189997524954,True,31,1
156K28S2,366,experiment,53,↑,up,↑,0.45948219997808337,True,31,0
156K28S2,367,experiment,108,↑,up,↑,0.40815470000961795,True,31,1
156K28S2,368,experiment,50,←,left,←,0.7011309999797959,True,31,0
156K28S2,369,experiment,82,↓,down,↓,0.494470999983605,True,31,1
156K28S2,370,experiment,106,↓,down,↓,0.45658550001098774,True,31,1
156K28S2,371,experiment,90,→,right,→,0.6321916000160854,True,31,1
156K28S2,372,experiment,48,↓,down,↓,0.5196168000111356,True,31,1
156K28S2,373,experiment,56,↓,down,↓,0.38384700001915917,True,31,1
156K28S2,374,experiment,105,←,left,←,0.7745633000158705,True,31,0
156K28S2,375,experiment,59,←,left,←,0.5249021000054199,True,31,1
156K28S2,376,experiment,94,→,right,→,0.5928972999972757,True,31,1
156K28S2,377,experiment,85,←,left,←,0.5336736000026576,True,31,1
156K28S2,378,experiment,104,↑,up,↑,0.582238300004974,True,31,1
156K28S2,379,experiment,83,→,right,→,0.611831100017298,True,31,1
156K28S2,380,experiment,71,←,left,←,0.5883189000014681,True,31,1
156K28S2,381,experiment,55,→,right,→,0.5947082999919076,True,31,1
156K28S2,382,experiment,100,←,left,←,0.5146369999856688,True,31,1
156K28S2,383,experiment,102,↓,up,↑,1.2844298999989405,False,31,1
156K28S2,384,experiment,70,←,left,←,0.5865104000258725,True,31,1
156K28S2,385,experiment,72,←,left,←,0.4517547999857925,True,31,1
156K28S2,386,experiment,51,↓,down,↓,0.6253515999997035,True,31,1
156K28S2,387,experiment,96,→,right,→,0.5610416000126861,True,31,1
156K28S2,388,experiment,81,→,right,→,0.44062740000663325,True,31,1
156K28S2,389,experiment,68,→,right,→,0.9367251999792643,True,31,1
156K28S2,390,experiment,101,→,right,→,0.5142381000041496,True,31,1
156K28S2,391,experiment,61,→,right,→,0.5217075999826193,True,31,1
156K28S2,392,experiment,58,→,right,→,0.5059712000074796,True,31,1
156K28S2,393,experiment,77,→,right,→,0.6606567999988329,True,31,1
156K28S2,394,experiment,107,↓,right,→,0.8555707999912556,False,31,1
156K28S2,395,experiment,87,↓,down,↓,0.5049232000019401,True,31,1
156K28S2,396,experiment,73,↑,up,↑,0.572970000008354,True,31,1
156K28S2,397,experiment,57,→,right,→,0.7156260999909136,True,31,1
156K28S2,398,experiment,60,↑,up,↑,0.5790595000144094,True,31,1
156K28S2,399,experiment,95,→,right,→,0.7168372000160161,True,31,1
156K28S2,400,experiment,74,↓,down,↓,0.512355100014247,True,31,1
156K28S2,401,experiment,98,→,right,→,0.5875089000037406,True,31,1
156K28S2,402,experiment,84,←,left,←,0.5205386000161525,True,31,1
156K28S2,403,experiment,99,↓,down,↓,0.5310117999906652,True,31,1
156K28S2,404,experiment,62,↑,up,↑,0.537559099990176,True,31,1
156K28S2,405,experiment,80,←,left,←,0.4341767999867443,True,31,1
156K28S2,406,experiment,76,↓,down,↓,0.5514547000057064,True,31,1
156K28S2,407,experiment,64,→,right,→,0.548722200008342,True,31,1
156K28S2,408,experiment,67,↓,down,↓,0.5371286000008695,True,31,1
156K28S2,409,experiment,103,↑,up,↑,0.6020411999779753,True,31,1
156K28S2,410,experiment,88,↓,down,↓,0.7091546999872662,True,31,1
156K28S2,411,experiment,89,↓,down,↓,1.0998486000171397,True,31,1
156K28S2,412,experiment,79,←,left,←,0.526317600015318,True,31,1
156K28S2,413,experiment,75,↑,up,↑,0.46465499998885207,True,31,1
156K28S2,414,experiment,91,→,right,→,0.5923137000063434,True,31,1
156K28S2,415,experiment,63,←,right,→,0.9088725000037812,False,31,1
156K28S2,416,experiment,97,↓,down,↓,0.5203414999996312,True,31,1
156K28S2,417,experiment,65,←,right,→,0.7662717000057455,False,31,1
156K28S2,418,experiment,86,←,left,←,0.4361722000176087,True,31,1
156K28S2,419,training,71,↑,up,↑,0.5600142999901436,True,30,0
156K28S2,420,training,84,←,left,←,0.4702199000166729,True,30,1
156K28S2,421,experiment,51,→,right,→,0.46677549998275936,True,30,1
156K28S2,422,experiment,107,↓,up,↑,0.6371178999834228,False,30,1
156K28S2,423,experiment,84,↑,up,↑,0.6080380999774206,True,30,1
156K28S2,424,experiment,80,←,left,←,0.5016998999926727,True,30,1
156K28S2,425,experiment,82,↓,down,↓,0.7193904999876395,True,30,1
156K28S2,426,experiment,79,←,left,←,0.49689799998304807,True,30,1
156K28S2,427,experiment,71,→,right,→,0.43775929999537766,True,30,1
156K28S2,428,experiment,65,↑,up,↑,0.4708645999780856,True,30,1
156K28S2,429,experiment,55,←,left,←,0.5379607999930158,True,30,1
156K28S2,430,experiment,89,↑,up,↑,0.49544929998228326,True,30,1
156K28S2,431,experiment,86,←,left,←,0.9833979000104591,True,30,1
156K28S2,432,experiment,76,←,left,←,0.46323550000670366,True,30,1
156K28S2,433,experiment,50,←,left,←,0.4766030000173487,True,30,1
156K28S2,434,experiment,59,↑,up,↑,0.5025597999920137,True,30,1
156K28S2,435,experiment,99,→,right,→,0.47392519999993965,True,30,1
156K28S2,436,experiment,73,←,left,←,0.44748839997919276,True,30,1
156K28S2,437,experiment,98,↓,down,↓,0.6371101999829989,True,30,1
156K28S2,438,experiment,64,→,right,→,0.6147658000118099,True,30,1
156K28S2,439,experiment,74,→,right,→,0.4861823999963235,True,30,1
156K28S2,440,experiment,67,↓,down,↓,0.7008702000021003,True,30,1
156K28S2,441,experiment,49,→,right,→,0.45711359998676926,True,30,1
156K28S2,442,experiment,57,→,right,→,0.4207909000106156,True,30,1
156K28S2,443,experiment,108,←,left,←,0.3765531000099145,True,30,1
156K28S2,444,experiment,94,←,left,←,0.40034329998889007,True,30,0
156K28S2,445,experiment,96,↓,down,↓,0.35860649999813177,True,30,0
156K28S2,446,experiment,97,↑,down,↓,0.6750846000213642,False,30,0
156K28S2,447,experiment,81,←,left,←,0.5576915999990888,True,30,1
156K28S2,448,experiment,100,↓,down,↓,0.4547110999992583,True,30,1
156K28S2,449,experiment,60,←,left,←,0.4969654000014998,True,30,1
156K28S2,450,experiment,52,↑,up,↑,0.5160883999778889,True,30,1
156K28S2,451,experiment,103,←,left,←,0.3755605999904219,True,30,1
156K28S2,452,experiment,101,↑,up,↑,0.4537064000032842,True,30,1
156K28S2,453,experiment,102,→,left,←,0.8099350000265986,False,30,1
156K28S2,454,experiment,66,←,right,→,0.7560762999928556,False,30,1
156K28S2,455,experiment,83,←,left,←,0.4667786000063643,True,30,1
156K28S2,456,experiment,92,←,left,←,0.5221770999778528,True,30,1
156K28S2,457,experiment,61,↑,up,↑,0.7052638999884948,True,30,1
156K28S2,458,experiment,72,↑,up,↑,0.669535100023495,True,30,1
156K28S2,459,experiment,85,↓,down,↓,0.6314914999820758,True,30,1
156K28S2,460,experiment,54,↑,down,↓,0.45251319999806583,False,30,1
156K28S2,461,experiment,105,←,left,←,0.5837446000077762,True,30,1
156K28S2,462,experiment,77,→,right,→,0.4397686000156682,True,30,1
156K28S2,463,experiment,69,←,left,←,0.5915723000071011,True,30,1
156K28S2,464,experiment,104,↑,up,↑,0.4936304000148084,True,30,1
156K28S2,465,experiment,78,→,right,→,0.7527563999756239,True,30,1
156K28S2,466,experiment,91,↓,down,↓,0.6368943999987096,True,30,1
156K28S2,467,experiment,106,→,right,→,0.48110480001196265,True,30,1
156K28S2,468,experiment,95,←,left,←,0.43861119999201037,True,30,1
156K28S2,469,experiment,88,←,left,←,0.5608897000201978,True,30,1
156K28S2,470,experiment,93,↑,up,↑,1.0995949000061955,True,30,1
156K28S2,471,experiment,68,↑,up,↑,0.5695873000076972,True,30,1
156K28S2,472,experiment,62,←,left,←,0.6708110000181478,True,30,1
156K28S2,473,experiment,70,←,left,←,0.5095878000138327,True,30,1
156K28S2,474,experiment,75,→,right,→,0.6090263999940362,True,30,1
156K28S2,475,experiment,53,↓,down,↓,0.5595934000157285,True,30,1
156K28S2,476,experiment,48,↑,up,↑,0.4494299999787472,True,30,1
156K28S2,477,experiment,58,↓,down,↓,0.5406322999915574,True,30,1
156K28S2,478,experiment,56,↓,down,↓,0.5327672999992501,True,30,1
156K28S2,479,experiment,63,←,left,←,0.6518306999932975,True,30,1
156K28S2,480,experiment,90,→,right,→,0.6118997999874409,True,30,1
156K28S2,481,experiment,87,↑,up,↑,0.5427752000105102,True,30,1
156K28S2,482,training,103,↑,up,↑,0.46453569998266175,True,29,0
156K28S2,483,training,89,→,left,←,0.43289339999319054,False,29,1
156K28S2,484,experiment,59,↑,up,↑,0.5882417999964673,True,29,1
156K28S2,485,experiment,93,←,left,←,0.6144215000094846,True,29,1
156K28S2,486,experiment,68,→,right,→,0.5274369000107981,True,29,1
156K28S2,487,experiment,51,↑,up,↑,0.49025000000256114,True,29,1
156K28S2,488,experiment,75,↑,up,↑,0.5019758999987971,True,29,1
156K28S2,489,experiment,79,←,left,←,0.4801429999934044,True,29,1
156K28S2,490,experiment,73,→,right,→,0.4931483999826014,True,29,1
156K28S2,491,experiment,98,←,left,←,0.5854346999840345,True,29,1
156K28S2,492,experiment,64,→,right,→,0.6933302999823354,True,29,1
156K28S2,493,experiment,61,→,right,→,0.6221461000095587,True,29,1
156K28S2,494,experiment,49,→,right,→,0.741173099988373,True,29,1
156K28S2,495,experiment,48,→,right,→,0.552113499987172,True,29,1
156K28S2,496,experiment,95,↑,up,↑,0.6109952999977395,True,29,1
156K28S2,497,experiment,91,↑,up,↑,1.069020199996885,True,29,1
156K28S2,498,experiment,50,↓,up,↑,0.6744245000008959,False,29,1
156K28S2,499,experiment,67,←,left,←,0.54568539999309,True,29,1
156K28S2,500,experiment,71,←,left,←,0.4295321000099648,True,29,1
156K28S2,501,experiment,56,↑,up,↑,0.4816755999927409,True,29,1
156K28S2,502,experiment,101,→,right,→,0.6449935999989975,True,29,1
156K28S2,503,experiment,82,→,right,→,0.6087896999961231,True,29,1
156K28S2,504,experiment,77,→,right,→,0.5035599999828264,True,29,1
156K28S2,505,experiment,84,↑,up,↑,0.5676029000023846,True,29,1
156K28S2,506,experiment,74,←,right,→,0.6009344000194687,False,29,1
156K28S2,507,experiment,63,←,left,←,0.5088155000121333,True,29,1
156K28S2,508,experiment,81,→,right,→,0.5978429999959189,True,29,1
156K28S2,509,experiment,105,←,left,←,0.5234194000076968,True,29,1
156K28S2,510,experiment,62,↑,up,↑,0.4424210000142921,True,29,1
156K28S2,511,experiment,53,←,left,←,0.49548480001976714,True,29,1
156K28S2,512,experiment,52,→,right,→,0.49868320001405664,True,29,1
156K28S2,513,experiment,107,↓,down,↓,0.47605480000493117,True,29,1
156K28S2,514,experiment,104,→,right,→,0.5906640000175685,True,29,1
156K28S2,515,experiment,87,↓,down,↓,0.5309816000226419,True,29,1
156K28S2,516,experiment,94,←,left,←,0.5266429000184871,True,29,1
156K28S2,517,experiment,89,↑,up,↑,0.7489880000066478,True,29,1
156K28S2,518,experiment,69,←,left,←,0.4802739000006113,True,29,1
156K28S2,519,experiment,103,←,right,→,0.3749066000164021,False,29,1
156K28S2,520,experiment,55,→,right,→,0.6828409000008833,True,29,0
156K28S2,521,experiment,57,→,right,→,0.5723800999985542,True,29,1
156K28S2,522,experiment,108,↓,down,↓,0.674128099984955,True,29,1
156K28S2,523,experiment,65,↑,up,↑,0.458230000018375,True,29,1
156K28S2,524,experiment,99,↑,up,↑,0.7272639999864623,True,29,1
156K28S2,525,experiment,96,↑,up,↑,0.5313897000160068,True,29,1
156K28S2,526,experiment,66,←,left,←,0.5604248000017833,True,29,1
156K28S2,527,experiment,58,←,left,←,0.44751320002251305,True,29,1
156K28S2,528,experiment,88,→,right,→,0.5363569999753963,True,29,1
156K28S2,529,experiment,102,→,left,←,0.35079250001581386,False,29,1
156K28S2,530,experiment,72,→,right,→,0.6198528000095394,True,29,0
156K28S2,531,experiment,97,↓,down,↓,0.6516423000139184,True,29,1
156K28S2,532,experiment,80,↑,up,↑,0.5197278000123333,True,29,1
156K28S2,533,experiment,54,↑,up,↑,0.47377520002191886,True,29,1
156K28S2,534,experiment,86,←,left,←,0.4424241000087932,True,29,1
156K28S2,535,experiment,60,↑,up,↑,0.9895558999851346,True,29,1
156K28S2,536,experiment,100,↓,down,↓,0.5493558000016492,True,29,1
156K28S2,537,experiment,78,↓,down,↓,0.6217007999948692,True,29,1
156K28S2,538,experiment,85,→,right,→,1.1532167999830563,True,29,1
156K28S2,539,experiment,92,↓,down,↓,0.4373236000246834,True,29,1
156K28S2,540,experiment,83,←,left,←,0.48043609998421744,True,29,1
156K28S2,541,experiment,106,→,right,→,0.5230165999964811,True,29,1
156K28S2,542,experiment,70,↑,up,↑,0.7185489000112284,True,29,1
156K28S2,543,experiment,76,↑,up,↑,0.6095997999946121,True,29,1
156K28S2,544,experiment,90,←,left,←,0.5796498999989126,True,29,1
156K28S2,545,training,89,←,left,←,0.46140150001156144,True,28,0
156K28S2,546,training,87,←,left,←,0.42250579997198656,True,28,1
156K28S2,547,experiment,95,↓,down,↓,0.5582892000093125,True,28,1
156K28S2,548,experiment,91,↑,up,↑,0.41840399999637157,True,28,1
156K28S2,549,experiment,50,→,right,→,0.5050388999807183,True,28,1
156K28S2,550,experiment,64,↓,down,↓,0.569025300006615,True,28,1
156K28S2,551,experiment,58,↑,up,↑,0.4225667999999132,True,28,1
156K28S2,552,experiment,69,↓,down,↓,0.566846900008386,True,28,1
156K28S2,553,experiment,107,↑,up,↑,0.6293509000097401,True,28,1
156K28S2,554,experiment,60,↑,up,↑,0.5369293999974616,True,28,1
156K28S2,555,experiment,100,↓,down,↓,0.6425158000201918,True,28,1
156K28S2,556,experiment,59,↓,up,↑,0.7579775000049267,False,28,1
156K28S2,557,experiment,67,↑,up,↑,0.44995539999217726,True,28,1
156K28S2,558,experiment,86,→,right,→,0.41981309998664074,True,28,1
156K28S2,559,experiment,48,←,left,←,0.563130499998806,True,28,1
156K28S2,560,experiment,97,←,left,←,0.44495430000824854,True,28,1
156K28S2,561,experiment,94,↓,down,↓,0.6924425999750383,True,28,1
156K28S2,562,experiment,75,↓,down,↓,0.5126501999911852,True,28,1
156K28S2,563,experiment,66,→,right,→,0.4463063000002876,True,28,1
156K28S2,564,experiment,61,←,left,←,0.4165006000257563,True,28,1
156K28S2,565,experiment,104,↓,down,↓,0.5102211000048555,True,28,1
156K28S2,566,experiment,103,↑,up,↑,0.5997782000049483,True,28,1
156K28S2,567,experiment,73,↓,down,↓,0.4882447999843862,True,28,1
156K28S2,568,experiment,82,→,left,←,0.5056387000076938,False,28,1
156K28S2,569,experiment,96,→,right,→,0.4700072999985423,True,28,1
156K28S2,570,experiment,72,←,left,←,1.0035449000133667,True,28,1
156K28S2,571,experiment,106,↓,down,↓,0.5690456999873277,True,28,1
156K28S2,572,experiment,92,←,left,←,0.48425790001056157,True,28,1
156K28S2,573,experiment,54,↑,up,↑,0.4872132000164129,True,28,1
156K28S2,574,experiment,52,↓,down,↓,0.5867357999959495,True,28,1
156K28S2,575,experiment,49,←,left,←,0.5075620999850798,True,28,1
156K28S2,576,experiment,68,→,left,←,0.4256333000084851,False,28,1
156K28S2,577,experiment,65,←,left,←,0.8110612999880686,True,28,1
156K28S2,578,experiment,102,←,left,←,0.6576440999924671,True,28,1
156K28S2,579,experiment,80,↓,down,↓,0.7330974999931641,True,28,1
156K28S2,580,experiment,53,→,right,→,0.5827591999841388,True,28,1
156K28S2,581,experiment,79,↑,up,↑,0.4617988000100013,True,28,1
156K28S2,582,experiment,57,←,left,←,0.47277270001359284,True,28,1
156K28S2,583,experiment,78,→,right,→,0.6523866000061389,True,28,1
156K28S2,584,experiment,70,←,left,←,0.4998212000064086,True,28,1
156K28S2,585,experiment,83,↓,down,↓,0.48490209999727085,True,28,1
156K28S2,586,experiment,87,↑,up,↑,0.44488940000883304,True,28,1
156K28S2,587,experiment,85,↑,up,↑,0.4557071000162978,True,28,1
156K28S2,588,experiment,101,↓,down,↓,0.43641580000985414,True,28,1
156K28S2,589,experiment,105,←,right,→,0.816828799986979,False,28,1
156K28S2,590,experiment,89,→,right,→,0.866824099997757,True,28,1
156K28S2,591,experiment,56,→,right,→,0.5178259999956936,True,28,1
156K28S2,592,experiment,99,←,left,←,0.6567647999909241,True,28,1
156K28S2,593,experiment,98,←,left,←,0.5105811000103131,True,28,1
156K28S2,594,experiment,51,←,left,←,0.5857848000014201,True,28,1
156K28S2,595,experiment,76,←,left,←,0.537669499986805,True,28,1
156K28S2,596,experiment,88,→,right,→,0.46323819999815896,True,28,1
156K28S2,597,experiment,108,↓,down,↓,0.5932975999894552,True,28,1
156K28S2,598,experiment,93,↓,down,↓,0.5872823999961838,True,28,1
156K28S2,599,experiment,74,→,right,→,0.6275204999838024,True,28,1
156K28S2,600,experiment,90,↓,down,↓,0.7177412000019103,True,28,1
156K28S2,601,experiment,62,→,right,→,0.40509399998700246,True,28,1
156K28S2,602,experiment,84,↑,up,↑,0.6967614000022877,True,28,1
156K28S2,603,experiment,81,→,right,→,0.43442330000107177,True,28,1
156K28S2,604,experiment,63,→,right,→,0.45259999998961575,True,28,1
156K28S2,605,experiment,77,→,right,→,0.5776074999885168,True,28,1
156K28S2,606,experiment,71,←,down,↓,0.6514759999990929,False,28,1
156K28S2,607,experiment,55,↑,up,↑,0.6556792999908794,True,28,1
156K28S2,608,training,50,←,left,←,0.6341958999983035,True,28,0
156K28S2,609,training,89,→,right,→,0.6038225999800488,True,28,1
156K28S2,610,experiment,48,→,right,→,0.6201257999928202,True,28,1
156K28S2,611,experiment,96,↑,down,↓,0.7797687999845948,False,28,1
156K28S2,612,experiment,81,↑,down,↓,0.8188099999970291,False,28,1
156K28S2,613,experiment,69,←,left,←,0.5799039000121411,True,28,1
156K28S2,614,experiment,86,→,right,→,0.4961149000155274,True,28,1
156K28S2,615,experiment,106,→,right,→,0.5782410000101663,True,28,1
156K28S2,616,experiment,82,↑,up,↑,0.48013159999391064,True,28,1
156K28S2,617,experiment,88,→,right,→,0.4564063999860082,True,28,1
156K28S2,618,experiment,85,↑,up,↑,0.6820590000133961,True,28,1
156K28S2,619,experiment,95,↑,up,↑,0.9440075000165962,True,28,1
156K28S2,620,experiment,105,↑,up,↑,0.4401443999959156,True,28,1
156K28S2,621,experiment,64,←,left,←,0.46538870001677424,True,28,1
156K28S2,622,experiment,65,↑,down,↓,0.6817506999941543,False,28,1
156K28S2,623,experiment,66,→,right,→,0.44085340001038276,True,28,1
156K28S2,624,experiment,63,←,left,←,0.6107639000110794,True,28,1
156K28S2,625,experiment,74,→,right,→,0.6346172999765258,True,28,1
156K28S2,626,experiment,101,↓,down,↓,0.4481186000048183,True,28,1
156K28S2,627,experiment,84,↓,down,↓,0.5469910000101663,True,28,1
156K28S2,628,experiment,94,→,right,→,0.7099897000007331,True,28,1
156K28S2,629,experiment,56,→,right,→,0.45554100000299513,True,28,1
156K28S2,630,experiment,93,→,right,→,0.6071255999850109,True,28,1
156K28S2,631,experiment,71,←,left,←,0.6158987999951933,True,28,1
156K28S2,632,experiment,54,←,left,←,0.5973904999846127,True,28,1
156K28S2,633,experiment,87,→,right,→,0.7770280999829993,True,28,1
156K28S2,634,experiment,104,↑,up,↑,0.6401212999771815,True,28,1
156K28S2,635,experiment,49,↑,up,↑,1.0226947999908589,True,28,1
156K28S2,636,experiment,70,↓,down,↓,0.5592730000207666,True,28,1
156K28S2,637,experiment,50,↓,down,↓,0.4645373999956064,True,28,1
156K28S2,638,experiment,80,→,right,→,0.5322649000154343,True,28,1
156K28S2,639,experiment,60,→,right,→,0.48303830000804737,True,28,1
156K28S2,640,experiment,99,↓,down,↓,0.5275734000024386,True,28,1
156K28S2,641,experiment,79,↓,down,↓,0.4248319999896921,True,28,1
156K28S2,642,experiment,102,↑,up,↑,0.5503257000236772,True,28,1
156K28S2,643,experiment,77,←,left,←,0.6472724999766797,True,28,1
156K28S2,644,experiment,92,↑,up,↑,0.4716463999939151,True,28,1
156K28S2,645,experiment,75,←,left,←,0.5237763999903109,True,28,1
156K28S2,646,experiment,83,→,right,→,0.5638288999907672,True,28,1
156K28S2,647,experiment,62,→,right,→,0.41761099998257123,True,28,1
156K28S2,648,experiment,57,→,right,→,0.6458012999792118,True,28,1
156K28S2,649,experiment,78,←,left,←,0.4825898999988567,True,28,1
156K28S2,650,experiment,55,→,right,→,0.605327600002056,True,28,1
156K28S2,651,experiment,98,↓,down,↓,0.49316410001483746,True,28,1
156K28S2,652,experiment,100,↓,down,↓,0.6566797000123188,True,28,1
156K28S2,653,experiment,67,↑,up,↑,0.7610255000181496,True,28,1
156K28S2,654,experiment,59,↓,down,↓,0.7192170999769587,True,28,1
156K28S2,655,experiment,108,←,left,←,0.5669974000193179,True,28,1
156K28S2,656,experiment,91,→,right,→,0.578542400005972,True,28,1
156K28S2,657,experiment,52,↓,down,↓,0.730799399985699,True,28,1
156K28S2,658,experiment,68,←,left,←,0.5754986999963876,True,28,1
156K28S2,659,experiment,51,↓,down,↓,0.735658500023419,True,28,1
156K28S2,660,experiment,90,↓,down,↓,0.5570490999962203,True,28,1
156K28S2,661,experiment,89,↑,up,↑,0.5139811999979429,True,28,1
156K28S2,662,experiment,58,↓,down,↓,0.4584821999887936,True,28,1
156K28S2,663,experiment,76,←,left,←,0.6072323000116739,True,28,1
156K28S2,664,experiment,61,→,right,→,0.9790168999752495,True,28,1
156K28S2,665,experiment,73,↓,down,↓,0.3839301999832969,True,28,1
156K28S2,666,experiment,97,→,right,→,0.4367937999777496,True,28,0
156K28S2,667,experiment,107,→,right,→,0.3672132999927271,True,28,1
156K28S2,668,experiment,72,↑,up,↑,0.47398700000485405,True,28,0
156K28S2,669,experiment,103,↑,up,↑,0.5572451000043657,True,28,1
156K28S2,670,experiment,53,→,right,→,0.9657080000033602,True,28,1
156K28S2,671,training,88,↑,up,↑,0.6006223999720532,True,28,0
156K28S2,672,training,94,↑,up,↑,0.465926800010493,True,28,1
156K28S2,673,experiment,73,↓,down,↓,0.5192944000009447,True,28,1
156K28S2,674,experiment,59,↓,down,↓,0.4714774000167381,True,28,1
156K28S2,675,experiment,55,←,left,←,0.3675074999919161,True,28,1
156K28S2,676,experiment,86,↓,up,↑,0.6156363999762107,False,28,0
156K28S2,677,experiment,77,↑,up,↑,0.4299128999991808,True,28,1
156K28S2,678,experiment,93,←,left,←,0.3670714999898337,True,28,1
156K28S2,679,experiment,48,→,right,→,0.5196433000091929,True,28,0
156K28S2,680,experiment,96,→,right,→,0.5477892000053544,True,28,1
156K28S2,681,experiment,72,→,right,→,0.5344282999867573,True,28,1
156K28S2,682,experiment,99,←,left,←,0.5126009000232443,True,28,1
156K28S2,683,experiment,84,→,right,→,0.49692900001537055,True,28,1
156K28S2,684,experiment,50,↓,down,↓,0.4923055999970529,True,28,1
156K28S2,685,experiment,71,↓,down,↓,0.5617321000027005,True,28,1
156K28S2,686,experiment,69,←,left,←,0.5809713999915402,True,28,1
156K28S2,687,experiment,107,↓,down,↓,0.8267162000120152,True,28,1
156K28S2,688,experiment,101,↓,down,↓,0.6007579999859445,True,28,1
156K28S2,689,experiment,104,→,right,→,0.6307304999791086,True,28,1
156K28S2,690,experiment,85,→,right,→,0.5616720999823883,True,28,1
156K28S2,691,experiment,62,→,right,→,0.4713441999920178,True,28,1
156K28S2,692,experiment,82,←,left,←,0.5214520999870729,True,28,1
156K28S2,693,experiment,75,↓,down,↓,0.6924825999885798,True,28,1
156K28S2,694,experiment,100,↑,down,↓,0.7919708999979775,False,28,1
156K28S2,695,experiment,57,←,left,←,0.37529329999233596,True,28,1
156K28S2,696,experiment,78,→,right,→,0.4130054000124801,True,28,0
156K28S2,697,experiment,67,→,right,→,0.3839309000177309,True,28,1
156K28S2,698,experiment,102,→,left,←,0.45345379997161217,False,28,0
156K28S2,699,experiment,95,↓,down,↓,0.5560248999972828,True,28,1
156K28S2,700,experiment,89,↓,down,↓,0.5127073000185192,True,28,1
156K28S2,701,experiment,49,↑,up,↑,0.4841947000240907,True,28,1
156K28S2,702,experiment,63,→,left,←,0.6287402000161819,False,28,1
156K28S2,703,experiment,56,↓,down,↓,0.6408694999990985,True,28,1
156K28S2,704,experiment,68,↑,up,↑,0.5454975999891758,True,28,1
156K28S2,705,experiment,88,↓,down,↓,0.6468250000034459,True,28,1
156K28S2,706,experiment,94,↑,up,↑,0.48598980001406744,True,28,1
156K28S2,707,experiment,90,↑,up,↑,1.1412413999787532,True,28,1
156K28S2,708,experiment,65,↓,up,↑,0.44267889999900945,False,28,1
156K28S2,709,experiment,70,→,right,→,0.4661928999994416,True,28,1
156K28S2,710,experiment,52,↓,down,↓,0.5186914999794681,True,28,1
156K28S2,711,experiment,83,→,right,→,0.6470696000033058,True,28,1
156K28S2,712,experiment,80,←,left,←,0.5069494000053965,True,28,1
156K28S2,713,experiment,106,↑,up,↑,0.6920228000089992,True,28,1
156K28S2,714,experiment,91,↓,down,↓,0.658629799989285,True,28,1
156K28S2,715,experiment,97,→,right,→,0.7850494000012986,True,28,1
156K28S2,716,experiment,74,←,left,←,0.5054459999955725,True,28,1
156K28S2,717,experiment,81,↓,up,↑,0.6429952999751549,False,28,1
156K28S2,718,experiment,108,←,left,←,0.5177046000026166,True,28,1
156K28S2,719,experiment,51,→,right,→,0.5845645999943372,True,28,1
156K28S2,720,experiment,92,↓,down,↓,0.731241500005126,True,28,1
156K28S2,721,experiment,64,→,right,→,0.5051367999985814,True,28,1
156K28S2,722,experiment,76,←,left,←,0.500130700005684,True,28,1
156K28S2,723,experiment,60,→,right,→,0.636705000011716,True,28,1
156K28S2,724,experiment,105,←,right,→,0.5691788000112865,False,28,1
156K28S2,725,experiment,98,↑,up,↑,0.43402359998435713,True,28,1
156K28S2,726,experiment,54,↑,up,↑,0.5351674999983516,True,28,1
156K28S2,727,experiment,103,→,right,→,0.47207959997467697,True,28,1
156K28S2,728,experiment,66,↑,up,↑,0.43193310001515783,True,28,1
156K28S2,729,experiment,61,→,right,→,1.306499199999962,True,28,1
156K28S2,730,experiment,58,↑,up,↑,0.37573020000127144,True,28,1
156K28S2,731,experiment,87,←,left,←,0.3672767000098247,True,28,1
156K28S2,732,experiment,53,↑,up,↑,0.688000699999975,True,28,1
156K28S2,733,experiment,79,→,left,←,0.5063864999974612,False,28,1
156K28S2,734,training,54,↑,right,→,0.7565638000087347,False,28,0
156K28S2,735,training,55,↓,down,↓,0.524253800016595,True,28,1
156K28S2,736,experiment,104,←,right,→,0.7491960999905132,False,28,1
156K28S2,737,experiment,93,↑,up,↑,0.5048405000125058,True,28,1
156K28S2,738,experiment,59,→,right,→,0.617461199988611,True,28,1
156K28S2,739,experiment,68,↑,up,↑,0.4347655000165105,True,28,1
156K28S2,740,experiment,55,←,left,←,0.5676110000058543,True,28,1
156K28S2,741,experiment,80,←,left,←,0.5027821999974549,True,28,1
156K28S2,742,experiment,99,←,right,→,0.5706236999831162,False,28,1
156K28S2,743,experiment,88,←,left,←,0.48707220001961105,True,28,1
156K28S2,744,experiment,71,↑,up,↑,0.5643546000064816,True,28,1
156K28S2,745,experiment,101,→,right,→,0.5967020000098273,True,28,1
156K28S2,746,experiment,78,↓,down,↓,0.6997836000227835,True,28,1
156K28S2,747,experiment,76,→,right,→,0.6949284999864176,True,28,1
156K28S2,748,experiment,58,→,right,→,0.5681577000068501,True,28,1
156K28S2,749,experiment,48,↓,down,↓,0.5301990000007208,True,28,1
156K28S2,750,experiment,69,→,right,→,0.4865657000045758,True,28,1
156K28S2,751,experiment,52,←,left,←,0.554200500017032,True,28,1
156K28S2,752,experiment,61,→,right,→,0.5761626999883447,True,28,1
156K28S2,753,experiment,100,→,right,→,0.4483366000058595,True,28,1
156K28S2,754,experiment,62,↓,down,↓,0.49839769999380223,True,28,1
156K28S2,755,experiment,70,↓,down,↓,0.5118300000031013,True,28,1
156K28S2,756,experiment,90,←,left,←,0.46950700000161305,True,28,1
156K28S2,757,experiment,86,↓,down,↓,0.5430419000040274,True,28,1
156K28S2,758,experiment,64,↓,down,↓,0.48464780001086183,True,28,1
156K28S2,759,experiment,57,↑,up,↑,0.6864889000135008,True,28,1
156K28S2,760,experiment,74,↓,down,↓,0.6351243000244722,True,28,1
156K28S2,761,experiment,83,←,left,←,0.7347771000058856,True,28,1
156K28S2,762,experiment,103,→,left,←,0.6156108999857679,False,28,1
156K28S2,763,experiment,102,→,right,→,0.5417379999998957,True,28,1
156K28S2,764,experiment,107,←,left,←,0.6132401000068057,True,28,1
156K28S2,765,experiment,96,→,right,→,0.5008788999984972,True,28,1
156K28S2,766,experiment,56,→,right,→,0.5588149999966845,True,28,1
156K28S2,767,experiment,53,→,right,→,0.49541170001612045,True,28,1
156K28S2,768,experiment,81,↓,down,↓,0.5289160000102129,True,28,1
156K28S2,769,experiment,49,→,right,→,0.7798190000175964,True,28,1
156K28S2,770,experiment,94,→,right,→,0.47786439998890273,True,28,1
156K28S2,771,experiment,105,←,left,←,0.4804936999862548,True,28,1
156K28S2,772,experiment,85,↑,up,↑,0.5774511999916285,True,28,1
156K28S2,773,experiment,108,↓,down,↓,0.6235551999998279,True,28,1
156K28S2,774,experiment,98,→,right,→,0.6140687999723013,True,28,1
156K28S2,775,experiment,79,↓,down,↓,0.46776390000013635,True,28,1
156K28S2,776,experiment,72,→,right,→,0.4821366000105627,True,28,1
156K28S2,777,experiment,82,←,left,←,0.6435958000074606,True,28,1
156K28S2,778,experiment,106,→,right,→,0.7760128999943845,True,28,1
156K28S2,779,experiment,63,←,left,←,0.4440185999847017,True,28,1
156K28S2,780,experiment,50,→,right,→,0.6421261999930721,True,28,1
156K28S2,781,experiment,73,→,right,→,0.4566773999831639,True,28,1
156K28S2,782,experiment,95,→,left,←,0.4799011000141036,False,28,1
156K28S2,783,experiment,97,←,left,←,0.4603373999998439,True,28,1
156K28S2,784,experiment,92,←,left,←,0.6042764000012539,True,28,1
156K28S2,785,experiment,66,←,left,←,0.5188593000057153,True,28,1
156K28S2,786,experiment,65,↓,down,↓,0.628832299989881,True,28,1
156K28S2,787,experiment,77,↓,down,↓,0.4029613999882713,True,28,1
156K28S2,788,experiment,84,↓,down,↓,0.47172109998064116,True,28,0
156K28S2,789,experiment,54,↓,down,↓,0.42686619999585673,True,28,1
156K28S2,790,experiment,60,↑,down,↓,0.6224588000040967,False,28,1
156K28S2,791,experiment,87,↓,down,↓,0.4811320999870077,True,28,1
156K28S2,792,experiment,75,→,right,→,0.405398700007936,True,28,1
156K28S2,793,experiment,89,←,left,←,0.9678808999888133,True,28,0
156K28S2,794,experiment,91,→,right,→,0.6436232000123709,True,28,1
156K28S2,795,experiment,67,↑,right,→,0.6606122000084724,False,28,1
156K28S2,796,experiment,51,←,left,←,0.5374913999985438,True,28,1
156K28S2,797,training,102,→,right,→,0.5723025999905076,True,28,0
156K28S2,798,training,95,↓,down,↓,0.6541803999862168,True,28,1
156K28S2,799,experiment,107,↑,up,↑,0.6167901000007987,True,28,1
156K28S2,800,experiment,67,←,left,←,0.5224754999799188,True,28,1
156K28S2,801,experiment,95,↓,up,↑,0.7184616999875288,False,28,1
156K28S2,802,experiment,65,←,left,←,0.413091299997177,True,28,1
156K28S2,803,experiment,94,↓,down,↓,0.5818823000008706,True,28,1
156K28S2,804,experiment,106,→,right,→,0.4592852000205312,True,28,1
156K28S2,805,experiment,75,↓,down,↓,0.6885157999931835,True,28,1
156K28S2,806,experiment,91,→,left,←,0.5595155999762937,False,28,1
156K28S2,807,experiment,53,←,left,←,0.4717755000165198,True,28,1
156K28S2,808,experiment,83,↑,up,↑,0.6337637000251561,True,28,1
156K28S2,809,experiment,62,↓,down,↓,0.46054599998751655,True,28,1
156K28S2,810,experiment,79,↑,up,↑,0.5521529999969061,True,28,1
156K28S2,811,experiment,78,↑,up,↑,0.5288446000195108,True,28,1
156K28S2,812,experiment,90,←,left,←,0.5981688000028953,True,28,1
156K28S2,813,experiment,80,↑,up,↑,0.6119946999824606,True,28,1
156K28S2,814,experiment,66,↓,down,↓,0.5422410999890417,True,28,1
156K28S2,815,experiment,97,←,left,←,0.48862999997800216,True,28,1
156K28S2,816,experiment,88,↑,up,↑,0.6325291999964975,True,28,1
156K28S2,817,experiment,96,↓,down,↓,0.5119250999996439,True,28,1
156K28S2,818,experiment,85,↓,down,↓,0.6636173999868333,True,28,1
156K28S2,819,experiment,102,←,left,←,0.5155928999884054,True,28,1
156K28S2,820,experiment,93,↓,down,↓,0.5452178999839816,True,28,1
156K28S2,821,experiment,104,→,right,→,0.4489688999892678,True,28,1
156K28S2,822,experiment,76,↓,down,↓,0.5743820999923628,True,28,1
156K28S2,823,experiment,77,↑,up,↑,0.5264599999936763,True,28,1
156K28S2,824,experiment,108,↑,up,↑,0.5177649999968708,True,28,1
156K28S2,825,experiment,50,↑,up,↑,0.5452584000013303,True,28,1
156K28S2,826,experiment,70,→,right,→,0.5004416999872774,True,28,1
156K28S2,827,experiment,54,↓,down,↓,0.5027868000033777,True,28,1
156K28S2,828,experiment,105,→,right,→,0.5924322999780998,True,28,1
156K28S2,829,experiment,98,←,left,←,0.3754921999934595,True,28,1
156K28S2,830,experiment,73,↓,down,↓,0.5779072000004817,True,28,0
156K28S2,831,experiment,56,↑,up,↑,0.7125368999841157,True,28,1
156K28S2,832,experiment,61,→,left,←,0.6164224999956787,False,28,1
156K28S2,833,experiment,59,←,left,←,0.5246326000196859,True,28,1
156K28S2,834,experiment,103,→,right,→,0.47770680001121946,True,28,1
156K28S2,835,experiment,69,↑,up,↑,0.48438129998976365,True,28,1
156K28S2,836,experiment,72,↓,down,↓,0.40205319999950007,True,28,1
156K28S2,837,experiment,82,↓,down,↓,0.5986523000174202,True,28,0
156K28S2,838,experiment,58,←,left,←,0.5636977999820374,True,28,1
156K28S2,839,experiment,60,→,left,←,0.48948550000204705,False,28,1
156K28S2,840,experiment,99,←,left,←,0.47761080000782385,True,28,1
156K28S2,841,experiment,68,↓,down,↓,0.6524270999943838,True,28,1
156K28S2,842,experiment,74,←,left,←,1.4185175000166055,True,28,1
156K28S2,843,experiment,64,↓,down,↓,0.4775667999929283,True,28,1
156K28S2,844,experiment,87,→,left,←,0.3582348999916576,False,28,1
156K28S2,845,experiment,51,→,right,→,0.6066227999981493,True,28,0
156K28S2,846,experiment,71,↓,down,↓,0.583677099988563,True,28,1
156K28S2,847,experiment,55,↓,down,↓,0.4941961000149604,True,28,1
156K28S2,848,experiment,52,↑,down,↓,0.47354840001207776,False,28,1
156K28S2,849,experiment,63,↓,down,↓,0.442131599993445,True,28,1
156K28S2,850,experiment,48,↓,down,↓,0.4251205000036862,True,28,1
156K28S2,851,experiment,49,↑,down,↓,0.455976199998986,False,28,1
156K28S2,852,experiment,84,→,right,→,0.5303637000033632,True,28,1
156K28S2,853,experiment,57,←,left,←,0.6989549999998417,True,28,1
156K28S2,854,experiment,100,↓,down,↓,0.5261738000262994,True,28,1
156K28S2,855,experiment,89,↑,down,↓,0.46013199997833,False,28,1
156K28S2,856,experiment,86,↓,down,↓,0.645587599981809,True,28,1
156K28S2,857,experiment,81,←,left,←,0.537271300010616,True,28,1
156K28S2,858,experiment,92,↓,down,↓,0.6297653999936301,True,28,1
156K28S2,859,experiment,101,→,left,←,0.5792826999968383,False,28,1
156K28S2,860,training,61,↓,down,↓,0.6098211999924388,True,28,0
156K28S2,861,training,94,←,left,←,0.4505289999942761,True,28,1
156K28S2,862,experiment,102,←,right,→,0.4472005999996327,False,28,1
156K28S2,863,experiment,61,↓,down,↓,0.4335060000012163,True,28,1
156K28S2,864,experiment,90,←,left,←,0.5709482999809552,True,28,1
156K28S2,865,experiment,57,↑,up,↑,0.6493536999914795,True,28,1
156K28S2,866,experiment,66,↑,down,↓,0.4102864000014961,False,28,1
156K28S2,867,experiment,88,→,left,←,0.5007442000205629,False,28,1
156K28S2,868,experiment,85,→,right,→,0.692926499992609,True,28,1
156K28S2,869,experiment,86,→,right,→,0.501065499993274,True,28,1
156K28S2,870,experiment,67,↑,up,↑,0.5473749999946449,True,28,1
156K28S2,871,experiment,69,←,left,←,0.8469630999898072,True,28,1
156K28S2,872,experiment,97,←,right,→,0.7973289999936242,False,28,1
156K28S2,873,experiment,65,↓,up,↑,0.5367365000129212,False,28,1
156K28S2,874,experiment,55,↓,down,↓,0.6975864999985788,True,28,1
156K28S2,875,experiment,71,↓,down,↓,0.5341619999962859,True,28,1
156K28S2,876,experiment,82,←,left,←,0.6621281000261661,True,28,1
156K28S2,877,experiment,62,←,left,←,0.5278612000111025,True,28,1
156K28S2,878,experiment,104,←,left,←,0.617316000018036,True,28,1
156K28S2,879,experiment,56,→,left,←,0.7899437000160106,False,28,1
156K28S2,880,experiment,79,↓,down,↓,0.5013608000008389,True,28,1
156K28S2,881,experiment,60,→,right,→,0.6531841999967583,True,28,1
156K28S2,882,experiment,87,←,left,←,0.6704168999858666,True,28,1
156K28S2,883,experiment,68,←,left,←,0.4142431999789551,True,28,1
156K28S2,884,experiment,58,←,right,→,0.7465345999808051,False,28,1
156K28S2,885,experiment,81,←,left,←,0.7539876999799162,True,28,1
156K28S2,886,experiment,96,↑,up,↑,0.4603466000116896,True,28,1
156K28S2,887,experiment,54,↑,up,↑,0.6645398999971803,True,28,1
156K28S2,888,experiment,100,→,right,→,0.5093394999857992,True,28,1
156K28S2,889,experiment,98,←,left,←,0.6729903999948874,True,28,1
156K28S2,890,experiment,103,←,left,←,0.42841669998597354,True,28,1
156K28S2,891,experiment,76,←,left,←,0.4105627000099048,True,28,1
156K28S2,892,experiment,64,←,left,←,0.453311199991731,True,28,1
156K28S2,893,experiment,48,↓,down,↓,0.7393838000134565,True,28,1
156K28S2,894,experiment,53,↑,down,↓,0.5728232999972533,False,28,1
156K28S2,895,experiment,74,↑,down,↓,0.4143927999830339,False,28,1
156K28S2,896,experiment,94,↑,up,↑,0.49431430001277477,True,28,1
156K28S2,897,experiment,80,↓,right,→,0.5365609000145923,False,28,1
156K28S2,898,experiment,59,↑,up,↑,0.6085017000150401,True,28,1
156K28S2,899,experiment,107,↓,down,↓,0.6688386000168975,True,28,1
156K28S2,900,experiment,101,↓,down,↓,1.6733237000007648,True,28,1
156K28S2,901,experiment,99,↑,up,↑,0.6942806000006385,True,28,1
156K28S2,902,experiment,72,←,left,←,0.5152139000128955,True,28,1
156K28S2,903,experiment,83,←,right,→,0.6835073000111151,False,28,1
156K28S2,904,experiment,52,↓,down,↓,0.5597782999975607,True,28,1
156K28S2,905,experiment,73,↑,up,↑,0.5854729000129737,True,28,1
156K28S2,906,experiment,50,←,left,←,0.5459086000046227,True,28,1
156K28S2,907,experiment,63,↓,down,↓,0.527523900003871,True,28,1
156K28S2,908,experiment,84,↓,down,↓,0.45526769998832606,True,28,1
156K28S2,909,experiment,92,←,left,←,0.45494789999793284,True,28,1
156K28S2,910,experiment,78,→,right,→,0.7070853999757674,True,28,1
156K28S2,911,experiment,105,↑,up,↑,0.44474529998842627,True,28,1
156K28S2,912,experiment,91,→,right,→,0.596996800013585,True,28,1
156K28S2,913,experiment,75,←,left,←,0.48451330000534654,True,28,1
156K28S2,914,experiment,49,→,right,→,0.657393300003605,True,28,1
156K28S2,915,experiment,89,→,left,←,0.5222701999882702,False,28,1
156K28S2,916,experiment,93,↑,up,↑,0.6230604999873322,True,28,1
156K28S2,917,experiment,51,→,right,→,0.6772723000030965,True,28,1
156K28S2,918,experiment,95,→,right,→,0.4912156999926083,True,28,1
156K28S2,919,experiment,77,←,left,←,0.4150493000051938,True,28,1
156K28S2,920,experiment,106,↑,up,↑,0.7072598999948241,True,28,1
156K28S2,921,experiment,108,←,left,←,0.5716760999930557,True,28,1
156K28S2,922,experiment,70,→,right,→,0.5181022000033408,True,28,1
156K28S2,923,training,48,←,up,↑,0.9825272000161931,False,28,0
156K28S2,924,training,50,←,left,←,0.43913380001322366,True,28,1
156K28S2,925,experiment,85,↓,down,↓,0.4181005999853369,True,28,1
156K28S2,926,experiment,78,↑,up,↑,0.5913834999955725,True,28,1
156K28S2,927,experiment,54,↑,up,↑,0.45421619998523965,True,28,1
156K28S2,928,experiment,58,←,left,←,0.49759650000487454,True,28,1
156K28S2,929,experiment,103,↓,down,↓,0.6992309999768622,True,28,1
156K28S2,930,experiment,89,→,right,→,0.5142147000005934,True,28,1
156K28S2,931,experiment,99,←,left,←,0.605614300002344,True,28,1
156K28S2,932,experiment,82,↓,down,↓,0.626350700011244,True,28,1
156K28S2,933,experiment,93,↓,down,↓,0.5949719999916852,True,28,1
156K28S2,934,experiment,60,←,left,←,0.5194555000052787,True,28,1
156K28S2,935,experiment,83,↓,down,↓,0.5438282999966759,True,28,1
156K28S2,936,experiment,90,→,right,→,0.40556650000507943,True,28,1
156K28S2,937,experiment,80,↑,up,↑,0.586423399974592,True,28,0
156K28S2,938,experiment,88,←,left,←,0.5182352999981958,True,28,1
156K28S2,939,experiment,81,→,right,→,0.6233437999908347,True,28,1
156K28S2,940,experiment,95,←,left,←,0.38423409999813884,True,28,1
156K28S2,941,experiment,69,←,right,→,0.47337700001662597,False,28,0
156K28S2,942,experiment,56,→,right,→,0.47597279999172315,True,28,1
156K28S2,943,experiment,79,↑,up,↑,0.5032792999991216,True,28,1
156K28S2,944,experiment,65,↓,up,↑,0.6381080000137445,False,28,1
156K28S2,945,experiment,63,→,right,→,0.5040684000123292,True,28,1
156K28S2,946,experiment,61,↑,up,↑,0.48793010000372306,True,28,1
156K28S2,947,experiment,87,↓,down,↓,0.6239715999981854,True,28,1
156K28S2,948,experiment,59,←,left,←,0.500062600011006,True,28,1
156K28S2,949,experiment,86,←,right,→,0.3586961000110023,False,28,1
156K28S2,950,experiment,74,↑,up,↑,0.4373824000067543,True,28,0
156K28S2,951,experiment,104,→,right,→,0.7132715999905486,True,28,1
156K28S2,952,experiment,66,←,left,←,0.5594979000161402,True,28,1
156K28S2,953,experiment,71,→,right,→,0.49781800000346266,True,28,1
156K28S2,954,experiment,107,→,right,→,0.49097680000704713,True,28,1
156K28S2,955,experiment,84,←,left,←,0.9558262999926228,True,28,1
156K28S2,956,experiment,52,↑,up,↑,0.6609932999999728,True,28,1
156K28S2,957,experiment,50,↓,down,↓,0.5543313999951351,True,28,1
156K28S2,958,experiment,91,↑,up,↑,0.47048039999208413,True,28,1
156K28S2,959,experiment,48,↓,down,↓,0.5724587999866344,True,28,1
156K28S2,960,experiment,72,←,left,←,0.38397490000352263,True,28,1
156K28S2,961,experiment,94,↓,down,↓,0.53532009999617,True,28,1
156K28S2,962,experiment,49,↑,down,↓,0.682419300021138,False,28,1
156K28S2,963,experiment,98,↑,down,↓,0.5669873000006191,False,28,1
156K28S2,964,experiment,76,←,left,←,0.8638858000049368,True,28,1
156K28S2,965,experiment,100,↑,down,↓,0.5644786000193562,False,28,1
156K28S2,966,experiment,101,↑,up,↑,0.3758382000087295,True,28,1
156K28S2,967,experiment,67,↑,up,↑,0.416133799997624,True,28,0
156K28S2,968,experiment,73,→,left,←,0.4079149999888614,False,28,1
156K28S2,969,experiment,64,↓,down,↓,0.465603699994972,True,28,1
156K28S2,970,experiment,108,↓,left,←,0.5396478000038769,False,28,1
156K28S2,971,experiment,57,←,left,←,0.8914934000058565,True,28,1
156K28S2,972,experiment,97,↓,down,↓,0.47213390000979416,True,28,1
156K28S2,973,experiment,51,→,left,←,0.7407264999928884,False,28,1
156K28S2,974,experiment,53,↑,up,↑,0.4061022999812849,True,28,1
156K28S2,975,experiment,106,→,right,→,0.46726740000303835,True,28,1
156K28S2,976,experiment,55,←,left,←,0.5267563999805134,True,28,1
156K28S2,977,experiment,92,↑,up,↑,0.5474119000136852,True,28,1
156K28S2,978,experiment,70,↑,up,↑,0.4546762999962084,True,28,1
156K28S2,979,experiment,105,←,left,←,0.5539790999901015,True,28,1
156K28S2,980,experiment,62,←,left,←,0.5041143999842461,True,28,1
156K28S2,981,experiment,96,↑,up,↑,0.580317499989178,True,28,1
156K28S2,982,experiment,102,→,right,→,0.5716301999927964,True,28,1
156K28S2,983,experiment,68,↑,up,↑,0.4466293000150472,True,28,1
156K28S2,984,experiment,75,↑,up,↑,0.5083268999878783,True,28,1
156K28S2,985,experiment,77,↓,down,↓,0.5025665999855846,True,28,1
156K28S2,986,training,71,↑,up,↑,0.5713524000020698,True,28,0
156K28S2,987,training,102,↑,up,↑,0.6111855999915861,True,28,1
156K28S2,988,experiment,64,↓,down,↓,0.4062744999828283,True,28,1
156K28S2,989,experiment,65,←,left,←,0.44061089999740943,True,28,1
156K28S2,990,experiment,93,←,left,←,0.5682776999892667,True,28,1
156K28S2,991,experiment,102,→,right,→,0.5442376999999397,True,28,1
156K28S2,992,experiment,97,↑,up,↑,0.4832153999886941,True,28,1
156K28S2,993,experiment,70,↓,down,↓,0.657142100011697,True,28,1
156K28S2,994,experiment,54,↓,down,↓,0.5811057999962941,True,28,1
156K28S2,995,experiment,99,←,left,←,0.7174289999820758,True,28,1
156K28S2,996,experiment,105,→,right,→,0.6864008999837097,True,28,1
156K28S2,997,experiment,62,↑,up,↑,0.6551526999974158,True,28,1
156K28S2,998,experiment,87,↓,down,↓,0.5206837999867275,True,28,1
156K28S2,999,experiment,91,↑,up,↑,0.46971980002126656,True,28,1
156K28S2,1000,experiment,77,↑,down,↓,0.4501602000091225,False,28,1
156K28S2,1001,experiment,53,←,left,←,0.590996399987489,True,28,1
156K28S2,1002,experiment,71,↑,up,↑,0.5040027000068221,True,28,1
156K28S2,1003,experiment,89,↑,up,↑,0.47131020002416335,True,28,1
156K28S2,1004,experiment,48,↓,down,↓,0.6364392999967095,True,28,1
156K28S2,1005,experiment,75,↓,down,↓,0.554791300004581,True,28,1
156K28S2,1006,experiment,95,←,left,←,0.42977659997995943,True,28,1
156K28S2,1007,experiment,50,←,left,←,0.4045699999842327,True,28,1
156K28S2,1008,experiment,61,←,left,←,0.9357733000069857,True,28,0
156K28S2,1009,experiment,56,↓,down,↓,0.48080009999102913,True,28,1
156K28S2,1010,experiment,82,←,left,←,0.8985438999952748,True,28,1
156K28S2,1011,experiment,66,→,right,→,0.4173696000070777,True,28,1
156K28S2,1012,experiment,49,↑,up,↑,0.4323402000009082,True,28,1
156K28S2,1013,experiment,103,↑,up,↑,0.4613942999858409,True,28,1
156K28S2,1014,experiment,58,↓,down,↓,0.6719202999956906,True,28,1
156K28S2,1015,experiment,68,→,right,→,0.5111744000168983,True,28,1
156K28S2,1016,experiment,73,→,right,→,0.9232456999889109,True,28,1
156K28S2,1017,experiment,106,→,right,→,0.611500699975295,True,28,1
156K28S2,1018,experiment,80,←,right,→,0.6092188000038732,False,28,1
156K28S2,1019,experiment,100,↑,up,↑,0.47208540001884103,True,28,1
156K28S2,1020,experiment,78,←,left,←,0.6356281999906059,True,28,1
156K28S2,1021,experiment,72,←,right,→,0.7230612999992445,False,28,1
156K28S2,1022,experiment,79,→,right,→,0.4764359000255354,True,28,1
156K28S2,1023,experiment,57,→,right,→,0.6068758000037633,True,28,1
156K28S2,1024,experiment,84,→,right,→,0.4751010999898426,True,28,1
156K28S2,1025,experiment,85,↓,down,↓,0.7723423999850638,True,28,1
156K28S2,1026,experiment,86,←,left,←,0.40207910002209246,True,28,1
156K28S2,1027,experiment,94,←,left,←,0.5943588000081945,True,28,0
156K28S2,1028,experiment,67,↓,up,↑,0.5411977999901865,False,28,1
156K28S2,1029,experiment,98,→,right,→,0.4712360000121407,True,28,1
156K28S2,1030,experiment,83,→,right,→,0.4177784000057727,True,28,1
156K28S2,1031,experiment,51,←,left,←,0.47189220000291243,True,28,1
156K28S2,1032,experiment,81,←,left,←,0.5146652999974322,True,28,1
156K28S2,1033,experiment,90,→,right,→,0.48852980000083335,True,28,1
156K28S2,1034,experiment,63,→,right,→,0.4884443999908399,True,28,1
156K28S2,1035,experiment,88,→,right,→,0.7200242000108119,True,28,1
156K28S2,1036,experiment,107,→,left,←,0.5526613999973051,False,28,1
156K28S2,1037,experiment,69,↓,right,→,0.7802602999727242,False,28,1
156K28S2,1038,experiment,92,→,right,→,0.5588040000002366,True,28,1
156K28S2,1039,experiment,76,→,right,→,0.4237431999936234,True,28,1
156K28S2,1040,experiment,60,↓,down,↓,0.7152367999951821,True,28,1
156K28S2,1041,experiment,52,↑,up,↑,0.6142646000080276,True,28,1
156K28S2,1042,experiment,96,←,left,←,0.5258006000076421,True,28,1
156K28S2,1043,experiment,108,↓,down,↓,0.5734343999938574,True,28,1
156K28S2,1044,experiment,59,←,left,←,0.5954079999937676,True,28,1
156K28S2,1045,experiment,104,↑,up,↑,0.4818688000086695,True,28,1
156K28S2,1046,experiment,55,↓,down,↓,0.5563403999840375,True,28,1
156K28S2,1047,experiment,101,→,right,→,0.6612156000046525,True,28,1
156K28S2,1048,experiment,74,→,right,→,0.514898199995514,True,28,1
156K28S2,1049,training,53,↑,up,↑,0.602361800003564,True,28,0
156K28S2,1050,training,66,↓,down,↓,0.5007729000062682,True,28,1
156K28S2,1051,experiment,66,→,left,←,0.7717560000019148,False,28,1
156K28S2,1052,experiment,62,↑,up,↑,0.4403884999919683,True,28,1
156K28S2,1053,experiment,61,↓,down,↓,0.5148473999870475,True,28,1
156K28S2,1054,experiment,73,↓,down,↓,0.5424978999944869,True,28,1
156K28S2,1055,experiment,98,←,right,→,0.6091547000105493,False,28,1
156K28S2,1056,experiment,93,→,left,←,0.45029859998612665,False,28,1
156K28S2,1057,experiment,71,←,right,→,0.6330044000060298,False,28,1
156K28S2,1058,experiment,85,↑,up,↑,0.5480360000219662,True,28,1
156K28S2,1059,experiment,75,←,left,←,0.6539703999878839,True,28,1
156K28S2,1060,experiment,95,↑,up,↑,0.47636339999735355,True,28,1
156K28S2,1061,experiment,108,→,left,←,0.7259937000053469,False,28,1
156K28S2,1062,experiment,87,→,left,←,0.5486545000167098,False,28,1
156K28S2,1063,experiment,63,→,right,→,0.43472079999628477,True,28,1
156K28S2,1064,experiment,89,→,right,→,0.6199221000133548,True,28,1
156K28S2,1065,experiment,82,↑,up,↑,0.7124832999834325,True,28,1
156K28S2,1066,experiment,83,→,right,→,0.5048257999878842,True,28,1
156K28S2,1067,experiment,94,←,right,→,0.5897078999842051,False,28,1
156K28S2,1068,experiment,84,↓,up,↑,0.4829666999867186,False,28,1
156K28S2,1069,experiment,55,↓,down,↓,0.6619511999888346,True,28,1
156K28S2,1070,experiment,96,↓,down,↓,0.4925826999824494,True,28,1
156K28S2,1071,experiment,106,←,left,←,0.41421590000391006,True,28,1
156K28S2,1072,experiment,54,↑,down,↓,0.5634930999949574,False,28,1
156K28S2,1073,experiment,58,→,right,→,0.4424136000161525,True,28,1
156K28S2,1074,experiment,97,↓,down,↓,0.4885764000064228,True,28,1
156K28S2,1075,experiment,67,←,down,↓,0.5033401999971829,False,28,1
156K28S2,1076,experiment,91,←,right,→,0.7175807999738026,False,28,1
156K28S2,1077,experiment,50,↓,down,↓,0.5048161000013351,True,28,1
156K28S2,1078,experiment,77,→,left,←,0.8037882000207901,False,28,1
156K28S2,1079,experiment,80,↓,down,↓,0.5449852999881841,True,28,1
156K28S2,1080,experiment,70,↓,down,↓,0.5166850000096019,True,28,1
156K28S2,1081,experiment,60,↑,up,↑,0.6125086999963969,True,28,1
156K28S2,1082,experiment,74,←,left,←,0.62809469999047,True,28,1
156K28S2,1083,experiment,79,←,left,←,0.42517569998744875,True,28,1
156K28S2,1084,experiment,105,→,right,→,0.43779579998226836,True,28,1
156K28S2,1085,experiment,101,←,left,←,0.4431484999950044,True,28,1
156K28S2,1086,experiment,81,←,left,←,1.27929549998953,True,28,1
156K28S2,1087,experiment,56,→,right,→,0.6260160999954678,True,28,1
156K28S2,1088,experiment,69,↓,down,↓,0.6584100000036415,True,28,1
156K28S2,1089,experiment,107,←,left,←,0.42158029999700375,True,28,1
156K28S2,1090,experiment,64,→,right,→,0.4314046000072267,True,28,1
156K28S2,1091,experiment,48,↓,down,↓,0.6705233000102453,True,28,1
156K28S2,1092,experiment,53,↓,down,↓,0.4027615000086371,True,28,1
156K28S2,1093,experiment,49,↑,up,↑,0.6826591000135522,True,28,0
156K28S2,1094,experiment,78,←,right,→,0.6780790000048,False,28,1
156K28S2,1095,experiment,90,↓,down,↓,0.57345660001738,True,28,1
156K28S2,1096,experiment,86,↑,up,↑,0.40240440002526157,True,28,1
156K28S2,1097,experiment,57,←,down,↓,0.7437116999935824,False,28,0
156K28S2,1098,experiment,52,↑,up,↑,0.545503799978178,True,28,1
156K28S2,1099,experiment,65,↑,up,↑,0.5104395000089426,True,28,1
156K28S2,1100,experiment,72,↑,up,↑,0.49070429999846965,True,28,1
156K28S2,1101,experiment,68,↓,down,↓,0.44087990000844,True,28,1
156K28S2,1102,experiment,100,↑,up,↑,0.4705330000142567,True,28,1
156K28S2,1103,experiment,103,→,left,←,0.5860646000073757,False,28,1
156K28S2,1104,experiment,88,←,left,←,0.5499185000080615,True,28,1
156K28S2,1105,experiment,51,←,left,←,0.5673775000032037,True,28,1
156K28S2,1106,experiment,102,→,right,→,0.5517637000011746,True,28,1
156K28S2,1107,experiment,104,→,right,→,0.4474233000073582,True,28,1
156K28S2,1108,experiment,92,→,down,↓,0.46356699999887496,False,28,1
156K28S2,1109,experiment,99,←,right,→,0.572322299994994,False,28,1
156K28S2,1110,experiment,59,←,left,←,0.6662594999943394,True,28,1
156K28S2,1111,experiment,76,↑,up,↑,0.5747647999960463,True,28,1
156K28S2,1112,training,104,←,left,←,0.4787167999893427,True,28,0
156K28S2,1113,training,54,↑,up,↑,0.43398359999991953,True,28,1
156K28S2,1114,experiment,88,↓,down,↓,0.7080905000038911,True,28,1
156K28S2,1115,experiment,70,↓,up,↑,0.42536459999973886,False,28,1
156K28S2,1116,experiment,91,←,left,←,0.6181534999923315,True,28,1
156K28S2,1117,experiment,49,→,right,→,0.578061100008199,True,28,1
156K28S2,1118,experiment,96,↓,down,↓,0.5074134000169579,True,28,1
156K28S2,1119,experiment,105,←,left,←,0.5166394999832846,True,28,1
156K28S2,1120,experiment,60,↓,down,↓,0.4605466999928467,True,28,1
156K28S2,1121,experiment,64,→,right,→,0.5733968999993522,True,28,1
156K28S2,1122,experiment,106,↓,down,↓,0.5402035000151955,True,28,1
156K28S2,1123,experiment,94,←,left,←,0.7436118999903556,True,28,1
156K28S2,1124,experiment,51,↓,down,↓,0.46573070000158623,True,28,1
156K28S2,1125,experiment,75,→,right,→,0.5263017000106629,True,28,1
156K28S2,1126,experiment,63,↓,down,↓,0.804896000016015,True,28,1
156K28S2,1127,experiment,69,→,right,→,0.582252399995923,True,28,1
156K28S2,1128,experiment,68,→,right,→,0.4251689999946393,True,28,1
156K28S2,1129,experiment,102,→,right,→,0.5025296999956481,True,28,1
156K28S2,1130,experiment,56,↓,down,↓,0.4405774000042584,True,28,1
156K28S2,1131,experiment,98,↓,down,↓,0.4310762000095565,True,28,1
156K28S2,1132,experiment,59,↑,up,↑,0.681930899998406,True,28,1
156K28S2,1133,experiment,71,↑,up,↑,0.48777269999845885,True,28,1
156K28S2,1134,experiment,54,→,right,→,0.6907877000048757,True,28,1
156K28S2,1135,experiment,57,↓,down,↓,0.3841031999909319,True,28,1
156K28S2,1136,experiment,87,↓,down,↓,0.48056729999370873,True,28,0
156K28S2,1137,experiment,62,↓,down,↓,0.40182300002197735,True,28,1
156K28S2,1138,experiment,90,←,left,←,0.4431560999946669,True,28,1
156K28S2,1139,experiment,85,←,right,→,0.6937877000018489,False,28,1
156K28S2,1140,experiment,108,↓,down,↓,0.47092950000660494,True,28,1
156K28S2,1141,experiment,95,↑,up,↑,0.7171541000134312,True,28,1
156K28S2,1142,experiment,48,←,left,←,0.8008249000122305,True,28,1
156K28S2,1143,experiment,53,←,left,←,0.4396866000024602,True,28,1
156K28S2,1144,experiment,100,↓,down,↓,0.46988419999252073,True,28,1
156K28S2,1145,experiment,52,→,right,→,0.6899345999991056,True,28,1
156K28S2,1146,experiment,81,↓,down,↓,0.499826099985512,True,28,1
156K28S2,1147,experiment,58,↑,down,↓,0.44568730000173673,False,28,1
156K28S2,1148,experiment,61,←,left,←,0.6393036000081338,True,28,1
156K28S2,1149,experiment,72,→,right,→,0.4861848000145983,True,28,1
156K28S2,1150,experiment,65,→,right,→,0.4060106999822892,True,28,1
156K28S2,1151,experiment,79,↓,down,↓,0.9961152999894693,True,28,1
156K28S2,1152,experiment,66,↑,down,↓,0.5903613999835216,False,28,1
156K28S2,1153,experiment,83,←,left,←,0.5556686000199988,True,28,1
156K28S2,1154,experiment,99,→,right,→,0.4612747000064701,True,28,1
156K28S2,1155,experiment,55,←,left,←,0.5847751000255812,True,28,1
156K28S2,1156,experiment,104,↓,down,↓,0.4955078999919351,True,28,1
156K28S2,1157,experiment,101,↓,down,↓,0.5231286000052933,True,28,1
156K28S2,1158,experiment,74,←,right,→,0.6382130999991205,False,28,1
156K28S2,1159,experiment,103,←,left,←,0.4034090999921318,True,28,1
156K28S2,1160,experiment,80,→,left,←,0.45619539998006076,False,28,1
156K28S2,1161,experiment,86,↑,up,↑,0.690091600001324,True,28,1
156K28S2,1162,experiment,107,→,right,→,0.4194978000014089,True,28,1
156K28S2,1163,experiment,50,←,left,←,0.522078900015913,True,28,1
156K28S2,1164,experiment,89,→,right,→,0.5203855999861844,True,28,1
156K28S2,1165,experiment,73,→,right,→,0.5320724000048358,True,28,1
156K28S2,1166,experiment,78,↓,down,↓,0.4930058000027202,True,28,1
156K28S2,1167,experiment,77,↓,down,↓,0.5602770000114106,True,28,1
156K28S2,1168,experiment,97,↓,down,↓,0.5384167000011075,True,28,1
156K28S2,1169,experiment,92,←,left,←,0.6306286999897566,True,28,1
156K28S2,1170,experiment,76,↑,down,↓,0.5009354000212625,False,28,1
156K28S2,1171,experiment,84,↓,down,↓,0.6291597000090405,True,28,1
156K28S2,1172,experiment,82,→,right,→,0.6891148000140674,True,28,1
156K28S2,1173,experiment,93,←,right,→,0.5352940000011586,False,28,1
156K28S2,1174,experiment,67,↓,down,↓,0.572273400000995,True,28,1
156K28S2,1175,training,52,↓,down,↓,0.5212891999981366,True,28,0
156K28S2,1176,training,83,↑,up,↑,0.46506860002409667,True,28,1
156K28S2,1177,experiment,63,↑,up,↑,0.4818935999937821,True,28,1
156K28S2,1178,experiment,103,→,left,←,0.5008302000060212,False,28,1
156K28S2,1179,experiment,56,↓,down,↓,0.5267327000037767,True,28,1
156K28S2,1180,experiment,75,→,left,←,0.6975983000011183,False,28,1
156K28S2,1181,experiment,98,↑,down,↓,0.485401300014928,False,28,1
156K28S2,1182,experiment,101,←,left,←,0.6010591000085697,True,28,1
156K28S2,1183,experiment,52,↓,down,↓,0.4882629999774508,True,28,1
156K28S2,1184,experiment,57,←,left,←,0.7461557000060566,True,28,1
156K28S2,1185,experiment,92,→,right,→,0.5021422999852803,True,28,1
156K28S2,1186,experiment,65,→,right,→,0.5091368000139482,True,28,1
156K28S2,1187,experiment,54,↓,down,↓,0.775442899990594,True,28,1
156K28S2,1188,experiment,69,←,right,→,0.6102822000102606,False,28,1
156K28S2,1189,experiment,85,→,right,→,0.4221532999945339,True,28,1
156K28S2,1190,experiment,61,→,right,→,0.4333096999907866,True,28,1
156K28S2,1191,experiment,50,↑,up,↑,0.5198005999845918,True,28,1
156K28S2,1192,experiment,67,→,right,→,0.46934790001250803,True,28,1
156K28S2,1193,experiment,73,→,right,→,0.43473950002226047,True,28,1
156K28S2,1194,experiment,66,↑,up,↑,0.48382090000086464,True,28,1
156K28S2,1195,experiment,70,←,left,←,0.5938822000171058,True,28,1
156K28S2,1196,experiment,81,←,left,←,0.6077204000030179,True,28,1
156K28S2,1197,experiment,62,↓,down,↓,0.7952210000075866,True,28,1
156K28S2,1198,experiment,95,←,left,←,0.476328899996588,True,28,1
156K28S2,1199,experiment,79,←,right,→,0.49589980000746436,False,28,1
156K28S2,1200,experiment,77,→,right,→,0.40327219999744557,True,28,1
156K28S2,1201,experiment,49,←,left,←,0.9703772000211757,True,28,1
156K28S2,1202,experiment,87,↓,down,↓,0.895536700001685,True,28,1
156K28S2,1203,experiment,55,←,left,←,0.6974793000263162,True,28,1
156K28S2,1204,experiment,93,↓,down,↓,0.5270848000072874,True,28,1
156K28S2,1205,experiment,68,←,left,←,0.6602050999936182,True,28,1
156K28S2,1206,experiment,88,↓,down,↓,0.5331044000049587,True,28,1
156K28S2,1207,experiment,90,↑,up,↑,0.42675649997545406,True,28,1
156K28S2,1208,experiment,82,←,right,→,0.6944814000162296,False,28,1
156K28S2,1209,experiment,48,→,right,→,0.4912544999970123,True,28,1
156K28S2,1210,experiment,60,↓,down,↓,0.5641622999974061,True,28,1
156K28S2,1211,experiment,108,←,left,←,0.4581852999981493,True,28,1
156K28S2,1212,experiment,102,→,right,→,0.5825255000090692,True,28,1
156K28S2,1213,experiment,72,↑,down,↓,0.5275590000092052,False,28,1
156K28S2,1214,experiment,89,↓,down,↓,0.6376614999899175,True,28,1
156K28S2,1215,experiment,78,→,right,→,0.4347224999801256,True,28,1
156K28S2,1216,experiment,105,↓,down,↓,0.647166400012793,True,28,1
156K28S2,1217,experiment,86,↑,down,↓,0.6569466000073589,False,28,1
156K28S2,1218,experiment,107,→,right,→,0.41255700000328943,True,28,1
156K28S2,1219,experiment,80,←,left,←,0.48863770000752993,True,28,1
156K28S2,1220,experiment,94,←,right,→,0.5983243999944534,False,28,1
156K28S2,1221,experiment,58,←,right,→,0.5804415000020526,False,28,1
156K28S2,1222,experiment,97,↓,down,↓,0.5723289000161458,True,28,1
156K28S2,1223,experiment,64,←,left,←,0.42504609999014065,True,28,1
156K28S2,1224,experiment,96,↑,up,↑,1.0083860000013374,True,28,1
156K28S2,1225,experiment,76,→,right,→,0.43941720001748763,True,28,1
156K28S2,1226,experiment,106,↓,down,↓,0.4193741999915801,True,28,1
156K28S2,1227,experiment,51,←,left,←,0.6016029000165872,True,28,1
156K28S2,1228,experiment,74,↑,up,↑,0.6095601000124589,True,28,1
156K28S2,1229,experiment,71,←,left,←,0.4181242999911774,True,28,1
156K28S2,1230,experiment,59,↑,up,↑,0.6861879999923985,True,28,1
156K28S2,1231,experiment,84,→,right,→,1.0559545999858528,True,28,1
156K28S2,1232,experiment,91,↓,down,↓,0.5597416999808047,True,28,1
156K28S2,1233,experiment,83,↓,down,↓,0.5264263999997638,True,28,1
156K28S2,1234,experiment,99,→,right,→,0.5290071000054013,True,28,1
156K28S2,1235,experiment,53,↑,up,↑,0.7306313999870326,True,28,1
156K28S2,1236,experiment,100,↓,down,↓,0.4766276000009384,True,28,1
156K28S2,1237,experiment,104,↑,up,↑,0.6395650999911595,True,28,1
156K28S2,1238,training,52,↑,down,↓,0.5294734000053722,False,28,0
156K28S2,1239,training,49,↑,up,↑,0.4286075999843888,True,28,1
156K28S2,1240,experiment,88,→,right,→,0.4785515000112355,True,28,1
156K28S2,1241,experiment,75,↑,up,↑,0.5871484999952372,True,28,1
156K28S2,1242,experiment,79,↓,down,↓,0.5855748000030871,True,28,1
156K28S2,1243,experiment,103,↓,down,↓,0.6326428000174928,True,28,1
156K28S2,1244,experiment,90,↓,up,↑,0.6659155000234023,False,28,1
156K28S2,1245,experiment,72,←,left,←,0.5278690999839455,True,28,1
156K28S2,1246,experiment,81,→,right,→,1.0405326000181958,True,28,1
156K28S2,1247,experiment,64,→,right,→,0.6421569000231102,True,28,1
156K28S2,1248,experiment,91,←,left,←,0.41913880000356585,True,28,1
156K28S2,1249,experiment,76,↓,down,↓,0.5130908999999519,True,28,1
156K28S2,1250,experiment,67,↓,down,↓,0.447017099999357,True,28,1
156K28S2,1251,experiment,59,←,left,←,0.4025303000234999,True,28,1
156K28S2,1252,experiment,73,←,left,←,1.153786900016712,True,28,0
156K28S2,1253,experiment,95,→,right,→,0.7327271999965888,True,28,1
156K28S2,1254,experiment,63,←,left,←,0.4591391999856569,True,28,1
156K28S2,1255,experiment,62,↓,down,↓,0.7323641999973916,True,28,1
156K28S2,1256,experiment,53,↑,up,↑,0.4860519999929238,True,28,1
156K28S2,1257,experiment,102,↑,up,↑,0.41834959998959675,True,28,1
156K28S2,1258,experiment,99,↑,up,↑,0.6006476000184193,True,28,1
156K28S2,1259,experiment,50,↑,up,↑,0.4724473000096623,True,28,1
156K28S2,1260,experiment,82,→,right,→,0.5145315999980085,True,28,1
156K28S2,1261,experiment,65,←,right,→,0.5286715000111144,False,28,1
156K28S2,1262,experiment,108,→,left,←,0.4960262000095099,False,28,1
156K28S2,1263,experiment,84,←,right,→,0.5366505999991205,False,28,1
156K28S2,1264,experiment,80,↑,down,↓,0.6171778999851085,False,28,1
156K28S2,1265,experiment,70,←,left,←,0.5779373000259511,True,28,1
156K28S2,1266,experiment,66,↑,up,↑,0.5336551000073086,True,28,1
156K28S2,1267,experiment,87,→,left,←,0.48369769999408163,False,28,1
156K28S2,1268,experiment,74,→,right,→,0.46453070000279695,True,28,1
156K28S2,1269,experiment,89,↑,up,↑,0.4485578000021633,True,28,1
156K28S2,1270,experiment,78,↑,up,↑,0.53344030000153,True,28,1
156K28S2,1271,experiment,86,↓,down,↓,0.5077694000210613,True,28,1
156K28S2,1272,experiment,54,↓,down,↓,0.598232399992412,True,28,1
156K28S2,1273,experiment,48,↓,down,↓,0.5105254999944009,True,28,1
156K28S2,1274,experiment,107,↓,down,↓,0.5351193999813404,True,28,1
156K28S2,1275,experiment,97,↓,down,↓,0.5702015999995638,True,28,1
156K28S2,1276,experiment,49,←,left,←,0.531447899993509,True,28,1
156K28S2,1277,experiment,96,←,left,←,0.6707374999823514,True,28,1
156K28S2,1278,experiment,85,↓,down,↓,0.824103599996306,True,28,1
156K28S2,1279,experiment,51,↑,up,↑,0.41512869999860413,True,28,1
156K28S2,1280,experiment,98,←,left,←,0.3754723999882117,True,28,1
156K28S2,1281,experiment,69,←,right,→,0.4803265999944415,False,28,0
156K28S2,1282,experiment,56,→,right,→,0.6106532999838237,True,28,1
156K28S2,1283,experiment,104,←,left,←,0.4483334999822546,True,28,1
156K28S2,1284,experiment,68,↑,up,↑,0.4322849000163842,True,28,1
156K28S2,1285,experiment,106,↑,up,↑,0.5322956000163686,True,28,1
156K28S2,1286,experiment,61,↑,up,↑,0.49905899999430403,True,28,1
156K28S2,1287,experiment,101,→,right,→,0.5420714999781922,True,28,1
156K28S2,1288,experiment,52,↓,down,↓,0.5515187999990303,True,28,1
156K28S2,1289,experiment,71,←,left,←,0.4745507999905385,True,28,1
156K28S2,1290,experiment,100,↓,down,↓,0.6070508999982849,True,28,1
156K28S2,1291,experiment,58,↓,down,↓,0.6119286999746691,True,28,1
156K28S2,1292,experiment,77,←,left,←,0.4823917000030633,True,28,1
156K28S2,1293,experiment,83,↑,up,↑,0.45159300000523217,True,28,1
156K28S2,1294,experiment,60,→,right,→,1.1421333999896888,True,28,1
156K28S2,1295,experiment,105,←,left,←,0.3839000999869313,True,28,1
156K28S2,1296,experiment,55,→,left,←,0.5968319000094198,False,28,0
156K28S2,1297,experiment,94,↑,up,↑,0.35060070001054555,True,28,1
156K28S2,1298,experiment,57,↑,up,↑,0.7092613000131678,True,28,0
156K28S2,1299,experiment,93,↑,up,↑,0.3757641000265721,True,28,1
156K28S2,1300,experiment,92,↑,up,↑,0.37491419998696074,True,28,0
156K28S2,1301,training,102,←,left,←,0.6377437000046484,True,28,0
156K28S2,1302,training,67,→,right,→,0.5581725999945775,True,28,1
156K28S2,1303,experiment,77,↑,up,↑,0.5906646000221372,True,28,1
156K28S2,1304,experiment,70,←,left,←,0.4487603999732528,True,28,1
156K28S2,1305,experiment,68,↓,down,↓,0.6005660000082571,True,28,1
156K28S2,1306,experiment,50,↑,up,↑,0.4963232000009157,True,28,1
156K28S2,1307,experiment,53,↑,up,↑,0.4516738000093028,True,28,1
156K28S2,1308,experiment,93,↓,down,↓,0.5870216000184882,True,28,1
156K28S2,1309,experiment,52,→,right,→,0.578805299999658,True,28,1
156K28S2,1310,experiment,62,←,right,→,0.43908100001863204,False,28,1
156K28S2,1311,experiment,48,↓,down,↓,0.5978581999952439,True,28,1
156K28S2,1312,experiment,84,↓,down,↓,0.5227535000012722,True,28,1
156K28S2,1313,experiment,79,↑,up,↑,0.48373919998994097,True,28,1
156K28S2,1314,experiment,73,↓,down,↓,0.5926935000170488,True,28,1
156K28S2,1315,experiment,78,→,right,→,0.4480234000075143,True,28,1
156K28S2,1316,experiment,65,↓,down,↓,0.40934070001821965,True,28,1
156K28S2,1317,experiment,81,↑,up,↑,0.32646730000851676,True,28,1
156K28S2,1318,experiment,51,↑,up,↑,0.9597417000040878,True,28,0
156K28S2,1319,experiment,108,↓,down,↓,0.5502096000127494,True,28,1
156K28S2,1320,experiment,105,→,right,→,0.3505946999939624,True,28,1
156K28S2,1321,experiment,86,↑,left,←,0.4991843000170775,False,28,1
156K28S2,1322,experiment,60,↑,up,↑,0.4127581999928225,True,28,1
156K28S2,1323,experiment,106,↓,down,↓,0.6087944000028074,True,28,1
156K28S2,1324,experiment,69,→,right,→,0.38389830000232905,True,28,1
156K28S2,1325,experiment,104,→,right,→,0.560276200005319,True,28,0
156K28S2,1326,experiment,76,→,right,→,0.44893829998909496,True,28,1
156K28S2,1327,experiment,67,←,right,→,0.45729710001614876,False,28,1
156K28S2,1328,experiment,99,↓,down,↓,0.47084029999678023,True,28,1
156K28S2,1329,experiment,87,←,left,←,0.5189719999907538,True,28,1
156K28S2,1330,experiment,63,→,right,→,0.5501602000149433,True,28,1
156K28S2,1331,experiment,82,↓,down,↓,0.5897096999979112,True,28,1
156K28S2,1332,experiment,97,→,right,→,0.9658385000075214,True,28,1
156K28S2,1333,experiment,75,↑,up,↑,1.0951799000031315,True,28,1
156K28S2,1334,experiment,98,↑,up,↑,0.627509399986593,True,28,1
156K28S2,1335,experiment,55,←,left,←,0.4967056000023149,True,28,1
156K28S2,1336,experiment,91,↑,up,↑,0.42321670000092126,True,28,1
156K28S2,1337,experiment,83,↓,down,↓,0.4511646000028122,True,28,1
156K28S2,1338,experiment,103,↑,up,↑,0.4073526000138372,True,28,1
156K28S2,1339,experiment,88,↓,down,↓,0.4264538999996148,True,28,1
156K28S2,1340,experiment,96,↑,up,↑,0.37554649999947287,True,28,1
156K28S2,1341,experiment,57,↓,left,←,0.6083811999997124,False,28,1
156K28S2,1342,experiment,101,↑,up,↑,0.4154574000276625,True,28,1
156K28S2,1343,experiment,72,↓,down,↓,0.40703380000195466,True,28,1
156K28S2,1344,experiment,92,→,right,→,0.6323179999890272,True,28,1
156K28S2,1345,experiment,56,←,left,←,0.5566783999965992,True,28,1
156K28S2,1346,experiment,54,→,right,→,0.5652568000077736,True,28,1
156K28S2,1347,experiment,64,←,left,←,0.6734428999770898,True,28,1
156K28S2,1348,experiment,74,↑,up,↑,0.3840108000149485,True,28,1
156K28S2,1349,experiment,61,←,left,←,0.5149200000159908,True,28,1
156K28S2,1350,experiment,89,←,left,←,0.40171649999683723,True,28,1
156K28S2,1351,experiment,102,←,left,←,0.5838745999790262,True,28,0
156K28S2,1352,experiment,107,←,right,→,0.5892053999996278,False,28,1
156K28S2,1353,experiment,94,→,right,→,0.5508995999989565,True,28,1
156K28S2,1354,experiment,59,←,right,→,0.797773700003745,False,28,1
156K28S2,1355,experiment,100,↓,down,↓,0.7731712000095285,True,28,1
156K28S2,1356,experiment,49,→,right,→,0.5024268999986816,True,28,1
156K28S2,1357,experiment,71,↓,down,↓,0.5796475999813993,True,28,1
156K28S2,1358,experiment,95,↑,up,↑,0.5573692999896593,True,28,1
156K28S2,1359,experiment,90,←,left,←,0.6097790999920107,True,28,1
156K28S2,1360,experiment,80,↓,down,↓,0.5350162999820895,True,28,1
156K28S2,1361,experiment,66,→,right,→,0.5964448000013363,True,28,1
156K28S2,1362,experiment,85,→,right,→,0.4723906999861356,True,28,1
156K28S2,1363,experiment,58,↓,down,↓,0.6754135999944992,True,28,1
