PART_ID,Trial_no,Trial_type,CSI,Stim_letter,Key_pressed,letter_choose,Rt,Corr,Stimulus Time,nDropped
157K25S1,1,training,120,→,no_key,no_letter,-1.0,False,60,0
157K25S1,2,training,120,↓,no_key,no_letter,-1.0,False,60,0
157K25S1,3,training,120,←,no_key,no_letter,-1.0,False,60,0
157K25S1,4,training,120,←,no_key,no_letter,-1.0,False,60,0
157K25S1,5,training,120,↑,no_key,no_letter,-1.0,False,60,0
157K25S1,6,training,120,→,no_key,no_letter,-1.0,False,60,0
157K25S1,7,training,120,←,no_key,no_letter,-1.0,False,60,0
157K25S1,8,training,120,←,left,←,0.7565236000227742,True,60,0
157K25S1,9,training,120,←,right,→,0.4515889000031166,False,60,0
157K25S1,10,training,120,↓,right,→,0.4683678000001237,False,60,0
157K25S1,11,training,120,↑,no_key,no_letter,-1.0,False,60,0
157K25S1,12,training,120,↓,no_key,no_letter,-1.0,False,60,0
157K25S1,13,training,120,→,right,→,0.509967099991627,True,60,0
157K25S1,14,training,120,↓,down,↓,0.650376600009622,True,60,0
157K25S1,15,training,120,←,left,←,0.8950483000080567,True,60,0
157K25S1,16,training,120,↓,down,↓,0.6684697000018787,True,60,0
157K25S1,17,training,120,↓,down,↓,0.6335329999856185,True,60,0
157K25S1,18,training,120,↑,up,↑,0.8480730000010226,True,60,0
157K25S1,19,training,120,↓,no_key,no_letter,-1.0,False,60,0
157K25S1,20,training,120,←,down,↓,0.7134976999950595,False,60,0
157K25S1,21,no_adaptation,120,↑,down,↓,0.7144927000044845,False,36,0
157K25S1,22,no_adaptation,120,←,left,←,0.49486080001224764,True,36,0
157K25S1,23,no_adaptation,120,→,right,→,0.7155119999952149,True,36,0
157K25S1,24,no_adaptation,120,↓,left,←,0.42520969998440705,False,36,0
157K25S1,25,no_adaptation,120,→,right,→,0.6065439000085462,True,36,0
157K25S1,26,no_adaptation,120,↓,right,→,0.6789849999768194,False,36,0
157K25S1,27,no_adaptation,120,→,right,→,0.48459370000637136,True,36,0
157K25S1,28,no_adaptation,120,↑,down,↓,0.5774200999876484,False,36,0
157K25S1,29,no_adaptation,120,←,no_key,no_letter,-1.0,False,36,0
157K25S1,30,no_adaptation,120,↓,no_key,no_letter,-1.0,False,36,0
157K25S1,31,no_adaptation,120,←,no_key,no_letter,-1.0,False,36,0
157K25S1,32,no_adaptation,120,←,right,→,0.6984994000231382,False,36,0
157K25S1,33,no_adaptation,120,→,right,→,0.9912254999799188,True,36,0
157K25S1,34,no_adaptation,120,←,left,←,0.7123686999839265,True,36,0
157K25S1,35,no_adaptation,120,↓,down,↓,0.47706999999354593,True,36,0
157K25S1,36,no_adaptation,120,←,no_key,no_letter,-1.0,False,36,0
157K25S1,37,no_adaptation,120,→,right,→,0.5562477000057697,True,36,0
157K25S1,38,no_adaptation,120,↓,no_key,no_letter,-1.0,False,36,0
157K25S1,39,no_adaptation,120,→,no_key,no_letter,-1.0,False,36,0
157K25S1,40,no_adaptation,120,↓,down,↓,0.48376260002260096,True,36,0
157K25S1,41,training,74,↑,down,↓,0.49855920000118203,False,36,0
157K25S1,42,training,69,↓,no_key,no_letter,-1.0,False,36,1
157K25S1,43,experiment,96,↑,down,↓,0.5627584999892861,False,36,1
157K25S1,44,experiment,52,→,right,→,0.5630242999759503,True,36,1
157K25S1,45,experiment,55,←,right,→,0.4829011999827344,False,36,1
157K25S1,46,experiment,84,→,no_key,no_letter,-1.0,False,36,1
157K25S1,47,experiment,62,←,right,→,0.5858449999941513,False,36,1
157K25S1,48,experiment,102,←,right,→,0.49693190000834875,False,36,1
157K25S1,49,experiment,97,←,right,→,0.5572279999905732,False,36,1
157K25S1,50,experiment,73,←,left,←,0.5911250000062864,True,36,1
157K25S1,51,experiment,71,↓,no_key,no_letter,-1.0,False,36,1
157K25S1,52,experiment,75,→,right,→,0.4171945999842137,True,36,1
157K25S1,53,experiment,88,→,left,←,0.6921102000051178,False,36,0
157K25S1,54,experiment,60,↓,down,↓,0.5410487000190187,True,36,1
157K25S1,55,experiment,66,←,right,→,0.5779143999970984,False,36,1
157K25S1,56,experiment,82,↑,left,←,0.9361766999936663,False,36,1
157K25S1,57,experiment,54,↓,down,↓,0.450651100021787,True,36,1
157K25S1,58,experiment,83,↑,right,→,0.548230499989586,False,36,0
157K25S1,59,experiment,79,→,left,←,0.40897140000015497,False,36,1
157K25S1,60,experiment,103,←,left,←,0.5141591000137851,True,36,0
157K25S1,61,experiment,51,↓,no_key,no_letter,-1.0,False,36,1
157K25S1,62,experiment,49,↑,up,↑,0.5829386999830604,True,36,1
157K25S1,63,experiment,76,→,right,→,0.47128510000766255,True,36,1
157K25S1,64,experiment,93,→,left,←,0.7414992999983951,False,36,0
157K25S1,65,experiment,94,↓,down,↓,0.6012322999886237,True,36,1
157K25S1,66,experiment,99,→,left,←,0.6968442999932449,False,36,1
157K25S1,67,experiment,101,↓,down,↓,0.6600267000030726,True,36,1
157K25S1,68,experiment,64,↑,down,↓,0.541069900005823,False,36,1
157K25S1,69,experiment,58,↑,up,↑,0.5483766999968793,True,36,1
157K25S1,70,experiment,107,↓,down,↓,0.5155306000087876,True,36,1
157K25S1,71,experiment,86,←,left,←,0.6348030000226572,True,36,1
157K25S1,72,experiment,57,↑,down,↓,0.6551222999987658,False,36,1
157K25S1,73,experiment,53,→,right,→,0.49964699998963624,True,36,1
157K25S1,74,experiment,91,↓,down,↓,0.609868200001074,True,36,1
157K25S1,75,experiment,61,→,right,→,0.5337761999981012,True,36,1
157K25S1,76,experiment,80,↓,down,↓,0.5023000999935903,True,36,1
157K25S1,77,experiment,89,→,right,→,0.45038759999442846,True,36,1
157K25S1,78,experiment,56,→,left,←,0.5288502000039443,False,36,0
157K25S1,79,experiment,68,←,left,←,0.6055067999986932,True,36,1
157K25S1,80,experiment,72,→,right,→,0.6137491000117734,True,36,1
157K25S1,81,experiment,108,↓,down,↓,0.6017213000159245,True,36,1
157K25S1,82,experiment,59,←,left,←,0.7025891999946907,True,36,1
157K25S1,83,experiment,65,→,right,→,0.5895581000077073,True,36,1
157K25S1,84,experiment,90,↑,down,↓,0.6884964999917429,False,36,1
157K25S1,85,experiment,104,←,right,→,0.6269836999999825,False,36,1
157K25S1,86,experiment,70,↑,up,↑,0.5792723000049591,True,36,1
157K25S1,87,experiment,77,→,right,→,0.5708801999862771,True,36,1
157K25S1,88,experiment,98,↑,no_key,no_letter,-1.0,False,36,1
157K25S1,89,experiment,67,↑,up,↑,0.5919303999980912,True,36,1
157K25S1,90,experiment,78,↑,up,↑,0.44213649997254834,True,36,1
157K25S1,91,experiment,106,→,right,→,0.47433990001445636,True,36,0
157K25S1,92,experiment,85,↑,up,↑,0.47598430002108216,True,36,0
157K25S1,93,experiment,92,←,left,←,0.5381551000173204,True,36,1
157K25S1,94,experiment,105,↑,up,↑,0.6900923000066541,True,36,1
157K25S1,95,experiment,87,←,left,←,0.4981300000217743,True,36,1
157K25S1,96,experiment,50,↑,down,↓,0.6619383999786805,False,36,1
157K25S1,97,experiment,69,↑,up,↑,0.41729829998803325,True,36,1
157K25S1,98,experiment,74,↑,up,↑,0.4087817999825347,True,36,0
157K25S1,99,experiment,95,↑,down,↓,0.433840700017754,False,36,0
157K25S1,100,experiment,100,→,right,→,0.4981100999866612,True,36,0
157K25S1,101,experiment,63,→,right,→,0.52152290000231,True,36,1
157K25S1,102,experiment,48,↑,down,↓,0.6930231000005733,False,36,1
157K25S1,103,experiment,81,←,left,←,0.5509441000176594,True,36,1
157K25S1,104,training,107,↓,down,↓,0.6292458999960218,True,36,0
157K25S1,105,training,77,↑,down,↓,0.4909211999911349,False,36,1
157K25S1,106,experiment,49,↓,down,↓,0.6640768999932334,True,36,1
157K25S1,107,experiment,54,←,left,←,0.6512326000083704,True,36,1
157K25S1,108,experiment,74,↑,no_key,no_letter,-1.0,False,36,1
157K25S1,109,experiment,55,←,no_key,no_letter,-1.0,False,36,1
157K25S1,110,experiment,61,↑,down,↓,0.5595100000209641,False,36,1
157K25S1,111,experiment,66,↓,down,↓,0.5955019999819342,True,36,1
157K25S1,112,experiment,101,↑,down,↓,0.5708937000017613,False,36,1
157K25S1,113,experiment,100,↓,down,↓,0.6832707000139635,True,36,1
157K25S1,114,experiment,62,↓,down,↓,0.4918518999766093,True,36,1
157K25S1,115,experiment,68,→,right,→,0.7300350000150502,True,36,1
157K25S1,116,experiment,86,↓,down,↓,0.7286867999937385,True,36,1
157K25S1,117,experiment,107,↑,up,↑,0.6088920999900438,True,36,1
157K25S1,118,experiment,60,↑,up,↑,0.7008804999932181,True,36,1
157K25S1,119,experiment,95,↓,up,↑,0.8180560999899171,False,36,1
157K25S1,120,experiment,92,↑,up,↑,0.6515498000080697,True,36,1
157K25S1,121,experiment,84,↑,up,↑,0.6222022000001743,True,36,1
157K25S1,122,experiment,64,↑,up,↑,0.3932889999996405,True,36,1
157K25S1,123,experiment,52,↑,up,↑,0.49531220001517795,True,36,0
157K25S1,124,experiment,70,↓,up,↑,0.5324491000210401,False,36,1
157K25S1,125,experiment,71,←,left,←,0.45033810002496466,True,36,1
157K25S1,126,experiment,65,→,right,→,0.6247517000010703,True,36,0
157K25S1,127,experiment,80,←,left,←,0.6616685000190046,True,36,1
157K25S1,128,experiment,50,↑,up,↑,0.6672227999952156,True,36,1
157K25S1,129,experiment,88,→,right,→,0.7158363999915309,True,36,1
157K25S1,130,experiment,58,→,right,→,0.4504696000076365,True,36,1
157K25S1,131,experiment,69,→,left,←,0.49968300000182353,False,36,0
157K25S1,132,experiment,91,↓,no_key,no_letter,-1.0,False,36,1
157K25S1,133,experiment,72,→,right,→,0.5004496000183281,True,36,1
157K25S1,134,experiment,103,↓,down,↓,0.6869613000017125,True,36,1
157K25S1,135,experiment,48,←,right,→,0.6999059000227135,False,36,1
157K25S1,136,experiment,75,↑,no_key,no_letter,-1.0,False,36,1
157K25S1,137,experiment,89,↓,down,↓,0.484464899986051,True,36,1
157K25S1,138,experiment,93,→,right,→,0.5707697000179905,True,36,1
157K25S1,139,experiment,97,↑,up,↑,0.4338323999836575,True,36,1
157K25S1,140,experiment,102,↓,down,↓,0.785315899993293,True,36,0
157K25S1,141,experiment,98,↓,down,↓,0.48238810000475496,True,36,1
157K25S1,142,experiment,73,←,left,←,0.7668958999856841,True,36,1
157K25S1,143,experiment,81,→,right,→,0.48610749997897074,True,36,1
157K25S1,144,experiment,57,→,right,→,0.48825729999225587,True,36,1
157K25S1,145,experiment,87,→,right,→,0.4879211999941617,True,36,1
157K25S1,146,experiment,96,→,right,→,0.5166816000128165,True,36,1
157K25S1,147,experiment,63,↑,up,↑,0.5316420999879483,True,36,1
157K25S1,148,experiment,79,→,right,→,0.4770167999959085,True,36,1
157K25S1,149,experiment,104,←,right,→,0.39229180000256747,False,36,1
157K25S1,150,experiment,106,↑,up,↑,0.5964719000039622,True,36,0
157K25S1,151,experiment,77,↓,down,↓,0.5954965999990236,True,36,1
157K25S1,152,experiment,51,↓,up,↑,0.7473226999863982,False,36,1
157K25S1,153,experiment,67,↑,up,↑,0.2922748999844771,True,36,1
157K25S1,154,experiment,53,←,left,←,0.0352654000162147,True,36,0
157K25S1,155,experiment,83,↓,no_key,no_letter,-1.0,False,36,0
157K25S1,156,experiment,90,→,right,→,0.5116048000054434,True,36,1
157K25S1,157,experiment,108,↓,down,↓,0.5520795999909751,True,36,1
157K25S1,158,experiment,59,↓,down,↓,0.5910389000200666,True,36,1
157K25S1,159,experiment,78,↓,down,↓,0.5978900000045542,True,36,1
157K25S1,160,experiment,56,→,right,→,0.8358029000228271,True,36,1
157K25S1,161,experiment,76,↑,no_key,no_letter,-1.0,False,36,1
157K25S1,162,experiment,82,↑,up,↑,0.7368855999957304,True,36,1
157K25S1,163,experiment,105,↑,up,↑,0.5453590000106487,True,36,1
157K25S1,164,experiment,94,↓,down,↓,0.5489315999730024,True,36,1
157K25S1,165,experiment,85,←,right,→,0.6753782999876421,False,36,1
157K25S1,166,experiment,99,←,left,←,0.6321105000097305,True,36,1
157K25S1,167,training,81,→,no_key,no_letter,-1.0,False,36,0
157K25S1,168,training,86,↓,down,↓,0.6068942999991123,True,36,1
157K25S1,169,experiment,67,↑,down,↓,0.6727628000080585,False,36,1
157K25S1,170,experiment,65,↑,down,↓,0.496762700000545,False,36,1
157K25S1,171,experiment,83,→,up,↑,0.5136733999825083,False,36,1
157K25S1,172,experiment,102,↓,down,↓,0.4997453000105452,True,36,1
157K25S1,173,experiment,96,↓,down,↓,0.45018650000565685,True,36,1
157K25S1,174,experiment,89,↑,no_key,no_letter,-1.0,False,36,0
157K25S1,175,experiment,94,↑,up,↑,0.596082000003662,True,36,1
157K25S1,176,experiment,104,←,left,←,0.554120899992995,True,36,1
157K25S1,177,experiment,75,→,right,→,0.47531020001042634,True,36,1
157K25S1,178,experiment,100,↑,left,←,0.591701400000602,False,36,0
157K25S1,179,experiment,51,←,right,→,0.5275791000167374,False,36,1
157K25S1,180,experiment,56,←,up,↑,0.06017809998593293,False,36,1
157K25S1,181,experiment,63,←,left,←,0.5998333000170533,True,36,0
157K25S1,182,experiment,49,←,left,←,0.4088867000245955,True,36,1
157K25S1,183,experiment,58,↓,down,↓,0.5726489000080619,True,36,0
157K25S1,184,experiment,101,→,left,←,0.6045714000065345,False,36,1
157K25S1,185,experiment,53,←,left,←,0.6271211999992374,True,36,1
157K25S1,186,experiment,97,↑,up,↑,0.6425269000174012,True,36,1
157K25S1,187,experiment,61,→,left,←,0.5090795999858528,False,36,1
157K25S1,188,experiment,76,↓,down,↓,0.5200042000215035,True,36,1
157K25S1,189,experiment,62,↑,up,↑,0.8312397999980021,True,36,1
157K25S1,190,experiment,50,→,right,→,0.42549580000923015,True,36,1
157K25S1,191,experiment,88,↓,down,↓,0.6478061000234447,True,36,0
157K25S1,192,experiment,69,←,left,←,0.6075568000087515,True,36,1
157K25S1,193,experiment,90,→,right,→,0.6257449999975506,True,36,1
157K25S1,194,experiment,105,→,right,→,0.6143946000083815,True,36,1
157K25S1,195,experiment,57,→,left,←,0.6753585000114981,False,36,1
157K25S1,196,experiment,107,←,left,←,0.5334235999907833,True,36,1
157K25S1,197,experiment,70,↓,down,↓,0.5375437999900896,True,36,1
157K25S1,198,experiment,103,↓,down,↓,0.8503118999942672,True,36,1
157K25S1,199,experiment,98,↑,down,↓,0.7043789000017568,False,36,1
157K25S1,200,experiment,95,↓,no_key,no_letter,-1.0,False,36,1
157K25S1,201,experiment,77,↑,up,↑,0.6300710999930743,True,36,1
157K25S1,202,experiment,92,→,right,→,0.5986023000150453,True,36,1
157K25S1,203,experiment,106,→,right,→,0.6999341000046115,True,36,1
157K25S1,204,experiment,73,↑,up,↑,0.4727617000171449,True,36,1
157K25S1,205,experiment,93,↓,down,↓,0.8465245999977924,True,36,1
157K25S1,206,experiment,59,←,left,←,0.9775091999908909,True,36,1
157K25S1,207,experiment,71,↓,down,↓,0.5315503999881912,True,36,1
157K25S1,208,experiment,78,↑,up,↑,0.5967720999906305,True,36,1
157K25S1,209,experiment,60,↓,down,↓,0.6574751999869477,True,36,1
157K25S1,210,experiment,52,→,right,→,0.5103642999893054,True,36,1
157K25S1,211,experiment,84,←,no_key,no_letter,-1.0,False,36,1
157K25S1,212,experiment,108,→,right,→,0.5012579999747686,True,36,1
157K25S1,213,experiment,81,→,right,→,0.4868748000008054,True,36,1
157K25S1,214,experiment,74,→,right,→,0.46787600000970997,True,36,1
157K25S1,215,experiment,72,↑,up,↑,0.6329297999909613,True,36,0
157K25S1,216,experiment,54,←,right,→,0.49411879997933283,False,36,1
157K25S1,217,experiment,91,←,left,←,0.45026060001691803,True,36,1
157K25S1,218,experiment,99,↑,up,↑,0.6822542000154499,True,36,0
157K25S1,219,experiment,55,←,right,→,0.4928897999925539,False,36,1
157K25S1,220,experiment,66,←,right,→,0.4999156999983825,False,36,1
157K25S1,221,experiment,48,↑,up,↑,0.47281929999007843,True,36,1
157K25S1,222,experiment,85,↓,down,↓,0.5376061999995727,True,36,1
157K25S1,223,experiment,87,↓,down,↓,0.5279086999944411,True,36,1
157K25S1,224,experiment,82,↑,up,↑,0.7360930999857374,True,36,1
157K25S1,225,experiment,68,←,right,→,0.6527691000082996,False,36,1
157K25S1,226,experiment,79,↑,up,↑,0.3921801999968011,True,36,1
157K25S1,227,experiment,80,→,right,→,0.4874605000077281,True,36,0
157K25S1,228,experiment,86,↑,up,↑,0.5592816999997012,True,36,1
157K25S1,229,experiment,64,↓,up,↑,0.6039922000200022,False,36,1
157K25S1,230,training,95,↑,up,↑,0.6147523999970872,True,36,0
157K25S1,231,training,89,←,no_key,no_letter,-1.0,False,36,1
157K25S1,232,experiment,88,→,right,→,0.6302174000011291,True,36,1
157K25S1,233,experiment,95,→,left,←,0.6378983999893535,False,36,1
157K25S1,234,experiment,108,↓,down,↓,0.5929421999899205,True,36,1
157K25S1,235,experiment,80,↓,down,↓,0.6236442000081297,True,36,1
157K25S1,236,experiment,105,↑,up,↑,0.667872999998508,True,36,1
157K25S1,237,experiment,55,→,right,→,0.48004220001166686,True,36,1
157K25S1,238,experiment,62,↑,up,↑,0.4960547999944538,True,36,1
157K25S1,239,experiment,82,↑,up,↑,0.5616905000060797,True,36,1
157K25S1,240,experiment,63,→,left,←,0.7348199000116438,False,36,1
157K25S1,241,experiment,67,→,right,→,0.44233879999956116,True,36,1
157K25S1,242,experiment,93,→,right,→,0.49158069997793064,True,36,0
157K25S1,243,experiment,48,←,left,←,0.6242544999986421,True,36,1
157K25S1,244,experiment,53,↓,down,↓,0.7261528999952134,True,36,1
157K25S1,245,experiment,64,←,no_key,no_letter,-1.0,False,36,1
157K25S1,246,experiment,51,→,right,→,0.5019178000220563,True,36,1
157K25S1,247,experiment,60,↓,no_key,no_letter,-1.0,False,36,1
157K25S1,248,experiment,78,→,right,→,0.5108175000059418,True,36,1
157K25S1,249,experiment,65,←,left,←,0.6373135999892838,True,36,1
157K25S1,250,experiment,104,→,right,→,0.561731099995086,True,36,1
157K25S1,251,experiment,73,←,left,←,0.4340109000040684,True,36,1
157K25S1,252,experiment,57,↑,up,↑,0.47975649998988956,True,36,0
157K25S1,253,experiment,59,↑,up,↑,0.7050412999815308,True,36,1
157K25S1,254,experiment,50,→,right,→,0.6365766999952029,True,36,1
157K25S1,255,experiment,101,↑,down,↓,0.8984938000212424,False,36,1
157K25S1,256,experiment,96,←,right,→,0.6550200000056066,False,36,1
157K25S1,257,experiment,102,←,left,←,0.6355159000086132,True,36,1
157K25S1,258,experiment,79,↓,left,←,0.8964065000182018,False,36,1
157K25S1,259,experiment,91,←,left,←,0.5267977000039537,True,36,1
157K25S1,260,experiment,68,↑,down,↓,0.6118082000175491,False,36,1
157K25S1,261,experiment,74,→,right,→,0.4916168999916408,True,36,1
157K25S1,262,experiment,97,←,no_key,no_letter,-1.0,False,36,1
157K25S1,263,experiment,70,←,left,←,0.6511364000034519,True,36,1
157K25S1,264,experiment,66,→,no_key,no_letter,-1.0,False,36,1
157K25S1,265,experiment,85,↓,down,↓,0.5537973000027705,True,36,1
157K25S1,266,experiment,84,↑,up,↑,0.544353700010106,True,36,1
157K25S1,267,experiment,61,←,left,←,0.727081699995324,True,36,1
157K25S1,268,experiment,103,←,left,←,0.4420679999748245,True,36,1
157K25S1,269,experiment,81,↓,down,↓,0.6440408999915235,True,36,0
157K25S1,270,experiment,54,→,right,→,0.5369191000063438,True,36,1
157K25S1,271,experiment,52,↑,no_key,no_letter,-1.0,False,36,1
157K25S1,272,experiment,107,↑,up,↑,0.49761159997433424,True,36,1
157K25S1,273,experiment,100,→,right,→,0.477524199988693,True,36,1
157K25S1,274,experiment,87,←,left,←,0.5170981999835931,True,36,1
157K25S1,275,experiment,77,→,right,→,0.7114217999915127,True,36,1
157K25S1,276,experiment,69,↓,right,→,0.4927669999888167,False,36,1
157K25S1,277,experiment,89,←,left,←,0.4839595000084955,True,36,1
157K25S1,278,experiment,98,↓,down,↓,0.5446217000135221,True,36,1
157K25S1,279,experiment,72,←,no_key,no_letter,-1.0,False,36,1
157K25S1,280,experiment,71,↓,down,↓,0.6542810999962967,True,36,1
157K25S1,281,experiment,56,↑,left,←,0.43500549998134375,False,36,1
157K25S1,282,experiment,92,↑,up,↑,0.43386809999356046,True,36,0
157K25S1,283,experiment,90,↑,down,↓,0.6588390000106301,False,36,0
157K25S1,284,experiment,83,←,left,←,0.6934241999988444,True,36,1
157K25S1,285,experiment,94,↓,left,←,0.4255172999983188,False,36,1
157K25S1,286,experiment,75,↑,down,↓,0.5613101000199094,False,36,0
157K25S1,287,experiment,99,↑,up,↑,0.6745894000050612,True,36,1
157K25S1,288,experiment,86,→,right,→,0.5396838999877218,True,36,1
157K25S1,289,experiment,49,↑,down,↓,0.6941799999913201,False,36,1
157K25S1,290,experiment,106,→,right,→,0.5600914999959059,True,36,1
157K25S1,291,experiment,76,↑,up,↑,0.47338340000715107,True,36,1
157K25S1,292,experiment,58,←,left,←,0.5391115000238642,True,36,1
157K25S1,293,training,68,↑,down,↓,0.6528043000143953,False,36,0
157K25S1,294,training,49,↑,up,↑,0.4420629999949597,True,36,1
157K25S1,295,experiment,96,→,right,→,0.5373908999899868,True,36,0
157K25S1,296,experiment,105,←,no_key,no_letter,-1.0,False,36,1
157K25S1,297,experiment,94,←,left,←,0.4505306000064593,True,36,1
157K25S1,298,experiment,73,↑,up,↑,0.6585481000074651,True,36,0
157K25S1,299,experiment,66,←,left,←,0.48302420001709834,True,36,1
157K25S1,300,experiment,57,↓,up,↑,0.6850177999876905,False,36,1
157K25S1,301,experiment,61,→,right,→,0.43382730000303127,True,36,1
157K25S1,302,experiment,49,→,right,→,0.5003730999887921,True,36,0
157K25S1,303,experiment,56,←,left,←,0.4255825000000186,True,36,1
157K25S1,304,experiment,103,←,left,←,0.3589614999946207,True,36,0
157K25S1,305,experiment,85,↓,right,→,0.44234479998704046,False,36,0
157K25S1,306,experiment,72,↑,down,↓,0.5592652000195812,False,36,0
157K25S1,307,experiment,74,←,left,←,0.40993880000314675,True,36,1
157K25S1,308,experiment,100,↑,left,←,0.383969899994554,False,36,0
157K25S1,309,experiment,50,↑,no_key,no_letter,-1.0,False,36,0
157K25S1,310,experiment,60,↓,up,↑,0.7176944999955595,False,36,1
157K25S1,311,experiment,95,↑,down,↓,0.6424105000041891,False,36,1
157K25S1,312,experiment,99,→,right,→,0.5283228000043891,True,36,1
157K25S1,313,experiment,52,↓,down,↓,0.7223283999774139,True,36,1
157K25S1,314,experiment,108,↓,down,↓,0.4901563999883365,True,36,1
157K25S1,315,experiment,71,↑,down,↓,0.9033356999862008,False,36,1
157K25S1,316,experiment,90,←,left,←,0.45067150000249967,True,36,1
157K25S1,317,experiment,75,←,left,←,0.8192406000162009,True,36,0
157K25S1,318,experiment,88,↑,down,↓,0.6220550000143703,False,36,1
157K25S1,319,experiment,89,↑,down,↓,0.4881943000073079,False,36,1
157K25S1,320,experiment,54,↓,down,↓,0.5548188999819104,True,36,1
157K25S1,321,experiment,68,←,left,←,0.4505868999985978,True,36,1
157K25S1,322,experiment,104,↓,down,↓,0.8260804000019561,True,36,0
157K25S1,323,experiment,106,↑,down,↓,0.5425369000004139,False,36,1
157K25S1,324,experiment,55,←,left,←,0.4716080999933183,True,36,1
157K25S1,325,experiment,62,→,right,→,0.6879151000175625,True,36,1
157K25S1,326,experiment,83,→,right,→,0.6016476000077091,True,36,1
157K25S1,327,experiment,77,→,left,←,0.7524858999822754,False,36,1
157K25S1,328,experiment,58,↓,down,↓,0.6157945999875665,True,36,1
157K25S1,329,experiment,53,→,right,→,0.48617590000503697,True,36,1
157K25S1,330,experiment,64,←,left,←,0.40048209999804385,True,36,1
157K25S1,331,experiment,92,↑,right,→,0.3998045999906026,False,36,0
157K25S1,332,experiment,78,↑,up,↑,0.5574420000193641,True,36,0
157K25S1,333,experiment,65,↓,down,↓,0.6579972000035923,True,36,1
157K25S1,334,experiment,79,←,right,→,0.40898869998636656,False,36,1
157K25S1,335,experiment,70,←,left,←,0.3922270000039134,True,36,0
157K25S1,336,experiment,91,↑,down,↓,0.5687532000010833,False,36,0
157K25S1,337,experiment,67,→,right,→,0.5163310999923851,True,36,1
157K25S1,338,experiment,98,↑,up,↑,0.679682000016328,True,36,1
157K25S1,339,experiment,48,→,left,←,0.5408889999962412,False,36,1
157K25S1,340,experiment,107,↑,up,↑,0.5402666000009049,True,36,1
157K25S1,341,experiment,63,←,no_key,no_letter,-1.0,False,36,1
157K25S1,342,experiment,93,→,left,←,0.7336129999894183,False,36,1
157K25S1,343,experiment,80,←,left,←,0.44222669998998754,True,36,1
157K25S1,344,experiment,97,↑,no_key,no_letter,-1.0,False,36,0
157K25S1,345,experiment,59,↓,down,↓,0.7153251999989152,True,36,1
157K25S1,346,experiment,84,→,right,→,0.563433300005272,True,36,1
157K25S1,347,experiment,76,↓,down,↓,1.1559388999885414,True,36,1
157K25S1,348,experiment,82,←,right,→,0.5150610000127926,False,36,1
157K25S1,349,experiment,51,→,right,→,0.5019029000250157,True,36,1
157K25S1,350,experiment,81,→,left,←,0.7034130000101868,False,36,1
157K25S1,351,experiment,69,↑,up,↑,0.501225699990755,True,36,1
157K25S1,352,experiment,86,↓,down,↓,0.5810620999836829,True,36,1
157K25S1,353,experiment,87,↑,down,↓,0.5694873000029474,False,36,1
157K25S1,354,experiment,101,→,right,→,0.5058070999803022,True,36,1
157K25S1,355,experiment,102,↑,down,↓,0.7400581999972928,False,36,1
157K25S1,356,training,95,↑,up,↑,0.6227481000241823,True,36,0
157K25S1,357,training,62,←,no_key,no_letter,-1.0,False,36,1
157K25S1,358,experiment,60,↓,up,↑,0.7280205999850295,False,36,1
157K25S1,359,experiment,94,←,left,←,0.4690663999936078,True,36,1
157K25S1,360,experiment,63,→,right,→,0.5568773999984842,True,36,0
157K25S1,361,experiment,108,↓,up,↑,0.731245700008003,False,36,1
157K25S1,362,experiment,80,←,left,←,0.49993499999982305,True,36,1
157K25S1,363,experiment,98,↑,up,↑,0.5038938999932725,True,36,1
157K25S1,364,experiment,100,↑,down,↓,0.5792961000115611,False,36,1
157K25S1,365,experiment,58,↓,down,↓,0.5130321999895386,True,36,1
157K25S1,366,experiment,103,←,left,←,0.433836699987296,True,36,1
157K25S1,367,experiment,73,↓,down,↓,0.5056675999949221,True,36,0
157K25S1,368,experiment,85,←,left,←,0.48177969999960624,True,36,1
157K25S1,369,experiment,83,↓,down,↓,0.4695087000145577,True,36,1
157K25S1,370,experiment,104,↓,down,↓,0.6698819000157528,True,36,0
157K25S1,371,experiment,86,↑,up,↑,0.5191739000147209,True,36,1
157K25S1,372,experiment,70,←,down,↓,0.4998386000224855,False,36,1
157K25S1,373,experiment,61,→,right,→,0.49255510000512004,True,36,1
157K25S1,374,experiment,96,↓,down,↓,0.4812499000108801,True,36,1
157K25S1,375,experiment,59,↓,down,↓,0.474505299993325,True,36,1
157K25S1,376,experiment,82,↓,down,↓,0.5167174999951385,True,36,0
157K25S1,377,experiment,66,→,right,→,0.5546879999747034,True,36,1
157K25S1,378,experiment,87,↑,down,↓,0.503946500015445,False,36,1
157K25S1,379,experiment,107,↓,down,↓,0.5845849999750499,True,36,1
157K25S1,380,experiment,65,→,right,→,0.4502661000005901,True,36,1
157K25S1,381,experiment,92,↑,down,↓,0.5478081000037491,False,36,0
157K25S1,382,experiment,62,↓,down,↓,0.5136606000014581,True,36,1
157K25S1,383,experiment,57,↑,down,↓,0.5066648999927565,False,36,1
157K25S1,384,experiment,56,→,no_key,no_letter,-1.0,False,36,1
157K25S1,385,experiment,48,→,right,→,0.5264360999863129,True,36,1
157K25S1,386,experiment,72,←,right,→,0.4508250000071712,False,36,1
157K25S1,387,experiment,97,→,left,←,0.5040150999848265,False,36,0
157K25S1,388,experiment,67,→,right,→,0.3757177999941632,True,36,1
157K25S1,389,experiment,99,↓,down,↓,0.4865304999984801,True,36,0
157K25S1,390,experiment,88,↑,no_key,no_letter,-1.0,False,36,1
157K25S1,391,experiment,93,←,no_key,no_letter,-1.0,False,36,1
157K25S1,392,experiment,84,↑,no_key,no_letter,-1.0,False,36,1
157K25S1,393,experiment,78,←,left,←,0.5284003000124358,True,36,1
157K25S1,394,experiment,50,↑,up,↑,0.49929490001522936,True,36,1
157K25S1,395,experiment,77,↓,up,↑,0.6942035999963991,False,36,1
157K25S1,396,experiment,106,↓,down,↓,0.5760346000024583,True,36,1
157K25S1,397,experiment,102,↑,no_key,no_letter,-1.0,False,36,1
157K25S1,398,experiment,89,↓,down,↓,0.6124489999783691,True,36,1
157K25S1,399,experiment,51,↓,down,↓,0.499654700019164,True,36,1
157K25S1,400,experiment,105,←,left,←,0.573315099987667,True,36,1
157K25S1,401,experiment,64,↑,down,↓,0.5855694999918342,False,36,1
157K25S1,402,experiment,95,→,right,→,0.5071827000065241,True,36,1
157K25S1,403,experiment,49,→,right,→,0.4872276999813039,True,36,1
157K25S1,404,experiment,74,↓,down,↓,0.6032620999903884,True,36,1
157K25S1,405,experiment,53,↓,down,↓,0.5541792000003625,True,36,1
157K25S1,406,experiment,76,↑,up,↑,0.7151123999792617,True,36,1
157K25S1,407,experiment,91,↓,down,↓,0.5607836999988649,True,36,1
157K25S1,408,experiment,75,→,right,→,0.530209599994123,True,36,1
157K25S1,409,experiment,69,↓,down,↓,0.400198499992257,True,36,1
157K25S1,410,experiment,55,←,right,→,0.5161178999987897,False,36,0
157K25S1,411,experiment,79,←,left,←,0.47827970000798814,True,36,1
157K25S1,412,experiment,81,↓,down,↓,0.4502792999846861,True,36,1
157K25S1,413,experiment,101,→,down,↓,0.48506799997994676,False,36,0
157K25S1,414,experiment,52,→,right,→,0.6084566000208724,True,36,1
157K25S1,415,experiment,68,→,right,→,0.43491129999165423,True,36,1
157K25S1,416,experiment,54,→,right,→,0.4866840999748092,True,36,0
157K25S1,417,experiment,71,↑,up,↑,0.5399571000016294,True,36,1
157K25S1,418,experiment,90,←,no_key,no_letter,-1.0,False,36,1
157K25S1,419,training,69,↑,up,↑,0.7636242999869864,True,36,0
157K25S1,420,training,65,↑,up,↑,0.42521620000479743,True,36,1
157K25S1,421,experiment,53,↑,up,↑,0.6131876000144985,True,36,0
157K25S1,422,experiment,73,→,right,→,0.5167917000071611,True,36,1
157K25S1,423,experiment,61,→,right,→,0.5241921000124421,True,36,1
157K25S1,424,experiment,63,↑,up,↑,0.49151170000550337,True,36,1
157K25S1,425,experiment,66,↓,down,↓,0.49773889998323284,True,36,1
157K25S1,426,experiment,101,←,left,←,0.676724999997532,True,36,1
157K25S1,427,experiment,51,→,right,→,0.4088372999976855,True,36,1
157K25S1,428,experiment,89,↓,down,↓,0.48382130000391044,True,36,0
157K25S1,429,experiment,62,→,no_key,no_letter,-1.0,False,36,1
157K25S1,430,experiment,94,↑,down,↓,0.5673190999950748,False,36,1
157K25S1,431,experiment,108,→,right,→,0.41690350000862963,True,36,1
157K25S1,432,experiment,91,←,left,←,0.5426237000210676,True,36,0
157K25S1,433,experiment,88,←,no_key,no_letter,-1.0,False,36,1
157K25S1,434,experiment,98,↓,down,↓,0.6780015999975149,True,36,1
157K25S1,435,experiment,85,↑,up,↑,0.43306129999109544,True,36,1
157K25S1,436,experiment,67,↑,down,↓,0.6238201000087429,False,36,0
157K25S1,437,experiment,49,→,no_key,no_letter,-1.0,False,36,1
157K25S1,438,experiment,96,←,left,←,0.5935493000142742,True,36,1
157K25S1,439,experiment,71,↑,up,↑,0.5947900000028312,True,36,1
157K25S1,440,experiment,70,→,right,→,0.4689643000019714,True,36,1
157K25S1,441,experiment,105,←,right,→,0.4169893999933265,False,36,0
157K25S1,442,experiment,93,←,left,←,0.5516778999881353,True,36,0
157K25S1,443,experiment,90,↑,up,↑,0.7002958000230137,True,36,1
157K25S1,444,experiment,56,↓,down,↓,0.6462532999867108,True,36,1
157K25S1,445,experiment,84,←,right,→,0.5688351000135299,False,36,1
157K25S1,446,experiment,64,→,right,→,0.43384470001910813,True,36,1
157K25S1,447,experiment,99,↑,up,↑,0.6514632000180427,True,36,0
157K25S1,448,experiment,100,←,left,←,0.6890185999800451,True,36,1
157K25S1,449,experiment,86,←,left,←,0.43390519998501986,True,36,1
157K25S1,450,experiment,107,↓,right,→,0.6364731999929063,False,36,0
157K25S1,451,experiment,57,←,left,←,0.584726100001717,True,36,1
157K25S1,452,experiment,65,↓,left,←,0.5402958999911789,False,36,1
157K25S1,453,experiment,75,→,no_key,no_letter,-1.0,False,36,1
157K25S1,454,experiment,74,↓,down,↓,0.5440255999856163,True,36,1
157K25S1,455,experiment,79,↑,no_key,no_letter,-1.0,False,36,1
157K25S1,456,experiment,50,↓,down,↓,0.5542627999966498,True,36,1
157K25S1,457,experiment,92,↓,down,↓,0.48653950000880286,True,36,1
157K25S1,458,experiment,104,→,right,→,0.5052801000128966,True,36,1
157K25S1,459,experiment,106,←,left,←,0.5682401999947615,True,36,1
157K25S1,460,experiment,59,↑,down,↓,0.7267295999918133,False,36,1
157K25S1,461,experiment,87,↑,down,↓,0.6130017000250518,False,36,1
157K25S1,462,experiment,68,→,right,→,0.4787619000126142,True,36,1
157K25S1,463,experiment,54,→,left,←,0.5135730000038166,False,36,1
157K25S1,464,experiment,95,→,right,→,0.43391419999534264,True,36,1
157K25S1,465,experiment,58,→,left,←,0.47400990000460297,False,36,0
157K25S1,466,experiment,78,→,right,→,0.43524319998687133,True,36,0
157K25S1,467,experiment,83,←,left,←,0.4257318000018131,True,36,0
157K25S1,468,experiment,55,↓,down,↓,0.6291143000125885,True,36,0
157K25S1,469,experiment,48,↑,up,↑,0.5882646999962162,True,36,1
157K25S1,470,experiment,82,←,left,←,0.48219219999737106,True,36,1
157K25S1,471,experiment,69,↑,no_key,no_letter,-1.0,False,36,1
157K25S1,472,experiment,97,↑,up,↑,0.6581498000014108,True,36,1
157K25S1,473,experiment,80,→,left,←,0.518181999999797,False,36,1
157K25S1,474,experiment,76,←,left,←,0.4501994000165723,True,36,1
157K25S1,475,experiment,52,→,left,←,0.4504734000074677,False,36,0
157K25S1,476,experiment,103,←,left,←,0.45025719999102876,True,36,0
157K25S1,477,experiment,77,↓,up,↑,0.5259086000151001,False,36,0
157K25S1,478,experiment,60,↓,down,↓,0.5974405000160914,True,36,1
157K25S1,479,experiment,81,→,left,←,0.4255117000138853,False,36,1
157K25S1,480,experiment,72,←,up,↑,0.5702740999986418,False,36,0
157K25S1,481,experiment,102,↓,down,↓,0.5304292000073474,True,36,1
157K25S1,482,training,75,↑,down,↓,0.5517926999891642,False,36,0
157K25S1,483,training,86,↑,up,↑,0.47828360000858083,True,36,1
157K25S1,484,experiment,103,←,left,←,0.56861210000352,True,36,1
157K25S1,485,experiment,74,↑,up,↑,0.5218901000043843,True,36,1
157K25S1,486,experiment,60,←,left,←,0.4739615999860689,True,36,1
157K25S1,487,experiment,83,↑,up,↑,0.5714324000000488,True,36,1
157K25S1,488,experiment,66,←,left,←,0.4337793000158854,True,36,1
157K25S1,489,experiment,72,↓,down,↓,0.685943699994823,True,36,0
157K25S1,490,experiment,75,←,left,←,0.546937600011006,True,36,1
157K25S1,491,experiment,89,→,no_key,no_letter,-1.0,False,36,1
157K25S1,492,experiment,84,→,right,→,0.57369240000844,True,36,1
157K25S1,493,experiment,48,↑,up,↑,0.5271163000143133,True,36,1
157K25S1,494,experiment,77,↓,up,↑,0.4891778999881353,False,36,1
157K25S1,495,experiment,91,↓,down,↓,0.4505273000104353,True,36,1
157K25S1,496,experiment,96,→,no_key,no_letter,-1.0,False,36,0
157K25S1,497,experiment,61,←,left,←,0.5960351999965496,True,36,1
157K25S1,498,experiment,101,←,left,←,0.4506287000258453,True,36,1
157K25S1,499,experiment,51,↓,down,↓,0.4886205999937374,True,36,0
157K25S1,500,experiment,85,↓,down,↓,0.8331989000143949,True,36,1
157K25S1,501,experiment,107,↓,down,↓,0.5017099999822676,True,36,1
157K25S1,502,experiment,99,←,right,→,0.40051919998950325,False,36,1
157K25S1,503,experiment,59,↑,down,↓,0.5890691999811679,False,36,0
157K25S1,504,experiment,97,↑,down,↓,0.541801299987128,False,36,1
157K25S1,505,experiment,62,↑,up,↑,0.43382810000912286,True,36,1
157K25S1,506,experiment,106,←,right,→,0.6076132000016514,False,36,0
157K25S1,507,experiment,88,→,no_key,no_letter,-1.0,False,36,1
157K25S1,508,experiment,100,→,no_key,no_letter,-1.0,False,36,1
157K25S1,509,experiment,81,→,right,→,0.4914518000150565,True,36,1
157K25S1,510,experiment,80,↑,right,→,0.4779784999846015,False,36,1
157K25S1,511,experiment,105,↓,up,↑,0.511773699981859,False,36,1
157K25S1,512,experiment,69,↓,down,↓,0.4930996999901254,True,36,1
157K25S1,513,experiment,90,←,left,←,0.46858179999981076,True,36,1
157K25S1,514,experiment,67,→,right,→,0.5713510999921709,True,36,0
157K25S1,515,experiment,71,→,right,→,0.469913999986602,True,36,1
157K25S1,516,experiment,65,←,left,←,0.501330599974608,True,36,1
157K25S1,517,experiment,102,↓,down,↓,0.5119849999900907,True,36,1
157K25S1,518,experiment,57,↓,down,↓,0.43419050000375137,True,36,1
157K25S1,519,experiment,95,↑,down,↓,1.232430400006706,False,36,0
157K25S1,520,experiment,104,↑,down,↓,0.44248399999924004,False,36,1
157K25S1,521,experiment,49,←,down,↓,0.17689230001997203,False,36,0
157K25S1,522,experiment,98,↑,up,↑,0.487691000016639,True,36,0
157K25S1,523,experiment,73,↑,down,↓,0.47647190000861883,False,36,1
157K25S1,524,experiment,92,→,down,↓,0.45050049998098984,False,36,1
157K25S1,525,experiment,87,↓,no_key,no_letter,-1.0,False,36,0
157K25S1,526,experiment,55,←,no_key,no_letter,-1.0,False,36,1
157K25S1,527,experiment,63,↓,down,↓,0.6095576999941841,True,36,1
157K25S1,528,experiment,86,↓,down,↓,0.48507530000642873,True,36,1
157K25S1,529,experiment,50,↓,down,↓,0.4977810000127647,True,36,1
157K25S1,530,experiment,94,→,right,→,0.4504642999963835,True,36,1
157K25S1,531,experiment,70,←,left,←,0.5336092000070494,True,36,0
157K25S1,532,experiment,58,↓,down,↓,0.5414926999947056,True,36,1
157K25S1,533,experiment,79,↓,left,←,0.42547109999577515,False,36,1
157K25S1,534,experiment,52,←,left,←,0.5159592000127304,True,36,0
157K25S1,535,experiment,56,→,left,←,0.5171270999999251,False,36,1
157K25S1,536,experiment,76,↑,left,←,0.4335336000076495,False,36,1
157K25S1,537,experiment,78,→,right,→,0.5245685999980196,True,36,0
157K25S1,538,experiment,108,→,right,→,0.5241985000029672,True,36,1
157K25S1,539,experiment,64,↑,down,↓,0.4507197999919299,False,36,1
157K25S1,540,experiment,53,↓,down,↓,0.7190090999938548,True,36,0
157K25S1,541,experiment,68,↑,down,↓,0.6603003999916837,False,36,1
157K25S1,542,experiment,93,↓,down,↓,0.4762365999922622,True,36,1
157K25S1,543,experiment,82,→,right,→,0.5579502000182401,True,36,1
157K25S1,544,experiment,54,→,right,→,0.5338128000148572,True,36,1
157K25S1,545,training,72,↑,down,↓,0.4724618000036571,False,36,0
157K25S1,546,training,80,↑,up,↑,0.6747129000141285,True,36,0
157K25S1,547,experiment,90,↓,down,↓,0.5064158999884967,True,36,1
157K25S1,548,experiment,98,↓,down,↓,0.43381469999440014,True,36,1
157K25S1,549,experiment,88,←,down,↓,0.48005279997596517,False,36,0
157K25S1,550,experiment,54,→,right,→,0.5068750999926124,True,36,1
157K25S1,551,experiment,105,→,no_key,no_letter,-1.0,False,36,1
157K25S1,552,experiment,104,↑,up,↑,0.6440609999990556,True,36,1
157K25S1,553,experiment,82,↓,down,↓,0.6475877999910153,True,36,1
157K25S1,554,experiment,56,←,left,←,0.6602988999802619,True,36,1
157K25S1,555,experiment,71,←,left,←,0.5781577000161633,True,36,1
157K25S1,556,experiment,100,↓,right,→,0.555015399993863,False,36,1
157K25S1,557,experiment,86,↓,down,↓,0.43372800000361167,True,36,1
157K25S1,558,experiment,69,↑,no_key,no_letter,-1.0,False,36,0
157K25S1,559,experiment,51,↑,down,↓,0.6333816999976989,False,36,1
157K25S1,560,experiment,96,→,left,←,0.5129522999923211,False,36,1
157K25S1,561,experiment,103,←,left,←,0.4005288000043947,True,36,1
157K25S1,562,experiment,61,←,left,←,0.5025495000008959,True,36,0
157K25S1,563,experiment,108,↓,down,↓,0.6549405000114348,True,36,1
157K25S1,564,experiment,80,→,left,←,0.41729040001519024,False,36,1
157K25S1,565,experiment,53,←,left,←,0.512363899993943,True,36,0
157K25S1,566,experiment,77,↓,down,↓,0.5785796999989543,True,36,1
157K25S1,567,experiment,79,←,left,←,0.434069000009913,True,36,1
157K25S1,568,experiment,85,↑,up,↑,0.4506056999962311,True,36,0
157K25S1,569,experiment,78,←,left,←,0.6167638000042643,True,36,0
157K25S1,570,experiment,60,↓,down,↓,0.5407056999974884,True,36,1
157K25S1,571,experiment,68,←,left,←,0.4421575000160374,True,36,1
157K25S1,572,experiment,76,↑,down,↓,0.5901957000023685,False,36,0
157K25S1,573,experiment,106,↑,up,↑,0.6598979000118561,True,36,1
157K25S1,574,experiment,89,→,left,←,0.5245328999881167,False,36,1
157K25S1,575,experiment,70,→,right,→,0.7288753000029828,True,36,1
157K25S1,576,experiment,95,↑,up,↑,0.5164790999842808,True,36,1
157K25S1,577,experiment,75,→,right,→,0.5353768999921158,True,36,1
157K25S1,578,experiment,49,↑,up,↑,0.5302886000135913,True,36,1
157K25S1,579,experiment,97,↓,left,←,0.5013823000190314,False,36,1
157K25S1,580,experiment,59,↑,up,↑,0.5661227999953553,True,36,1
157K25S1,581,experiment,74,↓,up,↑,0.5114724999875762,False,36,1
157K25S1,582,experiment,66,↓,down,↓,0.40048020001268014,True,36,1
157K25S1,583,experiment,81,↑,up,↑,0.48319489997811615,True,36,0
157K25S1,584,experiment,93,→,right,→,0.521136800001841,True,36,1
157K25S1,585,experiment,65,←,right,→,0.4872281000134535,False,36,1
157K25S1,586,experiment,72,↓,down,↓,0.5879811999911908,True,36,1
157K25S1,587,experiment,67,↑,up,↑,0.5106640000012703,True,36,1
157K25S1,588,experiment,102,→,right,→,0.4183472000004258,True,36,1
157K25S1,589,experiment,48,→,no_key,no_letter,-1.0,False,36,0
157K25S1,590,experiment,55,↑,up,↑,0.57606650001253,True,36,1
157K25S1,591,experiment,62,↓,down,↓,0.5891017999965698,True,36,1
157K25S1,592,experiment,94,↓,no_key,no_letter,-1.0,False,36,1
157K25S1,593,experiment,107,↓,no_key,no_letter,-1.0,False,36,1
157K25S1,594,experiment,63,→,left,←,0.7148306000162847,False,36,1
157K25S1,595,experiment,52,→,right,→,0.5254046999907587,True,36,1
157K25S1,596,experiment,99,→,right,→,0.4337429000006523,True,36,1
157K25S1,597,experiment,58,↑,up,↑,0.6676409000065178,True,36,0
157K25S1,598,experiment,91,←,no_key,no_letter,-1.0,False,36,1
157K25S1,599,experiment,83,→,right,→,0.5940543000178877,True,36,1
157K25S1,600,experiment,50,↓,down,↓,0.7781925000017509,True,36,1
157K25S1,601,experiment,87,→,right,→,0.5029899000073783,True,36,1
157K25S1,602,experiment,101,↑,down,↓,0.6499690000200644,False,36,1
157K25S1,603,experiment,92,↑,up,↑,0.5140281000058167,True,36,1
157K25S1,604,experiment,84,←,no_key,no_letter,-1.0,False,36,1
157K25S1,605,experiment,57,←,left,←,0.6172797000035644,True,36,1
157K25S1,606,experiment,73,↓,down,↓,0.5368039999739267,True,36,1
157K25S1,607,experiment,64,↓,right,→,0.6947874999896158,False,36,1
157K25S1,608,training,69,→,right,→,0.6464617000019643,True,36,0
157K25S1,609,training,87,↑,no_key,no_letter,-1.0,False,36,1
157K25S1,610,experiment,94,→,right,→,0.6912474999844562,True,36,1
157K25S1,611,experiment,81,→,no_key,no_letter,-1.0,False,36,1
157K25S1,612,experiment,95,←,left,←,0.5441044000035618,True,36,1
157K25S1,613,experiment,102,↑,up,↑,0.5770023000077344,True,36,1
157K25S1,614,experiment,86,↑,up,↑,0.5579552999988664,True,36,1
157K25S1,615,experiment,84,←,right,→,0.4844645999837667,False,36,1
157K25S1,616,experiment,69,↑,no_key,no_letter,-1.0,False,36,1
157K25S1,617,experiment,73,→,right,→,0.6282736000139266,True,36,1
157K25S1,618,experiment,98,←,left,←,0.47590250000939704,True,36,1
157K25S1,619,experiment,89,↓,down,↓,0.5548451999784447,True,36,1
157K25S1,620,experiment,88,→,right,→,0.6158341999980621,True,36,1
157K25S1,621,experiment,76,↑,left,←,0.6864445999963209,False,36,1
157K25S1,622,experiment,61,→,left,←,0.5993737999815494,False,36,1
157K25S1,623,experiment,106,↓,down,↓,0.48473600001307204,True,36,1
157K25S1,624,experiment,97,↓,down,↓,0.482099399989238,True,36,1
157K25S1,625,experiment,60,→,right,→,0.5469050999963656,True,36,1
157K25S1,626,experiment,104,↓,down,↓,0.6190302000031807,True,36,1
157K25S1,627,experiment,99,↑,up,↑,0.5379600999876857,True,36,1
157K25S1,628,experiment,87,↓,no_key,no_letter,-1.0,False,36,1
157K25S1,629,experiment,72,←,left,←,0.6264170999929775,True,36,1
157K25S1,630,experiment,67,↓,down,↓,0.5795773999998346,True,36,1
157K25S1,631,experiment,51,←,left,←,0.5237483000091743,True,36,1
157K25S1,632,experiment,83,↓,down,↓,0.5398678999918047,True,36,1
157K25S1,633,experiment,100,→,right,→,0.5175054999999702,True,36,1
157K25S1,634,experiment,49,↑,up,↑,0.4505440999928396,True,36,1
157K25S1,635,experiment,65,→,left,←,0.6494619000004604,False,36,0
157K25S1,636,experiment,74,←,left,←,0.5274763000197709,True,36,1
157K25S1,637,experiment,53,←,left,←,0.43411999999079853,True,36,1
157K25S1,638,experiment,90,→,right,→,0.6023064999899361,True,36,0
157K25S1,639,experiment,82,↓,right,→,0.6797108000027947,False,36,1
157K25S1,640,experiment,50,→,no_key,no_letter,-1.0,False,36,1
157K25S1,641,experiment,56,↑,left,←,0.7878807999950368,False,36,1
157K25S1,642,experiment,70,↓,down,↓,0.6054716000217013,True,36,1
157K25S1,643,experiment,55,→,right,→,0.6913152000051923,True,36,1
157K25S1,644,experiment,59,↓,down,↓,0.5006348000024445,True,36,1
157K25S1,645,experiment,108,←,left,←,0.6053744000091683,True,36,1
157K25S1,646,experiment,91,↑,left,←,0.7912918000074569,False,36,1
157K25S1,647,experiment,63,↑,down,↓,0.6592412999889348,False,36,1
157K25S1,648,experiment,52,→,right,→,0.5441588000103366,True,36,1
157K25S1,649,experiment,78,←,left,←,0.6250976999872364,True,36,1
157K25S1,650,experiment,77,→,right,→,0.48727700000745244,True,36,1
157K25S1,651,experiment,107,↓,down,↓,0.5524099000031129,True,36,1
157K25S1,652,experiment,96,→,right,→,0.5312992999970447,True,36,1
157K25S1,653,experiment,68,↓,left,←,0.8236865000217222,False,36,1
157K25S1,654,experiment,103,→,right,→,0.6051054999988992,True,36,1
157K25S1,655,experiment,93,←,right,→,0.486387700017076,False,36,1
157K25S1,656,experiment,48,←,left,←,0.4256050999974832,True,36,1
157K25S1,657,experiment,57,→,right,→,0.5277799000032246,True,36,0
157K25S1,658,experiment,66,→,right,→,0.5493095999991056,True,36,1
157K25S1,659,experiment,64,→,right,→,0.4986205000022892,True,36,1
157K25S1,660,experiment,101,←,left,←,0.5575306999962777,True,36,1
157K25S1,661,experiment,80,↑,down,↓,0.6291343000193592,False,36,1
157K25S1,662,experiment,85,↓,right,→,0.5204658999864478,False,36,1
157K25S1,663,experiment,92,↑,right,→,0.2766768999863416,False,36,1
157K25S1,664,experiment,75,↑,down,↓,1.2006680999766104,False,36,0
157K25S1,665,experiment,105,←,no_key,no_letter,-1.0,False,36,1
157K25S1,666,experiment,54,←,left,←,0.4504378999990877,True,36,1
157K25S1,667,experiment,71,↑,left,←,0.4009832000010647,False,36,0
157K25S1,668,experiment,79,↑,up,↑,0.5232538999989629,True,36,0
157K25S1,669,experiment,62,→,right,→,0.5942336000152864,True,36,1
157K25S1,670,experiment,58,←,left,←,0.4723906999861356,True,36,1
157K25S1,671,training,81,↓,no_key,no_letter,-1.0,False,36,0
157K25S1,672,training,107,→,right,→,0.8366874999774154,True,36,1
157K25S1,673,experiment,74,←,left,←,0.5393169000162743,True,36,1
157K25S1,674,experiment,93,←,no_key,no_letter,-1.0,False,36,1
157K25S1,675,experiment,60,↓,down,↓,0.6376656999927945,True,36,1
157K25S1,676,experiment,78,←,left,←,0.506673600000795,True,36,1
157K25S1,677,experiment,107,←,left,←,0.6352253999793902,True,36,1
157K25S1,678,experiment,51,↑,right,→,0.5615202999906614,False,36,1
157K25S1,679,experiment,62,←,right,→,0.4005073999869637,False,36,1
157K25S1,680,experiment,69,↑,down,↓,0.5042925000016112,False,36,0
157K25S1,681,experiment,76,↓,down,↓,0.5553400999924634,True,36,1
157K25S1,682,experiment,81,↑,down,↓,0.27662670001154765,False,36,1
157K25S1,683,experiment,96,←,left,←,0.3839248000003863,True,36,0
157K25S1,684,experiment,104,↓,right,→,0.318045499996515,False,36,0
157K25S1,685,experiment,100,↓,no_key,no_letter,-1.0,False,36,0
157K25S1,686,experiment,48,↓,down,↓,0.5376014999928884,True,36,1
157K25S1,687,experiment,108,↑,no_key,no_letter,-1.0,False,36,1
157K25S1,688,experiment,88,←,left,←,0.48611989998607896,True,36,1
157K25S1,689,experiment,73,↓,down,↓,0.5544889000011608,True,36,1
157K25S1,690,experiment,85,→,right,→,0.4963929000077769,True,36,1
157K25S1,691,experiment,75,↓,down,↓,0.4843581000168342,True,36,1
157K25S1,692,experiment,58,↓,down,↓,0.47052209998946637,True,36,1
157K25S1,693,experiment,56,←,left,←,0.6565455000090878,True,36,1
157K25S1,694,experiment,50,→,right,→,0.47066910000285134,True,36,1
157K25S1,695,experiment,95,↑,down,↓,0.5480931000201963,False,36,0
157K25S1,696,experiment,71,↓,down,↓,0.5110354000062216,True,36,1
157K25S1,697,experiment,80,↑,up,↑,0.7368515999987721,True,36,1
157K25S1,698,experiment,52,←,left,←,0.5946611999825109,True,36,1
157K25S1,699,experiment,65,↓,down,↓,0.5578420000092592,True,36,1
157K25S1,700,experiment,103,←,left,←,0.4004704999970272,True,36,1
157K25S1,701,experiment,54,→,left,←,0.6360720999946352,False,36,0
157K25S1,702,experiment,59,↑,up,↑,0.5916144000075292,True,36,1
157K25S1,703,experiment,90,↓,down,↓,0.48278859999845736,True,36,1
157K25S1,704,experiment,89,→,no_key,no_letter,-1.0,False,36,1
157K25S1,705,experiment,49,↑,no_key,no_letter,-1.0,False,36,1
157K25S1,706,experiment,91,←,left,←,0.49640550001640804,True,36,1
157K25S1,707,experiment,98,→,left,←,0.5082738000201061,False,36,1
157K25S1,708,experiment,101,←,left,←,0.5109166000038385,True,36,1
157K25S1,709,experiment,61,↓,down,↓,0.5508053000085056,True,36,1
157K25S1,710,experiment,82,→,right,→,0.4942911000107415,True,36,1
157K25S1,711,experiment,64,←,left,←,0.45057689998066053,True,36,1
157K25S1,712,experiment,79,←,left,←,0.4170050000248011,True,36,0
157K25S1,713,experiment,72,↑,up,↑,0.6491777999908663,True,36,0
157K25S1,714,experiment,87,↑,up,↑,0.4909175999928266,True,36,1
157K25S1,715,experiment,67,↑,down,↓,0.5374061999900732,False,36,1
157K25S1,716,experiment,102,←,no_key,no_letter,-1.0,False,36,1
157K25S1,717,experiment,53,←,right,→,0.7071503999759443,False,36,1
157K25S1,718,experiment,66,←,left,←,0.6573046000266913,True,36,1
157K25S1,719,experiment,86,↑,up,↑,0.5309826000011526,True,36,1
157K25S1,720,experiment,106,→,right,→,0.6989756999828387,True,36,1
157K25S1,721,experiment,92,←,left,←,0.5049521999899298,True,36,1
157K25S1,722,experiment,57,↑,up,↑,0.5061812999774702,True,36,1
157K25S1,723,experiment,84,→,right,→,0.49072120001073927,True,36,1
157K25S1,724,experiment,97,↓,left,←,0.8071257999981754,False,36,1
157K25S1,725,experiment,77,←,left,←,0.433835400006501,True,36,1
157K25S1,726,experiment,99,←,left,←,0.45056459997431375,True,36,0
157K25S1,727,experiment,55,↓,down,↓,0.5516394999867771,True,36,0
157K25S1,728,experiment,63,←,left,←,0.4338256999908481,True,36,1
157K25S1,729,experiment,105,↓,down,↓,0.513154400017811,True,36,0
157K25S1,730,experiment,70,→,right,→,0.5097484000143595,True,36,1
157K25S1,731,experiment,94,→,right,→,0.498782000009669,True,36,1
157K25S1,732,experiment,83,↑,up,↑,0.48404630000004545,True,36,1
157K25S1,733,experiment,68,↑,no_key,no_letter,-1.0,False,36,1
157K25S1,734,training,79,←,right,→,0.4504972000140697,False,36,0
157K25S1,735,training,94,←,left,←,0.47070249999524094,True,36,0
157K25S1,736,experiment,81,↑,up,↑,0.4179775999800768,True,36,1
157K25S1,737,experiment,95,←,left,←,0.5123147000267636,True,36,0
157K25S1,738,experiment,89,←,left,←,0.5108710000058636,True,36,1
157K25S1,739,experiment,108,↑,up,↑,0.40896309999516234,True,36,1
157K25S1,740,experiment,61,←,left,←,0.5389412000076845,True,36,0
157K25S1,741,experiment,96,←,left,←,0.43381899999803863,True,36,1
157K25S1,742,experiment,70,←,left,←,0.36690100000123493,True,36,0
157K25S1,743,experiment,90,←,left,←,0.3249759000027552,True,36,0
157K25S1,744,experiment,83,↑,left,←,0.35057229999802075,False,36,0
157K25S1,745,experiment,75,↑,up,↑,0.40057170001091436,True,36,0
157K25S1,746,experiment,72,←,left,←,0.5218834000115748,True,36,0
157K25S1,747,experiment,77,↓,up,↑,0.4413010000134818,False,36,1
157K25S1,748,experiment,55,↓,down,↓,0.5679173000098672,True,36,0
157K25S1,749,experiment,82,↑,down,↓,0.6545451999991201,False,36,1
157K25S1,750,experiment,62,↓,down,↓,0.6081148000084795,True,36,1
157K25S1,751,experiment,91,↑,right,→,0.43482789999688976,False,36,1
157K25S1,752,experiment,63,→,right,→,0.5236049999948591,True,36,0
157K25S1,753,experiment,102,↓,down,↓,0.5973665000055917,True,36,1
157K25S1,754,experiment,79,←,left,←,0.43387770000845194,True,36,1
157K25S1,755,experiment,54,←,left,←,0.6406996000150684,True,36,0
157K25S1,756,experiment,76,↑,right,→,0.6460963000135962,False,36,1
157K25S1,757,experiment,51,→,right,→,0.4839298000151757,True,36,1
157K25S1,758,experiment,93,↑,up,↑,0.5139906999829691,True,36,1
157K25S1,759,experiment,53,↑,down,↓,0.6521548999880906,False,36,1
157K25S1,760,experiment,107,↓,down,↓,0.4871953999972902,True,36,1
157K25S1,761,experiment,73,→,right,→,0.4683447999996133,True,36,1
157K25S1,762,experiment,97,↓,no_key,no_letter,-1.0,False,36,0
157K25S1,763,experiment,104,→,right,→,0.5051766000105999,True,36,1
157K25S1,764,experiment,56,↑,down,↓,0.6663929999922402,False,36,1
157K25S1,765,experiment,103,→,right,→,0.5022320999996737,True,36,1
157K25S1,766,experiment,92,→,left,←,0.5961976999824401,False,36,1
157K25S1,767,experiment,85,↑,no_key,no_letter,-1.0,False,36,1
157K25S1,768,experiment,69,→,right,→,0.6038170999963768,True,36,1
157K25S1,769,experiment,57,↑,down,↓,0.5450728999858256,False,36,1
157K25S1,770,experiment,52,↑,no_key,no_letter,-1.0,False,36,1
157K25S1,771,experiment,84,→,right,→,0.6170264999964274,True,36,1
157K25S1,772,experiment,86,→,no_key,no_letter,-1.0,False,36,1
157K25S1,773,experiment,87,↓,up,↑,0.7379199000133667,False,36,1
157K25S1,774,experiment,49,←,up,↑,0.7563428999856114,False,36,1
157K25S1,775,experiment,98,↑,up,↑,0.48632440000073984,True,36,1
157K25S1,776,experiment,65,→,right,→,0.5015017999976408,True,36,1
157K25S1,777,experiment,78,↓,down,↓,0.6959424999949988,True,36,1
157K25S1,778,experiment,80,↓,down,↓,0.49034569997456856,True,36,1
157K25S1,779,experiment,71,↓,down,↓,0.4505613000073936,True,36,1
157K25S1,780,experiment,94,↓,no_key,no_letter,-1.0,False,36,0
157K25S1,781,experiment,64,↑,up,↑,0.5794919999898411,True,36,1
157K25S1,782,experiment,99,→,down,↓,0.6357690999866463,False,36,1
157K25S1,783,experiment,101,→,no_key,no_letter,-1.0,False,36,1
157K25S1,784,experiment,60,←,right,→,0.7520490999741014,False,36,1
157K25S1,785,experiment,106,→,right,→,0.48749810000299476,True,36,1
157K25S1,786,experiment,48,↓,no_key,no_letter,-1.0,False,36,1
157K25S1,787,experiment,66,↑,up,↑,0.5606337000208441,True,36,1
157K25S1,788,experiment,50,↑,up,↑,0.6101236999966204,True,36,1
157K25S1,789,experiment,100,←,left,←,0.561103699990781,True,36,1
157K25S1,790,experiment,88,↑,down,↓,0.5581054000067525,False,36,1
157K25S1,791,experiment,74,←,no_key,no_letter,-1.0,False,36,1
157K25S1,792,experiment,68,→,left,←,0.4760117999976501,False,36,1
157K25S1,793,experiment,105,→,right,→,0.7260154999967199,True,36,1
157K25S1,794,experiment,58,←,right,→,0.686326499999268,False,36,1
157K25S1,795,experiment,67,→,right,→,0.5972953999880701,True,36,1
157K25S1,796,experiment,59,↓,right,→,0.5863406000135001,False,36,1
157K25S1,797,training,98,←,left,←,0.5044909999996889,True,37,0
157K25S1,798,training,87,↓,left,←,0.43354190001264215,False,37,1
157K25S1,799,experiment,72,→,right,→,0.45881729997927323,True,37,0
157K25S1,800,experiment,106,↑,no_key,no_letter,-1.0,False,37,0
157K25S1,801,experiment,68,↓,down,↓,0.6606631000177003,True,37,1
157K25S1,802,experiment,86,↑,up,↑,0.4588733999989927,True,37,1
157K25S1,803,experiment,62,←,left,←,0.567446100001689,True,37,0
157K25S1,804,experiment,50,↓,down,↓,0.7126094999839552,True,37,1
157K25S1,805,experiment,73,→,right,→,0.47682750000967644,True,37,1
157K25S1,806,experiment,85,←,left,←,0.5331983999931253,True,37,0
157K25S1,807,experiment,59,↑,down,↓,0.6368216999981087,False,37,1
157K25S1,808,experiment,92,←,left,←,0.44222150000859983,True,37,1
157K25S1,809,experiment,103,↑,up,↑,0.5297524000052363,True,37,0
157K25S1,810,experiment,78,↓,down,↓,0.5789913999906275,True,37,1
157K25S1,811,experiment,104,←,left,←,0.505830199981574,True,37,1
157K25S1,812,experiment,49,→,right,→,0.7335540000058245,True,37,1
157K25S1,813,experiment,107,←,left,←,0.48587299999780953,True,37,1
157K25S1,814,experiment,56,↑,down,↓,0.7195866999973077,False,37,1
157K25S1,815,experiment,81,↓,down,↓,0.5045838999794796,True,37,1
157K25S1,816,experiment,90,↑,up,↑,0.4505346000078134,True,37,1
157K25S1,817,experiment,63,↑,down,↓,0.5440330000128597,False,37,0
157K25S1,818,experiment,93,↓,down,↓,0.564039800025057,True,37,1
157K25S1,819,experiment,58,↓,down,↓,0.5386088000086602,True,37,1
157K25S1,820,experiment,88,→,left,←,0.8321183000225574,False,37,1
157K25S1,821,experiment,89,↑,no_key,no_letter,-1.0,False,37,1
157K25S1,822,experiment,82,←,left,←,0.4890708999882918,True,37,1
157K25S1,823,experiment,52,↓,down,↓,0.5802364000119269,True,37,1
157K25S1,824,experiment,108,↑,up,↑,0.48227009997935966,True,37,1
157K25S1,825,experiment,48,↑,no_key,no_letter,-1.0,False,37,0
157K25S1,826,experiment,53,→,right,→,0.575145100010559,True,37,1
157K25S1,827,experiment,76,→,left,←,0.45880819999729283,False,37,1
157K25S1,828,experiment,77,→,right,→,0.47614009998505935,True,37,0
157K25S1,829,experiment,66,→,right,→,0.6828318999905605,True,37,0
157K25S1,830,experiment,80,→,right,→,0.45890110000618733,True,37,1
157K25S1,831,experiment,51,→,right,→,0.5143494000076316,True,37,0
157K25S1,832,experiment,75,↑,up,↑,0.5171732000017073,True,37,1
157K25S1,833,experiment,64,↑,up,↑,0.5157779000001028,True,37,1
157K25S1,834,experiment,54,→,right,→,0.6456671000050846,True,37,1
157K25S1,835,experiment,97,→,right,→,0.43383340002037585,True,37,1
157K25S1,836,experiment,57,←,left,←,0.6241740999976173,True,37,0
157K25S1,837,experiment,101,↓,down,↓,0.7102220000233501,True,37,1
157K25S1,838,experiment,95,↓,down,↓,0.546996199991554,True,37,1
157K25S1,839,experiment,91,→,right,→,0.5592122999951243,True,37,1
157K25S1,840,experiment,60,←,right,→,0.5414772000222001,False,37,1
157K25S1,841,experiment,71,←,down,↓,0.5366703000036068,False,37,1
157K25S1,842,experiment,105,←,left,←,0.43393700002343394,True,37,1
157K25S1,843,experiment,65,↓,no_key,no_letter,-1.0,False,37,0
157K25S1,844,experiment,99,→,right,→,0.47600699999020435,True,37,1
157K25S1,845,experiment,96,←,no_key,no_letter,-1.0,False,37,0
157K25S1,846,experiment,55,←,left,←,0.48091240000212565,True,37,1
157K25S1,847,experiment,84,←,no_key,no_letter,-1.0,False,37,0
157K25S1,848,experiment,69,↑,up,↑,0.5088691999844741,True,37,1
157K25S1,849,experiment,67,→,left,←,0.54669119999744,False,37,1
157K25S1,850,experiment,79,↑,up,↑,0.6268739000079222,True,37,1
157K25S1,851,experiment,83,→,right,→,0.4950929000042379,True,37,1
157K25S1,852,experiment,98,←,up,↑,0.6348681999952532,False,37,1
157K25S1,853,experiment,61,↓,down,↓,0.5098498000006657,True,37,1
157K25S1,854,experiment,102,↑,down,↓,0.5924345999956131,False,37,1
157K25S1,855,experiment,100,↑,down,↓,0.5597161999903619,False,37,1
157K25S1,856,experiment,87,←,left,←,0.48570309998467565,True,37,1
157K25S1,857,experiment,94,→,right,→,0.5387173999915831,True,37,1
157K25S1,858,experiment,70,↑,up,↑,0.41723439999623224,True,37,1
157K25S1,859,experiment,74,←,left,←,0.44219519998296164,True,37,0
157K25S1,860,training,62,↓,down,↓,0.621026000007987,True,37,0
157K25S1,861,training,59,←,left,←,0.6168882999918424,True,37,1
157K25S1,862,experiment,60,←,left,←,0.4088927999837324,True,37,1
157K25S1,863,experiment,102,←,left,←,0.49881940000341274,True,37,0
157K25S1,864,experiment,55,↑,up,↑,0.509424299991224,True,37,1
157K25S1,865,experiment,54,←,left,←,0.5032267000060529,True,37,1
157K25S1,866,experiment,99,↓,down,↓,0.5305179000133649,True,37,1
157K25S1,867,experiment,88,→,right,→,0.5603365999995731,True,37,1
157K25S1,868,experiment,62,↑,up,↑,0.6460861000232399,True,37,1
157K25S1,869,experiment,104,←,no_key,no_letter,-1.0,False,37,1
157K25S1,870,experiment,80,←,left,←,0.4507336000096984,True,37,1
157K25S1,871,experiment,97,→,left,←,0.33389720000559464,False,37,0
157K25S1,872,experiment,63,→,right,→,0.4088558999937959,True,37,0
157K25S1,873,experiment,92,↓,down,↓,0.5906318000052124,True,37,0
157K25S1,874,experiment,94,→,right,→,0.48877560000983067,True,37,1
157K25S1,875,experiment,89,→,right,→,0.5274900000076741,True,37,1
157K25S1,876,experiment,83,←,left,←,0.5515352999791503,True,37,1
157K25S1,877,experiment,100,→,right,→,0.7288948999776039,True,37,1
157K25S1,878,experiment,87,↓,no_key,no_letter,-1.0,False,37,1
157K25S1,879,experiment,66,↓,down,↓,0.6194403000117745,True,37,1
157K25S1,880,experiment,69,↑,no_key,no_letter,-1.0,False,37,1
157K25S1,881,experiment,85,↑,down,↓,0.5619691999745555,False,37,1
157K25S1,882,experiment,74,↓,down,↓,0.44221209999523126,True,37,1
157K25S1,883,experiment,67,↑,down,↓,0.5877385000057984,False,37,0
157K25S1,884,experiment,72,→,right,→,0.5007446000236087,True,37,1
157K25S1,885,experiment,51,←,down,↓,0.5602392999862786,False,37,1
157K25S1,886,experiment,78,↑,up,↑,0.45852970000123605,True,37,1
157K25S1,887,experiment,79,↑,down,↓,0.4845519000082277,False,37,0
157K25S1,888,experiment,105,↑,up,↑,0.42547669998020865,True,37,1
157K25S1,889,experiment,82,↑,up,↑,0.41727500001434237,True,37,0
157K25S1,890,experiment,76,↑,no_key,no_letter,-1.0,False,37,0
157K25S1,891,experiment,53,↓,up,↑,0.4969783999840729,False,37,1
157K25S1,892,experiment,50,↓,down,↓,0.4852152999956161,True,37,1
157K25S1,893,experiment,101,→,right,→,0.49620490000233985,True,37,1
157K25S1,894,experiment,93,↑,up,↑,0.5017742999771144,True,37,1
157K25S1,895,experiment,71,→,right,→,0.49087219999637455,True,37,1
157K25S1,896,experiment,64,→,no_key,no_letter,-1.0,False,37,1
157K25S1,897,experiment,91,→,right,→,0.5019787000201177,True,37,1
157K25S1,898,experiment,68,←,left,←,0.5319101999921259,True,37,1
157K25S1,899,experiment,58,→,left,←,0.49173330000485294,False,37,1
157K25S1,900,experiment,61,↓,down,↓,0.5643694000027608,True,37,1
157K25S1,901,experiment,49,→,right,→,0.4504717999952845,True,37,1
157K25S1,902,experiment,48,↑,up,↑,0.4089176999987103,True,37,0
157K25S1,903,experiment,84,←,left,←,0.425349199998891,True,37,0
157K25S1,904,experiment,56,↓,down,↓,0.6122505999810528,True,37,0
157K25S1,905,experiment,75,→,left,←,0.5952589999942575,False,37,1
157K25S1,906,experiment,96,↑,down,↓,0.6446805000014137,False,37,1
157K25S1,907,experiment,90,←,left,←,0.4588678000145592,True,37,1
157K25S1,908,experiment,52,←,left,←,0.4266580999828875,True,37,0
157K25S1,909,experiment,86,←,left,←,0.4505109000019729,True,37,0
157K25S1,910,experiment,98,↓,down,↓,0.4264256999886129,True,37,0
157K25S1,911,experiment,108,↓,down,↓,0.5487223000091035,True,37,0
157K25S1,912,experiment,70,↓,down,↓,0.4172985999903176,True,37,1
157K25S1,913,experiment,106,↑,down,↓,0.442154299991671,False,37,0
157K25S1,914,experiment,77,↓,down,↓,0.5690995000186376,True,37,0
157K25S1,915,experiment,95,↑,up,↑,0.44217480000224896,True,37,1
157K25S1,916,experiment,73,→,right,→,0.5617110000166576,True,37,0
157K25S1,917,experiment,65,→,right,→,0.4172194999991916,True,37,1
157K25S1,918,experiment,59,↓,down,↓,0.5220591999823228,True,37,0
157K25S1,919,experiment,107,←,left,←,0.4429912999912631,True,37,1
157K25S1,920,experiment,81,←,down,↓,0.5813710000074934,False,37,0
157K25S1,921,experiment,103,↓,down,↓,0.42547990000457503,True,37,1
157K25S1,922,experiment,57,→,left,←,0.6486648000136483,False,37,0
157K25S1,923,training,70,→,right,→,0.5145603000128176,True,37,0
157K25S1,924,training,84,←,left,←,0.5464995999936946,True,37,1
157K25S1,925,experiment,63,←,no_key,no_letter,-1.0,False,37,1
157K25S1,926,experiment,79,→,left,←,0.543885399994906,False,37,1
157K25S1,927,experiment,53,←,left,←,0.4893349999911152,True,37,1
157K25S1,928,experiment,87,→,right,→,0.5049504000053275,True,37,1
157K25S1,929,experiment,66,→,left,←,0.4874581999902148,False,37,1
157K25S1,930,experiment,68,→,right,→,0.49371909999172203,True,37,1
157K25S1,931,experiment,86,←,left,←,0.5332395999867003,True,37,1
157K25S1,932,experiment,102,→,right,→,0.5426733000203967,True,37,1
157K25S1,933,experiment,61,↓,no_key,no_letter,-1.0,False,37,1
157K25S1,934,experiment,89,↓,down,↓,0.48221109999576584,True,37,1
157K25S1,935,experiment,73,←,left,←,0.6065082999994047,True,37,1
157K25S1,936,experiment,92,←,left,←,0.5363016999908723,True,37,1
157K25S1,937,experiment,56,↑,up,↑,0.45859009999549016,True,37,1
157K25S1,938,experiment,93,←,left,←,0.40055089999805205,True,37,0
157K25S1,939,experiment,98,→,left,←,0.4879924000124447,False,37,0
157K25S1,940,experiment,60,↓,up,↑,0.5361950999940746,False,37,1
157K25S1,941,experiment,71,↓,down,↓,0.5237339000159409,True,37,1
157K25S1,942,experiment,85,↑,down,↓,0.5550755999865942,False,37,1
157K25S1,943,experiment,105,→,left,←,0.40052989998366684,False,37,1
157K25S1,944,experiment,52,↓,down,↓,0.6891874999855645,True,37,0
157K25S1,945,experiment,76,↑,up,↑,0.5328764000150841,True,37,1
157K25S1,946,experiment,107,←,left,←,0.45029219999560155,True,37,1
157K25S1,947,experiment,96,↑,down,↓,0.522848199994769,False,37,0
157K25S1,948,experiment,99,→,left,←,0.4422183000133373,False,37,1
157K25S1,949,experiment,90,↓,down,↓,0.5182242000009865,True,37,0
157K25S1,950,experiment,80,↓,up,↑,0.5193736999935936,False,37,1
157K25S1,951,experiment,74,→,left,←,0.5465740000072401,False,37,1
157K25S1,952,experiment,72,↑,up,↑,0.48589369998080656,True,37,1
157K25S1,953,experiment,75,↑,down,↓,0.6494183000177145,False,37,1
157K25S1,954,experiment,81,↑,left,←,0.45059609998133965,False,37,1
157K25S1,955,experiment,95,↑,up,↑,0.5957978999940678,True,37,0
157K25S1,956,experiment,101,↓,down,↓,0.5788570000149775,True,37,1
157K25S1,957,experiment,57,↑,down,↓,0.5689504999900237,False,37,1
157K25S1,958,experiment,84,→,down,↓,0.40861909999512136,False,37,1
157K25S1,959,experiment,97,↓,down,↓,0.5905417999892961,True,37,0
157K25S1,960,experiment,67,↓,down,↓,0.5451247000019066,True,37,1
157K25S1,961,experiment,77,↓,down,↓,0.40035619999980554,True,37,1
157K25S1,962,experiment,100,↑,down,↓,0.673382999986643,False,37,0
157K25S1,963,experiment,106,←,left,←,0.40885579999303445,True,37,1
157K25S1,964,experiment,58,←,right,→,0.5362716999952681,False,37,0
157K25S1,965,experiment,55,←,right,→,0.5531632999773137,False,37,1
157K25S1,966,experiment,51,↓,down,↓,0.514693899982376,True,37,1
157K25S1,967,experiment,94,↓,down,↓,0.4252083000028506,True,37,1
157K25S1,968,experiment,64,→,no_key,no_letter,-1.0,False,37,0
157K25S1,969,experiment,70,↑,up,↑,0.5560884000151418,True,37,1
157K25S1,970,experiment,48,↑,up,↑,0.40029339998727664,True,37,1
157K25S1,971,experiment,78,←,no_key,no_letter,-1.0,False,37,0
157K25S1,972,experiment,65,↑,up,↑,0.6086730000097305,True,37,1
157K25S1,973,experiment,59,←,left,←,0.5093498000060208,True,37,1
157K25S1,974,experiment,103,↑,down,↓,0.5432633000018541,False,37,1
157K25S1,975,experiment,104,→,right,→,0.37663149999571033,True,37,1
157K25S1,976,experiment,49,↓,no_key,no_letter,-1.0,False,37,0
157K25S1,977,experiment,54,↓,down,↓,0.5284186000062618,True,37,1
157K25S1,978,experiment,83,→,right,→,0.6321256999799516,True,37,1
157K25S1,979,experiment,69,↑,down,↓,0.5924056000076234,False,37,1
157K25S1,980,experiment,50,←,right,→,0.6085493999999017,False,37,1
157K25S1,981,experiment,82,→,right,→,0.5416296000184957,True,37,1
157K25S1,982,experiment,62,→,right,→,0.5557996999996249,True,37,1
157K25S1,983,experiment,88,←,left,←,0.42507229998591356,True,37,1
157K25S1,984,experiment,91,←,left,←,0.62569459999213,True,37,0
157K25S1,985,experiment,108,←,left,←,0.4002448000246659,True,37,1
157K25S1,986,training,98,↑,no_key,no_letter,-1.0,False,38,0
157K25S1,987,training,91,↑,up,↑,0.5236234000185505,True,38,1
157K25S1,988,experiment,61,↓,down,↓,0.5467607000027783,True,38,1
157K25S1,989,experiment,95,→,no_key,no_letter,-1.0,False,38,1
157K25S1,990,experiment,53,↓,no_key,no_letter,-1.0,False,38,1
157K25S1,991,experiment,82,→,right,→,0.5565560999966692,True,38,1
157K25S1,992,experiment,88,→,right,→,0.4180544000118971,True,38,1
157K25S1,993,experiment,51,←,left,←,0.42543549998663366,True,38,0
157K25S1,994,experiment,100,↑,right,→,0.40879839999252,False,38,0
157K25S1,995,experiment,55,→,right,→,0.49914679999346845,True,38,0
157K25S1,996,experiment,104,↑,down,↓,0.4590732000069693,False,38,1
157K25S1,997,experiment,103,↓,no_key,no_letter,-1.0,False,38,0
157K25S1,998,experiment,94,↓,down,↓,0.4339486999961082,True,38,1
157K25S1,999,experiment,59,←,right,→,0.42492780002066866,False,38,0
157K25S1,1000,experiment,60,←,right,→,0.48938120002276264,False,38,0
157K25S1,1001,experiment,98,↑,up,↑,0.486145500006387,True,38,0
157K25S1,1002,experiment,97,→,left,←,0.5542539000161923,False,38,1
157K25S1,1003,experiment,79,←,left,←,0.4590555000177119,True,38,1
157K25S1,1004,experiment,54,↑,up,↑,0.5339985000027809,True,38,0
157K25S1,1005,experiment,78,→,right,→,0.4006562999857124,True,38,1
157K25S1,1006,experiment,73,→,right,→,0.43375000002561137,True,38,0
157K25S1,1007,experiment,76,←,right,→,0.3839936000003945,False,38,0
157K25S1,1008,experiment,96,↓,down,↓,0.5899231999937911,True,38,0
157K25S1,1009,experiment,102,↓,down,↓,0.5326515000197105,True,38,1
157K25S1,1010,experiment,67,←,left,←,0.6016521000128705,True,38,1
157K25S1,1011,experiment,106,↓,down,↓,0.4875465999939479,True,38,1
157K25S1,1012,experiment,56,↓,no_key,no_letter,-1.0,False,38,0
157K25S1,1013,experiment,77,←,left,←,0.426402799988864,True,38,1
157K25S1,1014,experiment,57,↓,down,↓,0.5652718000055756,True,38,0
157K25S1,1015,experiment,93,↑,down,↓,0.49648509998223744,False,38,1
157K25S1,1016,experiment,108,←,right,→,0.6087484000017866,False,38,1
157K25S1,1017,experiment,66,↑,up,↑,0.5149858000222594,True,38,1
157K25S1,1018,experiment,62,→,right,→,0.4907311999995727,True,38,1
157K25S1,1019,experiment,72,→,right,→,0.42521940000006,True,38,0
157K25S1,1020,experiment,85,↑,up,↑,0.7220554999948945,True,38,0
157K25S1,1021,experiment,71,→,right,→,0.4671473999915179,True,38,1
157K25S1,1022,experiment,69,↓,down,↓,0.5486444999987725,True,38,0
157K25S1,1023,experiment,86,↓,down,↓,0.586577899986878,True,38,1
157K25S1,1024,experiment,90,→,right,→,0.45049309998285025,True,38,1
157K25S1,1025,experiment,74,→,right,→,0.539426800009096,True,38,0
157K25S1,1026,experiment,107,→,right,→,0.4421802000142634,True,38,1
157K25S1,1027,experiment,52,↓,no_key,no_letter,-1.0,False,38,0
157K25S1,1028,experiment,50,↓,down,↓,0.6650211999949533,True,38,1
157K25S1,1029,experiment,87,←,right,→,0.4983000000065658,False,38,1
157K25S1,1030,experiment,91,↑,down,↓,0.5522443999943789,False,38,1
157K25S1,1031,experiment,65,↓,down,↓,0.5411461999756284,True,38,1
157K25S1,1032,experiment,99,→,no_key,no_letter,-1.0,False,38,1
157K25S1,1033,experiment,75,→,right,→,0.615966200013645,True,38,1
157K25S1,1034,experiment,84,→,right,→,0.4504752999928314,True,38,1
157K25S1,1035,experiment,68,←,left,←,0.5875119999982417,True,38,0
157K25S1,1036,experiment,70,→,right,→,0.4422240999992937,True,38,1
157K25S1,1037,experiment,48,←,left,←,0.5235127999912947,True,38,0
157K25S1,1038,experiment,49,→,left,←,0.7826652999792714,False,38,1
157K25S1,1039,experiment,58,←,left,←,0.524673600011738,True,38,1
157K25S1,1040,experiment,101,→,right,→,0.5035140000109095,True,38,1
157K25S1,1041,experiment,105,↑,down,↓,0.528224899986526,False,38,1
157K25S1,1042,experiment,81,→,right,→,0.5927295000001322,True,38,1
157K25S1,1043,experiment,80,↓,down,↓,0.5112827999982983,True,38,1
157K25S1,1044,experiment,63,↓,down,↓,0.458819699997548,True,38,1
157K25S1,1045,experiment,64,→,right,→,0.49519439999130554,True,38,0
157K25S1,1046,experiment,83,↑,down,↓,0.5995691000134684,False,38,1
157K25S1,1047,experiment,89,↓,down,↓,0.44230990001233295,True,38,1
157K25S1,1048,experiment,92,↑,right,→,0.5385116999968886,False,38,0
157K25S1,1049,training,101,←,left,←,0.45027299999492243,True,38,0
157K25S1,1050,training,54,←,right,→,0.5806401000008918,False,38,0
157K25S1,1051,experiment,48,→,left,←,0.46714609998161905,False,38,1
157K25S1,1052,experiment,86,→,right,→,0.46713419997831807,True,38,0
157K25S1,1053,experiment,82,↓,down,↓,0.5369407999969553,True,38,0
157K25S1,1054,experiment,59,↑,up,↑,0.6165534000028856,True,38,1
157K25S1,1055,experiment,79,←,left,←,0.3756619999767281,True,38,1
157K25S1,1056,experiment,101,↑,down,↓,0.49437110000872053,False,38,0
157K25S1,1057,experiment,77,↓,down,↓,0.5207465999992564,True,38,1
157K25S1,1058,experiment,106,→,right,→,0.5131690000125673,True,38,1
157K25S1,1059,experiment,68,←,left,←,0.40038779997848906,True,38,1
157K25S1,1060,experiment,74,→,right,→,0.5098173999867868,True,38,0
157K25S1,1061,experiment,55,↓,left,←,0.5917024999798741,False,38,1
157K25S1,1062,experiment,56,↑,up,↑,0.6618908999953419,True,38,1
157K25S1,1063,experiment,71,↓,right,→,0.36718539998400956,False,38,1
157K25S1,1064,experiment,84,↑,up,↑,0.49838370000361465,True,38,0
157K25S1,1065,experiment,87,←,left,←,0.4173348000040278,True,38,1
157K25S1,1066,experiment,73,↑,up,↑,0.4585497999796644,True,38,0
157K25S1,1067,experiment,96,→,right,→,0.550958100007847,True,38,0
157K25S1,1068,experiment,93,↓,down,↓,0.5069149000046309,True,38,1
157K25S1,1069,experiment,53,↓,down,↓,0.5571066999982577,True,38,1
157K25S1,1070,experiment,95,→,no_key,no_letter,-1.0,False,38,1
157K25S1,1071,experiment,72,↑,up,↑,0.545590199995786,True,38,1
157K25S1,1072,experiment,103,→,right,→,0.6099120000144467,True,38,1
157K25S1,1073,experiment,70,↓,down,↓,0.4990307000116445,True,38,1
157K25S1,1074,experiment,62,↓,down,↓,0.6427059999841731,True,38,1
157K25S1,1075,experiment,51,←,right,→,0.5845354000048246,False,38,1
157K25S1,1076,experiment,66,←,left,←,0.4502585000009276,True,38,1
157K25S1,1077,experiment,107,→,no_key,no_letter,-1.0,False,38,0
157K25S1,1078,experiment,64,↓,down,↓,0.5469044999917969,True,38,1
157K25S1,1079,experiment,97,↓,no_key,no_letter,-1.0,False,38,1
157K25S1,1080,experiment,61,↑,up,↑,0.6105865999998059,True,38,1
157K25S1,1081,experiment,50,→,right,→,0.6181382999930065,True,38,1
157K25S1,1082,experiment,91,↑,up,↑,0.4844229999871459,True,38,1
157K25S1,1083,experiment,90,→,right,→,0.49906480000936426,True,38,0
157K25S1,1084,experiment,60,↓,up,↑,0.5312560999882407,False,38,1
157K25S1,1085,experiment,57,←,left,←,0.4006533999927342,True,38,1
157K25S1,1086,experiment,88,↑,up,↑,0.467156700004125,True,38,0
157K25S1,1087,experiment,105,←,right,→,0.48954710000543855,False,38,0
157K25S1,1088,experiment,67,→,right,→,0.5756683000072371,True,38,1
157K25S1,1089,experiment,81,↑,left,←,0.28514560000621714,False,38,1
157K25S1,1090,experiment,99,←,no_key,no_letter,-1.0,False,38,0
157K25S1,1091,experiment,83,←,left,←,0.44210019998718053,True,38,1
157K25S1,1092,experiment,100,↑,up,↑,0.44217110000317916,True,38,0
157K25S1,1093,experiment,78,→,right,→,0.5052688000141643,True,38,0
157K25S1,1094,experiment,98,↑,up,↑,0.501171300013084,True,38,1
157K25S1,1095,experiment,52,↑,no_key,no_letter,-1.0,False,38,1
157K25S1,1096,experiment,92,↓,up,↑,0.5311259000154678,False,38,1
157K25S1,1097,experiment,54,→,right,→,0.5322035000135656,True,38,1
157K25S1,1098,experiment,108,←,right,→,0.44172689999686554,False,38,1
157K25S1,1099,experiment,75,←,right,→,0.4898279999906663,False,38,0
157K25S1,1100,experiment,49,↑,up,↑,0.5816544000117574,True,38,1
157K25S1,1101,experiment,94,→,right,→,0.5038992000045255,True,38,1
157K25S1,1102,experiment,76,↑,right,→,0.5466912999982014,False,38,1
157K25S1,1103,experiment,65,←,left,←,0.43352709998725913,True,38,1
157K25S1,1104,experiment,89,↓,right,→,0.4585635999974329,False,38,0
157K25S1,1105,experiment,63,↑,up,↑,0.4504884000052698,True,38,0
157K25S1,1106,experiment,58,↓,up,↑,0.636555800010683,False,38,0
157K25S1,1107,experiment,104,↑,no_key,no_letter,-1.0,False,38,1
157K25S1,1108,experiment,80,↓,up,↑,0.5363432000158355,False,38,1
157K25S1,1109,experiment,102,↑,up,↑,0.5216584999870975,True,38,1
157K25S1,1110,experiment,69,↓,up,↑,0.44231980000040494,False,38,1
157K25S1,1111,experiment,85,←,left,←,0.4671618999855127,True,38,0
157K25S1,1112,training,93,↓,no_key,no_letter,-1.0,False,38,0
157K25S1,1113,training,59,↓,down,↓,0.4994230000011157,True,38,1
157K25S1,1114,experiment,75,↑,up,↑,1.270690299978014,True,38,1
157K25S1,1115,experiment,88,↓,down,↓,0.45888550000381656,True,38,1
157K25S1,1116,experiment,57,←,left,←,0.794045599992387,True,38,0
157K25S1,1117,experiment,72,↓,right,→,0.4915231000049971,False,38,1
157K25S1,1118,experiment,89,↓,down,↓,0.586309899983462,True,38,1
157K25S1,1119,experiment,97,↑,no_key,no_letter,-1.0,False,38,1
157K25S1,1120,experiment,49,→,right,→,0.5406744000210892,True,38,1
157K25S1,1121,experiment,56,→,left,←,0.4588740000035614,False,38,1
157K25S1,1122,experiment,83,←,no_key,no_letter,-1.0,False,38,0
157K25S1,1123,experiment,74,→,no_key,no_letter,-1.0,False,38,1
157K25S1,1124,experiment,92,→,right,→,0.6033481000049505,True,38,1
157K25S1,1125,experiment,87,↑,left,←,0.5031937999883667,False,38,1
157K25S1,1126,experiment,51,←,left,←,0.5861298000090756,True,38,1
157K25S1,1127,experiment,93,↑,up,↑,0.4590135000180453,True,38,1
157K25S1,1128,experiment,67,→,left,←,0.492759400018258,False,38,0
157K25S1,1129,experiment,64,←,left,←,0.48344969999743626,True,38,1
157K25S1,1130,experiment,107,↓,right,→,0.4339136999915354,False,38,0
157K25S1,1131,experiment,53,↓,down,↓,0.4430190999992192,True,38,0
157K25S1,1132,experiment,86,←,left,←,0.5475210000004154,True,38,0
157K25S1,1133,experiment,98,←,left,←,0.49399470002390444,True,38,1
157K25S1,1134,experiment,68,↓,down,↓,0.5231639000121504,True,38,1
157K25S1,1135,experiment,79,→,right,→,0.4926819000102114,True,38,1
157K25S1,1136,experiment,59,←,left,←,0.36694730000454,True,38,1
157K25S1,1137,experiment,66,↑,up,↑,0.5454598999931477,True,38,0
157K25S1,1138,experiment,106,←,down,↓,0.40052680001826957,False,38,1
157K25S1,1139,experiment,95,→,left,←,0.490066400001524,False,38,0
157K25S1,1140,experiment,108,→,right,→,0.5945733000116888,True,38,0
157K25S1,1141,experiment,76,→,left,←,0.30885510001098737,False,38,1
157K25S1,1142,experiment,60,↑,up,↑,0.49827019998338073,True,38,0
157K25S1,1143,experiment,105,↑,up,↑,0.4423887000011746,True,38,1
157K25S1,1144,experiment,65,↑,right,→,0.5644146999984514,False,38,0
157K25S1,1145,experiment,100,↑,up,↑,0.4255717000050936,True,38,1
157K25S1,1146,experiment,71,→,right,→,0.44226360000902787,True,38,0
157K25S1,1147,experiment,94,←,left,←,0.458865800028434,True,38,0
157K25S1,1148,experiment,70,↑,up,↑,0.4517111000022851,True,38,0
157K25S1,1149,experiment,69,↓,down,↓,0.6814435999840498,True,38,0
157K25S1,1150,experiment,52,←,left,←,0.7012793000030797,True,38,1
157K25S1,1151,experiment,91,↑,no_key,no_letter,-1.0,False,38,1
157K25S1,1152,experiment,77,←,left,←,0.5719549000205006,True,38,1
157K25S1,1153,experiment,73,←,left,←,0.48565699998289347,True,38,1
157K25S1,1154,experiment,90,→,right,→,0.604039300000295,True,38,0
157K25S1,1155,experiment,50,←,left,←,0.6195750999904703,True,38,1
157K25S1,1156,experiment,101,↑,up,↑,0.5619673000182956,True,38,1
157K25S1,1157,experiment,55,↓,down,↓,0.5935393999970984,True,38,1
157K25S1,1158,experiment,96,↓,up,↑,0.5066603999875952,False,38,1
157K25S1,1159,experiment,99,←,left,←,0.4589325000124518,True,38,1
157K25S1,1160,experiment,84,→,no_key,no_letter,-1.0,False,38,0
157K25S1,1161,experiment,63,←,left,←,0.4255565000057686,True,38,1
157K25S1,1162,experiment,104,↑,right,→,0.4262768999906257,False,38,0
157K25S1,1163,experiment,80,↓,down,↓,0.5653524000081234,True,38,0
157K25S1,1164,experiment,54,↑,up,↑,0.4339081999787595,True,38,1
157K25S1,1165,experiment,48,↓,up,↑,0.40056639999966137,False,38,0
157K25S1,1166,experiment,61,→,down,↓,0.4588958999956958,False,38,0
157K25S1,1167,experiment,85,↑,up,↑,0.4585447999997996,True,38,0
157K25S1,1168,experiment,78,↑,up,↑,0.450563799997326,True,38,0
157K25S1,1169,experiment,81,→,right,→,0.5286138000083156,True,38,0
157K25S1,1170,experiment,62,↓,no_key,no_letter,-1.0,False,38,1
157K25S1,1171,experiment,102,→,no_key,no_letter,-1.0,False,38,1
157K25S1,1172,experiment,103,→,right,→,0.40845790001912974,True,38,1
157K25S1,1173,experiment,82,↑,down,↓,0.707362799992552,False,38,0
157K25S1,1174,experiment,58,←,left,←,0.6444173000054434,True,38,1
157K25S1,1175,training,67,↓,no_key,no_letter,-1.0,False,38,0
157K25S1,1176,training,76,←,left,←,0.5724086000118405,True,38,1
157K25S1,1177,experiment,70,←,down,↓,0.542638499988243,False,38,1
157K25S1,1178,experiment,60,←,right,→,0.5096411000122316,False,38,1
157K25S1,1179,experiment,71,↑,down,↓,0.4514737999998033,False,38,1
157K25S1,1180,experiment,48,↑,down,↓,0.5041851999994833,False,38,0
157K25S1,1181,experiment,64,↑,up,↑,0.4255575999850407,True,38,1
157K25S1,1182,experiment,102,↓,down,↓,0.43380749999778345,True,38,0
157K25S1,1183,experiment,75,↑,up,↑,0.4422758999862708,True,38,0
157K25S1,1184,experiment,95,↓,no_key,no_letter,-1.0,False,38,0
157K25S1,1185,experiment,66,↓,down,↓,0.6931061999930535,True,38,1
157K25S1,1186,experiment,91,↓,no_key,no_letter,-1.0,False,38,1
157K25S1,1187,experiment,57,↓,down,↓,0.49110700000892393,True,38,1
157K25S1,1188,experiment,105,↑,up,↑,0.5240964000113308,True,38,1
157K25S1,1189,experiment,69,←,left,←,0.4674134000088088,True,38,1
157K25S1,1190,experiment,49,↓,down,↓,0.4863441000052262,True,38,0
157K25S1,1191,experiment,76,↓,down,↓,0.49777430001995526,True,38,0
157K25S1,1192,experiment,62,↑,no_key,no_letter,-1.0,False,38,1
157K25S1,1193,experiment,74,↓,down,↓,0.6664021999749821,True,38,1
157K25S1,1194,experiment,54,↓,down,↓,0.5342813000024762,True,38,1
157K25S1,1195,experiment,52,↓,down,↓,0.3931188000133261,True,38,1
157K25S1,1196,experiment,77,→,left,←,0.9507105999800842,False,38,0
157K25S1,1197,experiment,96,←,left,←,0.561532099993201,True,38,1
157K25S1,1198,experiment,68,↓,down,↓,0.5013852000120096,True,38,1
157K25S1,1199,experiment,83,→,left,←,0.4865538000012748,False,38,1
157K25S1,1200,experiment,55,→,right,→,0.4971087999874726,True,38,0
157K25S1,1201,experiment,65,↓,down,↓,0.6074396000185516,True,38,1
157K25S1,1202,experiment,97,↓,down,↓,0.543472900026245,True,38,1
157K25S1,1203,experiment,78,↑,down,↓,0.8004634999961127,False,38,1
157K25S1,1204,experiment,108,↑,up,↑,0.5251178999897093,True,38,1
157K25S1,1205,experiment,94,←,left,←,0.43449290000717156,True,38,1
157K25S1,1206,experiment,50,↓,down,↓,0.5516511000168975,True,38,0
157K25S1,1207,experiment,93,↑,up,↑,0.44219830000656657,True,38,1
157K25S1,1208,experiment,73,←,right,→,0.6015086999977939,False,38,0
157K25S1,1209,experiment,104,→,right,→,0.5198319000191987,True,38,1
157K25S1,1210,experiment,101,→,right,→,0.7538156000082381,True,38,1
157K25S1,1211,experiment,67,↑,up,↑,0.5420538000180386,True,38,1
157K25S1,1212,experiment,72,↓,up,↑,0.5287477000092622,False,38,1
157K25S1,1213,experiment,90,→,right,→,0.5260304000112228,True,38,1
157K25S1,1214,experiment,92,←,left,←,0.4994625000108499,True,38,1
157K25S1,1215,experiment,82,→,left,←,0.5562453000165988,False,38,1
157K25S1,1216,experiment,51,↓,up,↑,0.5254916000121739,False,38,1
157K25S1,1217,experiment,56,↑,down,↓,0.5583987999998499,False,38,1
157K25S1,1218,experiment,80,↑,up,↑,0.4335818000254221,True,38,1
157K25S1,1219,experiment,58,↓,down,↓,0.5215078000037465,True,38,0
157K25S1,1220,experiment,84,←,right,→,0.6251384999777656,False,38,1
157K25S1,1221,experiment,99,→,right,→,0.631995999981882,True,38,1
157K25S1,1222,experiment,81,↑,right,→,0.48466020001797006,False,38,1
157K25S1,1223,experiment,63,↓,down,↓,0.5003111999831162,True,38,0
157K25S1,1224,experiment,61,↓,down,↓,0.4421645999827888,True,38,1
157K25S1,1225,experiment,107,←,left,←,0.6712274000165053,True,38,0
157K25S1,1226,experiment,88,→,right,→,0.4672523000044748,True,38,1
157K25S1,1227,experiment,89,→,right,→,0.6795200000051409,True,38,0
157K25S1,1228,experiment,59,→,right,→,0.5135615000035614,True,38,1
157K25S1,1229,experiment,85,←,left,←,0.8570823000045493,True,38,1
157K25S1,1230,experiment,103,↑,down,↓,1.0212400000018533,False,38,1
157K25S1,1231,experiment,53,↑,right,→,0.619489100005012,False,38,1
157K25S1,1232,experiment,106,→,left,←,0.6081987999787088,False,38,1
157K25S1,1233,experiment,79,←,right,→,0.4254879000072833,False,38,1
157K25S1,1234,experiment,86,→,right,→,0.4585310999827925,True,38,0
157K25S1,1235,experiment,100,←,left,←,0.6294714999967255,True,38,0
157K25S1,1236,experiment,98,↓,right,→,0.5880497000180185,False,38,1
157K25S1,1237,experiment,87,↑,left,←,0.2767032000119798,False,38,1
157K25S1,1238,training,85,→,no_key,no_letter,-1.0,False,38,0
157K25S1,1239,training,58,↑,up,↑,0.8454818000027444,True,38,1
157K25S1,1240,experiment,91,↓,down,↓,0.6622486999840476,True,38,1
157K25S1,1241,experiment,59,↑,down,↓,0.496994299988728,False,38,1
157K25S1,1242,experiment,88,←,left,←,0.3765766000142321,True,38,1
157K25S1,1243,experiment,49,↑,up,↑,0.7122185000043828,True,38,0
157K25S1,1244,experiment,58,←,left,←,0.40968809998594224,True,38,1
157K25S1,1245,experiment,97,←,left,←,0.688221499993233,True,38,0
157K25S1,1246,experiment,80,→,no_key,no_letter,-1.0,False,38,1
157K25S1,1247,experiment,102,↑,up,↑,0.4908123000059277,True,38,1
157K25S1,1248,experiment,82,←,left,←,0.42549749999307096,True,38,1
157K25S1,1249,experiment,95,↑,up,↑,0.4255039999843575,True,38,0
157K25S1,1250,experiment,108,↑,up,↑,0.40035290000378154,True,38,0
157K25S1,1251,experiment,75,↓,down,↓,0.5579105000069831,True,38,0
157K25S1,1252,experiment,71,→,right,→,0.504718900017906,True,38,1
157K25S1,1253,experiment,106,→,no_key,no_letter,-1.0,False,38,1
157K25S1,1254,experiment,50,→,right,→,0.5945614000083879,True,38,1
157K25S1,1255,experiment,53,↑,left,←,0.7457283000112511,False,38,1
157K25S1,1256,experiment,92,↓,down,↓,0.5098442000162322,True,38,1
157K25S1,1257,experiment,52,↓,down,↓,0.6486866000050213,True,38,1
157K25S1,1258,experiment,101,↑,up,↑,0.49438349998672493,True,38,1
157K25S1,1259,experiment,68,↑,down,↓,0.6919353000121191,False,38,1
157K25S1,1260,experiment,105,↓,down,↓,0.5180375000054482,True,38,1
157K25S1,1261,experiment,66,←,down,↓,0.6998233000049368,False,38,1
157K25S1,1262,experiment,78,←,left,←,0.43388409999897704,True,38,1
157K25S1,1263,experiment,99,←,right,→,0.6205095000041183,False,38,0
157K25S1,1264,experiment,63,←,left,←,0.4335933999973349,True,38,1
157K25S1,1265,experiment,85,↓,right,→,0.45080910000251606,False,38,0
157K25S1,1266,experiment,48,↑,up,↑,0.512217800016515,True,38,0
157K25S1,1267,experiment,74,←,left,←,0.46720680000726134,True,38,1
157K25S1,1268,experiment,60,→,right,→,0.6210609000117984,True,38,0
157K25S1,1269,experiment,76,→,down,↓,0.5076762000098825,False,38,1
157K25S1,1270,experiment,65,→,left,←,0.6261591999791563,False,38,1
157K25S1,1271,experiment,72,→,no_key,no_letter,-1.0,False,38,1
157K25S1,1272,experiment,103,←,left,←,0.4897713999962434,True,38,1
157K25S1,1273,experiment,70,→,right,→,0.3839573999866843,True,38,1
157K25S1,1274,experiment,86,↑,up,↑,0.5071666000003461,True,38,0
157K25S1,1275,experiment,96,↑,up,↑,0.45055569999385625,True,38,1
157K25S1,1276,experiment,64,↓,down,↓,0.5842034000088461,True,38,0
157K25S1,1277,experiment,89,→,no_key,no_letter,-1.0,False,38,1
157K25S1,1278,experiment,90,↑,no_key,no_letter,-1.0,False,38,1
157K25S1,1279,experiment,81,↓,no_key,no_letter,-1.0,False,38,1
157K25S1,1280,experiment,69,←,left,←,0.6014029000070877,True,38,1
157K25S1,1281,experiment,77,↑,up,↑,0.48866760000237264,True,38,1
157K25S1,1282,experiment,98,↑,up,↑,0.4673156999924686,True,38,0
157K25S1,1283,experiment,107,→,right,→,0.4950556999829132,True,38,0
157K25S1,1284,experiment,79,↓,up,↑,0.6247190000140108,False,38,1
157K25S1,1285,experiment,55,↓,no_key,no_letter,-1.0,False,38,1
157K25S1,1286,experiment,84,←,left,←,0.755767199996626,True,38,1
157K25S1,1287,experiment,104,↑,up,↑,0.4588714000128675,True,38,1
157K25S1,1288,experiment,61,←,right,→,0.5730367999931332,False,38,0
157K25S1,1289,experiment,57,↑,up,↑,0.4842889000137802,True,38,1
157K25S1,1290,experiment,62,↑,up,↑,0.4588135000085458,True,38,0
157K25S1,1291,experiment,67,↑,left,←,0.46699630000512116,False,38,0
157K25S1,1292,experiment,54,←,right,→,0.5427914000174496,False,38,0
157K25S1,1293,experiment,73,←,right,→,0.5295706999895629,False,38,1
157K25S1,1294,experiment,51,→,right,→,0.48414210000191815,True,38,1
157K25S1,1295,experiment,100,←,no_key,no_letter,-1.0,False,38,0
157K25S1,1296,experiment,93,↓,down,↓,0.5461207999906037,True,38,1
157K25S1,1297,experiment,94,←,right,→,0.3836421000014525,False,38,1
157K25S1,1298,experiment,83,←,left,←,0.4339639999961946,True,38,0
157K25S1,1299,experiment,56,↑,down,↓,0.5267751000064891,False,38,0
157K25S1,1300,experiment,87,→,left,←,0.5813368999806698,False,38,1
157K25S1,1301,training,86,→,left,←,0.5218720000120811,False,38,0
157K25S1,1302,training,70,←,left,←,0.408826400001999,True,38,1
157K25S1,1303,experiment,50,↓,down,↓,0.5092132999852765,True,38,0
157K25S1,1304,experiment,74,↓,down,↓,0.44227519998094067,True,38,1
157K25S1,1305,experiment,80,←,left,←,0.4591196000110358,True,38,0
157K25S1,1306,experiment,81,←,left,←,0.4252487000194378,True,38,0
157K25S1,1307,experiment,98,↑,no_key,no_letter,-1.0,False,38,0
157K25S1,1308,experiment,103,↑,up,↑,0.7096822000166867,True,38,1
157K25S1,1309,experiment,73,←,left,←,0.4589306999987457,True,38,1
157K25S1,1310,experiment,104,↑,up,↑,0.9250279000261799,True,38,0
157K25S1,1311,experiment,70,↓,down,↓,0.513453199993819,True,38,1
157K25S1,1312,experiment,86,↑,down,↓,0.5446973000071011,False,38,1
157K25S1,1313,experiment,61,↑,up,↑,0.655251699994551,True,38,1
157K25S1,1314,experiment,89,←,left,←,0.458876099990448,True,38,1
157K25S1,1315,experiment,94,↓,up,↑,0.5505141000030562,False,38,0
157K25S1,1316,experiment,90,→,right,→,0.6110912000003736,True,38,1
157K25S1,1317,experiment,62,↓,up,↑,0.6311774000059813,False,38,1
157K25S1,1318,experiment,96,←,left,←,0.6380362999916542,True,38,1
157K25S1,1319,experiment,97,→,right,→,0.5967669000092428,True,38,1
157K25S1,1320,experiment,52,←,left,←,0.5880234999931417,True,38,1
157K25S1,1321,experiment,51,↑,up,↑,0.5478715999925043,True,38,1
157K25S1,1322,experiment,106,←,left,←,0.4586612999846693,True,38,1
157K25S1,1323,experiment,99,↓,down,↓,0.5601357000123244,True,38,0
157K25S1,1324,experiment,93,↑,up,↑,0.4997682000102941,True,38,1
157K25S1,1325,experiment,58,↑,down,↓,0.6126980000117328,False,38,1
157K25S1,1326,experiment,53,↓,down,↓,0.6909426999918651,True,38,1
157K25S1,1327,experiment,54,↑,up,↑,0.502204000018537,True,38,1
157K25S1,1328,experiment,77,↑,up,↑,0.44242309997207485,True,38,1
157K25S1,1329,experiment,85,→,down,↓,0.3338233999966178,False,38,0
157K25S1,1330,experiment,101,→,right,→,0.4006089999747928,True,38,0
157K25S1,1331,experiment,71,↑,right,→,0.5168156000145245,False,38,0
157K25S1,1332,experiment,68,↓,right,→,0.37550520000513643,False,38,1
157K25S1,1333,experiment,65,↑,down,↓,0.5018144999921788,False,38,0
157K25S1,1334,experiment,67,←,right,→,0.3018018000002485,False,38,1
157K25S1,1335,experiment,49,←,left,←,0.4422960000229068,True,38,0
157K25S1,1336,experiment,108,←,left,←,0.3754954000178259,True,38,0
157K25S1,1337,experiment,79,↓,down,↓,0.704496200021822,True,38,0
157K25S1,1338,experiment,56,↑,right,→,0.610103099985281,False,38,1
157K25S1,1339,experiment,72,←,left,←,0.4431388999801129,True,38,1
157K25S1,1340,experiment,100,↑,up,↑,0.4672220000065863,True,38,0
157K25S1,1341,experiment,69,←,left,←,0.525945600005798,True,38,0
157K25S1,1342,experiment,55,←,left,←,0.44217070000013337,True,38,1
157K25S1,1343,experiment,60,↑,up,↑,0.6255751000135206,True,38,0
157K25S1,1344,experiment,91,→,right,→,0.4421689999871887,True,38,1
157K25S1,1345,experiment,76,↑,right,→,0.4968114999937825,False,38,0
157K25S1,1346,experiment,87,↓,down,↓,0.5118809000123292,True,38,1
157K25S1,1347,experiment,95,←,right,→,0.43388639998738654,False,38,1
157K25S1,1348,experiment,82,←,down,↓,0.44203400000697,False,38,0
157K25S1,1349,experiment,64,↓,right,→,0.5689168999961112,False,38,0
157K25S1,1350,experiment,57,→,right,→,0.45880160000524484,True,38,1
157K25S1,1351,experiment,63,→,left,←,0.5686849000048824,False,38,0
157K25S1,1352,experiment,59,↑,up,↑,0.48745939999935217,True,38,1
157K25S1,1353,experiment,107,→,left,←,0.544217300019227,False,38,1
157K25S1,1354,experiment,78,↓,down,↓,0.44229740000446327,True,38,1
157K25S1,1355,experiment,66,↓,down,↓,0.4504763000004459,True,38,0
157K25S1,1356,experiment,105,↓,down,↓,0.5093860999913886,True,38,0
157K25S1,1357,experiment,48,→,right,→,0.8891567999962717,True,38,1
157K25S1,1358,experiment,92,↑,left,←,0.31721330000436865,False,38,1
157K25S1,1359,experiment,83,↓,down,↓,1.4475391999876592,True,38,0
157K25S1,1360,experiment,102,←,left,←,0.540634000004502,True,38,1
157K25S1,1361,experiment,75,↓,down,↓,0.5664160999876913,True,38,1
157K25S1,1362,experiment,84,↑,down,↓,0.5006861000147182,False,38,1
157K25S1,1363,experiment,88,→,right,→,0.5876459999999497,True,38,1
