PART_ID,Trial_no,Trial_type,CSI,Stim_letter,Key_pressed,letter_choose,Rt,Corr,Stimulus Time,nDropped
157K25S2,1,training,120,↓,down,↓,0.8328280000132509,True,60,0
157K25S2,2,training,120,↑,no_key,no_letter,-1.0,False,60,0
157K25S2,3,training,120,→,right,→,0.6090315000037663,True,60,0
157K25S2,4,training,120,↑,no_key,no_letter,-1.0,False,60,0
157K25S2,5,training,120,↑,up,↑,0.6167625000234693,True,60,0
157K25S2,6,training,120,↓,down,↓,0.617301199992653,True,60,0
157K25S2,7,training,120,←,no_key,no_letter,-1.0,False,60,0
157K25S2,8,training,120,↓,down,↓,0.6265279999934137,True,60,0
157K25S2,9,training,120,→,right,→,0.4937328000087291,True,60,0
157K25S2,10,training,120,←,left,←,0.906214100017678,True,60,0
157K25S2,11,training,120,→,right,→,0.4768418000021484,True,60,0
157K25S2,12,training,120,↑,up,↑,0.5341187000158243,True,60,0
157K25S2,13,training,120,←,left,←,0.5841152000066359,True,60,0
157K25S2,14,training,120,←,right,→,0.4923989000089932,False,60,0
157K25S2,15,training,120,↓,down,↓,0.5099373999983072,True,60,0
157K25S2,16,training,120,↑,up,↑,0.5424615000083577,True,60,0
157K25S2,17,training,120,↑,up,↑,0.533748599991668,True,60,0
157K25S2,18,training,120,←,left,←,0.4437257000245154,True,60,0
157K25S2,19,training,120,↓,down,↓,0.4268121000204701,True,60,0
157K25S2,20,training,120,→,right,→,0.5259316999872681,True,60,0
157K25S2,21,no_adaptation,120,→,right,→,0.47890299998107366,True,36,0
157K25S2,22,no_adaptation,120,↓,down,↓,0.8026277000026312,True,36,0
157K25S2,23,no_adaptation,120,→,right,→,0.49727039999561384,True,36,0
157K25S2,24,no_adaptation,120,↑,up,↑,0.5484561999910511,True,36,0
157K25S2,25,no_adaptation,120,↑,up,↑,0.6935678999871016,True,36,0
157K25S2,26,no_adaptation,120,←,right,→,0.5528342000034172,False,36,0
157K25S2,27,no_adaptation,120,↓,down,↓,0.8497174000076484,True,36,0
157K25S2,28,no_adaptation,120,→,right,→,0.6627950000111014,True,36,0
157K25S2,29,no_adaptation,120,↑,down,↓,0.7474282000039238,False,36,0
157K25S2,30,no_adaptation,120,↓,down,↓,0.6684635000128765,True,36,0
157K25S2,31,no_adaptation,120,↓,down,↓,0.5209354000107851,True,36,0
157K25S2,32,no_adaptation,120,↑,down,↓,0.6752323999826331,False,36,0
157K25S2,33,no_adaptation,120,→,right,→,0.5913777999812737,True,36,0
157K25S2,34,no_adaptation,120,↓,down,↓,0.6068966999882832,True,36,0
157K25S2,35,no_adaptation,120,←,left,←,0.5097279999754392,True,36,0
157K25S2,36,no_adaptation,120,→,right,→,0.7442125999950804,True,36,0
157K25S2,37,no_adaptation,120,→,no_key,no_letter,-1.0,False,36,0
157K25S2,38,no_adaptation,120,↓,down,↓,0.8657411999884062,True,36,0
157K25S2,39,no_adaptation,120,←,left,←,0.5422967000049539,True,36,0
157K25S2,40,no_adaptation,120,←,left,←,0.4959236000140663,True,36,0
157K25S2,41,training,68,→,right,→,0.5761923999816645,True,36,0
157K25S2,42,training,59,→,right,→,0.5092395000101533,True,36,1
157K25S2,43,experiment,52,←,left,←,0.5033212999987882,True,36,1
157K25S2,44,experiment,60,↓,down,↓,0.5671546999947168,True,36,1
157K25S2,45,experiment,89,↓,down,↓,0.6744918000185862,True,36,1
157K25S2,46,experiment,91,←,left,←,0.6489608999982011,True,36,1
157K25S2,47,experiment,62,→,right,→,0.4508030000142753,True,36,1
157K25S2,48,experiment,54,←,no_key,no_letter,-1.0,False,36,0
157K25S2,49,experiment,101,↑,up,↑,0.668587899999693,True,36,1
157K25S2,50,experiment,51,↓,down,↓,0.6245549999875948,True,36,1
157K25S2,51,experiment,61,→,right,→,0.3920978000096511,True,36,1
157K25S2,52,experiment,55,←,right,→,0.49670989997684956,False,36,0
157K25S2,53,experiment,77,↓,down,↓,0.7625820999965072,True,36,1
157K25S2,54,experiment,103,←,right,→,0.5372377000167035,False,36,1
157K25S2,55,experiment,49,←,left,←,0.5233847000054084,True,36,1
157K25S2,56,experiment,90,↑,up,↑,0.5520628000085708,True,36,1
157K25S2,57,experiment,83,←,left,←,0.6300744999898598,True,36,1
157K25S2,58,experiment,108,↓,down,↓,0.8723720000125468,True,36,1
157K25S2,59,experiment,107,←,left,←,0.5295205999864265,True,36,1
157K25S2,60,experiment,86,→,right,→,0.6311719999939669,True,36,1
157K25S2,61,experiment,82,→,right,→,0.5702618000213988,True,36,1
157K25S2,62,experiment,92,←,down,↓,0.5486863999976777,False,36,1
157K25S2,63,experiment,100,↑,up,↑,0.6048685999994632,True,36,1
157K25S2,64,experiment,99,↑,up,↑,0.563313399994513,True,36,1
157K25S2,65,experiment,53,↓,down,↓,0.6908949999778997,True,36,1
157K25S2,66,experiment,88,↓,down,↓,0.5935038999887183,True,36,1
157K25S2,67,experiment,93,↓,down,↓,0.4496797999890987,True,36,1
157K25S2,68,experiment,106,↓,down,↓,0.66933100001188,True,36,0
157K25S2,69,experiment,81,↓,down,↓,0.5905589000030886,True,36,1
157K25S2,70,experiment,56,↓,down,↓,0.5000174000160769,True,36,1
157K25S2,71,experiment,68,←,left,←,0.553347200009739,True,36,1
157K25S2,72,experiment,96,←,left,←,0.5548204999940936,True,36,1
157K25S2,73,experiment,59,↑,up,↑,0.7125324000080582,True,36,1
157K25S2,74,experiment,75,↓,down,↓,0.506506800011266,True,36,1
157K25S2,75,experiment,102,→,right,→,0.5241344000096433,True,36,1
157K25S2,76,experiment,58,↓,left,←,0.8113592000154313,False,36,1
157K25S2,77,experiment,74,←,left,←,0.435204999987036,True,36,1
157K25S2,78,experiment,94,←,no_key,no_letter,-1.0,False,36,0
157K25S2,79,experiment,95,↓,down,↓,0.8256776999915019,True,36,1
157K25S2,80,experiment,80,↑,up,↑,0.5017445999837946,True,36,1
157K25S2,81,experiment,67,→,right,→,0.707092599972384,True,36,1
157K25S2,82,experiment,76,→,right,→,0.4507739999971818,True,36,1
157K25S2,83,experiment,87,↓,down,↓,0.9254587000177708,True,36,0
157K25S2,84,experiment,97,←,left,←,0.3926202000002377,True,36,1
157K25S2,85,experiment,48,↓,up,↑,0.7357099000073504,False,36,0
157K25S2,86,experiment,78,→,right,→,0.6320119999872986,True,36,1
157K25S2,87,experiment,66,↓,down,↓,0.5764846999954898,True,36,1
157K25S2,88,experiment,64,↑,up,↑,0.6118826000019908,True,36,1
157K25S2,89,experiment,57,↓,down,↓,0.5682465999852866,True,36,1
157K25S2,90,experiment,63,→,right,→,0.4769607000052929,True,36,1
157K25S2,91,experiment,104,↑,up,↑,0.44263899998622946,True,36,1
157K25S2,92,experiment,65,↑,up,↑,0.5664687999815214,True,36,0
157K25S2,93,experiment,72,←,left,←,0.7991885999799706,True,36,1
157K25S2,94,experiment,69,←,left,←,0.5762346000119578,True,36,1
157K25S2,95,experiment,71,←,left,←,0.4972406000015326,True,36,1
157K25S2,96,experiment,98,→,left,←,0.5320486999989953,False,36,1
157K25S2,97,experiment,50,↑,up,↑,0.5019325999892317,True,36,1
157K25S2,98,experiment,105,←,no_key,no_letter,-1.0,False,36,1
157K25S2,99,experiment,70,←,left,←,0.43311529999482445,True,36,1
157K25S2,100,experiment,79,→,right,→,0.6678983000165317,True,36,0
157K25S2,101,experiment,85,↓,down,↓,0.7005179999978282,True,36,1
157K25S2,102,experiment,73,←,left,←,0.47251330001745373,True,36,1
157K25S2,103,experiment,84,↑,up,↑,0.40985369999543764,True,36,1
157K25S2,104,training,104,←,left,←,0.5165071999945212,True,36,0
157K25S2,105,training,71,↑,up,↑,0.5996664999984205,True,36,1
157K25S2,106,experiment,101,→,left,←,0.49381509999511763,False,36,1
157K25S2,107,experiment,52,←,left,←,0.5046548999962397,True,36,1
157K25S2,108,experiment,75,↑,up,↑,0.5390023000072688,True,36,1
157K25S2,109,experiment,70,←,left,←,0.5816408999962732,True,36,1
157K25S2,110,experiment,57,↓,down,↓,0.8031320000009146,True,36,1
157K25S2,111,experiment,88,→,left,←,0.5334136000019498,False,36,1
157K25S2,112,experiment,97,←,left,←,0.45073509999201633,True,36,1
157K25S2,113,experiment,54,↑,up,↑,0.5469186999835074,True,36,0
157K25S2,114,experiment,92,↑,up,↑,0.7900347000104375,True,36,1
157K25S2,115,experiment,104,←,right,→,0.5073053000087384,False,36,1
157K25S2,116,experiment,66,↓,down,↓,0.6167900000000373,True,36,1
157K25S2,117,experiment,53,←,left,←,0.6381018999963999,True,36,1
157K25S2,118,experiment,108,↓,down,↓,0.5041065000114031,True,36,1
157K25S2,119,experiment,94,←,left,←,0.5001945000258274,True,36,1
157K25S2,120,experiment,91,→,right,→,0.505552999995416,True,36,1
157K25S2,121,experiment,78,↓,down,↓,0.6355089999851771,True,36,1
157K25S2,122,experiment,96,↑,up,↑,0.4817070999997668,True,36,1
157K25S2,123,experiment,61,↓,down,↓,0.5854924999875948,True,36,1
157K25S2,124,experiment,65,→,no_key,no_letter,-1.0,False,36,1
157K25S2,125,experiment,74,↓,down,↓,0.828455800015945,True,36,1
157K25S2,126,experiment,93,↑,up,↑,0.6200777000049129,True,36,1
157K25S2,127,experiment,98,←,left,←,0.5304152999888174,True,36,1
157K25S2,128,experiment,79,↓,down,↓,0.6024975000182167,True,36,1
157K25S2,129,experiment,106,↑,no_key,no_letter,-1.0,False,36,1
157K25S2,130,experiment,95,→,left,←,0.4803257999883499,False,36,1
157K25S2,131,experiment,87,↓,down,↓,0.8154027999844402,True,36,1
157K25S2,132,experiment,55,←,right,→,0.8044167000043672,False,36,1
157K25S2,133,experiment,103,←,left,←,0.5935566000116523,True,36,1
157K25S2,134,experiment,81,↓,down,↓,0.7585108999919612,True,36,1
157K25S2,135,experiment,73,←,left,←,0.4507579000201076,True,36,1
157K25S2,136,experiment,58,←,left,←,0.4508706000051461,True,36,0
157K25S2,137,experiment,84,↑,up,↑,0.6750598000071477,True,36,0
157K25S2,138,experiment,82,←,left,←,0.4090466999914497,True,36,1
157K25S2,139,experiment,99,↓,down,↓,0.6025365999958012,True,36,0
157K25S2,140,experiment,64,↑,up,↑,0.596949400001904,True,36,1
157K25S2,141,experiment,102,↑,up,↑,0.5626851000124589,True,36,1
157K25S2,142,experiment,76,←,no_key,no_letter,-1.0,False,36,1
157K25S2,143,experiment,71,↓,down,↓,0.587858499988215,True,36,1
157K25S2,144,experiment,80,→,right,→,0.48919210000894964,True,36,1
157K25S2,145,experiment,69,↑,up,↑,0.517966899991734,True,36,1
157K25S2,146,experiment,67,→,left,←,0.6347806999983732,False,36,1
157K25S2,147,experiment,50,→,right,→,0.7045243000029586,True,36,1
157K25S2,148,experiment,85,↓,down,↓,0.5276231000025291,True,36,1
157K25S2,149,experiment,51,←,left,←,0.48170720000052825,True,36,1
157K25S2,150,experiment,48,↑,down,↓,0.6137921000190545,False,36,1
157K25S2,151,experiment,86,←,left,←,0.6082279999973252,True,36,1
157K25S2,152,experiment,56,→,right,→,0.4340205999906175,True,36,1
157K25S2,153,experiment,49,↓,down,↓,0.602692600019509,True,36,0
157K25S2,154,experiment,105,←,left,←,0.7033670000091661,True,36,1
157K25S2,155,experiment,90,→,right,→,0.7010786999890115,True,36,1
157K25S2,156,experiment,89,←,left,←,0.5951392999850214,True,36,1
157K25S2,157,experiment,77,←,left,←,0.5214330999879166,True,36,1
157K25S2,158,experiment,107,↑,up,↑,0.5125573000113945,True,36,1
157K25S2,159,experiment,59,→,right,→,0.5920542000094429,True,36,1
157K25S2,160,experiment,60,←,left,←,0.350452899991069,True,36,1
157K25S2,161,experiment,72,↑,up,↑,0.525706899992656,True,36,0
157K25S2,162,experiment,68,↓,down,↓,0.5376796999771614,True,36,1
157K25S2,163,experiment,62,↑,up,↑,0.7189969000173733,True,36,1
157K25S2,164,experiment,63,↓,down,↓,0.6299893999821506,True,36,1
157K25S2,165,experiment,100,↑,up,↑,0.4341098000004422,True,36,1
157K25S2,166,experiment,83,↑,up,↑,0.45048190001398325,True,36,0
157K25S2,167,training,80,↑,up,↑,0.4256327000039164,True,36,0
157K25S2,168,training,108,←,right,→,0.5050295000255574,False,36,0
157K25S2,169,experiment,98,↓,down,↓,0.8757088999846019,True,36,1
157K25S2,170,experiment,50,→,right,→,0.6557954999734648,True,36,1
157K25S2,171,experiment,58,↑,down,↓,0.6658641000103671,False,36,1
157K25S2,172,experiment,75,←,left,←,0.40901859998120926,True,36,1
157K25S2,173,experiment,88,↑,up,↑,0.7196814000199083,True,36,0
157K25S2,174,experiment,71,←,left,←,0.6272141000081319,True,36,1
157K25S2,175,experiment,83,←,left,←,0.6780785000009928,True,36,1
157K25S2,176,experiment,80,↓,down,↓,0.5201204999757465,True,36,1
157K25S2,177,experiment,82,↑,up,↑,0.559835899999598,True,36,1
157K25S2,178,experiment,85,↓,down,↓,0.6049638999975286,True,36,1
157K25S2,179,experiment,78,←,left,←,0.4089918000099715,True,36,1
157K25S2,180,experiment,66,↑,up,↑,0.5314126000157557,True,36,0
157K25S2,181,experiment,91,←,left,←,0.4254007999843452,True,36,1
157K25S2,182,experiment,108,↑,down,↓,0.6019191000086721,False,36,0
157K25S2,183,experiment,79,↓,down,↓,0.49524859999655746,True,36,1
157K25S2,184,experiment,61,←,left,←,0.4947247999953106,True,36,1
157K25S2,185,experiment,60,↑,down,↓,0.6864185000013094,False,36,1
157K25S2,186,experiment,95,↓,down,↓,0.48310069998842664,True,36,1
157K25S2,187,experiment,62,←,left,←,0.3840448999835644,True,36,1
157K25S2,188,experiment,105,↓,down,↓,0.5443264000059571,True,36,0
157K25S2,189,experiment,68,↑,down,↓,0.4678766999859363,False,36,1
157K25S2,190,experiment,96,←,left,←,0.3007836999895517,True,36,0
157K25S2,191,experiment,100,↑,down,↓,0.522080199996708,False,36,0
157K25S2,192,experiment,57,→,right,→,0.505901199998334,True,36,1
157K25S2,193,experiment,74,←,left,←,0.35042520001297817,True,36,1
157K25S2,194,experiment,51,→,right,→,0.49306709997472353,True,36,0
157K25S2,195,experiment,64,→,left,←,0.507872199988924,False,36,1
157K25S2,196,experiment,59,↑,up,↑,0.6276276000135113,True,36,1
157K25S2,197,experiment,73,→,right,→,0.5380543999781366,True,36,1
157K25S2,198,experiment,49,↓,down,↓,0.5487735999922734,True,36,1
157K25S2,199,experiment,55,←,right,→,0.5474182000034489,False,36,1
157K25S2,200,experiment,101,↓,down,↓,0.5312904999882448,True,36,1
157K25S2,201,experiment,70,↑,up,↑,0.5744100000010803,True,36,1
157K25S2,202,experiment,63,←,left,←,0.5941683999844827,True,36,1
157K25S2,203,experiment,53,↑,up,↑,0.5845445000159089,True,36,1
157K25S2,204,experiment,77,↓,down,↓,0.5352660000207834,True,36,1
157K25S2,205,experiment,93,↓,down,↓,0.5066647000203375,True,36,1
157K25S2,206,experiment,92,←,left,←,0.5113573000126053,True,36,1
157K25S2,207,experiment,107,←,left,←,0.5193118999886792,True,36,1
157K25S2,208,experiment,72,↑,up,↑,0.6261616999981925,True,36,1
157K25S2,209,experiment,86,←,left,←,0.5083287000015844,True,36,1
157K25S2,210,experiment,54,↑,up,↑,0.5817023999989033,True,36,1
157K25S2,211,experiment,90,→,left,←,0.6799808999930974,False,36,1
157K25S2,212,experiment,69,↓,down,↓,0.7413903000124265,True,36,1
157K25S2,213,experiment,104,↓,down,↓,0.5647284000006039,True,36,1
157K25S2,214,experiment,103,↑,up,↑,0.44238610001048073,True,36,1
157K25S2,215,experiment,84,↑,down,↓,0.5891559000010602,False,36,0
157K25S2,216,experiment,102,↑,down,↓,0.5073853000067174,False,36,1
157K25S2,217,experiment,89,↑,up,↑,0.41797839998616837,True,36,1
157K25S2,218,experiment,106,→,right,→,0.4685736000246834,True,36,0
157K25S2,219,experiment,76,→,right,→,0.6394574000150897,True,36,0
157K25S2,220,experiment,65,←,left,←,0.5197359999874607,True,36,1
157K25S2,221,experiment,97,↓,down,↓,0.490678600006504,True,36,1
157K25S2,222,experiment,81,↓,down,↓,0.4996662000194192,True,36,1
157K25S2,223,experiment,99,↑,up,↑,0.606542299996363,True,36,1
157K25S2,224,experiment,87,↑,no_key,no_letter,-1.0,False,36,1
157K25S2,225,experiment,67,↑,up,↑,0.5472297000233084,True,36,1
157K25S2,226,experiment,94,↑,down,↓,0.4090208999987226,False,36,1
157K25S2,227,experiment,56,→,right,→,0.5460439999878872,True,36,0
157K25S2,228,experiment,52,↓,up,↑,0.5944931000121869,False,36,1
157K25S2,229,experiment,48,←,left,←,0.5225150999904145,True,36,1
157K25S2,230,training,56,↑,up,↑,0.5501635999826249,True,36,0
157K25S2,231,training,67,→,right,→,0.4509076999966055,True,36,1
157K25S2,232,experiment,68,←,left,←,0.43388930000946857,True,36,0
157K25S2,233,experiment,69,↑,up,↑,0.47995710000395775,True,36,0
157K25S2,234,experiment,86,↑,down,↓,0.6152247000136413,False,36,1
157K25S2,235,experiment,73,↓,down,↓,0.6539396999869496,True,36,1
157K25S2,236,experiment,58,→,right,→,0.520288099971367,True,36,1
157K25S2,237,experiment,93,→,right,→,0.4689283999905456,True,36,1
157K25S2,238,experiment,52,↑,up,↑,0.6158175999880768,True,36,0
157K25S2,239,experiment,80,←,left,←,0.4173767000029329,True,36,1
157K25S2,240,experiment,88,↓,up,↑,0.7259541999956127,False,36,0
157K25S2,241,experiment,89,↑,down,↓,0.5065964999957941,False,36,1
157K25S2,242,experiment,95,←,left,←,0.5666696000262164,True,36,1
157K25S2,243,experiment,72,↓,no_key,no_letter,-1.0,False,36,1
157K25S2,244,experiment,51,←,left,←,0.3842552999849431,True,36,1
157K25S2,245,experiment,99,→,right,→,0.44235999998636544,True,36,0
157K25S2,246,experiment,74,↑,no_key,no_letter,-1.0,False,36,0
157K25S2,247,experiment,108,↓,down,↓,0.5122759999940172,True,36,1
157K25S2,248,experiment,59,←,left,←,0.45100749999983236,True,36,1
157K25S2,249,experiment,62,→,left,←,0.44208249999792315,False,36,0
157K25S2,250,experiment,63,←,left,←,0.4816960000025574,True,36,0
157K25S2,251,experiment,71,↓,down,↓,0.4941433999920264,True,36,1
157K25S2,252,experiment,94,←,left,←,0.3673658999905456,True,36,1
157K25S2,253,experiment,76,↑,no_key,no_letter,-1.0,False,36,0
157K25S2,254,experiment,70,↑,up,↑,0.5717406999901868,True,36,1
157K25S2,255,experiment,101,→,left,←,0.41751010000007227,False,36,1
157K25S2,256,experiment,100,↑,up,↑,0.38403260000632145,True,36,0
157K25S2,257,experiment,87,↓,down,↓,0.6031531000044197,True,36,0
157K25S2,258,experiment,104,↓,up,↑,0.5361787999863736,False,36,1
157K25S2,259,experiment,82,→,right,→,0.5352708999998868,True,36,1
157K25S2,260,experiment,75,↑,up,↑,0.4505034000030719,True,36,1
157K25S2,261,experiment,56,←,left,←,0.4995494000031613,True,36,0
157K25S2,262,experiment,54,→,right,→,0.4340845000115223,True,36,1
157K25S2,263,experiment,83,→,left,←,0.37576749999425374,False,36,0
157K25S2,264,experiment,107,↓,down,↓,0.45050400000764057,True,36,0
157K25S2,265,experiment,92,↑,up,↑,0.4090639999776613,True,36,0
157K25S2,266,experiment,91,↑,up,↑,0.6040823000075761,True,36,0
157K25S2,267,experiment,61,←,left,←,0.5589261999994051,True,36,1
157K25S2,268,experiment,50,↓,left,←,0.4800184000050649,False,36,1
157K25S2,269,experiment,81,↑,no_key,no_letter,-1.0,False,36,1
157K25S2,270,experiment,96,↑,no_key,no_letter,-1.0,False,36,1
157K25S2,271,experiment,60,←,left,←,0.6309541999944486,True,36,1
157K25S2,272,experiment,105,↑,up,↑,0.5621632999973372,True,36,1
157K25S2,273,experiment,67,↓,down,↓,0.5332367999944836,True,36,1
157K25S2,274,experiment,55,←,left,←,0.43411380000179633,True,36,1
157K25S2,275,experiment,84,←,down,↓,0.5433716999832541,False,36,0
157K25S2,276,experiment,48,←,left,←,0.41807510002399795,True,36,1
157K25S2,277,experiment,53,↓,down,↓,0.5983214000007138,True,36,0
157K25S2,278,experiment,85,←,left,←,0.3507204999914393,True,36,1
157K25S2,279,experiment,66,←,left,←,0.5250706000078935,True,36,0
157K25S2,280,experiment,49,←,left,←,0.3681205000029877,True,36,1
157K25S2,281,experiment,57,↑,no_key,no_letter,-1.0,False,36,0
157K25S2,282,experiment,65,↑,up,↑,0.5442394999845419,True,36,1
157K25S2,283,experiment,102,↑,up,↑,0.43388430000049993,True,36,1
157K25S2,284,experiment,103,↑,up,↑,0.468426500010537,True,36,0
157K25S2,285,experiment,79,↓,down,↓,0.49429349999991246,True,36,0
157K25S2,286,experiment,78,←,no_key,no_letter,-1.0,False,36,1
157K25S2,287,experiment,64,↓,down,↓,0.5481150000123307,True,36,1
157K25S2,288,experiment,77,←,left,←,0.5400853999890387,True,36,1
157K25S2,289,experiment,90,←,left,←,0.4961244000005536,True,36,1
157K25S2,290,experiment,97,→,right,→,0.4759972000028938,True,36,1
157K25S2,291,experiment,106,↑,no_key,no_letter,-1.0,False,36,1
157K25S2,292,experiment,98,←,left,←,0.48503189999610186,True,36,1
157K25S2,293,training,66,→,right,→,0.6348160000052303,True,36,0
157K25S2,294,training,77,←,left,←,0.5434068999893498,True,36,1
157K25S2,295,experiment,62,↓,down,↓,0.41738769999938086,True,36,1
157K25S2,296,experiment,108,↓,up,↑,0.7034486999909859,False,36,0
157K25S2,297,experiment,68,→,no_key,no_letter,-1.0,False,36,1
157K25S2,298,experiment,58,↓,down,↓,0.6100840000144672,True,36,1
157K25S2,299,experiment,87,↑,up,↑,0.4925977000093553,True,36,1
157K25S2,300,experiment,88,→,right,→,0.58715310000116,True,36,1
157K25S2,301,experiment,77,↓,down,↓,0.545908000000054,True,36,1
157K25S2,302,experiment,73,→,right,→,0.4341552999976557,True,36,1
157K25S2,303,experiment,91,↓,down,↓,0.5229639000026509,True,36,0
157K25S2,304,experiment,76,←,down,↓,0.5164090000034776,False,36,1
157K25S2,305,experiment,106,←,left,←,0.4510420000005979,True,36,1
157K25S2,306,experiment,75,←,left,←,0.4809292000136338,True,36,0
157K25S2,307,experiment,57,↓,down,↓,0.5219626999751199,True,36,1
157K25S2,308,experiment,100,←,left,←,0.6593626000103541,True,36,1
157K25S2,309,experiment,95,↓,down,↓,0.48947629999020137,True,36,1
157K25S2,310,experiment,48,↓,down,↓,0.4697269999887794,True,36,1
157K25S2,311,experiment,97,↓,down,↓,0.4423937000101432,True,36,0
157K25S2,312,experiment,52,↓,down,↓,0.5339894999924581,True,36,0
157K25S2,313,experiment,104,↓,no_key,no_letter,-1.0,False,36,1
157K25S2,314,experiment,96,←,left,←,0.47911469999235123,True,36,1
157K25S2,315,experiment,67,→,left,←,0.532664600003045,False,36,1
157K25S2,316,experiment,93,↑,up,↑,0.6640021000057459,True,36,1
157K25S2,317,experiment,66,↓,down,↓,0.49522079998860136,True,36,1
157K25S2,318,experiment,53,←,left,←,0.5375257999985479,True,36,1
157K25S2,319,experiment,70,↑,up,↑,0.4688060999906156,True,36,1
157K25S2,320,experiment,65,↓,down,↓,0.5073020000127144,True,36,0
157K25S2,321,experiment,55,↑,up,↑,0.4341500000155065,True,36,1
157K25S2,322,experiment,54,←,left,←,0.43424279999453574,True,36,0
157K25S2,323,experiment,72,→,right,→,0.43405160002293997,True,36,0
157K25S2,324,experiment,92,↑,up,↑,0.4342184000124689,True,36,0
157K25S2,325,experiment,79,→,left,←,0.5539078000001609,False,36,0
157K25S2,326,experiment,101,→,right,→,0.4264833999914117,True,36,1
157K25S2,327,experiment,74,↓,down,↓,0.6473517999984324,True,36,0
157K25S2,328,experiment,69,→,left,←,0.5181722000124864,False,36,1
157K25S2,329,experiment,89,↓,no_key,no_letter,-1.0,False,36,1
157K25S2,330,experiment,84,←,left,←,0.600272399984533,True,36,1
157K25S2,331,experiment,60,↑,up,↑,0.476475900009973,True,36,1
157K25S2,332,experiment,103,→,right,→,0.4861788999987766,True,36,1
157K25S2,333,experiment,49,←,left,←,0.426417600014247,True,36,1
157K25S2,334,experiment,61,→,left,←,0.3754332000098657,False,36,0
157K25S2,335,experiment,98,↑,no_key,no_letter,-1.0,False,36,0
157K25S2,336,experiment,83,→,no_key,no_letter,-1.0,False,36,1
157K25S2,337,experiment,94,↓,down,↓,0.5860070000053383,True,36,1
157K25S2,338,experiment,90,←,left,←,0.4505688000062946,True,36,1
157K25S2,339,experiment,82,↑,up,↑,0.7986115000094287,True,36,0
157K25S2,340,experiment,80,↑,up,↑,0.42571380001027137,True,36,1
157K25S2,341,experiment,59,↑,up,↑,0.4507519000035245,True,36,0
157K25S2,342,experiment,63,↓,down,↓,0.48721290001412854,True,36,0
157K25S2,343,experiment,107,←,right,→,0.591314199991757,False,36,1
157K25S2,344,experiment,86,↓,down,↓,0.5385336999897845,True,36,1
157K25S2,345,experiment,64,←,left,←,0.5832144999876618,True,36,1
157K25S2,346,experiment,56,↓,down,↓,0.516863500000909,True,36,1
157K25S2,347,experiment,85,←,left,←,0.4091355999989901,True,36,1
157K25S2,348,experiment,99,↓,down,↓,0.5697141000127885,True,36,0
157K25S2,349,experiment,105,←,left,←,0.417682999977842,True,36,1
157K25S2,350,experiment,51,→,right,→,0.6295134999963921,True,36,0
157K25S2,351,experiment,50,↓,left,←,0.42569159998674877,False,36,1
157K25S2,352,experiment,71,↑,down,↓,0.5620951000018977,False,36,0
157K25S2,353,experiment,102,↓,down,↓,0.5135586000105832,True,36,1
157K25S2,354,experiment,78,↑,down,↓,0.5545237000042107,False,36,1
157K25S2,355,experiment,81,↑,up,↑,0.44249270000727847,True,36,1
157K25S2,356,training,72,→,right,→,0.5038132999907248,True,36,0
157K25S2,357,training,70,↓,down,↓,0.4684486000041943,True,36,1
157K25S2,358,experiment,77,←,left,←,0.3762324000126682,True,36,0
157K25S2,359,experiment,102,→,right,→,0.6290295000071637,True,36,0
157K25S2,360,experiment,83,→,left,←,0.4727955999842379,False,36,1
157K25S2,361,experiment,64,←,left,←,0.4799543999833986,True,36,1
157K25S2,362,experiment,107,←,left,←,0.4258992999966722,True,36,1
157K25S2,363,experiment,67,→,right,→,0.656260799994925,True,36,0
157K25S2,364,experiment,80,←,left,←,0.4423931000055745,True,36,1
157K25S2,365,experiment,90,↓,down,↓,0.5226844999997411,True,36,0
157K25S2,366,experiment,75,←,left,←,0.3591823000169825,True,36,1
157K25S2,367,experiment,85,→,no_key,no_letter,-1.0,False,36,0
157K25S2,368,experiment,71,→,no_key,no_letter,-1.0,False,36,1
157K25S2,369,experiment,61,→,right,→,0.6550447999907192,True,36,1
157K25S2,370,experiment,60,↑,up,↑,0.45042629999807104,True,36,1
157K25S2,371,experiment,74,←,left,←,0.35881519998656586,True,36,0
157K25S2,372,experiment,54,↑,up,↑,0.40905560000101104,True,36,0
157K25S2,373,experiment,72,←,left,←,0.43382579999160953,True,36,0
157K25S2,374,experiment,59,←,left,←,0.3431084999756422,True,36,0
157K25S2,375,experiment,94,↓,down,↓,0.5118343000067398,True,36,0
157K25S2,376,experiment,99,→,right,→,0.579046400001971,True,36,1
157K25S2,377,experiment,63,←,left,←,0.40898700000252575,True,36,1
157K25S2,378,experiment,106,→,right,→,0.4007551999820862,True,36,0
157K25S2,379,experiment,108,↑,up,↑,0.4854734999826178,True,36,0
157K25S2,380,experiment,104,→,left,←,0.5585319999954663,False,36,1
157K25S2,381,experiment,91,↑,up,↑,0.617598300013924,True,36,1
157K25S2,382,experiment,96,↓,down,↓,0.5204939999966882,True,36,1
157K25S2,383,experiment,81,→,right,→,0.44230609998339787,True,36,1
157K25S2,384,experiment,98,→,right,→,0.4424453999963589,True,36,0
157K25S2,385,experiment,84,↓,down,↓,0.43418450001627207,True,36,0
157K25S2,386,experiment,87,→,right,→,0.42581680000876077,True,36,0
157K25S2,387,experiment,89,↑,right,→,0.41822320001665503,False,36,0
157K25S2,388,experiment,65,↑,up,↑,0.482583099976182,True,36,0
157K25S2,389,experiment,78,←,right,→,0.4507492000120692,False,36,1
157K25S2,390,experiment,51,↑,up,↑,0.5849452000111341,True,36,0
157K25S2,391,experiment,50,↑,down,↓,0.5125798000080977,False,36,1
157K25S2,392,experiment,58,↓,down,↓,0.49647510002250783,True,36,1
157K25S2,393,experiment,92,↓,right,→,0.4340305000077933,False,36,1
157K25S2,394,experiment,57,←,right,→,0.4969353999767918,False,36,0
157K25S2,395,experiment,56,→,right,→,0.4514836000162177,True,36,1
157K25S2,396,experiment,93,→,right,→,0.5207035999919754,True,36,0
157K25S2,397,experiment,82,↑,no_key,no_letter,-1.0,False,36,1
157K25S2,398,experiment,62,↑,down,↓,0.5640356999938376,False,36,1
157K25S2,399,experiment,95,←,left,←,0.6373561999935191,True,36,1
157K25S2,400,experiment,55,←,left,←,0.5534832999983337,True,36,1
157K25S2,401,experiment,103,↓,down,↓,0.6408267000224441,True,36,1
157K25S2,402,experiment,79,↑,up,↑,0.5007434000144713,True,36,1
157K25S2,403,experiment,100,→,left,←,0.4507668000005651,False,36,1
157K25S2,404,experiment,69,→,no_key,no_letter,-1.0,False,36,0
157K25S2,405,experiment,52,↓,down,↓,0.6209644000045955,True,36,1
157K25S2,406,experiment,49,↓,right,→,0.5476397999736946,False,36,1
157K25S2,407,experiment,66,←,left,←,0.5913536000007298,True,36,1
157K25S2,408,experiment,101,↓,down,↓,0.5342667000077199,True,36,1
157K25S2,409,experiment,53,→,right,→,0.5187044000194874,True,36,1
157K25S2,410,experiment,68,→,right,→,0.8909940000157803,True,36,1
157K25S2,411,experiment,48,↓,down,↓,0.4793688000063412,True,36,1
157K25S2,412,experiment,86,↑,right,→,0.6067350000084843,False,36,1
157K25S2,413,experiment,73,↓,down,↓,0.49400250002508983,True,36,1
157K25S2,414,experiment,105,↑,up,↑,0.6308801999839488,True,36,1
157K25S2,415,experiment,70,↓,down,↓,0.5348427999997512,True,36,1
157K25S2,416,experiment,76,←,left,←,0.5990609000145923,True,36,1
157K25S2,417,experiment,88,↑,up,↑,0.5133271999948192,True,36,1
157K25S2,418,experiment,97,←,left,←,0.4766774000017904,True,36,1
157K25S2,419,training,74,←,left,←,0.49045149999437854,True,36,0
157K25S2,420,training,53,←,left,←,0.5086116000020411,True,36,1
157K25S2,421,experiment,65,↓,down,↓,0.714357699995162,True,36,1
157K25S2,422,experiment,68,→,no_key,no_letter,-1.0,False,36,1
157K25S2,423,experiment,74,↓,down,↓,0.6789860999851953,True,36,1
157K25S2,424,experiment,77,←,left,←,0.45084510001470335,True,36,1
157K25S2,425,experiment,92,←,right,→,0.41812999997637235,False,36,0
157K25S2,426,experiment,50,→,right,→,0.5025113000010606,True,36,0
157K25S2,427,experiment,64,→,right,→,0.4507268000161275,True,36,1
157K25S2,428,experiment,93,→,right,→,0.4341071000089869,True,36,0
157K25S2,429,experiment,104,↓,down,↓,0.7267216000182088,True,36,0
157K25S2,430,experiment,88,←,left,←,0.5723929000087082,True,36,1
157K25S2,431,experiment,61,↑,right,→,0.6006016999890562,False,36,1
157K25S2,432,experiment,60,↓,down,↓,0.5242457000131253,True,36,1
157K25S2,433,experiment,57,←,no_key,no_letter,-1.0,False,36,1
157K25S2,434,experiment,71,←,left,←,0.541285399987828,True,36,1
157K25S2,435,experiment,76,←,left,←,0.5899974999774713,True,36,1
157K25S2,436,experiment,48,←,left,←,0.4785412999917753,True,36,1
157K25S2,437,experiment,103,↑,up,↑,0.6081034000089858,True,36,1
157K25S2,438,experiment,108,↓,down,↓,0.5875386999978218,True,36,1
157K25S2,439,experiment,54,↑,down,↓,0.7215285999991465,False,36,1
157K25S2,440,experiment,99,→,left,←,0.5231732999964152,False,36,1
157K25S2,441,experiment,58,→,left,←,0.6268715999904089,False,36,1
157K25S2,442,experiment,81,←,left,←,0.5263498999993317,True,36,1
157K25S2,443,experiment,100,←,left,←,0.3844754999736324,True,36,1
157K25S2,444,experiment,91,↓,down,↓,0.6571713000012096,True,36,0
157K25S2,445,experiment,69,→,right,→,0.5995539000141434,True,36,1
157K25S2,446,experiment,98,→,left,←,0.47917440001037903,False,36,1
157K25S2,447,experiment,66,↓,down,↓,0.6051994999870658,True,36,1
157K25S2,448,experiment,86,←,left,←,0.4338259000214748,True,36,1
157K25S2,449,experiment,82,←,left,←,0.37568579998333007,True,36,0
157K25S2,450,experiment,53,↓,right,→,0.665251200000057,False,36,0
157K25S2,451,experiment,96,←,left,←,0.5423103999928571,True,36,1
157K25S2,452,experiment,55,↑,up,↑,0.5341587000002619,True,36,1
157K25S2,453,experiment,90,→,left,←,0.5544412999879569,False,36,1
157K25S2,454,experiment,83,↑,left,←,0.6561524999851827,False,36,1
157K25S2,455,experiment,97,↓,down,↓,0.6212033999909181,True,36,1
157K25S2,456,experiment,63,←,left,←,0.35086179999052547,True,36,1
157K25S2,457,experiment,94,←,right,→,0.5062102999945637,False,36,0
157K25S2,458,experiment,80,↓,down,↓,0.5378413000144064,True,36,1
157K25S2,459,experiment,73,↓,down,↓,0.5318663000070956,True,36,1
157K25S2,460,experiment,84,↑,left,←,0.3510383000248112,False,36,1
157K25S2,461,experiment,106,↑,up,↑,0.4728202999976929,True,36,0
157K25S2,462,experiment,75,←,left,←,0.7300666999944951,True,36,1
157K25S2,463,experiment,89,←,right,→,0.5747919999994338,False,36,1
157K25S2,464,experiment,62,↓,down,↓,0.5469961000198964,True,36,1
157K25S2,465,experiment,59,↓,up,↑,0.6730243000201881,False,36,1
157K25S2,466,experiment,78,↓,down,↓,0.4839251000084914,True,36,1
157K25S2,467,experiment,95,→,right,→,0.5523347000125796,True,36,1
157K25S2,468,experiment,87,↓,down,↓,0.6451034000201616,True,36,1
157K25S2,469,experiment,67,↓,down,↓,0.5967658000008669,True,36,1
157K25S2,470,experiment,51,→,right,→,0.49159320001490414,True,36,1
157K25S2,471,experiment,107,←,left,←,0.49205490000895225,True,36,1
157K25S2,472,experiment,101,→,right,→,0.5902612000063527,True,36,1
157K25S2,473,experiment,52,←,no_key,no_letter,-1.0,False,36,1
157K25S2,474,experiment,102,↓,down,↓,0.6119322000013199,True,36,1
157K25S2,475,experiment,56,↓,down,↓,0.5205540000170004,True,36,1
157K25S2,476,experiment,79,↓,down,↓,0.5534240000124555,True,36,1
157K25S2,477,experiment,49,→,right,→,0.4423687999951653,True,36,1
157K25S2,478,experiment,85,→,right,→,0.5242900000012014,True,36,0
157K25S2,479,experiment,72,↑,down,↓,0.622930700017605,False,36,1
157K25S2,480,experiment,70,←,left,←,0.4092827999847941,True,36,1
157K25S2,481,experiment,105,↓,down,↓,0.4985132000001613,True,36,0
157K25S2,482,training,89,↑,down,↓,0.5017148999904748,False,36,0
157K25S2,483,training,89,→,right,→,0.4917027000046801,True,36,1
157K25S2,484,experiment,55,←,right,→,0.4707336999999825,False,36,1
157K25S2,485,experiment,71,↓,down,↓,0.5864875999977812,True,36,1
157K25S2,486,experiment,79,↑,up,↑,0.5445581000240054,True,36,1
157K25S2,487,experiment,92,↑,down,↓,0.49202549998881295,False,36,1
157K25S2,488,experiment,81,↑,up,↑,0.6930108000233304,True,36,1
157K25S2,489,experiment,97,↑,no_key,no_letter,-1.0,False,36,1
157K25S2,490,experiment,61,→,right,→,0.5012441000144463,True,36,1
157K25S2,491,experiment,49,↓,up,↑,0.5048440000100527,False,36,1
157K25S2,492,experiment,52,→,right,→,0.5069574000081047,True,36,1
157K25S2,493,experiment,53,↑,no_key,no_letter,-1.0,False,36,1
157K25S2,494,experiment,101,←,left,←,0.4918613000190817,True,36,1
157K25S2,495,experiment,100,←,no_key,no_letter,-1.0,False,36,1
157K25S2,496,experiment,87,→,no_key,no_letter,-1.0,False,36,1
157K25S2,497,experiment,84,↓,left,←,0.5991739000019152,False,36,1
157K25S2,498,experiment,80,←,left,←,0.5241148000059184,True,36,1
157K25S2,499,experiment,104,↑,up,↑,0.46873049999703653,True,36,1
157K25S2,500,experiment,105,↓,down,↓,0.6300030999991577,True,36,0
157K25S2,501,experiment,59,↑,up,↑,0.6006563999981154,True,36,1
157K25S2,502,experiment,103,→,right,→,0.6300359999877401,True,36,1
157K25S2,503,experiment,98,←,left,←,0.46833989999140613,True,36,1
157K25S2,504,experiment,85,→,right,→,0.5241346000111662,True,36,0
157K25S2,505,experiment,99,→,right,→,0.5348063000128604,True,36,1
157K25S2,506,experiment,58,→,right,→,0.5091615999990609,True,36,1
157K25S2,507,experiment,66,←,left,←,0.44253969998680986,True,36,1
157K25S2,508,experiment,108,↓,down,↓,0.6840370999998413,True,36,0
157K25S2,509,experiment,73,→,right,→,0.5121299000165891,True,36,1
157K25S2,510,experiment,65,↓,down,↓,0.517879900027765,True,36,1
157K25S2,511,experiment,48,↑,up,↑,0.5770524999825284,True,36,1
157K25S2,512,experiment,77,↓,down,↓,0.6400871999794617,True,36,1
157K25S2,513,experiment,69,→,right,→,0.4712400999851525,True,36,1
157K25S2,514,experiment,106,↑,no_key,no_letter,-1.0,False,36,0
157K25S2,515,experiment,50,→,right,→,0.5048298999899998,True,36,1
157K25S2,516,experiment,89,↑,up,↑,0.48677330001373775,True,36,1
157K25S2,517,experiment,56,←,right,→,0.592651900020428,False,36,1
157K25S2,518,experiment,83,↓,down,↓,0.5243276999972295,True,36,1
157K25S2,519,experiment,57,↓,down,↓,0.5400263000046834,True,36,1
157K25S2,520,experiment,102,↓,down,↓,0.5801629000052344,True,36,1
157K25S2,521,experiment,91,↑,up,↑,0.5182481000083499,True,36,1
157K25S2,522,experiment,62,↑,up,↑,0.5005509000038728,True,36,1
157K25S2,523,experiment,74,←,right,→,0.5436345000052825,False,36,1
157K25S2,524,experiment,70,→,right,→,0.5145132000034209,True,36,1
157K25S2,525,experiment,78,↑,up,↑,0.6434542000060901,True,36,1
157K25S2,526,experiment,107,↓,down,↓,0.5417272000049707,True,36,1
157K25S2,527,experiment,86,↑,up,↑,0.5631764999998268,True,36,1
157K25S2,528,experiment,94,↑,up,↑,0.44247419998282567,True,36,1
157K25S2,529,experiment,72,←,left,←,0.5869005999993533,True,36,0
157K25S2,530,experiment,64,→,right,→,0.4947978999989573,True,36,1
157K25S2,531,experiment,82,→,right,→,0.5107483999745455,True,36,1
157K25S2,532,experiment,88,↑,up,↑,0.4425739000143949,True,36,1
157K25S2,533,experiment,68,↓,down,↓,0.7159623000188731,True,36,0
157K25S2,534,experiment,76,→,right,→,0.6136438999965321,True,36,1
157K25S2,535,experiment,51,→,left,←,0.5236988000106066,False,36,1
157K25S2,536,experiment,95,↓,down,↓,0.6627789000049233,True,36,1
157K25S2,537,experiment,96,↑,up,↑,0.4091171000036411,True,36,1
157K25S2,538,experiment,75,→,right,→,0.5619260999956168,True,36,0
157K25S2,539,experiment,54,↓,down,↓,0.5693776000116486,True,36,1
157K25S2,540,experiment,67,→,right,→,0.6441219999978784,True,36,1
157K25S2,541,experiment,60,↓,down,↓,0.766184100008104,True,36,1
157K25S2,542,experiment,93,←,no_key,no_letter,-1.0,False,36,1
157K25S2,543,experiment,63,↑,up,↑,0.4843535000109114,True,36,1
157K25S2,544,experiment,90,→,right,→,0.5464508000004571,True,36,1
157K25S2,545,training,76,→,right,→,0.6037977999949362,True,36,0
157K25S2,546,training,57,↓,down,↓,0.5685500999970827,True,36,1
157K25S2,547,experiment,65,↑,up,↑,0.45077300001867115,True,36,1
157K25S2,548,experiment,79,→,left,←,0.4871465000032913,False,36,0
157K25S2,549,experiment,52,←,no_key,no_letter,-1.0,False,36,1
157K25S2,550,experiment,77,↑,up,↑,0.5369736000138801,True,36,1
157K25S2,551,experiment,49,→,right,→,0.45076040001004003,True,36,1
157K25S2,552,experiment,68,→,right,→,0.42577890001120977,True,36,0
157K25S2,553,experiment,89,←,left,←,0.39240339997923,True,36,0
157K25S2,554,experiment,83,→,right,→,0.5269128000072669,True,36,0
157K25S2,555,experiment,94,→,left,←,0.6020293000037782,False,36,1
157K25S2,556,experiment,103,→,right,→,0.5913624000095297,True,36,1
157K25S2,557,experiment,108,↓,down,↓,1.0033977999992203,True,36,1
157K25S2,558,experiment,80,↑,up,↑,0.5524352999927942,True,36,1
157K25S2,559,experiment,90,→,left,←,0.7400345999922138,False,36,1
157K25S2,560,experiment,86,←,left,←,0.40094479999970645,True,36,1
157K25S2,561,experiment,84,→,left,←,0.3923478999931831,False,36,0
157K25S2,562,experiment,71,→,left,←,0.46953770000254735,False,36,0
157K25S2,563,experiment,102,↑,up,↑,0.4505217999976594,True,36,0
157K25S2,564,experiment,55,→,right,→,0.6668195000092965,True,36,0
157K25S2,565,experiment,56,←,left,←,0.4697802000155207,True,36,1
157K25S2,566,experiment,75,→,no_key,no_letter,-1.0,False,36,0
157K25S2,567,experiment,88,→,right,→,0.6127590000105556,True,36,1
157K25S2,568,experiment,95,↓,down,↓,0.7322686000261456,True,36,1
157K25S2,569,experiment,85,↓,no_key,no_letter,-1.0,False,36,1
157K25S2,570,experiment,51,↑,up,↑,0.5061097999860067,True,36,1
157K25S2,571,experiment,97,→,right,→,0.5651494999765418,True,36,1
157K25S2,572,experiment,57,→,right,→,0.5872429999872111,True,36,1
157K25S2,573,experiment,48,↓,down,↓,0.6356446999998298,True,36,1
157K25S2,574,experiment,107,→,left,←,0.7824411999899894,False,36,1
157K25S2,575,experiment,59,→,left,←,0.4677021000243258,False,36,1
157K25S2,576,experiment,63,→,no_key,no_letter,-1.0,False,36,0
157K25S2,577,experiment,60,←,left,←,0.4425725000037346,True,36,1
157K25S2,578,experiment,69,↓,down,↓,0.6304674999846611,True,36,0
157K25S2,579,experiment,106,↓,down,↓,0.48180320000392385,True,36,1
157K25S2,580,experiment,54,→,down,↓,0.49992020000354387,False,36,1
157K25S2,581,experiment,76,→,right,→,0.30072650001966394,True,36,1
157K25S2,582,experiment,74,↓,left,←,0.15193880000151694,False,36,0
157K25S2,583,experiment,61,←,down,↓,0.2597888000018429,False,36,0
157K25S2,584,experiment,104,↓,down,↓,0.5856889999995474,True,36,0
157K25S2,585,experiment,81,→,right,→,0.7271348999929614,True,36,1
157K25S2,586,experiment,98,↑,up,↑,0.4972239999915473,True,36,1
157K25S2,587,experiment,91,↓,down,↓,0.4945148999977391,True,36,1
157K25S2,588,experiment,92,→,right,→,0.44214900000952184,True,36,1
157K25S2,589,experiment,72,←,right,→,0.5136720000009518,False,36,0
157K25S2,590,experiment,87,↓,down,↓,0.49575619999086484,True,36,1
157K25S2,591,experiment,58,↓,down,↓,0.5524164000235032,True,36,1
157K25S2,592,experiment,67,↓,down,↓,0.5327445000002626,True,36,1
157K25S2,593,experiment,96,↑,up,↑,0.42576260000350885,True,36,1
157K25S2,594,experiment,82,↑,up,↑,0.36736889998428524,True,36,0
157K25S2,595,experiment,62,↓,down,↓,0.45078649997594766,True,36,0
157K25S2,596,experiment,66,←,left,←,0.4425928999844473,True,36,0
157K25S2,597,experiment,73,→,left,←,0.48260379998828284,False,36,0
157K25S2,598,experiment,93,↑,down,↓,0.39295140001922846,False,36,1
157K25S2,599,experiment,50,←,right,→,0.5984697000239976,False,36,0
157K25S2,600,experiment,64,→,right,→,0.47336640002322383,True,36,1
157K25S2,601,experiment,101,→,right,→,0.5318355000053998,True,36,0
157K25S2,602,experiment,70,↓,down,↓,0.4340420000080485,True,36,1
157K25S2,603,experiment,78,→,down,↓,0.539084299991373,False,36,0
157K25S2,604,experiment,53,↑,up,↑,0.4681049000064377,True,36,1
157K25S2,605,experiment,100,←,left,←,0.43402419998892583,True,36,0
157K25S2,606,experiment,105,←,left,←,0.35899189999327064,True,36,0
157K25S2,607,experiment,99,→,right,→,0.5299821000080556,True,36,0
157K25S2,608,training,85,↓,down,↓,0.5918041999975685,True,36,0
157K25S2,609,training,103,←,no_key,no_letter,-1.0,False,36,1
157K25S2,610,experiment,63,←,left,←,0.4893636000051629,True,36,1
157K25S2,611,experiment,67,↓,down,↓,0.4793847000109963,True,36,1
157K25S2,612,experiment,95,→,left,←,0.6996262999891769,False,36,1
157K25S2,613,experiment,85,↑,up,↑,0.5390001999912784,True,36,1
157K25S2,614,experiment,106,↑,up,↑,0.48206839998601936,True,36,1
157K25S2,615,experiment,50,→,right,→,0.6534440999967046,True,36,1
157K25S2,616,experiment,49,→,right,→,0.6109364999865647,True,36,1
157K25S2,617,experiment,54,↓,down,↓,0.5682947000022978,True,36,1
157K25S2,618,experiment,65,↓,down,↓,0.539655100001255,True,36,1
157K25S2,619,experiment,87,↓,down,↓,0.6808449000236578,True,36,1
157K25S2,620,experiment,56,←,left,←,0.8272505000059027,True,36,1
157K25S2,621,experiment,98,←,left,←,0.5125266999821179,True,36,1
157K25S2,622,experiment,74,←,left,←,0.40075770000112243,True,36,1
157K25S2,623,experiment,105,←,left,←,0.5758100000093691,True,36,0
157K25S2,624,experiment,80,↓,down,↓,0.549680600001011,True,36,1
157K25S2,625,experiment,71,←,left,←,0.687797100021271,True,36,1
157K25S2,626,experiment,69,↓,down,↓,0.5090515999763738,True,36,1
157K25S2,627,experiment,78,→,right,→,0.6708569999900647,True,36,1
157K25S2,628,experiment,93,↑,up,↑,0.5966831000114325,True,36,1
157K25S2,629,experiment,102,←,left,←,0.5941296000091825,True,36,1
157K25S2,630,experiment,59,↓,down,↓,0.6065190000226721,True,36,1
157K25S2,631,experiment,48,↑,no_key,no_letter,-1.0,False,36,1
157K25S2,632,experiment,79,↑,up,↑,0.7328467999759596,True,36,1
157K25S2,633,experiment,94,→,left,←,0.5041580999968573,False,36,1
157K25S2,634,experiment,76,↓,down,↓,0.5380146999959834,True,36,1
157K25S2,635,experiment,72,→,right,→,0.4845287000061944,True,36,1
157K25S2,636,experiment,53,←,left,←,0.7187930000072811,True,36,1
157K25S2,637,experiment,62,→,right,→,0.6851936999883037,True,36,1
157K25S2,638,experiment,51,↑,left,←,0.6565622999914922,False,36,1
157K25S2,639,experiment,64,→,right,→,0.4808202000276651,True,36,1
157K25S2,640,experiment,91,←,right,→,0.5105148999718949,False,36,1
157K25S2,641,experiment,100,↓,down,↓,0.5767883000080474,True,36,1
157K25S2,642,experiment,61,→,right,→,0.5410318999784067,True,36,1
157K25S2,643,experiment,66,→,right,→,0.9051241999841295,True,36,1
157K25S2,644,experiment,73,→,right,→,0.4342483000073116,True,36,1
157K25S2,645,experiment,101,↓,down,↓,0.6325110000034329,True,36,0
157K25S2,646,experiment,97,↑,up,↑,0.47887759999139234,True,36,1
157K25S2,647,experiment,103,←,left,←,0.512522800010629,True,36,1
157K25S2,648,experiment,75,↓,down,↓,0.8186298999935389,True,36,1
157K25S2,649,experiment,60,←,no_key,no_letter,-1.0,False,36,1
157K25S2,650,experiment,83,↓,down,↓,0.6989369999791961,True,36,1
157K25S2,651,experiment,88,↑,up,↑,0.49779920000582933,True,36,1
157K25S2,652,experiment,107,→,left,←,0.5539968999801204,False,36,1
157K25S2,653,experiment,86,←,left,←,0.4257581999991089,True,36,1
157K25S2,654,experiment,92,←,left,←,0.40901159998611547,True,36,0
157K25S2,655,experiment,52,←,left,←,0.400681800005259,True,36,0
157K25S2,656,experiment,89,↓,down,↓,0.5578089999908116,True,36,0
157K25S2,657,experiment,99,→,left,←,0.6701789000071585,False,36,1
157K25S2,658,experiment,104,←,no_key,no_letter,-1.0,False,36,1
157K25S2,659,experiment,55,↓,down,↓,0.6949513000145089,True,36,1
157K25S2,660,experiment,68,←,left,←,0.3841985000181012,True,36,1
157K25S2,661,experiment,90,↓,down,↓,0.5423234999761917,True,36,0
157K25S2,662,experiment,58,↓,no_key,no_letter,-1.0,False,36,1
157K25S2,663,experiment,96,↓,down,↓,0.5019823999900836,True,36,1
157K25S2,664,experiment,84,↑,right,→,0.5176838999905158,False,36,1
157K25S2,665,experiment,81,←,left,←,0.901723100017989,True,36,1
157K25S2,666,experiment,77,↑,up,↑,0.5117296000244096,True,36,1
157K25S2,667,experiment,108,↓,down,↓,0.5991312999976799,True,36,1
157K25S2,668,experiment,57,→,right,→,0.499853700021049,True,36,1
157K25S2,669,experiment,70,←,left,←,0.6402725000225473,True,36,1
157K25S2,670,experiment,82,↓,down,↓,0.6190079000080004,True,36,1
157K25S2,671,training,100,↓,down,↓,0.5028071999840904,True,36,0
157K25S2,672,training,50,→,left,←,0.6659545000002254,False,36,1
157K25S2,673,experiment,84,↑,up,↑,0.49110410001594573,True,36,1
157K25S2,674,experiment,96,→,left,←,0.559168400010094,False,36,1
157K25S2,675,experiment,54,→,right,→,0.4864649999944959,True,36,1
157K25S2,676,experiment,60,←,left,←,0.42577659999369644,True,36,1
157K25S2,677,experiment,79,↑,left,←,0.5869875000207685,False,36,0
157K25S2,678,experiment,83,→,right,→,0.5037522000202443,True,36,1
157K25S2,679,experiment,73,→,left,←,0.7231090000132099,False,36,1
157K25S2,680,experiment,86,→,right,→,0.4971496000071056,True,36,1
157K25S2,681,experiment,53,↑,no_key,no_letter,-1.0,False,36,1
157K25S2,682,experiment,72,↑,up,↑,0.500376200012397,True,36,1
157K25S2,683,experiment,90,↓,right,→,0.4822155000001658,False,36,1
157K25S2,684,experiment,55,←,left,←,0.6279347000236157,True,36,1
157K25S2,685,experiment,92,→,right,→,0.4422006999957375,True,36,1
157K25S2,686,experiment,62,→,left,←,0.501185400004033,False,36,0
157K25S2,687,experiment,82,↓,down,↓,0.7014810999971814,True,36,1
157K25S2,688,experiment,76,←,no_key,no_letter,-1.0,False,36,1
157K25S2,689,experiment,94,↓,down,↓,0.7856352999806404,True,36,1
157K25S2,690,experiment,51,↑,up,↑,0.6969030000036582,True,36,1
157K25S2,691,experiment,61,→,left,←,0.6721661000046879,False,36,1
157K25S2,692,experiment,95,↓,left,←,0.5732852999935858,False,36,1
157K25S2,693,experiment,101,↑,up,↑,0.668240800005151,True,36,1
157K25S2,694,experiment,64,↓,down,↓,0.4685020000033546,True,36,1
157K25S2,695,experiment,71,↓,down,↓,0.5770759000151884,True,36,0
157K25S2,696,experiment,100,↑,up,↑,0.5284286999958567,True,36,1
157K25S2,697,experiment,87,→,right,→,0.5741256000183057,True,36,1
157K25S2,698,experiment,65,↑,up,↑,0.5773347999784164,True,36,1
157K25S2,699,experiment,66,↑,down,↓,0.5479751999955624,False,36,1
157K25S2,700,experiment,106,→,left,←,0.5062884999788366,False,36,1
157K25S2,701,experiment,49,↑,up,↑,0.525612600002205,True,36,1
157K25S2,702,experiment,107,↓,down,↓,0.5164567000174429,True,36,1
157K25S2,703,experiment,67,→,right,→,0.47399050000240095,True,36,1
157K25S2,704,experiment,89,←,left,←,0.6640567000140436,True,36,1
157K25S2,705,experiment,68,→,left,←,0.5343517999863252,False,36,1
157K25S2,706,experiment,105,↑,up,↑,0.4424771999765653,True,36,1
157K25S2,707,experiment,58,↓,down,↓,0.5681516999902669,True,36,0
157K25S2,708,experiment,80,→,no_key,no_letter,-1.0,False,36,1
157K25S2,709,experiment,52,↓,down,↓,0.5581794000172522,True,36,1
157K25S2,710,experiment,59,→,left,←,0.6118446000036784,False,36,1
157K25S2,711,experiment,85,↑,up,↑,0.5991355000005569,True,36,1
157K25S2,712,experiment,74,↓,down,↓,0.5421627000032458,True,36,1
157K25S2,713,experiment,70,→,right,→,0.6890921000158414,True,36,1
157K25S2,714,experiment,108,↓,no_key,no_letter,-1.0,False,36,1
157K25S2,715,experiment,69,↑,up,↑,0.48290390000329353,True,36,1
157K25S2,716,experiment,78,←,left,←,0.6450949000136461,True,36,1
157K25S2,717,experiment,48,←,left,←,0.4423580000002403,True,36,1
157K25S2,718,experiment,103,→,left,←,0.5425623999908566,False,36,0
157K25S2,719,experiment,98,→,right,→,0.5039860999968369,True,36,1
157K25S2,720,experiment,56,↑,up,↑,0.6406493000104092,True,36,1
157K25S2,721,experiment,104,↑,down,↓,0.2684259999950882,False,36,1
157K25S2,722,experiment,88,→,up,↑,0.3340700000117067,False,36,0
157K25S2,723,experiment,81,→,right,→,0.4004988999804482,True,36,0
157K25S2,724,experiment,75,↑,no_key,no_letter,-1.0,False,36,0
157K25S2,725,experiment,99,←,left,←,0.5038120999815874,True,36,1
157K25S2,726,experiment,63,→,left,←,0.7501506999833509,False,36,1
157K25S2,727,experiment,57,←,left,←,0.6448793000017758,True,36,1
157K25S2,728,experiment,91,↓,down,↓,0.6285687000199687,True,36,1
157K25S2,729,experiment,102,↓,down,↓,0.6413074999873061,True,36,1
157K25S2,730,experiment,93,↑,down,↓,0.6323987999930978,False,36,1
157K25S2,731,experiment,77,→,left,←,0.5170597999822348,False,36,1
157K25S2,732,experiment,97,↓,down,↓,0.5197222999995574,True,36,1
157K25S2,733,experiment,50,↑,up,↑,0.706257200014079,True,36,1
157K25S2,734,training,50,→,right,→,0.5742305000021588,True,36,0
157K25S2,735,training,64,↓,down,↓,0.7535749000089709,True,36,1
157K25S2,736,experiment,83,←,left,←,0.5115057000075467,True,36,1
157K25S2,737,experiment,95,←,left,←,0.6032892999937758,True,36,1
157K25S2,738,experiment,53,↓,down,↓,0.8253473000077065,True,36,1
157K25S2,739,experiment,107,↑,down,↓,0.6603280999988783,False,36,1
157K25S2,740,experiment,71,←,left,←,0.47463660000357777,True,36,1
157K25S2,741,experiment,102,↑,up,↑,0.700462900014827,True,36,1
157K25S2,742,experiment,68,←,left,←,0.49752190001890995,True,36,1
157K25S2,743,experiment,58,←,left,←,0.6820083999773487,True,36,1
157K25S2,744,experiment,49,↓,no_key,no_letter,-1.0,False,36,1
157K25S2,745,experiment,50,←,left,←,0.4866213999921456,True,36,1
157K25S2,746,experiment,52,↑,up,↑,0.761288899986539,True,36,1
157K25S2,747,experiment,54,↓,down,↓,0.40158859998336993,True,36,1
157K25S2,748,experiment,92,←,left,←,0.36742450000019744,True,36,0
157K25S2,749,experiment,72,←,left,←,0.7536065999884158,True,36,0
157K25S2,750,experiment,63,↑,down,↓,0.5423084999783896,False,36,1
157K25S2,751,experiment,105,↑,up,↑,0.5260519000003114,True,36,1
157K25S2,752,experiment,66,↓,down,↓,0.6980865999939851,True,36,1
157K25S2,753,experiment,67,↑,up,↑,0.6235106999811251,True,36,1
157K25S2,754,experiment,85,←,left,←,0.5781714999757241,True,36,1
157K25S2,755,experiment,97,↑,up,↑,0.6262943999900017,True,36,1
157K25S2,756,experiment,106,←,left,←,0.661529300006805,True,36,1
157K25S2,757,experiment,86,←,left,←,0.417281300004106,True,36,1
157K25S2,758,experiment,79,→,left,←,0.4676245999871753,False,36,0
157K25S2,759,experiment,75,↑,up,↑,0.49448839999968186,True,36,0
157K25S2,760,experiment,65,→,right,→,0.44238360002054833,True,36,1
157K25S2,761,experiment,76,←,left,←,0.45053529998403974,True,36,0
157K25S2,762,experiment,69,←,left,←,0.4174432000145316,True,36,0
157K25S2,763,experiment,87,↑,up,↑,0.7134615000104532,True,36,0
157K25S2,764,experiment,61,←,left,←,0.5682406999985687,True,36,1
157K25S2,765,experiment,81,↓,down,↓,0.6062515000230633,True,36,1
157K25S2,766,experiment,64,→,right,→,0.5363941000250634,True,36,1
157K25S2,767,experiment,96,→,right,→,0.5387269000057131,True,36,1
157K25S2,768,experiment,94,←,left,←,0.4508143000130076,True,36,1
157K25S2,769,experiment,77,↓,down,↓,0.7052242999779992,True,36,0
157K25S2,770,experiment,78,↓,down,↓,0.6025894999911543,True,36,1
157K25S2,771,experiment,101,←,left,←,0.6164948999939952,True,36,1
157K25S2,772,experiment,57,↑,down,↓,0.716682900005253,False,36,1
157K25S2,773,experiment,100,→,right,→,0.5344224000000395,True,36,1
157K25S2,774,experiment,98,↓,down,↓,0.5600808000017423,True,36,1
157K25S2,775,experiment,51,↑,down,↓,0.5524773000215646,False,36,1
157K25S2,776,experiment,74,←,left,←,0.3591898000158835,True,36,1
157K25S2,777,experiment,90,↓,down,↓,0.5806239999947138,True,36,0
157K25S2,778,experiment,56,←,left,←,0.44336969999130815,True,36,1
157K25S2,779,experiment,82,↑,down,↓,0.6044862999988254,False,36,0
157K25S2,780,experiment,59,→,right,→,0.4731095000170171,True,36,1
157K25S2,781,experiment,103,↓,up,↑,0.5225372000131756,False,36,1
157K25S2,782,experiment,104,↑,down,↓,0.50680669999565,False,36,1
157K25S2,783,experiment,55,→,right,→,0.49971040000673383,True,36,1
157K25S2,784,experiment,108,↑,up,↑,0.4995626999880187,True,36,1
157K25S2,785,experiment,80,←,right,→,0.5965937000000849,False,36,1
157K25S2,786,experiment,99,→,no_key,no_letter,-1.0,False,36,1
157K25S2,787,experiment,91,→,right,→,0.5817422000109218,True,36,1
157K25S2,788,experiment,89,↓,down,↓,0.6325578999822028,True,36,1
157K25S2,789,experiment,93,↑,up,↑,0.6397944999916945,True,36,1
157K25S2,790,experiment,48,→,right,→,0.646116100018844,True,36,1
157K25S2,791,experiment,84,↓,down,↓,0.727607300010277,True,36,1
157K25S2,792,experiment,70,↑,up,↑,0.7709296000248287,True,36,1
157K25S2,793,experiment,73,↑,down,↓,0.5397513000061736,False,36,1
157K25S2,794,experiment,60,↑,up,↑,0.5937710999860428,True,36,1
157K25S2,795,experiment,62,↓,down,↓,0.5092052000109106,True,36,1
157K25S2,796,experiment,88,←,left,←,0.47590869999839924,True,36,1
157K25S2,797,training,98,←,left,←,0.5484720999957062,True,36,0
157K25S2,798,training,69,←,left,←,0.6711250000225846,True,36,1
157K25S2,799,experiment,78,→,right,→,0.4899876000126824,True,36,1
157K25S2,800,experiment,103,↑,up,↑,0.6514005000062753,True,36,1
157K25S2,801,experiment,70,→,right,→,0.5378336000139825,True,36,1
157K25S2,802,experiment,80,←,left,←,0.6252161999873351,True,36,1
157K25S2,803,experiment,52,↑,down,↓,0.6866948999813758,False,36,1
157K25S2,804,experiment,71,↓,down,↓,0.5716516000102274,True,36,1
157K25S2,805,experiment,55,←,left,←,0.4508689999929629,True,36,1
157K25S2,806,experiment,87,←,left,←,0.48248639999656007,True,36,0
157K25S2,807,experiment,82,←,left,←,0.5393886000092607,True,36,1
157K25S2,808,experiment,69,↑,up,↑,0.590352700004587,True,36,1
157K25S2,809,experiment,96,↓,up,↑,0.6463689999945927,False,36,1
157K25S2,810,experiment,68,←,no_key,no_letter,-1.0,False,36,1
157K25S2,811,experiment,99,←,left,←,0.525257800007239,True,36,1
157K25S2,812,experiment,56,←,no_key,no_letter,-1.0,False,36,1
157K25S2,813,experiment,74,↑,up,↑,0.5336441999825183,True,36,1
157K25S2,814,experiment,93,↑,down,↓,0.657024200016167,False,36,1
157K25S2,815,experiment,88,←,left,←,0.6571636000007857,True,36,1
157K25S2,816,experiment,104,←,left,←,0.45088369998848066,True,36,1
157K25S2,817,experiment,102,→,left,←,0.47967179998522624,False,36,0
157K25S2,818,experiment,91,→,right,→,0.46976519998861477,True,36,1
157K25S2,819,experiment,106,↑,right,→,0.33412260000477545,False,36,0
157K25S2,820,experiment,67,↓,down,↓,0.6664446000067983,True,36,0
157K25S2,821,experiment,79,→,right,→,0.493283900024835,True,36,1
157K25S2,822,experiment,89,↓,down,↓,0.507366700010607,True,36,1
157K25S2,823,experiment,54,←,left,←,0.4929036000103224,True,36,1
157K25S2,824,experiment,77,↓,down,↓,0.5752340999897569,True,36,1
157K25S2,825,experiment,59,→,right,→,0.4173241999815218,True,36,1
157K25S2,826,experiment,73,←,left,←,0.43403200001921505,True,36,0
157K25S2,827,experiment,65,→,right,→,0.49139159999322146,True,36,0
157K25S2,828,experiment,101,↑,down,↓,0.6936363999848254,False,36,1
157K25S2,829,experiment,60,←,left,←,0.6376221000100486,True,36,1
157K25S2,830,experiment,105,→,right,→,0.4810054000117816,True,36,1
157K25S2,831,experiment,86,→,left,←,0.5603831000044011,False,36,1
157K25S2,832,experiment,50,→,right,→,0.4007624000078067,True,36,1
157K25S2,833,experiment,95,↓,right,→,0.5610676000069361,False,36,0
157K25S2,834,experiment,61,↑,up,↑,0.470574500010116,True,36,1
157K25S2,835,experiment,53,↑,up,↑,0.489341999986209,True,36,0
157K25S2,836,experiment,92,↑,up,↑,0.5986429000040516,True,36,1
157K25S2,837,experiment,98,↑,up,↑,0.4702384999836795,True,36,1
157K25S2,838,experiment,63,↓,up,↑,0.5332523999968544,False,36,1
157K25S2,839,experiment,51,↓,down,↓,0.5507234999968205,True,36,1
157K25S2,840,experiment,81,↑,up,↑,0.5893830000131857,True,36,1
157K25S2,841,experiment,97,↓,no_key,no_letter,-1.0,False,36,1
157K25S2,842,experiment,76,←,left,←,0.5806882999895606,True,36,1
157K25S2,843,experiment,49,↓,down,↓,0.7567429000046104,True,36,1
157K25S2,844,experiment,64,↓,down,↓,0.6489202000084333,True,36,1
157K25S2,845,experiment,84,↓,down,↓,0.6985401000129059,True,36,1
157K25S2,846,experiment,66,↓,down,↓,0.4962802000227384,True,36,1
157K25S2,847,experiment,83,→,down,↓,0.49635030000354163,False,36,1
157K25S2,848,experiment,62,→,down,↓,0.4254166000173427,False,36,1
157K25S2,849,experiment,48,←,left,←,0.6464219999907073,True,36,0
157K25S2,850,experiment,57,←,left,←,0.4425030999991577,True,36,1
157K25S2,851,experiment,107,↑,down,↓,0.4680002999957651,False,36,0
157K25S2,852,experiment,72,↓,down,↓,0.5361529000219889,True,36,0
157K25S2,853,experiment,85,←,left,←,0.662114799983101,True,36,1
157K25S2,854,experiment,58,↑,down,↓,0.44226359997992404,False,36,1
157K25S2,855,experiment,100,→,down,↓,0.5965984999784268,False,36,0
157K25S2,856,experiment,108,↓,down,↓,0.5122442000138108,True,36,1
157K25S2,857,experiment,90,←,left,←,0.42568539999774657,True,36,1
157K25S2,858,experiment,94,←,left,←,0.4689811999851372,True,36,0
157K25S2,859,experiment,75,↓,down,↓,0.6801454999949783,True,36,0
157K25S2,860,training,56,↓,down,↓,0.6704909999971278,True,36,0
157K25S2,861,training,65,↑,no_key,no_letter,-1.0,False,36,1
157K25S2,862,experiment,106,↑,down,↓,0.4679850999964401,False,36,1
157K25S2,863,experiment,107,←,no_key,no_letter,-1.0,False,36,0
157K25S2,864,experiment,82,←,left,←,0.7378679999965243,True,36,1
157K25S2,865,experiment,91,↓,down,↓,0.5094616000133101,True,36,1
157K25S2,866,experiment,59,↓,down,↓,0.4934224000026006,True,36,1
157K25S2,867,experiment,85,↑,up,↑,0.4931012000015471,True,36,1
157K25S2,868,experiment,72,↓,down,↓,0.5531920999928843,True,36,1
157K25S2,869,experiment,48,→,right,→,0.4753366999793798,True,36,1
157K25S2,870,experiment,70,↓,down,↓,0.5759402000112459,True,36,1
157K25S2,871,experiment,56,↓,down,↓,0.4940846999816131,True,36,1
157K25S2,872,experiment,61,←,left,←,0.5097513000073377,True,36,1
157K25S2,873,experiment,94,↑,up,↑,0.7378246999869589,True,36,1
157K25S2,874,experiment,108,→,right,→,0.48809260001871735,True,36,1
157K25S2,875,experiment,77,↑,up,↑,0.47488500000326894,True,36,1
157K25S2,876,experiment,84,↓,down,↓,0.6109645999968052,True,36,1
157K25S2,877,experiment,57,→,left,←,0.519376199983526,False,36,1
157K25S2,878,experiment,50,→,right,→,0.49790220000431873,True,36,1
157K25S2,879,experiment,63,←,left,←,0.6326561999740079,True,36,1
157K25S2,880,experiment,65,→,left,←,0.5533530999964569,False,36,1
157K25S2,881,experiment,79,↑,up,↑,0.49675699998624623,True,36,1
157K25S2,882,experiment,95,→,right,→,0.5329039999924134,True,36,1
157K25S2,883,experiment,62,→,left,←,0.5545391999767162,False,36,1
157K25S2,884,experiment,83,↑,up,↑,0.48073939999449067,True,36,1
157K25S2,885,experiment,49,→,right,→,0.5483660000027157,True,36,1
157K25S2,886,experiment,99,↓,no_key,no_letter,-1.0,False,36,1
157K25S2,887,experiment,53,↓,no_key,no_letter,-1.0,False,36,1
157K25S2,888,experiment,105,←,left,←,0.5462455000088084,True,36,1
157K25S2,889,experiment,92,→,left,←,0.4853863000171259,False,36,1
157K25S2,890,experiment,75,↑,left,←,0.8725850000046194,False,36,1
157K25S2,891,experiment,90,←,no_key,no_letter,-1.0,False,36,1
157K25S2,892,experiment,78,→,left,←,0.5982341000053566,False,36,1
157K25S2,893,experiment,104,↓,down,↓,0.6031587999896146,True,36,1
157K25S2,894,experiment,68,←,left,←,0.5002514999941923,True,36,1
157K25S2,895,experiment,101,→,left,←,0.49440450000111014,False,36,1
157K25S2,896,experiment,76,↑,up,↑,0.553018400009023,True,36,1
157K25S2,897,experiment,96,↑,left,←,0.578681199986022,False,36,1
157K25S2,898,experiment,54,↑,up,↑,0.5298042999929748,True,36,1
157K25S2,899,experiment,73,↓,right,→,0.5235293000005186,False,36,1
157K25S2,900,experiment,88,↑,down,↓,0.6651118000154383,False,36,1
157K25S2,901,experiment,51,↑,down,↓,0.613033900008304,False,36,1
157K25S2,902,experiment,64,↓,down,↓,0.51075889999629,True,36,1
157K25S2,903,experiment,67,←,left,←,0.3673351999896113,True,36,1
157K25S2,904,experiment,74,→,right,→,0.4767068999935873,True,36,0
157K25S2,905,experiment,60,↑,no_key,no_letter,-1.0,False,36,1
157K25S2,906,experiment,58,↑,up,↑,0.626039499999024,True,36,1
157K25S2,907,experiment,98,↑,up,↑,0.4337461999966763,True,36,1
157K25S2,908,experiment,69,↑,up,↑,0.48737610000534914,True,36,0
157K25S2,909,experiment,97,←,left,←,0.5947882999898866,True,36,1
157K25S2,910,experiment,89,←,left,←,0.48554900000453927,True,36,1
157K25S2,911,experiment,93,↑,up,↑,0.5862156999937724,True,36,1
157K25S2,912,experiment,87,→,left,←,0.48588430002564564,False,36,1
157K25S2,913,experiment,102,↓,down,↓,0.5036265999951866,True,36,1
157K25S2,914,experiment,66,↓,down,↓,0.5493710000009742,True,36,1
157K25S2,915,experiment,81,↑,down,↓,0.5321167999936733,False,36,1
157K25S2,916,experiment,55,↓,no_key,no_letter,-1.0,False,36,1
157K25S2,917,experiment,71,→,right,→,0.6054646999982651,True,36,1
157K25S2,918,experiment,100,←,left,←,0.68360419999226,True,36,1
157K25S2,919,experiment,86,↑,up,↑,0.46765769997728057,True,36,1
157K25S2,920,experiment,80,→,right,→,0.5492921000113711,True,36,0
157K25S2,921,experiment,103,→,no_key,no_letter,-1.0,False,36,1
157K25S2,922,experiment,52,↓,down,↓,0.7081252999778371,True,36,1
157K25S2,923,training,96,↓,down,↓,0.543074399989564,True,36,0
157K25S2,924,training,99,→,right,→,0.543987000011839,True,36,1
157K25S2,925,experiment,74,↑,down,↓,0.6013738999899942,False,36,1
157K25S2,926,experiment,87,↓,down,↓,0.5641441000043415,True,36,1
157K25S2,927,experiment,84,↑,up,↑,0.5611621999996714,True,36,1
157K25S2,928,experiment,76,↑,up,↑,0.577563700004248,True,36,1
157K25S2,929,experiment,90,↑,up,↑,0.5079011999769136,True,36,1
157K25S2,930,experiment,56,↑,up,↑,0.48502530000405386,True,36,1
157K25S2,931,experiment,81,←,left,←,0.4507334000081755,True,36,1
157K25S2,932,experiment,54,→,right,→,0.5612445000151638,True,36,0
157K25S2,933,experiment,66,→,right,→,0.5566778999927919,True,36,1
157K25S2,934,experiment,52,↑,up,↑,0.4772551999776624,True,36,1
157K25S2,935,experiment,80,←,left,←,0.40044250001665205,True,36,1
157K25S2,936,experiment,65,↑,up,↑,0.6002366000029724,True,36,0
157K25S2,937,experiment,93,↑,up,↑,0.5128882999997586,True,36,1
157K25S2,938,experiment,83,←,left,←,0.5685006999992765,True,36,1
157K25S2,939,experiment,53,→,left,←,0.5518265999853611,False,36,1
157K25S2,940,experiment,72,↓,down,↓,0.6015029999834951,True,36,1
157K25S2,941,experiment,60,↑,up,↑,0.5333878999808803,True,36,1
157K25S2,942,experiment,51,→,right,→,0.5827510999806691,True,36,1
157K25S2,943,experiment,58,←,left,←,0.4007225999957882,True,36,1
157K25S2,944,experiment,75,→,right,→,0.8181931000144687,True,36,0
157K25S2,945,experiment,77,←,left,←,0.4803385999985039,True,36,1
157K25S2,946,experiment,98,↑,up,↑,0.5232768999994732,True,36,1
157K25S2,947,experiment,85,←,right,→,0.5456621000193991,False,36,1
157K25S2,948,experiment,92,←,left,←,0.5411069999972824,True,36,1
157K25S2,949,experiment,48,←,left,←,0.40899259998695925,True,36,1
157K25S2,950,experiment,106,↑,up,↑,0.6509721000038553,True,36,0
157K25S2,951,experiment,82,↑,up,↑,0.6859135999984574,True,36,1
157K25S2,952,experiment,63,↓,down,↓,0.5726302999828476,True,36,1
157K25S2,953,experiment,69,→,right,→,0.4709092999983113,True,36,1
157K25S2,954,experiment,61,↓,left,←,0.5988374000007752,False,36,1
157K25S2,955,experiment,71,↓,left,←,0.6789439000131097,False,36,1
157K25S2,956,experiment,64,↓,down,↓,0.4785989999945741,True,36,1
157K25S2,957,experiment,103,→,right,→,0.47298660001251847,True,36,1
157K25S2,958,experiment,86,↑,up,↑,0.42582230002153665,True,36,1
157K25S2,959,experiment,97,→,right,→,0.4423705999797676,True,36,0
157K25S2,960,experiment,95,←,left,←,0.469116699998267,True,36,0
157K25S2,961,experiment,79,→,no_key,no_letter,-1.0,False,36,0
157K25S2,962,experiment,108,↑,down,↓,0.6358411999826785,False,36,1
157K25S2,963,experiment,49,→,left,←,0.42566809998243116,False,36,1
157K25S2,964,experiment,62,↓,down,↓,0.6517006000212859,True,36,0
157K25S2,965,experiment,57,↓,up,↑,0.3592380000045523,False,36,1
157K25S2,966,experiment,96,↓,down,↓,0.6076258000102825,True,36,0
157K25S2,967,experiment,59,←,down,↓,0.46780030001536943,False,36,1
157K25S2,968,experiment,104,→,left,←,0.5332246999896597,False,36,0
157K25S2,969,experiment,91,↓,down,↓,0.6172462999820709,True,36,1
157K25S2,970,experiment,101,→,right,→,0.47925669999676757,True,36,1
157K25S2,971,experiment,105,←,left,←,0.4099045000039041,True,36,1
157K25S2,972,experiment,89,↓,down,↓,0.5213956999941729,True,36,0
157K25S2,973,experiment,94,←,down,↓,0.6368206000188366,False,36,1
157K25S2,974,experiment,107,←,right,→,0.5837762999872211,False,36,1
157K25S2,975,experiment,67,←,left,←,0.5935561999795027,True,36,1
157K25S2,976,experiment,102,→,left,←,0.8955920000153128,False,36,1
157K25S2,977,experiment,100,←,left,←,0.40080189998843707,True,36,1
157K25S2,978,experiment,88,→,right,→,0.4769470999890473,True,36,0
157K25S2,979,experiment,70,↓,down,↓,0.5696634000050835,True,36,1
157K25S2,980,experiment,78,→,left,←,0.5124607000034302,False,36,1
157K25S2,981,experiment,50,←,left,←,0.5391305000230204,True,36,1
157K25S2,982,experiment,99,↓,down,↓,0.45072110000182875,True,36,1
157K25S2,983,experiment,73,←,left,←,0.4100414999993518,True,36,0
157K25S2,984,experiment,68,→,left,←,0.5211203999933787,False,36,0
157K25S2,985,experiment,55,←,left,←,0.569558799994411,True,36,1
157K25S2,986,training,80,↓,down,↓,0.5209505000093486,True,36,0
157K25S2,987,training,78,→,right,→,0.44332869999925606,True,36,1
157K25S2,988,experiment,83,↑,up,↑,0.49957699998049065,True,36,0
157K25S2,989,experiment,67,↓,left,←,0.6648669000132941,False,36,1
157K25S2,990,experiment,71,↓,right,→,0.47086959998705424,False,36,1
157K25S2,991,experiment,75,←,left,←,0.4340389000135474,True,36,1
157K25S2,992,experiment,87,→,right,→,0.6429693000100087,True,36,0
157K25S2,993,experiment,108,↓,down,↓,0.5811404999985825,True,36,1
157K25S2,994,experiment,49,←,no_key,no_letter,-1.0,False,36,1
157K25S2,995,experiment,62,↑,up,↑,0.5454852000111714,True,36,1
157K25S2,996,experiment,82,↑,left,←,0.6161457999842241,False,36,1
157K25S2,997,experiment,78,→,right,→,0.4173638999927789,True,36,1
157K25S2,998,experiment,90,→,left,←,0.5259661999880336,False,36,0
157K25S2,999,experiment,80,→,right,→,0.40901810000650585,True,36,1
157K25S2,1000,experiment,56,↓,down,↓,0.5385078999970574,True,36,0
157K25S2,1001,experiment,81,↓,no_key,no_letter,-1.0,False,36,1
157K25S2,1002,experiment,95,→,right,→,0.47520310000982136,True,36,1
157K25S2,1003,experiment,57,←,left,←,0.4091693999944255,True,36,1
157K25S2,1004,experiment,58,←,left,←,0.5838809999986552,True,36,0
157K25S2,1005,experiment,73,→,no_key,no_letter,-1.0,False,36,1
157K25S2,1006,experiment,51,↑,down,↓,0.5519961999962106,False,36,1
157K25S2,1007,experiment,76,→,right,→,0.4963737000070978,True,36,1
157K25S2,1008,experiment,69,←,right,→,0.49299040000187233,False,36,1
157K25S2,1009,experiment,88,↓,down,↓,0.5797639999946114,True,36,1
157K25S2,1010,experiment,53,↓,down,↓,0.522788500005845,True,36,1
157K25S2,1011,experiment,60,↑,up,↑,0.5536258000065573,True,36,1
157K25S2,1012,experiment,86,↑,down,↓,0.47119770001154393,False,36,1
157K25S2,1013,experiment,94,↓,no_key,no_letter,-1.0,False,36,1
157K25S2,1014,experiment,68,←,no_key,no_letter,-1.0,False,36,1
157K25S2,1015,experiment,93,↓,down,↓,0.48829249999835156,True,36,1
157K25S2,1016,experiment,55,←,left,←,0.5618396000063512,True,36,1
157K25S2,1017,experiment,89,←,no_key,no_letter,-1.0,False,36,1
157K25S2,1018,experiment,48,↓,down,↓,0.7104811999888625,True,36,1
157K25S2,1019,experiment,50,←,left,←,0.4007525000197347,True,36,1
157K25S2,1020,experiment,99,←,left,←,0.3925018000009004,True,36,0
157K25S2,1021,experiment,59,↑,up,↑,0.4918432999984361,True,36,0
157K25S2,1022,experiment,61,→,right,→,0.41729849998955615,True,36,1
157K25S2,1023,experiment,96,←,left,←,0.6502114000031725,True,36,0
157K25S2,1024,experiment,98,←,right,→,0.6233247999916784,False,36,1
157K25S2,1025,experiment,66,↑,left,←,0.34242859997902997,False,36,1
157K25S2,1026,experiment,70,←,no_key,no_letter,-1.0,False,36,0
157K25S2,1027,experiment,105,↑,left,←,0.5122877999965567,False,36,1
157K25S2,1028,experiment,91,←,left,←,0.42569199998979457,True,36,1
157K25S2,1029,experiment,92,↑,left,←,0.41747190000023693,False,36,0
157K25S2,1030,experiment,79,↑,up,↑,0.49754479998955503,True,36,0
157K25S2,1031,experiment,77,←,left,←,0.5234391000121832,True,36,1
157K25S2,1032,experiment,84,→,right,→,0.32499249998363666,True,36,1
157K25S2,1033,experiment,103,←,left,←,0.39224080002168193,True,36,0
157K25S2,1034,experiment,64,←,left,←,0.3841823000111617,True,36,0
157K25S2,1035,experiment,65,↓,down,↓,0.647121000016341,True,36,0
157K25S2,1036,experiment,72,←,left,←,0.6371354000002611,True,36,1
157K25S2,1037,experiment,63,←,right,→,0.5182603999855928,False,36,1
157K25S2,1038,experiment,54,→,left,←,0.4798104999936186,False,36,1
157K25S2,1039,experiment,100,↑,up,↑,0.6185234000149649,True,36,1
157K25S2,1040,experiment,74,←,left,←,0.47372089998680167,True,36,1
157K25S2,1041,experiment,85,↑,up,↑,0.5852477000153158,True,36,1
157K25S2,1042,experiment,101,↓,down,↓,0.4338168000103906,True,36,1
157K25S2,1043,experiment,97,↓,down,↓,0.5577336999995168,True,36,0
157K25S2,1044,experiment,106,↓,left,←,0.37568610001471825,False,36,1
157K25S2,1045,experiment,102,↑,no_key,no_letter,-1.0,False,36,0
157K25S2,1046,experiment,104,↑,down,↓,0.5122023000149056,False,36,1
157K25S2,1047,experiment,107,↑,down,↓,0.48837279999861494,False,36,1
157K25S2,1048,experiment,52,→,right,→,0.7307151999848429,True,36,1
157K25S2,1049,training,72,↑,up,↑,0.5901841000013519,True,36,0
157K25S2,1050,training,89,↓,down,↓,0.4097936000034679,True,36,1
157K25S2,1051,experiment,67,↓,down,↓,0.568951900000684,True,36,0
157K25S2,1052,experiment,79,↑,up,↑,0.4957937999861315,True,36,1
157K25S2,1053,experiment,86,↓,down,↓,0.6467286999977659,True,36,1
157K25S2,1054,experiment,102,↑,up,↑,0.6663985000050161,True,36,1
157K25S2,1055,experiment,90,←,left,←,0.6414343999931589,True,36,1
157K25S2,1056,experiment,74,↓,down,↓,0.518763800006127,True,36,1
157K25S2,1057,experiment,80,→,right,→,0.5113593999994919,True,36,1
157K25S2,1058,experiment,72,↑,up,↑,0.6186430999950971,True,36,1
157K25S2,1059,experiment,95,↓,down,↓,0.5700381000060588,True,36,1
157K25S2,1060,experiment,104,↓,down,↓,0.504741999990074,True,36,1
157K25S2,1061,experiment,70,←,left,←,0.5644693000067491,True,36,1
157K25S2,1062,experiment,54,↑,up,↑,0.4916408999997657,True,36,1
157K25S2,1063,experiment,60,↓,down,↓,0.6596620000200346,True,36,1
157K25S2,1064,experiment,82,←,left,←,0.4861019999952987,True,36,1
157K25S2,1065,experiment,99,↓,down,↓,0.5206939000054263,True,36,1
157K25S2,1066,experiment,71,→,right,→,0.49227499999688007,True,36,1
157K25S2,1067,experiment,106,→,left,←,0.5009883999882732,False,36,1
157K25S2,1068,experiment,81,↓,down,↓,0.5336487999884412,True,36,1
157K25S2,1069,experiment,73,→,right,→,0.4801331000053324,True,36,1
157K25S2,1070,experiment,65,↓,no_key,no_letter,-1.0,False,36,1
157K25S2,1071,experiment,56,↑,up,↑,0.7809353000193369,True,36,1
157K25S2,1072,experiment,63,↑,up,↑,0.5926723000011407,True,36,1
157K25S2,1073,experiment,53,←,no_key,no_letter,-1.0,False,36,1
157K25S2,1074,experiment,78,←,no_key,no_letter,-1.0,False,36,1
157K25S2,1075,experiment,108,↑,up,↑,0.5942151000199374,True,36,1
157K25S2,1076,experiment,68,↓,no_key,no_letter,-1.0,False,36,1
157K25S2,1077,experiment,100,↑,no_key,no_letter,-1.0,False,36,1
157K25S2,1078,experiment,89,←,no_key,no_letter,-1.0,False,36,1
157K25S2,1079,experiment,69,→,right,→,0.4512529000057839,True,36,1
157K25S2,1080,experiment,84,←,left,←,0.5135173000162467,True,36,0
157K25S2,1081,experiment,51,↓,down,↓,0.4839934000046924,True,36,1
157K25S2,1082,experiment,98,←,left,←,0.5353674000070896,True,36,1
157K25S2,1083,experiment,92,↓,down,↓,0.5070529000076931,True,36,1
157K25S2,1084,experiment,105,↑,down,↓,0.5074783000163734,False,36,1
157K25S2,1085,experiment,88,→,right,→,0.5214884000015445,True,36,1
157K25S2,1086,experiment,61,↓,down,↓,0.5518322999996599,True,36,1
157K25S2,1087,experiment,48,↑,up,↑,0.450680400012061,True,36,1
157K25S2,1088,experiment,66,↑,up,↑,0.5053047999972478,True,36,0
157K25S2,1089,experiment,64,→,right,→,0.4008632999903057,True,36,1
157K25S2,1090,experiment,77,←,right,→,0.4853206000116188,False,36,0
157K25S2,1091,experiment,83,→,right,→,0.4257565000152681,True,36,1
157K25S2,1092,experiment,75,↑,right,→,0.5070443000004161,False,36,0
157K25S2,1093,experiment,107,↑,up,↑,0.6104857999889646,True,36,1
157K25S2,1094,experiment,93,←,left,←,0.49097230000188574,True,36,1
157K25S2,1095,experiment,103,↓,down,↓,0.6525836999935564,True,36,1
157K25S2,1096,experiment,97,↑,down,↓,0.5779501000070013,False,36,1
157K25S2,1097,experiment,59,←,left,←,0.5591084999905434,True,36,1
157K25S2,1098,experiment,50,↓,down,↓,0.5117221999971662,True,36,1
157K25S2,1099,experiment,96,↓,down,↓,0.5391524000151549,True,36,1
157K25S2,1100,experiment,101,↑,down,↓,0.47602679999545217,False,36,1
157K25S2,1101,experiment,52,→,no_key,no_letter,-1.0,False,36,1
157K25S2,1102,experiment,87,→,no_key,no_letter,-1.0,False,36,1
157K25S2,1103,experiment,62,→,right,→,0.9428916999895591,True,36,1
157K25S2,1104,experiment,91,↑,down,↓,0.5143831000023056,False,36,1
157K25S2,1105,experiment,58,←,left,←,0.4090705999988131,True,36,1
157K25S2,1106,experiment,55,↓,down,↓,0.5829694000130985,True,36,0
157K25S2,1107,experiment,49,↓,down,↓,0.5909457000088878,True,36,1
157K25S2,1108,experiment,57,→,right,→,0.434060400002636,True,36,1
157K25S2,1109,experiment,76,↓,down,↓,0.5448021999909543,True,36,0
157K25S2,1110,experiment,85,↑,down,↓,0.5266717000049539,False,36,1
157K25S2,1111,experiment,94,←,left,←,0.5459355999773834,True,36,1
157K25S2,1112,training,83,↓,down,↓,0.4904030000034254,True,36,0
157K25S2,1113,training,80,↓,down,↓,0.5555621999956202,True,36,1
157K25S2,1114,experiment,60,→,right,→,0.45069450000301003,True,36,1
157K25S2,1115,experiment,89,→,no_key,no_letter,-1.0,False,36,0
157K25S2,1116,experiment,65,↑,up,↑,0.5960102000099141,True,36,1
157K25S2,1117,experiment,75,←,left,←,0.6026354000205174,True,36,1
157K25S2,1118,experiment,103,←,left,←,0.4803183000185527,True,36,1
157K25S2,1119,experiment,91,←,right,→,0.5741679999919143,False,36,1
157K25S2,1120,experiment,57,↓,left,←,0.539998199994443,False,36,1
157K25S2,1121,experiment,80,↓,down,↓,0.547219900006894,True,36,1
157K25S2,1122,experiment,81,↓,down,↓,0.6019694999849889,True,36,1
157K25S2,1123,experiment,73,↑,up,↑,0.48173609998775646,True,36,1
157K25S2,1124,experiment,90,↑,up,↑,0.3847992999944836,True,36,1
157K25S2,1125,experiment,66,↑,up,↑,0.4427010999934282,True,36,0
157K25S2,1126,experiment,82,←,left,←,0.5239460000011604,True,36,0
157K25S2,1127,experiment,61,↑,no_key,no_letter,-1.0,False,36,1
157K25S2,1128,experiment,102,↓,up,↑,0.4973662000265904,False,36,1
157K25S2,1129,experiment,104,↑,down,↓,0.5141642999951728,False,36,1
157K25S2,1130,experiment,85,→,right,→,0.6409199000045191,True,36,1
157K25S2,1131,experiment,58,→,left,←,0.5956758999964222,False,36,1
157K25S2,1132,experiment,56,→,no_key,no_letter,-1.0,False,36,1
157K25S2,1133,experiment,54,↓,down,↓,0.7602268000191543,True,36,1
157K25S2,1134,experiment,107,↑,down,↓,0.48592330000246875,False,36,1
157K25S2,1135,experiment,83,↑,up,↑,0.5345658000151161,True,36,1
157K25S2,1136,experiment,77,←,left,←,0.4796691999945324,True,36,1
157K25S2,1137,experiment,71,↑,down,↓,0.5162619999900926,False,36,1
157K25S2,1138,experiment,62,→,right,→,0.40906900001573376,True,36,1
157K25S2,1139,experiment,96,←,left,←,0.6413738999981433,True,36,0
157K25S2,1140,experiment,100,↓,down,↓,0.38392490000114776,True,36,1
157K25S2,1141,experiment,93,→,left,←,0.5671780000266153,False,36,0
157K25S2,1142,experiment,52,→,right,→,0.49503759999061003,True,36,1
157K25S2,1143,experiment,70,↓,down,↓,0.7313577999884728,True,36,1
157K25S2,1144,experiment,97,→,left,←,0.47798519997741096,False,36,1
157K25S2,1145,experiment,48,↑,up,↑,0.5938321999856271,True,36,1
157K25S2,1146,experiment,50,↑,up,↑,0.6334537999937311,True,36,1
157K25S2,1147,experiment,87,→,no_key,no_letter,-1.0,False,36,1
157K25S2,1148,experiment,49,↑,left,←,0.5394583000161219,False,36,1
157K25S2,1149,experiment,101,↓,down,↓,0.5240257999976166,True,36,1
157K25S2,1150,experiment,105,→,right,→,0.42550030001439154,True,36,1
157K25S2,1151,experiment,63,↓,down,↓,0.8686249000020325,True,36,0
157K25S2,1152,experiment,72,↑,down,↓,0.8736963999981526,False,36,1
157K25S2,1153,experiment,84,←,no_key,no_letter,-1.0,False,36,1
157K25S2,1154,experiment,76,←,down,↓,0.545965299999807,False,36,1
157K25S2,1155,experiment,98,←,left,←,0.43405199999688193,True,36,1
157K25S2,1156,experiment,51,↑,up,↑,0.4885074999765493,True,36,0
157K25S2,1157,experiment,94,←,no_key,no_letter,-1.0,False,36,1
157K25S2,1158,experiment,67,↓,down,↓,0.6477677999937441,True,36,1
157K25S2,1159,experiment,68,↓,down,↓,0.5107993000128772,True,36,1
157K25S2,1160,experiment,86,←,left,←,0.5093784999917261,True,36,1
157K25S2,1161,experiment,92,→,right,→,0.47483849999844097,True,36,1
157K25S2,1162,experiment,69,↑,up,↑,0.6238973000145052,True,36,1
157K25S2,1163,experiment,59,↑,up,↑,0.4755476000136696,True,36,1
157K25S2,1164,experiment,108,↓,no_key,no_letter,-1.0,False,36,1
157K25S2,1165,experiment,95,↑,right,→,0.9486293000227306,False,36,1
157K25S2,1166,experiment,53,→,no_key,no_letter,-1.0,False,36,1
157K25S2,1167,experiment,99,↑,down,↓,0.5804174000222702,False,36,1
157K25S2,1168,experiment,74,↓,down,↓,0.49226130000897683,True,36,1
157K25S2,1169,experiment,106,↑,up,↑,0.49290310000651516,True,36,1
157K25S2,1170,experiment,79,←,right,→,0.5826437000068836,False,36,1
157K25S2,1171,experiment,55,↓,up,↑,0.6766604000004008,False,36,1
157K25S2,1172,experiment,64,↓,down,↓,0.48439430000144057,True,36,1
157K25S2,1173,experiment,78,↓,no_key,no_letter,-1.0,False,36,1
157K25S2,1174,experiment,88,↑,up,↑,0.4007893999805674,True,36,1
157K25S2,1175,training,73,→,right,→,0.45161889999872074,True,37,0
157K25S2,1176,training,56,→,left,←,0.5089734000212047,False,37,0
157K25S2,1177,experiment,71,←,left,←,0.6567235999973491,True,37,1
157K25S2,1178,experiment,58,↓,up,↑,0.5468160999880638,False,37,1
157K25S2,1179,experiment,73,←,left,←,0.4257696999993641,True,37,1
157K25S2,1180,experiment,77,↓,down,↓,0.6089770999969915,True,37,0
157K25S2,1181,experiment,106,→,right,→,0.5330546000041068,True,37,1
157K25S2,1182,experiment,101,→,right,→,0.5336940999841318,True,37,1
157K25S2,1183,experiment,82,↓,down,↓,0.6529532000131439,True,37,1
157K25S2,1184,experiment,98,→,right,→,0.5299635999836028,True,37,1
157K25S2,1185,experiment,95,→,no_key,no_letter,-1.0,False,37,1
157K25S2,1186,experiment,86,↓,down,↓,0.5288924000051338,True,37,1
157K25S2,1187,experiment,94,↑,up,↑,0.45897489998606034,True,37,1
157K25S2,1188,experiment,49,↓,down,↓,0.6968330000236165,True,37,0
157K25S2,1189,experiment,78,→,right,→,0.4340803000086453,True,37,1
157K25S2,1190,experiment,105,←,right,→,0.5095941000035964,False,37,0
157K25S2,1191,experiment,51,↓,down,↓,0.5360210000071675,True,37,1
157K25S2,1192,experiment,56,←,left,←,0.5197843000059947,True,37,1
157K25S2,1193,experiment,74,↑,no_key,no_letter,-1.0,False,37,1
157K25S2,1194,experiment,87,←,left,←,0.41737949999514967,True,37,1
157K25S2,1195,experiment,65,←,left,←,0.4166778000071645,True,37,0
157K25S2,1196,experiment,100,↓,no_key,no_letter,-1.0,False,37,0
157K25S2,1197,experiment,91,→,right,→,0.5343998000025749,True,37,1
157K25S2,1198,experiment,79,↓,down,↓,0.5904540999908932,True,37,1
157K25S2,1199,experiment,85,→,right,→,0.626155000005383,True,37,1
157K25S2,1200,experiment,62,←,left,←,0.45915220002643764,True,37,1
157K25S2,1201,experiment,103,→,right,→,0.3517219000204932,True,37,0
157K25S2,1202,experiment,84,↑,left,←,0.4083346000115853,False,37,0
157K25S2,1203,experiment,96,↓,down,↓,0.7152274000109173,True,37,0
157K25S2,1204,experiment,50,→,right,→,0.4780492999998387,True,37,1
157K25S2,1205,experiment,63,↑,up,↑,0.6529535999870859,True,37,1
157K25S2,1206,experiment,107,↑,up,↑,0.519303500012029,True,37,1
157K25S2,1207,experiment,54,→,right,→,0.5040936000004876,True,37,1
157K25S2,1208,experiment,52,←,left,←,0.45901530000264756,True,37,1
157K25S2,1209,experiment,60,↑,no_key,no_letter,-1.0,False,37,0
157K25S2,1210,experiment,99,←,left,←,0.49892240000190213,True,37,1
157K25S2,1211,experiment,90,↓,down,↓,0.5284162999887485,True,37,1
157K25S2,1212,experiment,72,↓,down,↓,0.6672295000171289,True,37,1
157K25S2,1213,experiment,64,←,left,←,0.40054880001116544,True,37,1
157K25S2,1214,experiment,68,↑,up,↑,0.49200979998568073,True,37,0
157K25S2,1215,experiment,88,↓,down,↓,0.5544909000163898,True,37,1
157K25S2,1216,experiment,83,↑,down,↓,0.5202611999993678,False,37,1
157K25S2,1217,experiment,67,→,right,→,0.4174273999815341,True,37,1
157K25S2,1218,experiment,69,→,left,←,0.5807845999952406,False,37,0
157K25S2,1219,experiment,89,↑,right,→,0.40090239999699406,False,37,1
157K25S2,1220,experiment,80,→,right,→,0.4091279999993276,True,37,0
157K25S2,1221,experiment,61,←,left,←,0.5112770000123419,True,37,0
157K25S2,1222,experiment,55,↓,down,↓,0.6320421000127681,True,37,1
157K25S2,1223,experiment,75,→,left,←,0.451048399991123,False,37,1
157K25S2,1224,experiment,48,↓,right,→,0.2852874999807682,False,37,0
157K25S2,1225,experiment,104,←,right,→,0.45071639999514446,False,37,0
157K25S2,1226,experiment,92,→,right,→,0.4515669999818783,True,37,0
157K25S2,1227,experiment,97,←,no_key,no_letter,-1.0,False,37,0
157K25S2,1228,experiment,93,→,no_key,no_letter,-1.0,False,37,1
157K25S2,1229,experiment,81,↑,down,↓,0.638124399993103,False,37,1
157K25S2,1230,experiment,70,↑,down,↓,0.4935422000125982,False,37,1
157K25S2,1231,experiment,66,↑,up,↑,0.4412298000243027,True,37,1
157K25S2,1232,experiment,108,↑,down,↓,0.48550070001510903,False,37,0
157K25S2,1233,experiment,57,↑,up,↑,0.5264137999911327,True,37,1
157K25S2,1234,experiment,53,←,left,←,0.5434748999832664,True,37,1
157K25S2,1235,experiment,102,→,right,→,0.4957055999839213,True,37,1
157K25S2,1236,experiment,76,↓,down,↓,0.5461391999851912,True,37,1
157K25S2,1237,experiment,59,↓,left,←,0.3930440000258386,False,37,1
157K25S2,1238,training,53,↑,up,↑,0.5073722999950405,True,37,0
157K25S2,1239,training,97,↓,down,↓,0.5025585999828763,True,37,1
157K25S2,1240,experiment,82,→,right,→,0.5993611000012606,True,37,1
157K25S2,1241,experiment,63,←,left,←,0.609374600026058,True,37,1
157K25S2,1242,experiment,100,↑,up,↑,0.45069350002449937,True,37,1
157K25S2,1243,experiment,80,←,left,←,0.38434580000466667,True,37,0
157K25S2,1244,experiment,61,←,left,←,0.7099173000024166,True,37,0
157K25S2,1245,experiment,73,←,left,←,0.3673623999929987,True,37,1
157K25S2,1246,experiment,54,↓,down,↓,0.5918129000056069,True,37,0
157K25S2,1247,experiment,72,→,right,→,0.5278240000188816,True,37,1
157K25S2,1248,experiment,64,↓,down,↓,0.5494239999970887,True,37,1
157K25S2,1249,experiment,85,→,left,←,0.3426204999850597,False,37,1
157K25S2,1250,experiment,75,←,left,←,0.5714374000090174,True,37,0
157K25S2,1251,experiment,94,↓,down,↓,0.4507343999866862,True,37,1
157K25S2,1252,experiment,105,↑,up,↑,0.47984690000885166,True,37,0
157K25S2,1253,experiment,104,↓,down,↓,0.4423594999825582,True,37,1
157K25S2,1254,experiment,95,←,left,←,0.6149967000237666,True,37,0
157K25S2,1255,experiment,68,←,left,←,0.49556829998618923,True,37,1
157K25S2,1256,experiment,52,↓,down,↓,0.4591327999951318,True,37,1
157K25S2,1257,experiment,74,↑,up,↑,0.49449869999079965,True,37,0
157K25S2,1258,experiment,76,←,no_key,no_letter,-1.0,False,37,1
157K25S2,1259,experiment,58,↑,no_key,no_letter,-1.0,False,37,1
157K25S2,1260,experiment,70,↑,up,↑,0.5430913000018336,True,37,1
157K25S2,1261,experiment,78,↓,down,↓,0.6150846999953501,True,37,1
157K25S2,1262,experiment,98,←,left,←,0.5414521999773569,True,37,1
157K25S2,1263,experiment,53,←,left,←,0.549974600027781,True,37,1
157K25S2,1264,experiment,56,↑,down,↓,0.5889936999883503,False,37,1
157K25S2,1265,experiment,102,→,left,←,0.5470165000006091,False,37,1
157K25S2,1266,experiment,92,←,no_key,no_letter,-1.0,False,37,1
157K25S2,1267,experiment,62,↓,down,↓,0.5382040000113193,True,37,1
157K25S2,1268,experiment,91,→,right,→,0.7016349000041373,True,37,1
157K25S2,1269,experiment,48,↓,no_key,no_letter,-1.0,False,37,1
157K25S2,1270,experiment,59,↓,down,↓,0.5743971999909263,True,37,1
157K25S2,1271,experiment,90,↓,no_key,no_letter,-1.0,False,37,1
157K25S2,1272,experiment,106,↑,up,↑,0.5180895999947097,True,37,1
157K25S2,1273,experiment,67,→,right,→,0.5228994000062812,True,37,1
157K25S2,1274,experiment,83,→,right,→,0.5539611999993213,True,37,1
157K25S2,1275,experiment,51,→,left,←,0.5226886000018567,False,37,1
157K25S2,1276,experiment,57,↑,up,↑,0.5065404000051785,True,37,1
157K25S2,1277,experiment,86,→,right,→,0.4445203999930527,True,37,1
157K25S2,1278,experiment,65,↓,left,←,0.4588786000094842,False,37,0
157K25S2,1279,experiment,84,↑,up,↑,0.4830237999849487,True,37,0
157K25S2,1280,experiment,66,↓,down,↓,0.5528101999952924,True,37,1
157K25S2,1281,experiment,77,↓,down,↓,0.5208321000100113,True,37,1
157K25S2,1282,experiment,79,↑,down,↓,0.5053401000041049,False,37,1
157K25S2,1283,experiment,93,↑,right,→,0.42569010000443086,False,37,1
157K25S2,1284,experiment,103,←,left,←,0.4269172000058461,True,37,0
157K25S2,1285,experiment,49,↓,down,↓,0.5274945000128355,True,37,0
157K25S2,1286,experiment,101,↑,up,↑,0.4098562999861315,True,37,1
157K25S2,1287,experiment,81,↓,down,↓,0.484969999990426,True,37,0
157K25S2,1288,experiment,108,↓,down,↓,0.44244240000261925,True,37,1
157K25S2,1289,experiment,99,←,down,↓,0.6013623999897391,False,37,0
157K25S2,1290,experiment,55,↑,no_key,no_letter,-1.0,False,37,1
157K25S2,1291,experiment,87,←,right,→,0.5944381000008434,False,37,1
157K25S2,1292,experiment,107,↓,down,↓,0.4590796999982558,True,37,1
157K25S2,1293,experiment,96,←,left,←,0.6757167000032496,True,37,0
157K25S2,1294,experiment,97,↓,down,↓,0.5521091999835335,True,37,1
157K25S2,1295,experiment,89,↑,down,↓,0.47669469998800196,False,37,1
157K25S2,1296,experiment,50,↑,down,↓,0.6880379000212997,False,37,0
157K25S2,1297,experiment,88,←,right,→,0.7746296999976039,False,37,1
157K25S2,1298,experiment,60,←,left,←,0.539539599994896,True,37,1
157K25S2,1299,experiment,69,←,left,←,0.45896950000314973,True,37,1
157K25S2,1300,experiment,71,←,left,←,0.392366200016113,True,37,0
157K25S2,1301,training,94,↓,down,↓,0.7462221000168938,True,37,0
157K25S2,1302,training,105,↓,down,↓,0.5932009000098333,True,37,1
157K25S2,1303,experiment,94,←,left,←,0.5699071999988519,True,37,1
157K25S2,1304,experiment,49,←,left,←,0.5305831999867223,True,37,1
157K25S2,1305,experiment,51,↓,down,↓,0.8281824000005145,True,37,1
157K25S2,1306,experiment,108,↑,up,↑,0.45927380002103746,True,37,1
157K25S2,1307,experiment,101,↑,up,↑,0.4006677999859676,True,37,0
157K25S2,1308,experiment,95,↓,down,↓,0.529821100004483,True,37,0
157K25S2,1309,experiment,63,↑,up,↑,0.4424035999982152,True,37,1
157K25S2,1310,experiment,97,←,left,←,0.4173651000019163,True,37,0
157K25S2,1311,experiment,92,↓,down,↓,0.5486793000018224,True,37,0
157K25S2,1312,experiment,91,↑,up,↑,0.4802662000001874,True,37,1
157K25S2,1313,experiment,85,←,right,→,0.4887008999940008,False,37,0
157K25S2,1314,experiment,59,↓,down,↓,0.5288518000161275,True,37,1
157K25S2,1315,experiment,100,↑,up,↑,0.45076739997603,True,37,1
157K25S2,1316,experiment,93,↓,down,↓,0.5923841999901924,True,37,0
157K25S2,1317,experiment,71,→,left,←,0.4815247999795247,False,37,1
157K25S2,1318,experiment,104,↓,down,↓,0.5944926000083797,True,37,1
157K25S2,1319,experiment,82,↓,down,↓,0.44215020001865923,True,37,1
157K25S2,1320,experiment,50,↓,down,↓,0.5084200999990571,True,37,0
157K25S2,1321,experiment,54,↑,up,↑,0.4783990999858361,True,37,1
157K25S2,1322,experiment,80,→,right,→,0.4009039000084158,True,37,0
157K25S2,1323,experiment,57,↓,down,↓,0.5159588000096846,True,37,0
157K25S2,1324,experiment,48,↑,down,↓,0.6472871000005398,False,37,1
157K25S2,1325,experiment,90,↓,down,↓,0.5187735000217799,True,37,1
157K25S2,1326,experiment,103,→,right,→,0.36820610001450405,True,37,1
157K25S2,1327,experiment,83,←,right,→,0.3593504000164103,False,37,0
157K25S2,1328,experiment,107,↑,no_key,no_letter,-1.0,False,37,0
157K25S2,1329,experiment,73,→,right,→,0.5300354000064544,True,37,1
157K25S2,1330,experiment,56,↓,down,↓,0.4976384999754373,True,37,1
157K25S2,1331,experiment,106,←,left,←,0.6019555999955628,True,37,1
157K25S2,1332,experiment,88,→,right,→,0.4849056999955792,True,37,1
157K25S2,1333,experiment,61,→,left,←,0.5005075999943074,False,37,1
157K25S2,1334,experiment,66,↓,down,↓,0.5062705999880563,True,37,1
157K25S2,1335,experiment,76,→,right,→,0.42548200002056547,True,37,1
157K25S2,1336,experiment,60,↓,down,↓,0.574691999994684,True,37,0
157K25S2,1337,experiment,68,→,no_key,no_letter,-1.0,False,37,1
157K25S2,1338,experiment,52,←,left,←,0.5680391000059899,True,37,1
157K25S2,1339,experiment,87,↑,down,↓,0.44213770001078956,False,37,1
157K25S2,1340,experiment,79,↓,down,↓,0.459092499979306,True,37,0
157K25S2,1341,experiment,53,→,left,←,0.5308706999931019,False,37,0
157K25S2,1342,experiment,77,↑,up,↑,0.4590629000158515,True,37,1
157K25S2,1343,experiment,81,←,left,←,0.4507828000059817,True,37,0
157K25S2,1344,experiment,55,→,right,→,0.5289635000226554,True,37,0
157K25S2,1345,experiment,84,↑,no_key,no_letter,-1.0,False,37,1
157K25S2,1346,experiment,74,←,left,←,0.5514393000048585,True,37,1
157K25S2,1347,experiment,58,↓,down,↓,0.5578611000091769,True,37,1
157K25S2,1348,experiment,105,↓,down,↓,0.5003913999826182,True,37,1
157K25S2,1349,experiment,69,→,left,←,0.7849875000247266,False,37,1
157K25S2,1350,experiment,102,↓,down,↓,0.6233849999844097,True,37,1
157K25S2,1351,experiment,78,←,left,←,0.4766885999997612,True,37,1
157K25S2,1352,experiment,65,↓,down,↓,0.5388160000147764,True,37,0
157K25S2,1353,experiment,72,←,left,←,0.38401989999692887,True,37,1
157K25S2,1354,experiment,89,↓,no_key,no_letter,-1.0,False,37,0
157K25S2,1355,experiment,75,↑,down,↓,1.0228608000034,False,37,1
157K25S2,1356,experiment,98,↓,down,↓,0.5247037000081036,True,37,1
157K25S2,1357,experiment,96,↑,down,↓,0.5434671999828424,False,37,1
157K25S2,1358,experiment,99,↓,down,↓,0.4810308000014629,True,37,1
157K25S2,1359,experiment,86,←,left,←,0.5602765999792609,True,37,1
157K25S2,1360,experiment,62,↓,down,↓,0.45075570000335574,True,37,1
157K25S2,1361,experiment,70,↓,down,↓,0.4423704000073485,True,37,0
157K25S2,1362,experiment,67,←,down,↓,0.5066445000120439,False,37,0
157K25S2,1363,experiment,64,↓,down,↓,0.5206372000102419,True,37,1
