PART_ID,Trial_no,Trial_type,CSI,Stim_letter,Key_pressed,letter_choose,Rt,Corr,Stimulus Time,nDropped
158K23S4,1,training,120,→,no_key,no_letter,-1.0,False,60,2
158K23S4,2,training,120,↑,no_key,no_letter,-1.0,False,60,0
158K23S4,3,training,120,→,no_key,no_letter,-1.0,False,60,0
158K23S4,4,training,120,↑,no_key,no_letter,-1.0,False,60,0
158K23S4,5,training,120,↑,no_key,no_letter,-1.0,False,60,0
158K23S4,6,training,120,↓,no_key,no_letter,-1.0,False,60,0
158K23S4,7,training,120,↑,no_key,no_letter,-1.0,False,60,0
158K23S4,8,training,120,→,no_key,no_letter,-1.0,False,60,0
158K23S4,9,training,120,↑,no_key,no_letter,-1.0,False,60,0
158K23S4,10,training,120,←,left,←,0.6176070999354124,True,60,0
158K23S4,11,training,120,↓,down,↓,0.6506865997798741,True,60,0
158K23S4,12,training,120,→,right,→,0.35988370003178716,True,60,0
158K23S4,13,training,120,→,right,→,0.4011158999055624,True,60,0
158K23S4,14,training,120,↑,up,↑,0.6172734000720084,True,60,0
158K23S4,15,training,120,→,right,→,0.5259050996974111,True,60,0
158K23S4,16,training,120,↑,up,↑,0.4345317999832332,True,60,0
158K23S4,17,training,120,←,left,←,0.786739899776876,True,60,0
158K23S4,18,training,120,→,no_key,no_letter,-1.0,False,60,0
158K23S4,19,training,120,←,left,←,0.6090358002111316,True,60,0
158K23S4,20,training,120,←,left,←,0.4017890999093652,True,60,0
158K23S4,21,no_adaptation,120,→,right,→,0.7300350996665657,True,36,0
158K23S4,22,no_adaptation,120,↑,up,↑,1.4996424997225404,True,36,0
158K23S4,23,no_adaptation,120,↓,down,↓,0.5744563001208007,True,36,0
158K23S4,24,no_adaptation,120,→,right,→,0.6310046999715269,True,36,0
158K23S4,25,no_adaptation,120,→,right,→,0.47729470022022724,True,36,0
158K23S4,26,no_adaptation,120,→,right,→,0.48066450003534555,True,36,0
158K23S4,27,no_adaptation,120,←,left,←,0.4998595002107322,True,36,0
158K23S4,28,no_adaptation,120,↓,down,↓,0.5271107000298798,True,36,0
158K23S4,29,no_adaptation,120,→,right,→,0.5052657001651824,True,36,0
158K23S4,30,no_adaptation,120,↓,down,↓,1.0278474004007876,True,36,0
158K23S4,31,no_adaptation,120,↓,down,↓,0.40054669976234436,True,36,0
158K23S4,32,no_adaptation,120,↓,down,↓,0.3756792997010052,True,36,0
158K23S4,33,no_adaptation,120,↓,up,↑,0.6957031995989382,False,36,0
158K23S4,34,no_adaptation,120,→,right,→,0.6989818997681141,True,36,0
158K23S4,35,no_adaptation,120,↑,up,↑,0.7420700001530349,True,36,0
158K23S4,36,no_adaptation,120,↑,up,↑,0.5192746999673545,True,36,0
158K23S4,37,no_adaptation,120,←,left,←,0.5777333001606166,True,36,0
158K23S4,38,no_adaptation,120,↑,down,↓,0.7694120998494327,False,36,0
158K23S4,39,no_adaptation,120,↑,up,↑,0.7454250999726355,True,36,0
158K23S4,40,no_adaptation,120,↑,down,↓,1.106676199939102,False,36,0
158K23S4,41,training,98,→,right,→,0.4703033999539912,True,36,0
158K23S4,42,training,76,↑,up,↑,0.7049798998050392,True,36,1
158K23S4,43,experiment,90,→,right,→,0.47819900000467896,True,36,1
158K23S4,44,experiment,49,↓,down,↓,0.6429178998805583,True,36,1
158K23S4,45,experiment,67,↓,down,↓,0.6265215999446809,True,36,1
158K23S4,46,experiment,91,←,left,←,0.4257128997705877,True,36,1
158K23S4,47,experiment,97,←,left,←,0.40138870012015104,True,36,0
158K23S4,48,experiment,88,→,right,→,0.4910148000344634,True,36,0
158K23S4,49,experiment,95,↓,down,↓,0.6950964001007378,True,36,1
158K23S4,50,experiment,74,↑,up,↑,0.6344273998402059,True,36,1
158K23S4,51,experiment,102,←,left,←,0.3926548999734223,True,36,1
158K23S4,52,experiment,108,←,left,←,0.4744313000701368,True,36,0
158K23S4,53,experiment,89,←,left,←,0.482022600248456,True,36,0
158K23S4,54,experiment,57,←,left,←,0.5469155996106565,True,36,1
158K23S4,55,experiment,76,↓,down,↓,0.5073937000706792,True,36,1
158K23S4,56,experiment,52,←,left,←,0.5096811996772885,True,36,1
158K23S4,57,experiment,93,↑,up,↑,0.5379622001200914,True,36,1
158K23S4,58,experiment,48,↓,down,↓,0.5719465999864042,True,36,1
158K23S4,59,experiment,107,↑,up,↑,0.7530066003091633,True,36,1
158K23S4,60,experiment,101,→,right,→,0.4736938001587987,True,36,1
158K23S4,61,experiment,68,↓,down,↓,0.6710691000334918,True,36,1
158K23S4,62,experiment,106,↑,up,↑,0.401303400285542,True,36,1
158K23S4,63,experiment,96,→,right,→,0.5431675002910197,True,36,0
158K23S4,64,experiment,85,→,right,→,0.6370379999279976,True,36,1
158K23S4,65,experiment,77,↓,down,↓,0.6019415999762714,True,36,1
158K23S4,66,experiment,63,↑,up,↑,1.348584400024265,True,36,1
158K23S4,67,experiment,56,↓,down,↓,0.6036344999447465,True,36,1
158K23S4,68,experiment,73,↓,down,↓,0.6348771997727454,True,36,1
158K23S4,69,experiment,104,←,left,←,0.3834379999898374,True,36,1
158K23S4,70,experiment,79,↓,down,↓,0.508563700132072,True,36,0
158K23S4,71,experiment,64,→,right,→,0.49855220038443804,True,36,1
158K23S4,72,experiment,92,↑,up,↑,0.583330700173974,True,36,1
158K23S4,73,experiment,62,↑,up,↑,0.40904169995337725,True,36,1
158K23S4,74,experiment,100,↓,down,↓,0.48896680027246475,True,36,0
158K23S4,75,experiment,54,→,right,→,0.4911271999590099,True,36,1
158K23S4,76,experiment,99,→,right,→,0.4422492999583483,True,36,1
158K23S4,77,experiment,60,↓,down,↓,0.5516026997938752,True,36,0
158K23S4,78,experiment,78,→,right,→,0.5756259001791477,True,36,1
158K23S4,79,experiment,66,↑,up,↑,0.6824191999621689,True,36,1
158K23S4,80,experiment,82,↑,up,↑,0.36711289966478944,True,36,1
158K23S4,81,experiment,75,↑,up,↑,0.4258972001262009,True,36,0
158K23S4,82,experiment,84,→,right,→,0.6453801998868585,True,36,0
158K23S4,83,experiment,55,←,left,←,0.6008772002533078,True,36,1
158K23S4,84,experiment,103,←,left,←,0.5023479997180402,True,36,1
158K23S4,85,experiment,81,←,left,←,0.4509390997700393,True,36,1
158K23S4,86,experiment,53,→,right,→,0.5950107998214662,True,36,0
158K23S4,87,experiment,72,→,right,→,1.6348299998790026,True,36,1
158K23S4,88,experiment,87,↑,up,↑,1.2519771000370383,True,36,1
158K23S4,89,experiment,105,→,right,→,0.5666991998441517,True,36,1
158K23S4,90,experiment,83,↓,down,↓,0.7319283001124859,True,36,1
158K23S4,91,experiment,80,↓,down,↓,0.6437638001516461,True,36,1
158K23S4,92,experiment,69,↓,down,↓,0.650948999915272,True,36,1
158K23S4,93,experiment,71,↑,up,↑,0.4735416998155415,True,36,1
158K23S4,94,experiment,50,↓,down,↓,0.5016095000319183,True,36,1
158K23S4,95,experiment,86,→,right,→,0.5963662001304328,True,36,1
158K23S4,96,experiment,94,↑,up,↑,0.4333859998732805,True,36,1
158K23S4,97,experiment,98,→,right,→,0.45007750019431114,True,36,0
158K23S4,98,experiment,70,↑,up,↑,0.5917571997269988,True,36,0
158K23S4,99,experiment,59,↑,up,↑,0.508188399951905,True,36,1
158K23S4,100,experiment,61,↓,down,↓,0.5393546000123024,True,36,1
158K23S4,101,experiment,51,↓,down,↓,0.5804230999201536,True,36,1
158K23S4,102,experiment,65,↓,down,↓,0.47205600002780557,True,36,1
158K23S4,103,experiment,58,→,right,→,0.49633049964904785,True,36,1
158K23S4,104,training,83,←,left,←,0.5320418998599052,True,35,0
158K23S4,105,training,82,↑,up,↑,0.49904159968718886,True,35,1
158K23S4,106,experiment,78,→,right,→,0.46140029979869723,True,35,1
158K23S4,107,experiment,75,→,right,→,0.48143670009449124,True,35,0
158K23S4,108,experiment,107,↑,up,↑,0.37485120026394725,True,35,1
158K23S4,109,experiment,83,↓,down,↓,0.5985810998827219,True,35,0
158K23S4,110,experiment,99,→,right,→,1.0611149999313056,True,35,1
158K23S4,111,experiment,73,←,left,←,1.0980584998615086,True,35,1
158K23S4,112,experiment,67,↓,down,↓,0.6235038000158966,True,35,1
158K23S4,113,experiment,96,←,left,←,0.40924050007015467,True,35,1
158K23S4,114,experiment,104,↑,up,↑,0.46652140002697706,True,35,0
158K23S4,115,experiment,91,←,left,←,0.5375724998302758,True,35,0
158K23S4,116,experiment,94,↓,down,↓,0.9079931997694075,True,35,1
158K23S4,117,experiment,51,↑,up,↑,0.4423742997460067,True,35,1
158K23S4,118,experiment,92,→,right,→,0.5815685000270605,True,35,0
158K23S4,119,experiment,66,←,left,←,0.5599425002001226,True,35,1
158K23S4,120,experiment,98,←,left,←,0.5845027999021113,True,35,1
158K23S4,121,experiment,52,←,left,←,0.5918387002311647,True,35,1
158K23S4,122,experiment,95,←,left,←,0.37598760006949306,True,35,1
158K23S4,123,experiment,84,→,right,→,0.5243386002257466,True,35,0
158K23S4,124,experiment,97,→,right,→,0.5594231002032757,True,35,1
158K23S4,125,experiment,103,↑,up,↑,1.2060997001826763,True,35,1
158K23S4,126,experiment,59,↑,up,↑,0.5214283997192979,True,35,1
158K23S4,127,experiment,74,↑,up,↑,0.5878057000227273,True,35,1
158K23S4,128,experiment,105,↓,down,↓,0.6489792997017503,True,35,1
158K23S4,129,experiment,64,←,left,←,0.673857799731195,True,35,1
158K23S4,130,experiment,68,↓,down,↓,0.6477760002017021,True,35,1
158K23S4,131,experiment,88,↓,down,↓,0.6398358000442386,True,35,1
158K23S4,132,experiment,69,↑,up,↑,0.6071109999902546,True,35,1
158K23S4,133,experiment,56,←,left,←,0.5956184999085963,True,35,1
158K23S4,134,experiment,60,↓,down,↓,0.6073066997341812,True,35,1
158K23S4,135,experiment,93,↑,up,↑,0.7037523998878896,True,35,1
158K23S4,136,experiment,63,↑,up,↑,0.5264101000502706,True,35,1
158K23S4,137,experiment,100,→,right,→,0.5759240998886526,True,35,1
158K23S4,138,experiment,49,↓,down,↓,0.4882034999318421,True,35,1
158K23S4,139,experiment,50,←,left,←,0.5476230997592211,True,35,1
158K23S4,140,experiment,79,↓,down,↓,0.53092489996925,True,35,1
158K23S4,141,experiment,106,←,left,←,0.466824300121516,True,35,1
158K23S4,142,experiment,90,→,right,→,0.38424749998375773,True,35,1
158K23S4,143,experiment,54,→,right,→,0.47170539991930127,True,35,0
158K23S4,144,experiment,80,↓,down,↓,0.5209643999114633,True,35,1
158K23S4,145,experiment,81,↑,up,↑,0.6246568001806736,True,35,1
158K23S4,146,experiment,72,→,right,→,0.5676577999256551,True,35,1
158K23S4,147,experiment,89,←,left,←,0.40934009989723563,True,35,1
158K23S4,148,experiment,48,→,right,→,0.47464369982481003,True,35,1
158K23S4,149,experiment,87,→,right,→,0.3833814999088645,True,35,1
158K23S4,150,experiment,62,→,right,→,0.47761809965595603,True,35,0
158K23S4,151,experiment,102,↑,up,↑,0.671887599863112,True,35,1
158K23S4,152,experiment,76,↓,down,↓,0.5068727997131646,True,35,1
158K23S4,153,experiment,85,→,right,→,0.4173594997264445,True,35,1
158K23S4,154,experiment,82,↑,up,↑,0.5575256999582052,True,35,0
158K23S4,155,experiment,70,←,left,←,0.5436797002330422,True,35,1
158K23S4,156,experiment,65,←,left,←,1.2278519999235868,True,35,1
158K23S4,157,experiment,55,↑,up,↑,0.4337772000581026,True,35,1
158K23S4,158,experiment,101,←,left,←,0.5885548000223935,True,35,1
158K23S4,159,experiment,53,↑,up,↑,0.5309840999543667,True,35,1
158K23S4,160,experiment,61,↓,down,↓,0.7450886000879109,True,35,1
158K23S4,161,experiment,77,↓,down,↓,0.6014363998547196,True,35,1
158K23S4,162,experiment,86,↑,up,↑,0.6284940997138619,True,35,1
158K23S4,163,experiment,108,→,right,→,0.44271570025011897,True,35,1
158K23S4,164,experiment,71,→,right,→,0.39275339990854263,True,35,0
158K23S4,165,experiment,57,↓,down,↓,0.60997169977054,True,35,0
158K23S4,166,experiment,58,←,left,←,0.5421115001663566,True,35,1
158K23S4,167,training,58,←,left,←,1.0440508997999132,True,34,0
158K23S4,168,training,64,↑,up,↑,0.48484009969979525,True,34,1
158K23S4,169,experiment,99,←,left,←,0.4961461997590959,True,34,1
158K23S4,170,experiment,68,←,left,←,0.4084398001432419,True,34,1
158K23S4,171,experiment,66,←,left,←,0.3923097001388669,True,34,0
158K23S4,172,experiment,98,↓,down,↓,0.5896418998017907,True,34,0
158K23S4,173,experiment,92,↓,down,↓,0.5190722001716495,True,34,1
158K23S4,174,experiment,65,←,left,←,0.5247490000911057,True,34,1
158K23S4,175,experiment,59,→,right,→,0.6035063001327217,True,34,1
158K23S4,176,experiment,69,↓,down,↓,0.532800099812448,True,34,1
158K23S4,177,experiment,75,↑,up,↑,0.6459348001517355,True,34,1
158K23S4,178,experiment,62,↑,up,↑,0.5431654998101294,True,34,1
158K23S4,179,experiment,94,↓,down,↓,0.6341296997852623,True,34,1
158K23S4,180,experiment,72,←,left,←,1.3763818996958435,True,34,1
158K23S4,181,experiment,63,←,left,←,0.643802999984473,True,34,1
158K23S4,182,experiment,60,←,left,←,0.48592269979417324,True,34,1
158K23S4,183,experiment,61,↑,up,↑,0.6381566999480128,True,34,1
158K23S4,184,experiment,90,↑,up,↑,0.42554329987615347,True,34,1
158K23S4,185,experiment,73,→,right,→,0.6447746003977954,True,34,0
158K23S4,186,experiment,108,↑,up,↑,0.6144828000105917,True,34,1
158K23S4,187,experiment,103,←,left,←,0.46720039984211326,True,34,1
158K23S4,188,experiment,82,←,left,←,0.3756095003336668,True,34,1
158K23S4,189,experiment,89,→,right,→,0.3841041000559926,True,34,0
158K23S4,190,experiment,102,↓,down,↓,0.6459766998887062,True,34,0
158K23S4,191,experiment,52,↑,up,↑,0.46669840021058917,True,34,1
158K23S4,192,experiment,107,↑,up,↑,0.40901839965954423,True,34,1
158K23S4,193,experiment,87,←,left,←,0.3838174999691546,True,34,1
158K23S4,194,experiment,95,↓,down,↓,0.6300770998932421,True,34,0
158K23S4,195,experiment,104,↓,down,↓,1.2500227000564337,True,34,1
158K23S4,196,experiment,70,→,right,→,0.5442673000507057,True,34,1
158K23S4,197,experiment,83,←,left,←,1.1664650002494454,True,34,1
158K23S4,198,experiment,55,→,right,→,0.6050794003531337,True,34,1
158K23S4,199,experiment,100,→,right,→,0.4678659001365304,True,34,1
158K23S4,200,experiment,80,→,right,→,0.47003949992358685,True,34,1
158K23S4,201,experiment,91,→,right,→,0.5008801999501884,True,34,1
158K23S4,202,experiment,88,←,left,←,0.38401219993829727,True,34,1
158K23S4,203,experiment,57,←,left,←,0.5361164999194443,True,34,0
158K23S4,204,experiment,71,↓,down,↓,0.5390449999831617,True,34,1
158K23S4,205,experiment,78,→,right,→,0.8029042999260128,True,34,1
158K23S4,206,experiment,77,←,left,←,0.6009081001393497,True,34,1
158K23S4,207,experiment,101,↑,up,↑,0.5509906001389027,True,34,1
158K23S4,208,experiment,48,→,right,→,0.5366879999637604,True,34,1
158K23S4,209,experiment,50,→,right,→,0.5465335003100336,True,34,1
158K23S4,210,experiment,54,↑,up,↑,0.48227869998663664,True,34,1
158K23S4,211,experiment,49,↑,up,↑,0.54239819990471,True,34,1
158K23S4,212,experiment,67,↓,down,↓,0.5783124999143183,True,34,1
158K23S4,213,experiment,81,↓,down,↓,1.2559223002754152,True,34,1
158K23S4,214,experiment,76,←,left,←,0.6598767000250518,True,34,1
158K23S4,215,experiment,84,←,left,←,0.5651819999329746,True,34,1
158K23S4,216,experiment,74,←,left,←,0.5895923003554344,True,34,1
158K23S4,217,experiment,51,←,left,←,0.4177574999630451,True,34,1
158K23S4,218,experiment,105,←,left,←,0.46502080000936985,True,34,0
158K23S4,219,experiment,93,↑,up,↑,0.5429873000830412,True,34,1
158K23S4,220,experiment,56,↑,up,↑,0.48598380014300346,True,34,1
158K23S4,221,experiment,86,→,right,→,0.5658112000674009,True,34,1
158K23S4,222,experiment,79,←,left,←,0.4249983998015523,True,34,1
158K23S4,223,experiment,106,↓,down,↓,0.6155443000607193,True,34,0
158K23S4,224,experiment,64,→,right,→,0.4580956003628671,True,34,1
158K23S4,225,experiment,85,↓,down,↓,0.6423027999699116,True,34,1
158K23S4,226,experiment,53,→,right,→,0.46304310020059347,True,34,1
158K23S4,227,experiment,97,←,left,←,0.4252240997739136,True,34,1
158K23S4,228,experiment,58,↑,up,↑,0.5422378000803292,True,34,0
158K23S4,229,experiment,96,↑,up,↑,0.4337710998952389,True,34,1
158K23S4,230,training,88,↓,down,↓,0.5159744997508824,True,33,0
158K23S4,231,training,66,↓,down,↓,0.37579389987513423,True,33,1
158K23S4,232,experiment,90,→,right,→,0.47557949973270297,True,33,0
158K23S4,233,experiment,92,↑,up,↑,0.561398099642247,True,33,1
158K23S4,234,experiment,71,↑,up,↑,0.5071017001755536,True,33,1
158K23S4,235,experiment,102,←,left,←,0.36697989981621504,True,33,1
158K23S4,236,experiment,61,↑,up,↑,0.40171079989522696,True,33,0
158K23S4,237,experiment,80,→,right,→,0.5890965997241437,True,33,0
158K23S4,238,experiment,79,↓,down,↓,1.0271946997381747,True,33,1
158K23S4,239,experiment,76,↑,up,↑,0.5523986998014152,True,33,1
158K23S4,240,experiment,74,→,right,→,0.4891951000317931,True,33,1
158K23S4,241,experiment,62,→,right,→,0.9608760001137853,True,33,1
158K23S4,242,experiment,51,↓,down,↓,0.6173416003584862,True,33,1
158K23S4,243,experiment,87,→,right,→,0.4991481998004019,True,33,1
158K23S4,244,experiment,99,↓,down,↓,0.5738877998664975,True,33,1
158K23S4,245,experiment,88,←,left,←,0.521116899792105,True,33,1
158K23S4,246,experiment,77,↓,down,↓,0.554265100043267,True,33,1
158K23S4,247,experiment,107,←,left,←,0.5441601001657546,True,33,1
158K23S4,248,experiment,68,↑,up,↑,0.5794035000726581,True,33,1
158K23S4,249,experiment,98,↑,up,↑,0.5315096997655928,True,33,1
158K23S4,250,experiment,49,↓,down,↓,0.6696338998153806,True,33,1
158K23S4,251,experiment,91,→,right,→,0.5562628000043333,True,33,1
158K23S4,252,experiment,69,↑,up,↑,0.5910984999500215,True,33,1
158K23S4,253,experiment,56,←,left,←,0.644395099952817,True,33,1
158K23S4,254,experiment,94,→,right,→,0.49871940026059747,True,33,1
158K23S4,255,experiment,93,↓,down,↓,0.5595060996711254,True,33,1
158K23S4,256,experiment,75,→,right,→,0.5438739000819623,True,33,1
158K23S4,257,experiment,65,↓,down,↓,0.5725806998088956,True,33,1
158K23S4,258,experiment,55,↑,up,↑,0.5227153999730945,True,33,1
158K23S4,259,experiment,106,↑,up,↑,0.5788746997714043,True,33,1
158K23S4,260,experiment,95,→,right,→,0.5151029997505248,True,33,1
158K23S4,261,experiment,50,↓,down,↓,0.64564110012725,True,33,1
158K23S4,262,experiment,78,→,right,→,0.5452808998525143,True,33,1
158K23S4,263,experiment,104,↓,down,↓,0.5610791998915374,True,33,1
158K23S4,264,experiment,101,↓,down,↓,0.6083749001845717,True,33,1
158K23S4,265,experiment,85,↓,down,↓,1.1877754000015557,True,33,1
158K23S4,266,experiment,60,↑,up,↑,0.6795291998423636,True,33,1
158K23S4,267,experiment,83,↓,down,↓,0.5521658998914063,True,33,1
158K23S4,268,experiment,66,↑,up,↑,0.5799618000164628,True,33,1
158K23S4,269,experiment,64,←,left,←,1.0390249001793563,True,33,1
158K23S4,270,experiment,103,←,left,←,0.4005191996693611,True,33,1
158K23S4,271,experiment,96,→,right,→,0.442716300021857,True,33,0
158K23S4,272,experiment,54,↓,down,↓,0.6141408002004027,True,33,0
158K23S4,273,experiment,82,←,left,←,0.4735151999630034,True,33,1
158K23S4,274,experiment,86,↓,down,↓,0.6014787997119129,True,33,1
158K23S4,275,experiment,70,←,left,←,0.5138968001119792,True,33,1
158K23S4,276,experiment,73,←,left,←,1.0688455002382398,True,33,1
158K23S4,277,experiment,52,↑,up,↑,0.41718210000544786,True,33,1
158K23S4,278,experiment,108,→,right,→,0.3837503003887832,True,33,0
158K23S4,279,experiment,72,↑,up,↑,0.6593226999975741,True,33,0
158K23S4,280,experiment,58,→,right,→,1.0292422999627888,True,33,1
158K23S4,281,experiment,63,←,left,←,0.5428293002769351,True,33,1
158K23S4,282,experiment,57,→,right,→,0.5659533003345132,True,33,1
158K23S4,283,experiment,89,↑,up,↑,0.4811420999467373,True,33,1
158K23S4,284,experiment,48,↑,up,↑,0.4090153002180159,True,33,1
158K23S4,285,experiment,67,←,left,←,0.4172828998416662,True,33,0
158K23S4,286,experiment,105,→,right,→,0.4819720000959933,True,33,0
158K23S4,287,experiment,97,→,right,→,0.6381673002615571,True,33,1
158K23S4,288,experiment,81,↓,down,↓,0.6570667997002602,True,33,1
158K23S4,289,experiment,59,←,left,←,0.42610220005735755,True,33,1
158K23S4,290,experiment,84,↓,down,↓,0.5414489000104368,True,33,1
158K23S4,291,experiment,53,←,left,←,0.46194780012592673,True,33,1
158K23S4,292,experiment,100,↓,down,↓,0.5534071000292897,True,33,1
158K23S4,293,training,105,→,right,→,0.46655769972130656,True,32,0
158K23S4,294,training,87,↓,down,↓,0.6104321996681392,True,32,1
158K23S4,295,experiment,67,←,left,←,0.41775349993258715,True,32,1
158K23S4,296,experiment,92,←,left,←,0.515422800090164,True,32,0
158K23S4,297,experiment,55,←,left,←,0.3760506003163755,True,32,1
158K23S4,298,experiment,105,←,left,←,0.41626219963654876,True,32,0
158K23S4,299,experiment,90,←,left,←,0.3757012998685241,True,32,0
158K23S4,300,experiment,84,←,left,←,0.4629103997722268,True,32,0
158K23S4,301,experiment,63,←,left,←,0.40085359988734126,True,32,1
158K23S4,302,experiment,79,↓,down,↓,0.6603080001659691,True,32,1
158K23S4,303,experiment,83,→,right,→,0.542134300339967,True,32,1
158K23S4,304,experiment,54,→,right,→,0.41760729998350143,True,32,1
158K23S4,305,experiment,56,↓,down,↓,0.514372400008142,True,32,0
158K23S4,306,experiment,78,→,right,→,0.49926509987562895,True,32,1
158K23S4,307,experiment,104,←,left,←,0.5563929001800716,True,32,1
158K23S4,308,experiment,70,←,left,←,0.518454700242728,True,32,1
158K23S4,309,experiment,73,↑,up,↑,0.5691740000620484,True,32,1
158K23S4,310,experiment,68,←,left,←,1.1716684997081757,True,32,1
158K23S4,311,experiment,53,←,left,←,0.4000293998979032,True,32,1
158K23S4,312,experiment,57,→,right,→,0.3922581998631358,True,32,0
158K23S4,313,experiment,71,←,left,←,0.6155437999404967,True,32,0
158K23S4,314,experiment,107,↑,up,↑,0.47476960020139813,True,32,1
158K23S4,315,experiment,69,↓,down,↓,0.5848338999785483,True,32,1
158K23S4,316,experiment,106,←,left,←,0.41699689999222755,True,32,1
158K23S4,317,experiment,88,→,right,→,0.5750005003064871,True,32,0
158K23S4,318,experiment,100,↓,down,↓,0.49439490027725697,True,32,1
158K23S4,319,experiment,101,↓,down,↓,0.4649823997169733,True,32,1
158K23S4,320,experiment,95,→,right,→,0.3589304997585714,True,32,1
158K23S4,321,experiment,91,←,left,←,0.5129102999344468,True,32,0
158K23S4,322,experiment,82,←,left,←,1.1530049000866711,True,32,1
158K23S4,323,experiment,102,←,left,←,0.6245452002622187,True,32,1
158K23S4,324,experiment,103,←,left,←,0.4174903999082744,True,32,1
158K23S4,325,experiment,93,↓,down,↓,0.492728800047189,True,32,1
158K23S4,326,experiment,58,←,left,←,0.4165151999332011,True,32,1
158K23S4,327,experiment,81,→,right,→,0.47325209993869066,True,32,0
158K23S4,328,experiment,97,→,right,→,0.9976314003579319,True,32,1
158K23S4,329,experiment,96,→,right,→,1.0214607999660075,True,32,1
158K23S4,330,experiment,75,→,left,←,0.45937979966402054,False,32,1
158K23S4,331,experiment,50,↑,up,↑,0.6161271999590099,True,32,1
158K23S4,332,experiment,86,↓,down,↓,0.6504420000128448,True,32,1
158K23S4,333,experiment,49,←,left,←,0.5124526000581682,True,32,1
158K23S4,334,experiment,98,←,left,←,0.4905551001429558,True,32,1
158K23S4,335,experiment,66,←,left,←,0.6246843999251723,True,32,1
158K23S4,336,experiment,62,→,right,→,0.4992829002439976,True,32,1
158K23S4,337,experiment,72,→,right,→,0.5266809999011457,True,32,1
158K23S4,338,experiment,85,↑,up,↑,0.5169476000592113,True,32,1
158K23S4,339,experiment,99,→,right,→,0.439081700053066,True,32,1
158K23S4,340,experiment,76,↓,down,↓,0.5397727000527084,True,32,1
158K23S4,341,experiment,87,←,left,←,1.0170483998954296,True,32,1
158K23S4,342,experiment,60,↑,up,↑,0.6037848996929824,True,32,1
158K23S4,343,experiment,77,←,left,←,0.48940820014104247,True,32,1
158K23S4,344,experiment,65,↑,up,↑,0.9678997001610696,True,32,1
158K23S4,345,experiment,52,↑,up,↑,0.5036439001560211,True,32,1
158K23S4,346,experiment,61,↓,down,↓,0.551023599691689,True,32,1
158K23S4,347,experiment,80,→,right,→,0.5740698999725282,True,32,1
158K23S4,348,experiment,59,←,left,←,0.6034148000180721,True,32,1
158K23S4,349,experiment,74,→,right,→,0.47424389980733395,True,32,1
158K23S4,350,experiment,51,↑,up,↑,0.5742363999597728,True,32,1
158K23S4,351,experiment,48,↑,up,↑,0.4178901999257505,True,32,1
158K23S4,352,experiment,89,→,right,→,0.5122764999978244,True,32,0
158K23S4,353,experiment,94,→,right,→,0.5958658000454307,True,32,1
158K23S4,354,experiment,108,←,left,←,0.3844862999394536,True,32,1
158K23S4,355,experiment,64,→,right,→,0.5540931997820735,True,32,0
158K23S4,356,training,54,↓,down,↓,0.6075400998815894,True,31,0
158K23S4,357,training,99,↓,down,↓,0.4307174999266863,True,31,1
158K23S4,358,experiment,94,↑,up,↑,0.5484984000213444,True,31,1
158K23S4,359,experiment,52,←,left,←,0.43752899998798966,True,31,1
158K23S4,360,experiment,49,→,right,→,0.5627892999909818,True,31,1
158K23S4,361,experiment,74,←,left,←,0.39258090034127235,True,31,1
158K23S4,362,experiment,84,←,left,←,0.37582650035619736,True,31,0
158K23S4,363,experiment,60,→,right,→,0.4084346001036465,True,31,0
158K23S4,364,experiment,77,←,left,←,0.5287970998324454,True,31,0
158K23S4,365,experiment,87,←,left,←,0.40923389978706837,True,31,1
158K23S4,366,experiment,98,↓,down,↓,0.5009511997923255,True,31,0
158K23S4,367,experiment,86,↓,down,↓,0.46000099973753095,True,31,1
158K23S4,368,experiment,72,→,right,→,0.5614363001659513,True,31,1
158K23S4,369,experiment,71,←,left,←,1.0590742998756468,True,31,1
158K23S4,370,experiment,67,↓,down,↓,0.5061586000956595,True,31,1
158K23S4,371,experiment,92,↑,up,↑,0.5828255997039378,True,31,1
158K23S4,372,experiment,68,→,right,→,0.5211426997557282,True,31,1
158K23S4,373,experiment,91,↓,down,↓,0.6290143998339772,True,31,1
158K23S4,374,experiment,80,↑,up,↑,1.0006484999321401,True,31,1
158K23S4,375,experiment,83,↑,up,↑,0.6849980000406504,True,31,1
158K23S4,376,experiment,65,→,right,→,0.46772290021181107,True,31,1
158K23S4,377,experiment,66,↓,down,↓,0.6025506001897156,True,31,1
158K23S4,378,experiment,88,←,left,←,0.47702400013804436,True,31,1
158K23S4,379,experiment,104,←,left,←,0.44703140016645193,True,31,1
158K23S4,380,experiment,76,→,right,→,0.49165690038353205,True,31,1
158K23S4,381,experiment,75,↑,up,↑,0.46243169996887445,True,31,1
158K23S4,382,experiment,55,→,right,→,1.0652338000945747,True,31,1
158K23S4,383,experiment,61,↑,up,↑,0.4421634003520012,True,31,1
158K23S4,384,experiment,82,→,right,→,0.6607047999277711,True,31,1
158K23S4,385,experiment,89,→,right,→,0.46056649973616004,True,31,1
158K23S4,386,experiment,99,←,left,←,0.4337698998861015,True,31,1
158K23S4,387,experiment,53,↓,down,↓,0.605492299888283,True,31,1
158K23S4,388,experiment,90,←,left,←,0.5428015999495983,True,31,1
158K23S4,389,experiment,108,↓,down,↓,0.5651347003877163,True,31,1
158K23S4,390,experiment,62,↑,up,↑,0.4652187996543944,True,31,1
158K23S4,391,experiment,96,↑,up,↑,0.5344384997151792,True,31,1
158K23S4,392,experiment,50,↓,down,↓,0.6320914002135396,True,31,1
158K23S4,393,experiment,101,→,right,→,0.5968394000083208,True,31,1
158K23S4,394,experiment,54,→,right,→,0.43509630020707846,True,31,1
158K23S4,395,experiment,48,→,right,→,0.457029000390321,True,31,1
158K23S4,396,experiment,103,↑,up,↑,0.43686720030382276,True,31,1
158K23S4,397,experiment,106,↑,up,↑,0.6467992002144456,True,31,1
158K23S4,398,experiment,57,←,left,←,0.5135387000627816,True,31,1
158K23S4,399,experiment,81,→,right,→,0.42606010008603334,True,31,1
158K23S4,400,experiment,78,→,right,→,1.0620343000628054,True,31,0
158K23S4,401,experiment,56,↑,up,↑,0.4410192002542317,True,31,1
158K23S4,402,experiment,69,→,right,→,0.4324882999062538,True,31,1
158K23S4,403,experiment,97,↓,down,↓,0.5895898998714983,True,31,1
158K23S4,404,experiment,93,←,left,←,0.6065608002245426,True,31,1
158K23S4,405,experiment,105,→,right,→,0.37507619988173246,True,31,1
158K23S4,406,experiment,73,↓,down,↓,0.5390681996941566,True,31,0
158K23S4,407,experiment,100,→,right,→,0.5237189000472426,True,31,1
158K23S4,408,experiment,95,←,left,←,0.6068172003142536,True,31,1
158K23S4,409,experiment,51,→,right,→,0.4294936996884644,True,31,1
158K23S4,410,experiment,70,↑,up,↑,1.0204014000482857,True,31,1
158K23S4,411,experiment,63,↑,up,↑,1.0220625000074506,True,31,1
158K23S4,412,experiment,59,↓,down,↓,0.5690582999959588,True,31,1
158K23S4,413,experiment,85,→,right,→,0.48576269997283816,True,31,1
158K23S4,414,experiment,58,←,right,→,0.5271691996604204,False,31,1
158K23S4,415,experiment,107,↑,down,↓,1.094024599995464,False,31,1
158K23S4,416,experiment,102,↓,up,↑,0.8078465000726283,False,31,1
158K23S4,417,experiment,64,→,right,→,0.45785060012713075,True,31,1
158K23S4,418,experiment,79,←,left,←,0.6609710999764502,True,31,1
158K23S4,419,training,90,↓,down,↓,0.5046266000717878,True,30,0
158K23S4,420,training,53,↓,down,↓,0.41904000006616116,True,30,1
158K23S4,421,experiment,55,←,left,←,0.5110193002037704,True,30,0
158K23S4,422,experiment,52,←,left,←,0.5371254002675414,True,30,1
158K23S4,423,experiment,108,←,left,←,0.47178769996389747,True,30,1
158K23S4,424,experiment,72,→,right,→,0.48417399963364005,True,30,1
158K23S4,425,experiment,78,←,left,←,0.3915659999474883,True,30,1
158K23S4,426,experiment,88,↓,down,↓,0.4650229997932911,True,30,0
158K23S4,427,experiment,57,↓,down,↓,0.45918860007077456,True,30,1
158K23S4,428,experiment,63,↑,up,↑,0.6916244002059102,True,30,1
158K23S4,429,experiment,99,↑,up,↑,0.49478690000250936,True,30,1
158K23S4,430,experiment,93,←,left,←,0.5076795001514256,True,30,1
158K23S4,431,experiment,77,→,left,←,0.42196569964289665,False,30,1
158K23S4,432,experiment,83,←,left,←,0.5281562996096909,True,30,1
158K23S4,433,experiment,60,↑,up,↑,0.5829560002312064,True,30,1
158K23S4,434,experiment,101,→,right,→,0.46960589988157153,True,30,1
158K23S4,435,experiment,73,→,right,→,0.5466235000640154,True,30,1
158K23S4,436,experiment,50,↑,up,↑,0.4674646998755634,True,30,1
158K23S4,437,experiment,51,↑,up,↑,0.4635067000053823,True,30,1
158K23S4,438,experiment,69,↑,up,↑,0.39186730002984405,True,30,1
158K23S4,439,experiment,68,↑,up,↑,1.151018699631095,True,30,0
158K23S4,440,experiment,98,←,left,←,0.4964132998138666,True,30,1
158K23S4,441,experiment,59,→,right,→,0.5282342000864446,True,30,1
158K23S4,442,experiment,62,→,right,→,0.606515099760145,True,30,1
158K23S4,443,experiment,106,↓,down,↓,0.6824462004005909,True,30,1
158K23S4,444,experiment,66,↑,up,↑,0.5609212997369468,True,30,1
158K23S4,445,experiment,64,←,left,←,0.4610529998317361,True,30,1
158K23S4,446,experiment,81,←,left,←,1.0872634002007544,True,30,1
158K23S4,447,experiment,89,←,left,←,0.4297845000401139,True,30,1
158K23S4,448,experiment,84,↑,up,↑,0.45644479990005493,True,30,1
158K23S4,449,experiment,103,→,right,→,0.4832238000817597,True,30,1
158K23S4,450,experiment,67,↓,down,↓,0.6652679000981152,True,30,1
158K23S4,451,experiment,102,↓,down,↓,0.45228470023721457,True,30,1
158K23S4,452,experiment,75,↓,down,↓,0.553246000315994,True,30,1
158K23S4,453,experiment,58,↑,up,↑,0.5197724997997284,True,30,1
158K23S4,454,experiment,74,↓,down,↓,0.44221240002661943,True,30,1
158K23S4,455,experiment,107,→,right,→,0.42102269968017936,True,30,1
158K23S4,456,experiment,87,←,left,←,0.4857075000181794,True,30,1
158K23S4,457,experiment,85,→,right,→,0.48607699992135167,True,30,1
158K23S4,458,experiment,79,↑,up,↑,0.4720764998346567,True,30,1
158K23S4,459,experiment,61,↑,up,↑,0.44042159989476204,True,30,1
158K23S4,460,experiment,54,↓,down,↓,0.5886516002938151,True,30,1
158K23S4,461,experiment,92,↑,up,↑,0.6299693998880684,True,30,1
158K23S4,462,experiment,97,↑,up,↑,0.4604352000169456,True,30,1
158K23S4,463,experiment,80,→,right,→,0.4790894999168813,True,30,1
158K23S4,464,experiment,53,↑,up,↑,0.6260210000909865,True,30,1
158K23S4,465,experiment,65,↓,down,↓,0.6910728998482227,True,30,1
158K23S4,466,experiment,71,←,left,←,0.43999839993193746,True,30,1
158K23S4,467,experiment,49,↓,down,↓,0.5973509000614285,True,30,1
158K23S4,468,experiment,91,→,right,→,0.43114229990169406,True,30,1
158K23S4,469,experiment,105,↓,down,↓,0.5378911001607776,True,30,1
158K23S4,470,experiment,100,→,right,→,0.40077440021559596,True,30,1
158K23S4,471,experiment,96,→,right,→,0.4346052003093064,True,30,0
158K23S4,472,experiment,48,↑,up,↑,0.5202224999666214,True,30,1
158K23S4,473,experiment,95,↓,down,↓,0.7315700999461114,True,30,1
158K23S4,474,experiment,94,←,left,←,0.454655600246042,True,30,1
158K23S4,475,experiment,70,←,left,←,0.6930315997451544,True,30,1
158K23S4,476,experiment,104,↓,down,↓,0.5825359998270869,True,30,1
158K23S4,477,experiment,86,↑,up,↑,0.570108599960804,True,30,1
158K23S4,478,experiment,76,→,right,→,0.5459378999657929,True,30,1
158K23S4,479,experiment,82,↓,down,↓,0.6161572998389602,True,30,1
158K23S4,480,experiment,56,→,right,→,0.5087135001085699,True,30,1
158K23S4,481,experiment,90,↓,down,↓,0.5621535000391304,True,30,1
158K23S4,482,training,89,↑,up,↑,0.41696689976379275,True,29,0
158K23S4,483,training,95,→,right,→,0.504216399975121,True,29,1
158K23S4,484,experiment,87,↑,up,↑,0.614595300052315,True,29,1
158K23S4,485,experiment,86,↓,up,↑,0.39174550026655197,False,29,1
158K23S4,486,experiment,58,↑,up,↑,0.5258141998201609,True,29,0
158K23S4,487,experiment,82,←,left,←,0.5168393002822995,True,29,1
158K23S4,488,experiment,92,↓,down,↓,0.633226600009948,True,29,1
158K23S4,489,experiment,60,←,left,←,0.5555837000720203,True,29,1
158K23S4,490,experiment,84,↑,up,↑,0.44889120012521744,True,29,1
158K23S4,491,experiment,52,←,left,←,0.4773997999727726,True,29,1
158K23S4,492,experiment,77,←,left,←,0.6407674001529813,True,29,1
158K23S4,493,experiment,53,←,left,←,1.0290709999389946,True,29,1
158K23S4,494,experiment,56,↓,down,↓,0.5849656998179853,True,29,1
158K23S4,495,experiment,63,→,right,→,0.5319750001654029,True,29,1
158K23S4,496,experiment,108,↑,up,↑,0.9388319998979568,True,29,1
158K23S4,497,experiment,61,↓,down,↓,0.5760659999214113,True,29,1
158K23S4,498,experiment,50,←,left,←,0.5921840001828969,True,29,1
158K23S4,499,experiment,98,↑,up,↑,0.4398023998364806,True,29,1
158K23S4,500,experiment,71,↑,up,↑,0.41423469968140125,True,29,1
158K23S4,501,experiment,72,→,right,→,0.46902590012177825,True,29,0
158K23S4,502,experiment,102,↑,up,↑,1.2800359996035695,True,29,1
158K23S4,503,experiment,99,↑,up,↑,0.4593346999026835,True,29,1
158K23S4,504,experiment,49,↓,down,↓,0.6965188002213836,True,29,1
158K23S4,505,experiment,95,→,right,→,0.484795399941504,True,29,1
158K23S4,506,experiment,69,↓,down,↓,0.49021210009232163,True,29,1
158K23S4,507,experiment,79,↓,down,↓,0.6037178998813033,True,29,1
158K23S4,508,experiment,104,←,left,←,0.6163949999026954,True,29,1
158K23S4,509,experiment,97,↑,up,↑,0.4630683003924787,True,29,1
158K23S4,510,experiment,80,↓,down,↓,0.5776650998741388,True,29,1
158K23S4,511,experiment,76,←,left,←,0.5050849998369813,True,29,1
158K23S4,512,experiment,103,↑,up,↑,0.4979065996594727,True,29,1
158K23S4,513,experiment,89,→,right,→,0.4799579996615648,True,29,1
158K23S4,514,experiment,74,↓,down,↓,0.595354899764061,True,29,1
158K23S4,515,experiment,68,↑,up,↑,0.45315880002453923,True,29,1
158K23S4,516,experiment,62,↓,down,↓,0.6058881003409624,True,29,1
158K23S4,517,experiment,85,→,right,→,0.4892985997721553,True,29,1
158K23S4,518,experiment,101,←,left,←,0.5155470999889076,True,29,1
158K23S4,519,experiment,100,↓,down,↓,0.5170024000108242,True,29,1
158K23S4,520,experiment,55,→,right,→,0.5018285997211933,True,29,1
158K23S4,521,experiment,67,←,left,←,0.47519150003790855,True,29,1
158K23S4,522,experiment,88,←,left,←,0.5068453000858426,True,29,1
158K23S4,523,experiment,54,↓,down,↓,0.5722432998009026,True,29,1
158K23S4,524,experiment,90,↑,up,↑,0.6308070998638868,True,29,1
158K23S4,525,experiment,48,↓,down,↓,0.6051766001619399,True,29,1
158K23S4,526,experiment,59,↓,down,↓,0.5692328996956348,True,29,1
158K23S4,527,experiment,83,→,left,←,1.070675800088793,False,29,1
158K23S4,528,experiment,64,↓,down,↓,0.5580529998987913,True,29,1
158K23S4,529,experiment,107,→,right,→,0.4997258000075817,True,29,1
158K23S4,530,experiment,51,↓,down,↓,0.46246140031144023,True,29,1
158K23S4,531,experiment,78,←,left,←,0.5778795001097023,True,29,1
158K23S4,532,experiment,96,→,right,→,0.5062275999225676,True,29,1
158K23S4,533,experiment,65,←,left,←,0.4883375000208616,True,29,1
158K23S4,534,experiment,70,↑,up,↑,0.8853732002899051,True,29,1
158K23S4,535,experiment,81,↓,down,↓,0.49402839969843626,True,29,1
158K23S4,536,experiment,75,←,left,←,0.4651839998550713,True,29,1
158K23S4,537,experiment,94,→,right,→,0.6869045998901129,True,29,1
158K23S4,538,experiment,91,↓,down,↓,0.5486067999154329,True,29,1
158K23S4,539,experiment,93,↓,down,↓,0.4313385998830199,True,29,1
158K23S4,540,experiment,66,↑,down,↓,0.5520587000064552,False,29,1
158K23S4,541,experiment,106,↑,up,↑,0.6141217998228967,True,29,1
158K23S4,542,experiment,105,←,left,←,0.6425406998023391,True,29,1
158K23S4,543,experiment,73,↑,up,↑,0.47987980023026466,True,29,1
158K23S4,544,experiment,57,→,right,→,0.4973691999912262,True,29,1
158K23S4,545,training,106,←,left,←,0.5004004999063909,True,28,0
158K23S4,546,training,69,↓,down,↓,0.6409338996745646,True,28,1
158K23S4,547,experiment,59,→,right,→,0.47531750006601214,True,28,1
158K23S4,548,experiment,108,↑,up,↑,0.6765895001590252,True,28,1
158K23S4,549,experiment,68,→,left,←,0.5063149002380669,False,28,1
158K23S4,550,experiment,63,←,left,←,0.4564902000129223,True,28,1
158K23S4,551,experiment,79,→,right,→,0.5638723997399211,True,28,1
158K23S4,552,experiment,62,→,right,→,0.4640444000251591,True,28,1
158K23S4,553,experiment,82,→,right,→,0.5297616003081203,True,28,1
158K23S4,554,experiment,69,→,left,←,1.2857141997665167,False,28,1
158K23S4,555,experiment,91,←,left,←,0.7000299002975225,True,28,1
158K23S4,556,experiment,101,→,right,→,0.4776931996457279,True,28,1
158K23S4,557,experiment,70,→,right,→,0.4990818998776376,True,28,1
158K23S4,558,experiment,84,↓,down,↓,0.5865342998877168,True,28,1
158K23S4,559,experiment,106,→,right,→,0.75994209991768,True,28,1
158K23S4,560,experiment,88,→,right,→,0.5477902996353805,True,28,1
158K23S4,561,experiment,74,↑,up,↑,0.5727599998936057,True,28,1
158K23S4,562,experiment,85,↑,up,↑,0.40970339998602867,True,28,1
158K23S4,563,experiment,77,↓,down,↓,0.5827978998422623,True,28,1
158K23S4,564,experiment,75,←,left,←,0.5981300002895296,True,28,1
158K23S4,565,experiment,48,↓,down,↓,0.4939263998530805,True,28,1
158K23S4,566,experiment,83,←,left,←,0.6301176003180444,True,28,1
158K23S4,567,experiment,104,↑,up,↑,0.5620638998225331,True,28,1
158K23S4,568,experiment,94,↑,up,↑,0.42000869987532496,True,28,1
158K23S4,569,experiment,93,←,no_key,no_letter,-1.0,False,28,1
158K23S4,570,experiment,96,↓,down,↓,0.5593934999778867,True,28,1
158K23S4,571,experiment,99,↓,down,↓,0.5675702998414636,True,28,1
158K23S4,572,experiment,92,↓,down,↓,0.5058181001804769,True,28,1
158K23S4,573,experiment,52,↓,down,↓,0.5243668998591602,True,28,1
158K23S4,574,experiment,72,→,right,→,0.5426238002255559,True,28,1
158K23S4,575,experiment,64,→,right,→,0.507383500225842,True,28,1
158K23S4,576,experiment,53,↓,down,↓,0.5333574004471302,True,28,1
158K23S4,577,experiment,65,→,right,→,0.4503319002687931,True,28,1
158K23S4,578,experiment,54,←,left,←,0.4860725998878479,True,28,1
158K23S4,579,experiment,58,→,right,→,0.4788213996216655,True,28,1
158K23S4,580,experiment,97,↑,up,↑,0.5472220000810921,True,28,1
158K23S4,581,experiment,87,←,left,←,0.4958677999675274,True,28,1
158K23S4,582,experiment,60,←,left,←,0.5036904998123646,True,28,1
158K23S4,583,experiment,73,←,left,←,0.4193622004240751,True,28,1
158K23S4,584,experiment,61,→,right,→,0.5419759997166693,True,28,1
158K23S4,585,experiment,50,→,right,→,0.6554006999358535,True,28,1
158K23S4,586,experiment,103,←,left,←,0.4663673001341522,True,28,1
158K23S4,587,experiment,86,↑,up,↑,0.49868319975212216,True,28,1
158K23S4,588,experiment,51,↓,down,↓,0.7019050996750593,True,28,1
158K23S4,589,experiment,57,↓,down,↓,0.5742541002109647,True,28,1
158K23S4,590,experiment,76,→,left,←,0.7016920000314713,False,28,1
158K23S4,591,experiment,81,↓,down,↓,0.5106541002169251,True,28,1
158K23S4,592,experiment,66,↑,down,↓,0.796057699713856,False,28,1
158K23S4,593,experiment,107,↓,down,↓,0.48775279987603426,True,28,1
158K23S4,594,experiment,56,↑,up,↑,0.6412206003442407,True,28,1
158K23S4,595,experiment,71,→,left,←,0.8077098997309804,False,28,1
158K23S4,596,experiment,102,←,left,←,0.4054119996726513,True,28,1
158K23S4,597,experiment,105,←,left,←,0.4893390000797808,True,28,0
158K23S4,598,experiment,67,↓,right,→,1.1830708999186754,False,28,1
158K23S4,599,experiment,89,←,left,←,0.40238749980926514,True,28,1
158K23S4,600,experiment,90,←,left,←,0.7633794997818768,True,28,0
158K23S4,601,experiment,80,→,left,←,0.6096410001628101,False,28,1
158K23S4,602,experiment,95,→,right,→,0.609199299942702,True,28,1
158K23S4,603,experiment,100,←,left,←,0.4472608999349177,True,28,1
158K23S4,604,experiment,78,↑,up,↑,0.5149711999110878,True,28,1
158K23S4,605,experiment,49,↓,down,↓,0.653753099963069,True,28,1
158K23S4,606,experiment,98,↓,down,↓,0.4269197001121938,True,28,1
158K23S4,607,experiment,55,↑,down,↓,0.7992624999023974,False,28,1
158K23S4,608,training,68,↑,up,↑,0.5830304999835789,True,28,0
158K23S4,609,training,50,↓,down,↓,0.5431725000962615,True,28,1
158K23S4,610,experiment,61,↓,down,↓,0.5242616999894381,True,28,1
158K23S4,611,experiment,76,↓,down,↓,0.43772359983995557,True,28,1
158K23S4,612,experiment,75,↑,up,↑,0.6507906001061201,True,28,1
158K23S4,613,experiment,104,←,left,←,0.5097910002805293,True,28,1
158K23S4,614,experiment,52,←,left,←,0.4319607000797987,True,28,1
158K23S4,615,experiment,54,↑,up,↑,0.46841839980334044,True,28,1
158K23S4,616,experiment,59,←,left,←,0.45375500014051795,True,28,1
158K23S4,617,experiment,64,←,left,←,0.43070039991289377,True,28,1
158K23S4,618,experiment,81,←,left,←,0.6099493000656366,True,28,1
158K23S4,619,experiment,55,→,right,→,0.5831272001378238,True,28,1
158K23S4,620,experiment,100,→,right,→,0.7097914000041783,True,28,1
158K23S4,621,experiment,85,←,left,←,0.40528579987585545,True,28,1
158K23S4,622,experiment,53,←,left,←,0.5545946001075208,True,28,0
158K23S4,623,experiment,87,→,right,→,0.49490930000320077,True,28,1
158K23S4,624,experiment,71,←,left,←,0.4513030997477472,True,28,1
158K23S4,625,experiment,99,→,right,→,0.5280671999789774,True,28,1
158K23S4,626,experiment,101,↓,down,↓,0.5851273001171649,True,28,1
158K23S4,627,experiment,48,→,right,→,0.8657881002873182,True,28,1
158K23S4,628,experiment,50,→,right,→,0.4459636998362839,True,28,1
158K23S4,629,experiment,78,↓,down,↓,0.5697173001244664,True,28,1
158K23S4,630,experiment,94,↑,up,↑,0.6434746999293566,True,28,1
158K23S4,631,experiment,108,←,left,←,1.1974128000438213,True,28,1
158K23S4,632,experiment,105,↑,up,↑,0.474303400143981,True,28,1
158K23S4,633,experiment,74,↑,up,↑,0.5262535996735096,True,28,1
158K23S4,634,experiment,103,↓,down,↓,1.2547458000481129,True,28,1
158K23S4,635,experiment,90,↓,down,↓,0.384113899897784,True,28,1
158K23S4,636,experiment,58,←,left,←,0.4989765998907387,True,28,0
158K23S4,637,experiment,97,←,left,←,0.5023135999217629,True,28,1
158K23S4,638,experiment,84,←,left,←,0.4699964001774788,True,28,1
158K23S4,639,experiment,89,↑,up,↑,0.5734156998805702,True,28,1
158K23S4,640,experiment,95,←,left,←,0.4946447000838816,True,28,1
158K23S4,641,experiment,72,↑,up,↑,0.45057350024580956,True,28,1
158K23S4,642,experiment,82,→,right,→,0.5329680000431836,True,28,1
158K23S4,643,experiment,69,→,right,→,0.33400689996778965,True,28,1
158K23S4,644,experiment,77,→,left,←,0.5688910000026226,False,28,0
158K23S4,645,experiment,66,→,right,→,0.5798161001875997,True,28,1
158K23S4,646,experiment,60,←,left,←,0.47221089992672205,True,28,1
158K23S4,647,experiment,96,↑,up,↑,0.4369625002145767,True,28,1
158K23S4,648,experiment,80,↓,down,↓,0.5607477999292314,True,28,1
158K23S4,649,experiment,62,←,left,←,0.4457523999735713,True,28,1
158K23S4,650,experiment,67,←,left,←,0.47724709985777736,True,28,1
158K23S4,651,experiment,91,→,right,→,0.42782829981297255,True,28,1
158K23S4,652,experiment,63,←,left,←,0.4773809998296201,True,28,1
158K23S4,653,experiment,68,→,right,→,0.4917222000658512,True,28,1
158K23S4,654,experiment,83,←,left,←,0.40470309974625707,True,28,1
158K23S4,655,experiment,88,→,right,→,0.6616942998953164,True,28,1
158K23S4,656,experiment,79,→,right,→,0.5446728002279997,True,28,1
158K23S4,657,experiment,73,↓,down,↓,0.5146300001069903,True,28,1
158K23S4,658,experiment,49,↓,down,↓,0.5572681999765337,True,28,1
158K23S4,659,experiment,107,←,down,↓,0.6592212999239564,False,28,1
158K23S4,660,experiment,56,→,right,→,0.4699896997772157,True,28,1
158K23S4,661,experiment,57,↓,down,↓,0.5677610002458096,True,28,1
158K23S4,662,experiment,98,↓,down,↓,0.5761894998140633,True,28,1
158K23S4,663,experiment,106,←,left,←,0.5336788003332913,True,28,1
158K23S4,664,experiment,102,→,right,→,0.4620703998953104,True,28,1
158K23S4,665,experiment,92,→,left,←,0.9885480999946594,False,28,1
158K23S4,666,experiment,70,↑,up,↑,0.5896553001366556,True,28,1
158K23S4,667,experiment,86,↑,up,↑,0.4570368998683989,True,28,1
158K23S4,668,experiment,93,←,left,←,0.4713842999190092,True,28,1
158K23S4,669,experiment,51,↑,up,↑,0.442881400231272,True,28,1
158K23S4,670,experiment,65,→,right,→,0.40324149979278445,True,28,1
158K23S4,671,training,84,↓,down,↓,0.48949139984324574,True,28,0
158K23S4,672,training,78,↓,down,↓,0.38406250020489097,True,28,1
158K23S4,673,experiment,52,→,right,→,0.45829330012202263,True,28,0
158K23S4,674,experiment,56,←,right,→,0.41367459995672107,False,28,1
158K23S4,675,experiment,93,↓,down,↓,1.0295613002963364,True,28,1
158K23S4,676,experiment,62,→,right,→,0.479112199973315,True,28,1
158K23S4,677,experiment,98,→,right,→,0.44291779957711697,True,28,1
158K23S4,678,experiment,64,→,down,↓,0.6757360999472439,False,28,1
158K23S4,679,experiment,71,↑,up,↑,0.5530058997683227,True,28,1
158K23S4,680,experiment,80,↑,up,↑,0.5038415002636611,True,28,1
158K23S4,681,experiment,83,←,left,←,0.615650299936533,True,28,1
158K23S4,682,experiment,70,↓,down,↓,0.47925079986453056,True,28,1
158K23S4,683,experiment,66,↑,up,↑,0.4536909000016749,True,28,1
158K23S4,684,experiment,97,←,left,←,0.45896519999951124,True,28,1
158K23S4,685,experiment,101,→,right,→,0.5184746999293566,True,28,1
158K23S4,686,experiment,73,↓,down,↓,0.5215147999115288,True,28,1
158K23S4,687,experiment,104,↑,left,←,0.6012479001656175,False,28,1
158K23S4,688,experiment,106,→,right,→,0.517873200122267,True,28,1
158K23S4,689,experiment,94,↑,up,↑,0.42547659995034337,True,28,1
158K23S4,690,experiment,60,←,left,←,0.70842370018363,True,28,1
158K23S4,691,experiment,68,→,right,→,0.697093500290066,True,28,1
158K23S4,692,experiment,95,↑,up,↑,0.48508030036464334,True,28,1
158K23S4,693,experiment,105,↓,down,↓,0.4542337995953858,True,28,1
158K23S4,694,experiment,84,←,left,←,0.5676568001508713,True,28,1
158K23S4,695,experiment,92,↓,down,↓,0.5379726001992822,True,28,1
158K23S4,696,experiment,54,←,left,←,0.49841139977797866,True,28,1
158K23S4,697,experiment,99,→,right,→,0.524868099950254,True,28,1
158K23S4,698,experiment,57,→,down,↓,0.6126120998524129,False,28,1
158K23S4,699,experiment,65,←,left,←,0.43067360017448664,True,28,1
158K23S4,700,experiment,75,←,left,←,0.4043491999618709,True,28,1
158K23S4,701,experiment,69,←,left,←,0.6198509996756911,True,28,0
158K23S4,702,experiment,96,→,right,→,0.48300480004400015,True,28,1
158K23S4,703,experiment,78,↓,down,↓,0.541667299810797,True,28,1
158K23S4,704,experiment,90,↓,down,↓,0.5617407998070121,True,28,1
158K23S4,705,experiment,48,←,left,←,0.4507795004174113,True,28,1
158K23S4,706,experiment,86,↓,down,↓,0.4439016003161669,True,28,1
158K23S4,707,experiment,82,↓,down,↓,0.46263219974935055,True,28,1
158K23S4,708,experiment,85,→,right,→,0.463255999609828,True,28,1
158K23S4,709,experiment,91,↑,up,↑,0.47059099981561303,True,28,1
158K23S4,710,experiment,61,↓,down,↓,0.558908499777317,True,28,1
158K23S4,711,experiment,58,↑,up,↑,0.717179000377655,True,28,1
158K23S4,712,experiment,100,↓,down,↓,0.422811399679631,True,28,1
158K23S4,713,experiment,108,←,left,←,0.42591540003195405,True,28,1
158K23S4,714,experiment,76,←,left,←,0.5511707998812199,True,28,1
158K23S4,715,experiment,103,↓,down,↓,0.43014399986714125,True,28,1
158K23S4,716,experiment,51,↑,up,↑,0.4515479002147913,True,28,1
158K23S4,717,experiment,74,↓,down,↓,0.5046232999302447,True,28,1
158K23S4,718,experiment,88,→,right,→,0.5109553001821041,True,28,1
158K23S4,719,experiment,49,→,left,←,0.49802380008623004,False,28,1
158K23S4,720,experiment,107,↓,down,↓,0.5783327003009617,True,28,1
158K23S4,721,experiment,53,←,left,←,0.5689499997533858,True,28,1
158K23S4,722,experiment,67,↑,up,↑,0.41999049996957183,True,28,1
158K23S4,723,experiment,77,←,right,→,0.5130044999532402,False,28,1
158K23S4,724,experiment,55,→,right,→,0.5058880001306534,True,28,1
158K23S4,725,experiment,81,←,left,←,0.46589740039780736,True,28,1
158K23S4,726,experiment,63,↓,down,↓,0.5624286001548171,True,28,1
158K23S4,727,experiment,89,↓,down,↓,0.6139116999693215,True,28,1
158K23S4,728,experiment,50,↑,down,↓,0.876155000180006,False,28,1
158K23S4,729,experiment,72,↓,down,↓,0.4014095002785325,True,28,1
158K23S4,730,experiment,59,↑,up,↑,0.5567596000619233,True,28,1
158K23S4,731,experiment,102,↑,down,↓,1.6440459000878036,False,28,1
158K23S4,732,experiment,79,←,left,←,0.3770579001866281,True,28,1
158K23S4,733,experiment,87,←,left,←,0.6826773998327553,True,28,0
158K23S4,734,training,61,←,left,←,0.4885188997723162,True,28,0
158K23S4,735,training,106,←,left,←,0.37496890034526587,True,28,1
158K23S4,736,experiment,52,↓,down,↓,0.5363330002874136,True,28,0
158K23S4,737,experiment,66,←,left,←,0.46906570019200444,True,28,1
158K23S4,738,experiment,59,←,left,←,0.4541935999877751,True,28,1
158K23S4,739,experiment,100,→,right,→,0.6101538999937475,True,28,1
158K23S4,740,experiment,75,↑,up,↑,0.576600399799645,True,28,1
158K23S4,741,experiment,106,←,left,←,0.38316289987415075,True,28,1
158K23S4,742,experiment,88,←,left,←,0.4647826002910733,True,28,0
158K23S4,743,experiment,49,↓,down,↓,0.5815033996477723,True,28,1
158K23S4,744,experiment,94,↑,up,↑,0.5665731001645327,True,28,1
158K23S4,745,experiment,62,↑,up,↑,0.60339460009709,True,28,1
158K23S4,746,experiment,53,↑,up,↑,0.42506410041823983,True,28,1
158K23S4,747,experiment,83,↑,up,↑,0.3673090999945998,True,28,1
158K23S4,748,experiment,104,↑,up,↑,0.34207710018381476,True,28,0
158K23S4,749,experiment,60,←,left,←,0.40093740029260516,True,28,0
158K23S4,750,experiment,107,←,left,←,0.33371169958263636,True,28,0
158K23S4,751,experiment,85,←,left,←,0.4654623996466398,True,28,0
158K23S4,752,experiment,78,↑,up,↑,1.1245756996795535,True,28,1
158K23S4,753,experiment,65,↓,down,↓,0.6578318998217583,True,28,1
158K23S4,754,experiment,80,↓,down,↓,0.6521740998141468,True,28,1
158K23S4,755,experiment,72,→,right,→,0.5059169996529818,True,28,1
158K23S4,756,experiment,61,→,no_key,no_letter,-1.0,False,28,1
158K23S4,757,experiment,98,→,left,←,0.5639657997526228,False,28,1
158K23S4,758,experiment,97,←,left,←,1.1008164999075234,True,28,1
158K23S4,759,experiment,74,↑,up,↑,0.4319267999380827,True,28,1
158K23S4,760,experiment,108,→,right,→,0.5063033001497388,True,28,1
158K23S4,761,experiment,95,→,right,→,0.3673259997740388,True,28,1
158K23S4,762,experiment,63,↓,down,↓,0.601656099781394,True,28,0
158K23S4,763,experiment,87,←,left,←,0.47614929964765906,True,28,1
158K23S4,764,experiment,91,→,right,→,0.5465759998187423,True,28,1
158K23S4,765,experiment,99,↓,down,↓,1.0433659004047513,True,28,1
158K23S4,766,experiment,73,←,left,←,0.4891106002032757,True,28,1
158K23S4,767,experiment,103,↓,down,↓,0.3592276996932924,True,28,1
158K23S4,768,experiment,64,←,left,←,0.4787070001475513,True,28,0
158K23S4,769,experiment,102,→,right,→,0.48910020012408495,True,28,1
158K23S4,770,experiment,81,↑,down,↓,0.8102635997347534,False,28,1
158K23S4,771,experiment,58,↑,up,↑,0.6062914999201894,True,28,1
158K23S4,772,experiment,50,↓,down,↓,0.5329684996977448,True,28,1
158K23S4,773,experiment,48,↓,down,↓,0.4956649001687765,True,28,1
158K23S4,774,experiment,105,→,right,→,0.42462919978424907,True,28,1
158K23S4,775,experiment,79,↑,down,↓,1.0527570000849664,False,28,1
158K23S4,776,experiment,76,→,right,→,0.3840002999641001,True,28,1
158K23S4,777,experiment,96,↑,down,↓,0.8169978000223637,False,28,0
158K23S4,778,experiment,89,→,right,→,0.5225368998944759,True,28,1
158K23S4,779,experiment,55,↑,up,↑,0.5868107997812331,True,28,1
158K23S4,780,experiment,71,←,left,←,0.47558780014514923,True,28,1
158K23S4,781,experiment,82,↓,down,↓,0.46088849985972047,True,28,1
158K23S4,782,experiment,54,↑,up,↑,0.5924284998327494,True,28,1
158K23S4,783,experiment,56,↑,up,↑,1.0459107998758554,True,28,1
158K23S4,784,experiment,77,←,right,→,0.8180064996704459,False,28,1
158K23S4,785,experiment,69,↑,up,↑,0.5377401998266578,True,28,1
158K23S4,786,experiment,92,↑,up,↑,0.7016027998179197,True,28,1
158K23S4,787,experiment,86,↑,up,↑,0.3837752998806536,True,28,1
158K23S4,788,experiment,57,↑,up,↑,0.4658515998162329,True,28,0
158K23S4,789,experiment,90,↑,up,↑,0.43279199954122305,True,28,1
158K23S4,790,experiment,84,←,left,←,1.035200399812311,True,28,1
158K23S4,791,experiment,93,←,left,←,0.3590432000346482,True,28,1
158K23S4,792,experiment,68,↑,up,↑,0.5011848998256028,True,28,0
158K23S4,793,experiment,101,↓,down,↓,0.6070351996459067,True,28,1
158K23S4,794,experiment,51,↓,down,↓,0.5337561001069844,True,28,1
158K23S4,795,experiment,67,↓,down,↓,0.4255014001391828,True,28,1
158K23S4,796,experiment,70,↓,down,↓,0.45723559986799955,True,28,1
158K23S4,797,training,93,←,left,←,0.44858660036697984,True,28,0
158K23S4,798,training,68,↓,down,↓,0.6158035001717508,True,28,1
158K23S4,799,experiment,85,←,left,←,0.4187153000384569,True,28,1
158K23S4,800,experiment,52,←,left,←,0.46409810008481145,True,28,1
158K23S4,801,experiment,48,↑,up,↑,0.4931703000329435,True,28,1
158K23S4,802,experiment,74,←,left,←,0.984833899885416,True,28,1
158K23S4,803,experiment,97,→,left,←,0.4170852000825107,False,28,1
158K23S4,804,experiment,108,↑,up,↑,0.4035684997215867,True,28,1
158K23S4,805,experiment,69,↓,down,↓,0.579897599760443,True,28,0
158K23S4,806,experiment,66,→,right,→,0.5345219001173973,True,28,1
158K23S4,807,experiment,75,←,left,←,0.45574619993567467,True,28,1
158K23S4,808,experiment,68,→,right,→,0.6066756001673639,True,28,1
158K23S4,809,experiment,79,↓,down,↓,0.5794417997822165,True,28,1
158K23S4,810,experiment,93,↑,up,↑,0.3414706001058221,True,28,1
158K23S4,811,experiment,62,→,left,←,0.6020034002140164,False,28,0
158K23S4,812,experiment,88,↑,up,↑,0.516291500069201,True,28,1
158K23S4,813,experiment,91,→,right,→,0.5132397003471851,True,28,1
158K23S4,814,experiment,99,←,left,←,0.5710246004164219,True,28,1
158K23S4,815,experiment,51,↓,down,↓,0.5388551000505686,True,28,1
158K23S4,816,experiment,104,←,left,←,0.4901577001437545,True,28,1
158K23S4,817,experiment,83,←,left,←,0.4426941000856459,True,28,1
158K23S4,818,experiment,64,↑,up,↑,0.4513638000935316,True,28,1
158K23S4,819,experiment,72,↓,up,↑,0.8413052000105381,False,28,1
158K23S4,820,experiment,92,→,left,←,0.600409499835223,False,28,1
158K23S4,821,experiment,61,↑,up,↑,0.45184169989079237,True,28,1
158K23S4,822,experiment,100,↑,up,↑,0.40873510017991066,True,28,1
158K23S4,823,experiment,73,↓,down,↓,0.46308339992538095,True,28,1
158K23S4,824,experiment,81,↑,up,↑,0.6571273999288678,True,28,1
158K23S4,825,experiment,105,→,down,↓,1.1557092000730336,False,28,1
158K23S4,826,experiment,53,↓,down,↓,0.44430180033668876,True,28,1
158K23S4,827,experiment,103,→,left,←,0.5348577997647226,False,28,1
158K23S4,828,experiment,56,→,right,→,0.4787027002312243,True,28,1
158K23S4,829,experiment,84,←,left,←,0.535303299780935,True,28,1
158K23S4,830,experiment,70,←,left,←,0.4344117003493011,True,28,1
158K23S4,831,experiment,77,↑,up,↑,0.527362700086087,True,28,1
158K23S4,832,experiment,89,↓,down,↓,0.6045204997062683,True,28,1
158K23S4,833,experiment,78,↑,up,↑,0.5459098001010716,True,28,1
158K23S4,834,experiment,55,←,left,←,0.4650462996214628,True,28,1
158K23S4,835,experiment,82,↑,up,↑,0.49073309963569045,True,28,1
158K23S4,836,experiment,58,←,left,←,0.5475411000661552,True,28,1
158K23S4,837,experiment,102,↑,up,↑,0.46725380001589656,True,28,1
158K23S4,838,experiment,95,←,left,←,0.45660339994356036,True,28,1
158K23S4,839,experiment,86,←,left,←,0.44931040005758405,True,28,1
158K23S4,840,experiment,101,→,right,→,0.5253226002678275,True,28,1
158K23S4,841,experiment,90,↓,down,↓,0.546178299933672,True,28,1
158K23S4,842,experiment,67,←,left,←,0.4535508002154529,True,28,1
158K23S4,843,experiment,49,↓,down,↓,0.5227061002515256,True,28,1
158K23S4,844,experiment,107,↑,up,↑,0.5539053999818861,True,28,1
158K23S4,845,experiment,96,→,right,→,0.36734140012413263,True,28,1
158K23S4,846,experiment,57,↓,down,↓,0.5532418000511825,True,28,0
158K23S4,847,experiment,59,→,left,←,0.4472986003383994,False,28,1
158K23S4,848,experiment,50,↓,down,↓,0.5086481999605894,True,28,1
158K23S4,849,experiment,76,↓,down,↓,0.6305607999674976,True,28,1
158K23S4,850,experiment,94,↑,up,↑,0.4374457998201251,True,28,1
158K23S4,851,experiment,60,→,right,→,0.4955830001272261,True,28,1
158K23S4,852,experiment,87,↓,down,↓,0.9747490999288857,True,28,1
158K23S4,853,experiment,63,↑,up,↑,0.6424660999327898,True,28,1
158K23S4,854,experiment,65,←,left,←,0.4907484003342688,True,28,1
158K23S4,855,experiment,80,←,left,←,0.5568659999407828,True,28,1
158K23S4,856,experiment,71,↓,down,↓,0.5900655998848379,True,28,1
158K23S4,857,experiment,98,↑,up,↑,0.5652580000460148,True,28,1
158K23S4,858,experiment,106,↓,up,↑,0.7632268997840583,False,28,1
158K23S4,859,experiment,54,↓,down,↓,0.6986003997735679,True,28,1
158K23S4,860,training,49,↓,down,↓,0.6074698003940284,True,28,0
158K23S4,861,training,78,↓,down,↓,0.48437839979305863,True,28,1
158K23S4,862,experiment,96,↓,down,↓,1.2567791999317706,True,28,1
158K23S4,863,experiment,97,↓,down,↓,1.2856862000189722,True,28,1
158K23S4,864,experiment,63,←,left,←,0.6214272999204695,True,28,1
158K23S4,865,experiment,66,↓,down,↓,0.5176703999750316,True,28,1
158K23S4,866,experiment,82,↓,down,↓,0.42186889983713627,True,28,1
158K23S4,867,experiment,64,→,right,→,0.5349909998476505,True,28,1
158K23S4,868,experiment,62,↑,up,↑,0.5726797999814153,True,28,1
158K23S4,869,experiment,83,→,right,→,0.40255430014804006,True,28,1
158K23S4,870,experiment,72,→,right,→,0.5531524000689387,True,28,0
158K23S4,871,experiment,103,←,left,←,0.5444501000456512,True,28,1
158K23S4,872,experiment,53,←,left,←,0.5289500998333097,True,28,1
158K23S4,873,experiment,102,↓,down,↓,0.6577071002684534,True,28,1
158K23S4,874,experiment,79,↓,down,↓,0.49253900023177266,True,28,1
158K23S4,875,experiment,55,↓,down,↓,0.48637299984693527,True,28,1
158K23S4,876,experiment,92,→,left,←,0.5398674001917243,False,28,1
158K23S4,877,experiment,81,→,right,→,0.5709737995639443,True,28,1
158K23S4,878,experiment,59,↓,down,↓,0.5041217999532819,True,28,1
158K23S4,879,experiment,48,↑,down,↓,0.40400630002841353,False,28,1
158K23S4,880,experiment,60,↑,down,↓,0.9672350999899209,False,28,0
158K23S4,881,experiment,99,↑,up,↑,0.44686600007116795,True,28,1
158K23S4,882,experiment,85,↓,down,↓,0.5442760000005364,True,28,1
158K23S4,883,experiment,61,←,left,←,0.4702552002854645,True,28,1
158K23S4,884,experiment,87,↓,down,↓,0.4301507002674043,True,28,1
158K23S4,885,experiment,93,→,right,→,0.9095140001736581,True,28,1
158K23S4,886,experiment,56,↓,down,↓,0.5022046999074519,True,28,1
158K23S4,887,experiment,80,↓,down,↓,0.4632824002765119,True,28,1
158K23S4,888,experiment,49,←,left,←,0.4840723001398146,True,28,1
158K23S4,889,experiment,50,→,right,→,0.43195659993216395,True,28,1
158K23S4,890,experiment,75,←,left,←,0.3507513999938965,True,28,1
158K23S4,891,experiment,100,←,down,↓,0.693662999663502,False,28,0
158K23S4,892,experiment,76,↑,up,↑,0.5765009000897408,True,28,1
158K23S4,893,experiment,71,←,left,←,0.5135328001342714,True,28,1
158K23S4,894,experiment,101,←,left,←,0.4507816000841558,True,28,1
158K23S4,895,experiment,52,→,left,←,0.4552391995675862,False,28,1
158K23S4,896,experiment,90,→,right,→,1.0467364001087844,True,28,1
158K23S4,897,experiment,67,↑,up,↑,0.5901740998961031,True,28,1
158K23S4,898,experiment,86,→,left,←,0.497367599979043,False,28,1
158K23S4,899,experiment,51,↑,up,↑,0.4361614999361336,True,28,1
158K23S4,900,experiment,65,↑,up,↑,0.5331542999483645,True,28,1
158K23S4,901,experiment,68,↑,up,↑,0.44101660000160336,True,28,1
158K23S4,902,experiment,107,↑,up,↑,0.8114118999801576,True,28,1
158K23S4,903,experiment,54,↓,down,↓,0.6005230001173913,True,28,1
158K23S4,904,experiment,70,↓,down,↓,0.49684959976002574,True,28,1
158K23S4,905,experiment,77,←,left,←,0.5229154000990093,True,28,1
158K23S4,906,experiment,89,↑,up,↑,0.6244246000424027,True,28,1
158K23S4,907,experiment,69,↓,down,↓,0.5677720000967383,True,28,1
158K23S4,908,experiment,91,↓,down,↓,0.4264109996147454,True,28,1
158K23S4,909,experiment,58,↑,up,↑,0.5258703003637493,True,28,1
158K23S4,910,experiment,95,↑,up,↑,0.6329338997602463,True,28,1
158K23S4,911,experiment,84,→,left,←,0.8116637002676725,False,28,1
158K23S4,912,experiment,108,←,left,←,0.5907340003177524,True,28,1
158K23S4,913,experiment,105,→,right,→,0.41988590033724904,True,28,1
158K23S4,914,experiment,73,↓,down,↓,0.6900685001164675,True,28,1
158K23S4,915,experiment,104,↑,up,↑,0.4035251997411251,True,28,1
158K23S4,916,experiment,88,↓,down,↓,0.42954690009355545,True,28,0
158K23S4,917,experiment,106,↑,left,←,0.8730020001530647,False,28,1
158K23S4,918,experiment,78,←,left,←,0.5556194996461272,True,28,1
158K23S4,919,experiment,74,←,left,←,0.5880541000515223,True,28,1
158K23S4,920,experiment,94,↓,down,↓,0.6286722999066114,True,28,1
158K23S4,921,experiment,98,↓,down,↓,1.0348180001601577,True,28,1
158K23S4,922,experiment,57,↓,down,↓,0.41444259975105524,True,28,1
158K23S4,923,training,76,↑,up,↑,0.47826959984377027,True,28,0
158K23S4,924,training,83,→,right,→,0.47928900038823485,True,28,1
158K23S4,925,experiment,93,↑,up,↑,0.4056392996571958,True,28,1
158K23S4,926,experiment,88,↑,up,↑,0.646724299993366,True,28,0
158K23S4,927,experiment,59,↓,up,↑,1.4410343999043107,False,28,1
158K23S4,928,experiment,108,←,left,←,0.490847900044173,True,28,1
158K23S4,929,experiment,74,↑,up,↑,0.45424289954826236,True,28,1
158K23S4,930,experiment,103,↓,down,↓,0.561693400144577,True,28,1
158K23S4,931,experiment,48,↑,up,↑,0.5386491999961436,True,28,1
158K23S4,932,experiment,62,↑,up,↑,1.0003332998603582,True,28,1
158K23S4,933,experiment,92,←,left,←,0.38381219981238246,True,28,1
158K23S4,934,experiment,94,↓,down,↓,0.5298542003147304,True,28,0
158K23S4,935,experiment,50,→,right,→,0.45978950010612607,True,28,1
158K23S4,936,experiment,78,←,left,←,0.5190202998928726,True,28,1
158K23S4,937,experiment,55,↑,up,↑,0.4556872001849115,True,28,1
158K23S4,938,experiment,64,↑,up,↑,0.5998972998932004,True,28,1
158K23S4,939,experiment,54,↑,up,↑,0.5177011000923812,True,28,1
158K23S4,940,experiment,70,↑,up,↑,0.4018794000148773,True,28,1
158K23S4,941,experiment,107,↓,down,↓,0.47746439976617694,True,28,1
158K23S4,942,experiment,86,↑,up,↑,0.6373518998734653,True,28,1
158K23S4,943,experiment,58,↑,up,↑,0.472208300139755,True,28,1
158K23S4,944,experiment,96,↑,up,↑,0.4373723999597132,True,28,1
158K23S4,945,experiment,82,←,left,←,0.44788549980148673,True,28,1
158K23S4,946,experiment,73,←,left,←,0.9254395999014378,True,28,1
158K23S4,947,experiment,87,←,left,←,0.946737399790436,True,28,1
158K23S4,948,experiment,97,↓,down,↓,0.45209260005503893,True,28,1
158K23S4,949,experiment,102,→,right,→,0.48779649985954165,True,28,1
158K23S4,950,experiment,52,←,left,←,0.4189332998357713,True,28,1
158K23S4,951,experiment,81,↓,down,↓,0.45441249990835786,True,28,1
158K23S4,952,experiment,83,↑,up,↑,0.47208450036123395,True,28,1
158K23S4,953,experiment,66,↑,up,↑,0.49483090033754706,True,28,1
158K23S4,954,experiment,57,→,right,→,0.4879172001965344,True,28,1
158K23S4,955,experiment,60,↓,down,↓,0.5360476998612285,True,28,1
158K23S4,956,experiment,71,↓,down,↓,0.514798799995333,True,28,1
158K23S4,957,experiment,79,↑,up,↑,0.41994439996778965,True,28,1
158K23S4,958,experiment,105,←,left,←,0.5593832000158727,True,28,1
158K23S4,959,experiment,67,↓,down,↓,0.45831079967319965,True,28,1
158K23S4,960,experiment,90,←,left,←,0.49766490003094077,True,28,1
158K23S4,961,experiment,100,←,left,←,0.37585119996219873,True,28,1
158K23S4,962,experiment,61,←,left,←,0.43238680018112063,True,28,0
158K23S4,963,experiment,53,←,left,←,1.1008672998286784,True,28,1
158K23S4,964,experiment,68,←,left,←,0.45028299978002906,True,28,1
158K23S4,965,experiment,49,→,right,→,0.4315402000211179,True,28,1
158K23S4,966,experiment,106,↑,up,↑,1.058654900174588,True,28,1
158K23S4,967,experiment,56,→,right,→,0.47716009989380836,True,28,1
158K23S4,968,experiment,65,↓,down,↓,0.6286206003278494,True,28,1
158K23S4,969,experiment,98,↑,up,↑,0.5539287999272346,True,28,1
158K23S4,970,experiment,101,↑,left,←,0.5299442997202277,False,28,1
158K23S4,971,experiment,63,→,right,→,0.9273891001939774,True,28,1
158K23S4,972,experiment,69,→,right,→,0.4109910000115633,True,28,1
158K23S4,973,experiment,95,↓,down,↓,0.5628745998255908,True,28,1
158K23S4,974,experiment,80,←,left,←,0.905250699725002,True,28,1
158K23S4,975,experiment,99,←,left,←,0.3756858999840915,True,28,1
158K23S4,976,experiment,85,↑,up,↑,0.40845629991963506,True,28,1
158K23S4,977,experiment,89,↑,down,↓,0.6097903000190854,False,28,0
158K23S4,978,experiment,77,↑,down,↓,0.5513865002430975,False,28,1
158K23S4,979,experiment,72,↓,down,↓,0.4407977000810206,True,28,1
158K23S4,980,experiment,91,↑,down,↓,0.6805662997066975,False,28,1
158K23S4,981,experiment,76,→,right,→,0.45193739980459213,True,28,1
158K23S4,982,experiment,51,→,left,←,0.5926197003573179,False,28,1
158K23S4,983,experiment,75,→,right,→,0.4083068002946675,True,28,1
158K23S4,984,experiment,104,←,left,←,0.4281689999625087,True,28,1
158K23S4,985,experiment,84,↓,down,↓,0.5272492999210954,True,28,1
158K23S4,986,training,65,↑,up,↑,0.42697929963469505,True,28,0
158K23S4,987,training,48,→,right,→,0.45760220009833574,True,28,1
158K23S4,988,experiment,66,→,right,→,1.033621700014919,True,28,1
158K23S4,989,experiment,95,↓,down,↓,0.5836734999902546,True,28,1
158K23S4,990,experiment,102,←,left,←,0.5102515001781285,True,28,1
158K23S4,991,experiment,106,↓,down,↓,0.5980259999632835,True,28,1
158K23S4,992,experiment,68,→,right,→,0.44769040029495955,True,28,1
158K23S4,993,experiment,81,←,left,←,0.5618886002339423,True,28,1
158K23S4,994,experiment,53,↑,up,↑,0.6177031002007425,True,28,1
158K23S4,995,experiment,51,↓,down,↓,0.5197016997262836,True,28,1
158K23S4,996,experiment,74,←,left,←,0.4349090000614524,True,28,1
158K23S4,997,experiment,104,↓,down,↓,0.5498278001323342,True,28,1
158K23S4,998,experiment,79,↓,down,↓,0.4932251996360719,True,28,1
158K23S4,999,experiment,62,↓,down,↓,0.48511429969221354,True,28,1
158K23S4,1000,experiment,101,↓,down,↓,0.5116105997003615,True,28,1
158K23S4,1001,experiment,78,←,down,↓,0.4887724998407066,False,28,1
158K23S4,1002,experiment,76,↑,down,↓,0.3590763001702726,False,28,1
158K23S4,1003,experiment,89,↑,up,↑,0.3681243001483381,True,28,0
158K23S4,1004,experiment,91,→,left,←,0.4570997999981046,False,28,0
158K23S4,1005,experiment,57,←,left,←,0.4122970998287201,True,28,1
158K23S4,1006,experiment,54,→,right,→,1.0486274999566376,True,28,1
158K23S4,1007,experiment,86,←,left,←,0.4024153999052942,True,28,1
158K23S4,1008,experiment,97,↓,left,←,0.5288412999361753,False,28,1
158K23S4,1009,experiment,60,→,right,→,0.42353460006415844,True,28,1
158K23S4,1010,experiment,71,↑,up,↑,0.4304686998948455,True,28,1
158K23S4,1011,experiment,87,→,right,→,0.32591000013053417,True,28,1
158K23S4,1012,experiment,48,↑,left,←,0.45799130015075207,False,28,0
158K23S4,1013,experiment,107,→,right,→,0.32548619993031025,True,28,1
158K23S4,1014,experiment,100,↓,down,↓,0.4208533000200987,True,28,0
158K23S4,1015,experiment,59,↓,down,↓,0.3587698000483215,True,28,1
158K23S4,1016,experiment,83,↑,down,↓,0.37540969997644424,False,28,0
158K23S4,1017,experiment,64,←,left,←,0.5288380002602935,True,28,1
158K23S4,1018,experiment,75,↓,down,↓,0.9541734997183084,True,28,1
158K23S4,1019,experiment,69,←,left,←,0.7085350002162158,True,28,1
158K23S4,1020,experiment,82,←,down,↓,0.8528486001305282,False,28,1
158K23S4,1021,experiment,88,→,right,→,0.5168522000312805,True,28,1
158K23S4,1022,experiment,63,↓,left,←,0.5950790997594595,False,28,1
158K23S4,1023,experiment,72,←,left,←,0.41997760022059083,True,28,1
158K23S4,1024,experiment,98,↓,down,↓,0.6094263000413775,True,28,1
158K23S4,1025,experiment,93,↓,down,↓,0.48169879987835884,True,28,1
158K23S4,1026,experiment,103,←,down,↓,0.523870499804616,False,28,1
158K23S4,1027,experiment,92,↓,down,↓,0.4237282001413405,True,28,1
158K23S4,1028,experiment,77,↓,down,↓,0.4211054998449981,True,28,1
158K23S4,1029,experiment,65,↓,down,↓,0.43804269982501864,True,28,1
158K23S4,1030,experiment,49,←,left,←,0.5398400998674333,True,28,1
158K23S4,1031,experiment,105,→,right,→,0.7072969996370375,True,28,1
158K23S4,1032,experiment,52,↑,up,↑,0.5009896997362375,True,28,1
158K23S4,1033,experiment,85,↑,up,↑,0.46035189973190427,True,28,1
158K23S4,1034,experiment,50,↓,down,↓,0.6091749002225697,True,28,1
158K23S4,1035,experiment,67,↑,up,↑,0.46650069998577237,True,28,1
158K23S4,1036,experiment,55,↓,down,↓,0.34244659962132573,True,28,1
158K23S4,1037,experiment,80,→,down,↓,0.5164860999211669,False,28,1
158K23S4,1038,experiment,58,↑,up,↑,0.49188549956306815,True,28,1
158K23S4,1039,experiment,84,↓,down,↓,0.4920213003642857,True,28,1
158K23S4,1040,experiment,56,↓,down,↓,0.46945059997960925,True,28,1
158K23S4,1041,experiment,90,↑,up,↑,0.42072159983217716,True,28,1
158K23S4,1042,experiment,61,←,down,↓,0.5668808999471366,False,28,1
158K23S4,1043,experiment,73,←,down,↓,0.4475766997784376,False,28,1
158K23S4,1044,experiment,70,→,right,→,0.5900078997947276,True,28,1
158K23S4,1045,experiment,94,↑,up,↑,0.5987577000632882,True,28,1
158K23S4,1046,experiment,96,↓,down,↓,0.415102600120008,True,28,1
158K23S4,1047,experiment,108,↓,down,↓,0.42586470022797585,True,28,1
158K23S4,1048,experiment,99,→,right,→,0.5354532999917865,True,28,1
158K23S4,1049,training,55,→,right,→,0.4513869001530111,True,28,0
158K23S4,1050,training,76,↑,up,↑,0.4397606998682022,True,28,1
158K23S4,1051,experiment,83,→,right,→,0.47459439979866147,True,28,1
158K23S4,1052,experiment,65,←,right,→,0.38400449976325035,False,28,1
158K23S4,1053,experiment,53,↓,down,↓,0.5677416999824345,True,28,0
158K23S4,1054,experiment,62,↑,up,↑,0.5399703001603484,True,28,1
158K23S4,1055,experiment,69,←,left,←,0.47922320012003183,True,28,1
158K23S4,1056,experiment,79,↓,down,↓,0.5614761002361774,True,28,1
158K23S4,1057,experiment,81,↑,up,↑,0.6077263001352549,True,28,1
158K23S4,1058,experiment,67,←,left,←,0.45716460002586246,True,28,1
158K23S4,1059,experiment,48,→,right,→,0.6383143002167344,True,28,1
158K23S4,1060,experiment,59,←,left,←,0.42484220024198294,True,28,1
158K23S4,1061,experiment,92,←,left,←,0.784697400406003,True,28,1
158K23S4,1062,experiment,54,→,right,→,0.8231840999796987,True,28,1
158K23S4,1063,experiment,99,↑,up,↑,0.4609854998998344,True,28,1
158K23S4,1064,experiment,94,↑,up,↑,0.6908827000297606,True,28,1
158K23S4,1065,experiment,75,↑,up,↑,0.6699374997988343,True,28,1
158K23S4,1066,experiment,102,→,right,→,0.4726653001271188,True,28,1
158K23S4,1067,experiment,49,↑,up,↑,0.42916710022836924,True,28,1
158K23S4,1068,experiment,90,↓,down,↓,0.49336239974945784,True,28,1
158K23S4,1069,experiment,108,↑,up,↑,0.7899596001952887,True,28,1
158K23S4,1070,experiment,71,↑,down,↓,0.6458154995925725,False,28,1
158K23S4,1071,experiment,76,←,left,←,0.8902457999065518,True,28,1
158K23S4,1072,experiment,72,→,right,→,0.5425307997502387,True,28,1
158K23S4,1073,experiment,55,↑,down,↓,0.7340851002372801,False,28,1
158K23S4,1074,experiment,104,←,left,←,0.4136838000267744,True,28,1
158K23S4,1075,experiment,77,↑,right,→,0.675139999948442,False,28,1
158K23S4,1076,experiment,50,←,left,←,0.45519400015473366,True,28,1
158K23S4,1077,experiment,85,↓,down,↓,0.6403486002236605,True,28,1
158K23S4,1078,experiment,87,↑,left,←,1.0900071002542973,False,28,1
158K23S4,1079,experiment,80,←,left,←,0.5307157002389431,True,28,1
158K23S4,1080,experiment,106,↓,down,↓,0.5938252001069486,True,28,1
158K23S4,1081,experiment,91,↓,down,↓,0.6114540002308786,True,28,1
158K23S4,1082,experiment,78,←,left,←,0.6007516998797655,True,28,1
158K23S4,1083,experiment,63,↓,down,↓,0.40422350028529763,True,28,1
158K23S4,1084,experiment,103,←,left,←,0.592535899952054,True,28,0
158K23S4,1085,experiment,60,←,left,←,0.3583856001496315,True,28,1
158K23S4,1086,experiment,86,→,right,→,0.9692794000729918,True,28,0
158K23S4,1087,experiment,57,←,left,←,0.47904070001095533,True,28,1
158K23S4,1088,experiment,101,←,no_key,no_letter,-1.0,False,28,1
158K23S4,1089,experiment,97,←,left,←,0.525311800185591,True,28,1
158K23S4,1090,experiment,95,→,right,→,0.9285490000620484,True,28,1
158K23S4,1091,experiment,64,↓,down,↓,0.5740365004166961,True,28,1
158K23S4,1092,experiment,100,→,left,←,0.6131163001991808,False,28,1
158K23S4,1093,experiment,66,↓,down,↓,0.47013390017673373,True,28,1
158K23S4,1094,experiment,89,→,right,→,0.49350660014897585,True,28,1
158K23S4,1095,experiment,98,↑,left,←,1.401271800044924,False,28,1
158K23S4,1096,experiment,107,→,right,→,0.4371182997711003,True,28,1
158K23S4,1097,experiment,52,←,left,←,0.513612300157547,True,28,1
158K23S4,1098,experiment,96,→,right,→,0.46058990014716983,True,28,1
158K23S4,1099,experiment,82,←,left,←,0.47879460034891963,True,28,1
158K23S4,1100,experiment,61,↓,down,↓,0.5348562998697162,True,28,1
158K23S4,1101,experiment,70,↑,up,↑,0.44189220014959574,True,28,1
158K23S4,1102,experiment,93,←,left,←,0.3591184001415968,True,28,1
158K23S4,1103,experiment,88,→,right,→,0.45267869997769594,True,28,1
158K23S4,1104,experiment,84,↓,down,↓,0.5426805997267365,True,28,1
158K23S4,1105,experiment,105,↓,down,↓,0.4775105998851359,True,28,1
158K23S4,1106,experiment,58,→,right,→,0.35859389975667,True,28,1
158K23S4,1107,experiment,68,←,left,←,0.5773885999806225,True,28,0
158K23S4,1108,experiment,74,←,left,←,0.43353909999132156,True,28,1
158K23S4,1109,experiment,73,→,left,←,0.6155881998129189,False,28,1
158K23S4,1110,experiment,56,→,right,→,0.40480329981073737,True,28,1
158K23S4,1111,experiment,51,→,left,←,0.45037350011989474,False,28,0
158K23S4,1112,training,57,→,right,→,0.6529290997423232,True,28,0
158K23S4,1113,training,94,↓,down,↓,0.5073561002500355,True,28,1
158K23S4,1114,experiment,89,←,left,←,0.4330737995915115,True,28,1
158K23S4,1115,experiment,99,↑,down,↓,0.44637530017644167,False,28,1
158K23S4,1116,experiment,59,→,right,→,0.5285041998140514,True,28,1
158K23S4,1117,experiment,53,↓,down,↓,0.4738497999496758,True,28,1
158K23S4,1118,experiment,83,↓,down,↓,0.44269589986652136,True,28,1
158K23S4,1119,experiment,48,→,right,→,0.472985299769789,True,28,1
158K23S4,1120,experiment,49,←,right,→,0.38400880014523864,False,28,1
158K23S4,1121,experiment,102,↑,up,↑,0.5793173997662961,True,28,1
158K23S4,1122,experiment,100,←,left,←,1.0504323998466134,True,28,1
158K23S4,1123,experiment,107,→,right,→,0.6523217000067234,True,28,1
158K23S4,1124,experiment,98,↓,down,↓,0.5455494998022914,True,28,1
158K23S4,1125,experiment,84,↑,up,↑,0.5357545996084809,True,28,1
158K23S4,1126,experiment,68,↓,down,↓,0.555156399961561,True,28,1
158K23S4,1127,experiment,92,←,left,←,0.46991619979962707,True,28,1
158K23S4,1128,experiment,101,↑,left,←,0.8175550000742078,False,28,1
158K23S4,1129,experiment,69,↓,down,↓,0.4333282997831702,True,28,1
158K23S4,1130,experiment,61,←,left,←,0.4914207998663187,True,28,1
158K23S4,1131,experiment,95,↑,left,←,1.0077928001992404,False,28,1
158K23S4,1132,experiment,52,↑,up,↑,0.4857797999866307,True,28,1
158K23S4,1133,experiment,57,↑,up,↑,0.45537730026990175,True,28,1
158K23S4,1134,experiment,106,→,right,→,0.36734410002827644,True,28,1
158K23S4,1135,experiment,72,↑,up,↑,0.41097130021080375,True,28,0
158K23S4,1136,experiment,87,←,left,←,0.8281211000867188,True,28,1
158K23S4,1137,experiment,91,↑,up,↑,0.5404183999635279,True,28,1
158K23S4,1138,experiment,94,←,left,←,0.3599791000597179,True,28,1
158K23S4,1139,experiment,66,←,left,←,0.506356599740684,True,28,0
158K23S4,1140,experiment,78,←,left,←,0.4038757001981139,True,28,1
158K23S4,1141,experiment,58,↑,up,↑,0.5997128998860717,True,28,1
158K23S4,1142,experiment,104,↑,up,↑,1.0207398999482393,True,28,1
158K23S4,1143,experiment,56,←,left,←,0.4405220001935959,True,28,1
158K23S4,1144,experiment,77,↑,up,↑,0.724975099787116,True,28,1
158K23S4,1145,experiment,80,→,right,→,0.5169564001262188,True,28,1
158K23S4,1146,experiment,74,→,right,→,0.5113903000019491,True,28,1
158K23S4,1147,experiment,73,←,left,←,0.49039850011467934,True,28,1
158K23S4,1148,experiment,64,↓,down,↓,0.5454192999750376,True,28,1
158K23S4,1149,experiment,70,↑,up,↑,0.5316861001774669,True,28,1
158K23S4,1150,experiment,50,→,right,→,0.5017535998485982,True,28,1
158K23S4,1151,experiment,60,↑,up,↑,0.5011570998467505,True,28,1
158K23S4,1152,experiment,85,←,left,←,0.508574299979955,True,28,1
158K23S4,1153,experiment,71,↓,down,↓,0.5126666002906859,True,28,1
158K23S4,1154,experiment,63,↑,up,↑,0.8307302999310195,True,28,1
158K23S4,1155,experiment,96,←,left,←,0.5086519001051784,True,28,1
158K23S4,1156,experiment,76,↑,up,↑,0.5027163997292519,True,28,1
158K23S4,1157,experiment,51,↓,down,↓,0.7458582003600895,True,28,1
158K23S4,1158,experiment,103,↑,up,↑,0.5529189999215305,True,28,1
158K23S4,1159,experiment,97,↑,up,↑,0.5143695999868214,True,28,1
158K23S4,1160,experiment,86,←,left,←,0.72867890028283,True,28,1
158K23S4,1161,experiment,81,↑,up,↑,1.2644004998728633,True,28,1
158K23S4,1162,experiment,105,↑,up,↑,0.4668387002311647,True,28,1
158K23S4,1163,experiment,54,↑,up,↑,0.5900416001677513,True,28,1
158K23S4,1164,experiment,93,←,left,←,0.5184668996371329,True,28,1
158K23S4,1165,experiment,90,↓,up,↑,0.7315199999138713,False,28,1
158K23S4,1166,experiment,79,→,right,→,1.02784419991076,True,28,1
158K23S4,1167,experiment,108,↑,up,↑,0.550163900014013,True,28,1
158K23S4,1168,experiment,82,←,left,←,0.5405814000405371,True,28,1
158K23S4,1169,experiment,75,←,left,←,0.35025750007480383,True,28,1
158K23S4,1170,experiment,65,←,left,←,0.36757140001282096,True,28,0
158K23S4,1171,experiment,62,↑,up,↑,0.5015281001105905,True,28,0
158K23S4,1172,experiment,55,←,left,←,0.3667211998254061,True,28,1
158K23S4,1173,experiment,88,→,left,←,0.4263975000940263,False,28,0
158K23S4,1174,experiment,67,→,right,→,0.411395899951458,True,28,1
158K23S4,1175,training,83,↓,left,←,0.9411936001852155,False,28,0
158K23S4,1176,training,90,→,right,→,0.5611548000015318,True,28,1
158K23S4,1177,experiment,58,←,left,←,0.4314946997910738,True,28,1
158K23S4,1178,experiment,102,↓,down,↓,0.47572810016572475,True,28,1
158K23S4,1179,experiment,53,←,left,←,0.4866450000554323,True,28,1
158K23S4,1180,experiment,93,←,left,←,0.33362000016495585,True,28,1
158K23S4,1181,experiment,95,↑,up,↑,0.46234859991818666,True,28,0
158K23S4,1182,experiment,86,→,right,→,0.3597100996412337,True,28,1
158K23S4,1183,experiment,49,←,left,←,0.5273157996125519,True,28,0
158K23S4,1184,experiment,88,→,right,→,0.5246735000982881,True,28,1
158K23S4,1185,experiment,71,↑,up,↑,0.49608979979529977,True,28,1
158K23S4,1186,experiment,85,←,left,←,0.46317890007048845,True,28,1
158K23S4,1187,experiment,94,↓,up,↑,0.7008978999219835,False,28,1
158K23S4,1188,experiment,61,→,right,→,1.2444531000219285,True,28,1
158K23S4,1189,experiment,100,→,right,→,0.40976590011268854,True,28,1
158K23S4,1190,experiment,63,→,right,→,0.411398199852556,True,28,1
158K23S4,1191,experiment,62,↑,up,↑,0.3757592001929879,True,28,1
158K23S4,1192,experiment,104,←,left,←,1.0841223001480103,True,28,0
158K23S4,1193,experiment,60,↓,down,↓,0.5321080000139773,True,28,1
158K23S4,1194,experiment,83,↓,down,↓,0.38380199996754527,True,28,1
158K23S4,1195,experiment,97,←,left,←,0.5226453002542257,True,28,0
158K23S4,1196,experiment,82,↑,down,↓,0.7385844998061657,False,28,1
158K23S4,1197,experiment,96,→,right,→,0.5800925996154547,True,28,1
158K23S4,1198,experiment,99,↓,down,↓,0.4278452997095883,True,28,1
158K23S4,1199,experiment,54,→,right,→,0.4398087002336979,True,28,1
158K23S4,1200,experiment,92,→,left,←,0.5435501001775265,False,28,1
158K23S4,1201,experiment,69,↓,down,↓,0.48280900018289685,True,28,1
158K23S4,1202,experiment,76,↑,up,↑,0.5261448998935521,True,28,1
158K23S4,1203,experiment,89,↑,up,↑,0.6745035997591913,True,28,1
158K23S4,1204,experiment,67,↓,down,↓,0.5448889001272619,True,28,1
158K23S4,1205,experiment,48,←,left,←,0.4989715996198356,True,28,1
158K23S4,1206,experiment,75,→,right,→,0.5020911996252835,True,28,1
158K23S4,1207,experiment,106,←,left,←,1.294177900068462,True,28,1
158K23S4,1208,experiment,64,↑,up,↑,0.5087414998561144,True,28,1
158K23S4,1209,experiment,84,←,left,←,0.6123645999468863,True,28,1
158K23S4,1210,experiment,70,↑,down,↓,0.5478742001578212,False,28,1
158K23S4,1211,experiment,103,↓,down,↓,0.5312983999028802,True,28,1
158K23S4,1212,experiment,78,↓,down,↓,0.44367010006681085,True,28,1
158K23S4,1213,experiment,101,↑,left,←,0.920278999954462,False,28,1
158K23S4,1214,experiment,107,↑,up,↑,0.6075319000519812,True,28,1
158K23S4,1215,experiment,81,↑,up,↑,0.5238931998610497,True,28,1
158K23S4,1216,experiment,59,→,left,←,0.6031356998719275,False,28,1
158K23S4,1217,experiment,52,→,right,→,0.48127829981967807,True,28,1
158K23S4,1218,experiment,57,→,right,→,0.4187539997510612,True,28,1
158K23S4,1219,experiment,108,↑,down,↓,0.4934220998547971,False,28,1
158K23S4,1220,experiment,105,←,left,←,0.5584174999967217,True,28,1
158K23S4,1221,experiment,91,←,left,←,0.4734836001880467,True,28,1
158K23S4,1222,experiment,56,←,left,←,0.3843092997558415,True,28,1
158K23S4,1223,experiment,87,↓,down,↓,0.5030551999807358,True,28,0
158K23S4,1224,experiment,77,↑,down,↓,0.6490938998758793,False,28,1
158K23S4,1225,experiment,98,↑,up,↑,0.5577258002012968,True,28,1
158K23S4,1226,experiment,55,↓,down,↓,0.5010549002327025,True,28,1
158K23S4,1227,experiment,65,→,right,→,0.46697339974343777,True,28,1
158K23S4,1228,experiment,73,→,left,←,0.4880559998564422,False,28,1
158K23S4,1229,experiment,72,↑,up,↑,0.491860399954021,True,28,1
158K23S4,1230,experiment,51,↑,up,↑,0.4871383002027869,True,28,1
158K23S4,1231,experiment,66,↑,down,↓,0.501664400100708,False,28,1
158K23S4,1232,experiment,50,←,left,←,0.41676719998940825,True,28,1
158K23S4,1233,experiment,80,↓,down,↓,0.48455270007252693,True,28,1
158K23S4,1234,experiment,68,←,left,←,0.5463715996593237,True,28,1
158K23S4,1235,experiment,79,↑,down,↓,0.42607220029458404,False,28,1
158K23S4,1236,experiment,74,↓,down,↓,0.5198194999247789,True,28,1
158K23S4,1237,experiment,90,→,right,→,0.38394860038533807,True,28,1
158K23S4,1238,training,95,↑,up,↑,0.5080116996541619,True,28,0
158K23S4,1239,training,57,←,left,←,0.9154182998463511,True,28,1
158K23S4,1240,experiment,100,←,left,←,0.44501079991459846,True,28,1
158K23S4,1241,experiment,88,↓,down,↓,0.6778098996728659,True,28,1
158K23S4,1242,experiment,94,←,left,←,0.4191700001247227,True,28,1
158K23S4,1243,experiment,63,←,left,←,0.40585860004648566,True,28,1
158K23S4,1244,experiment,101,↓,down,↓,0.4907289003022015,True,28,1
158K23S4,1245,experiment,97,→,right,→,0.45464929984882474,True,28,1
158K23S4,1246,experiment,66,←,left,←,0.4458416001871228,True,28,1
158K23S4,1247,experiment,84,→,left,←,0.5514803002588451,False,28,1
158K23S4,1248,experiment,64,↓,down,↓,0.5240519000217319,True,28,1
158K23S4,1249,experiment,93,↓,down,↓,1.13595059979707,True,28,1
158K23S4,1250,experiment,108,↓,down,↓,0.4699456999078393,True,28,1
158K23S4,1251,experiment,99,↑,down,↓,0.3755296003073454,False,28,1
158K23S4,1252,experiment,75,↑,up,↑,0.9294488998129964,True,28,0
158K23S4,1253,experiment,95,→,left,←,0.6121354000642896,False,28,1
158K23S4,1254,experiment,74,→,right,→,0.4030132000334561,True,28,1
158K23S4,1255,experiment,50,↑,down,↓,1.4416869999840856,False,28,0
158K23S4,1256,experiment,71,→,right,→,0.37691619992256165,True,28,1
158K23S4,1257,experiment,65,←,left,←,0.5064681000076234,True,28,0
158K23S4,1258,experiment,61,←,left,←,0.3673488995991647,True,28,1
158K23S4,1259,experiment,79,←,left,←,0.4958891998976469,True,28,0
158K23S4,1260,experiment,62,→,left,←,0.8388865999877453,False,28,1
158K23S4,1261,experiment,59,↑,up,↑,0.7372563001699746,True,28,1
158K23S4,1262,experiment,90,↑,down,↓,0.5497806998901069,False,28,1
158K23S4,1263,experiment,80,↑,up,↑,0.5648775999434292,True,28,1
158K23S4,1264,experiment,54,←,left,←,1.0759977996349335,True,28,1
158K23S4,1265,experiment,107,←,left,←,0.4370039999485016,True,28,1
158K23S4,1266,experiment,104,→,left,←,0.4809622997418046,False,28,1
158K23S4,1267,experiment,85,←,left,←,0.34253040002658963,True,28,1
158K23S4,1268,experiment,51,→,left,←,0.3757472997531295,False,28,0
158K23S4,1269,experiment,69,↑,up,↑,0.4194310000166297,True,28,0
158K23S4,1270,experiment,76,↑,up,↑,1.136640299577266,True,28,1
158K23S4,1271,experiment,96,→,right,→,0.4428844000212848,True,28,1
158K23S4,1272,experiment,73,↑,no_key,no_letter,-1.0,False,28,1
158K23S4,1273,experiment,49,↓,down,↓,0.5479420996271074,True,28,1
158K23S4,1274,experiment,81,→,right,→,0.9946504002436996,True,28,1
158K23S4,1275,experiment,82,↓,down,↓,0.5034003998152912,True,28,1
158K23S4,1276,experiment,56,↑,up,↑,0.5604031002148986,True,28,1
158K23S4,1277,experiment,48,↓,down,↓,0.5382218998856843,True,28,1
158K23S4,1278,experiment,83,→,right,→,0.568323299754411,True,28,1
158K23S4,1279,experiment,102,↓,down,↓,0.43126430036500096,True,28,1
158K23S4,1280,experiment,103,↓,down,↓,0.350719700101763,True,28,1
158K23S4,1281,experiment,106,→,down,↓,0.5773868998512626,False,28,1
158K23S4,1282,experiment,55,→,left,←,0.4239563001319766,False,28,1
158K23S4,1283,experiment,87,→,right,→,0.7054908000864089,True,28,1
158K23S4,1284,experiment,92,←,left,←,0.5261293002404273,True,28,1
158K23S4,1285,experiment,57,←,down,↓,0.6698576002381742,False,28,1
158K23S4,1286,experiment,77,↓,down,↓,0.545698800124228,True,28,1
158K23S4,1287,experiment,89,↓,down,↓,0.32662890013307333,True,28,1
158K23S4,1288,experiment,58,←,left,←,0.5167117002420127,True,28,0
158K23S4,1289,experiment,98,↓,down,↓,0.3516615997068584,True,28,1
158K23S4,1290,experiment,72,↓,down,↓,1.0000402997247875,True,28,0
158K23S4,1291,experiment,78,↓,right,→,0.7096287999302149,False,28,1
158K23S4,1292,experiment,70,↑,down,↓,0.4819355998188257,False,28,1
158K23S4,1293,experiment,91,→,left,←,0.9120848998427391,False,28,1
158K23S4,1294,experiment,86,↑,down,↓,0.4545827000401914,False,28,1
158K23S4,1295,experiment,52,←,left,←,0.4665141003206372,True,28,1
158K23S4,1296,experiment,68,↑,down,↓,0.4489822001196444,False,28,1
158K23S4,1297,experiment,67,↑,down,↓,0.48870320012792945,False,28,1
158K23S4,1298,experiment,60,→,right,→,0.44045789958909154,True,28,1
158K23S4,1299,experiment,105,↓,down,↓,0.41974399983882904,True,28,1
158K23S4,1300,experiment,53,→,right,→,0.504688199609518,True,28,1
158K23S4,1301,training,87,→,right,→,0.6482959999702871,True,28,0
158K23S4,1302,training,48,→,right,→,0.46196830039843917,True,28,1
158K23S4,1303,experiment,71,←,left,←,0.350433100014925,True,28,1
158K23S4,1304,experiment,82,←,left,←,0.3173541999422014,True,28,0
158K23S4,1305,experiment,70,↓,down,↓,0.5734887002035975,True,28,0
158K23S4,1306,experiment,53,↓,down,↓,0.3591149002313614,True,28,1
158K23S4,1307,experiment,104,←,left,←,0.42671839985996485,True,28,0
158K23S4,1308,experiment,66,↑,up,↑,0.5395492999814451,True,28,1
158K23S4,1309,experiment,97,→,right,→,0.4932066001929343,True,28,1
158K23S4,1310,experiment,83,←,no_key,no_letter,-1.0,False,28,1
158K23S4,1311,experiment,89,→,right,→,0.4597348999232054,True,28,1
158K23S4,1312,experiment,106,↓,down,↓,0.4297020002268255,True,28,1
158K23S4,1313,experiment,63,↓,down,↓,0.4635836002416909,True,28,1
158K23S4,1314,experiment,94,↓,down,↓,1.1493434999138117,True,28,1
158K23S4,1315,experiment,58,→,right,→,0.4997452003881335,True,28,1
158K23S4,1316,experiment,81,←,right,→,0.40501859970390797,False,28,1
158K23S4,1317,experiment,73,↓,down,↓,0.42742459988221526,True,28,1
158K23S4,1318,experiment,95,→,down,↓,0.7702226000837982,False,28,1
158K23S4,1319,experiment,87,←,down,↓,0.3752828002907336,False,28,1
158K23S4,1320,experiment,75,↓,down,↓,0.9660188001580536,True,28,0
158K23S4,1321,experiment,61,→,no_key,no_letter,-1.0,False,28,1
158K23S4,1322,experiment,60,↑,up,↑,0.6019170000217855,True,28,1
158K23S4,1323,experiment,79,→,right,→,0.4874869999475777,True,28,1
158K23S4,1324,experiment,101,→,left,←,0.5302593000233173,False,28,1
158K23S4,1325,experiment,74,←,left,←,0.4759121001698077,True,28,1
158K23S4,1326,experiment,50,→,right,→,0.4560275999829173,True,28,1
158K23S4,1327,experiment,57,↑,up,↑,0.5143543002195656,True,28,1
158K23S4,1328,experiment,100,→,down,↓,0.5959892002865672,False,28,1
158K23S4,1329,experiment,90,→,down,↓,0.885956899728626,False,28,1
158K23S4,1330,experiment,52,←,left,←,0.5850991997867823,True,28,1
158K23S4,1331,experiment,76,←,left,←,0.5284020002000034,True,28,1
158K23S4,1332,experiment,68,←,left,←,0.5002878000959754,True,28,1
158K23S4,1333,experiment,65,↓,down,↓,0.5304236998781562,True,28,1
158K23S4,1334,experiment,77,←,left,←,0.45110930036753416,True,28,1
158K23S4,1335,experiment,102,→,down,↓,0.6388229997828603,False,28,1
158K23S4,1336,experiment,59,←,left,←,0.4412914998829365,True,28,1
158K23S4,1337,experiment,84,↓,down,↓,0.4118276000954211,True,28,1
158K23S4,1338,experiment,62,→,down,↓,0.678097799886018,False,28,1
158K23S4,1339,experiment,67,↑,up,↑,0.49231360014528036,True,28,1
158K23S4,1340,experiment,55,↑,up,↑,0.36768690031021833,True,28,1
158K23S4,1341,experiment,80,→,left,←,0.5720156999304891,False,28,1
158K23S4,1342,experiment,93,↓,down,↓,0.7180121997371316,True,28,1
158K23S4,1343,experiment,85,↓,down,↓,0.9564593997783959,True,28,1
158K23S4,1344,experiment,64,←,left,←,0.47244059992954135,True,28,1
158K23S4,1345,experiment,92,←,down,↓,0.6144999000243843,False,28,1
158K23S4,1346,experiment,107,←,left,←,0.4185277000069618,True,28,1
158K23S4,1347,experiment,86,↑,up,↑,0.44386229990050197,True,28,1
158K23S4,1348,experiment,91,↓,down,↓,0.6596459001302719,True,28,1
158K23S4,1349,experiment,56,↓,down,↓,0.5424171998165548,True,28,1
158K23S4,1350,experiment,88,←,left,←,1.1553323999978602,True,28,1
158K23S4,1351,experiment,72,→,left,←,0.7088508000597358,False,28,1
158K23S4,1352,experiment,49,→,down,↓,1.0077492999844253,False,28,1
158K23S4,1353,experiment,98,→,left,←,0.5904560000635684,False,28,1
158K23S4,1354,experiment,78,↑,up,↑,0.47628890024498105,True,28,1
158K23S4,1355,experiment,103,←,left,←,0.6229219003580511,True,28,1
158K23S4,1356,experiment,54,←,left,←,0.44326990004628897,True,28,1
158K23S4,1357,experiment,48,→,right,→,0.5294343000277877,True,28,1
158K23S4,1358,experiment,99,↓,down,↓,0.5228707999922335,True,28,1
158K23S4,1359,experiment,108,↓,down,↓,0.6018221001140773,True,28,1
158K23S4,1360,experiment,96,→,right,→,0.497361300047487,True,28,1
158K23S4,1361,experiment,69,↑,up,↑,0.4859446003101766,True,28,1
158K23S4,1362,experiment,105,→,right,→,0.37640730012208223,True,28,1
158K23S4,1363,experiment,51,←,left,←,0.44686129968613386,True,28,0
158K23S4,1364,training,65,←,left,←,0.4143659002147615,True,28,0
158K23S4,1365,training,84,→,right,→,0.4488214999437332,True,28,1
158K23S4,1366,experiment,78,↓,down,↓,0.5089390999637544,True,28,1
158K23S4,1367,experiment,93,←,down,↓,0.6011681999079883,False,28,1
158K23S4,1368,experiment,49,↑,down,↓,1.072336900047958,False,28,1
158K23S4,1369,experiment,67,→,right,→,0.42289459984749556,True,28,1
158K23S4,1370,experiment,98,↑,down,↓,0.484797399956733,False,28,1
158K23S4,1371,experiment,96,→,down,↓,0.8410943998023868,False,28,1
158K23S4,1372,experiment,107,↑,up,↑,0.6995459999889135,True,28,1
158K23S4,1373,experiment,90,↑,up,↑,0.4174639000557363,True,28,1
158K23S4,1374,experiment,48,→,left,←,0.488255999982357,False,28,1
158K23S4,1375,experiment,75,↓,down,↓,0.6997511996887624,True,28,1
158K23S4,1376,experiment,52,↑,down,↓,0.5018068002536893,False,28,1
158K23S4,1377,experiment,58,→,right,→,0.41450610011816025,True,28,1
158K23S4,1378,experiment,74,↑,up,↑,0.5567017002031207,True,28,1
158K23S4,1379,experiment,105,→,right,→,0.4676938997581601,True,28,1
158K23S4,1380,experiment,104,←,left,←,0.5013486002571881,True,28,1
158K23S4,1381,experiment,70,↓,down,↓,0.5860892999917269,True,28,1
158K23S4,1382,experiment,59,←,left,←,0.4946351000107825,True,28,1
158K23S4,1383,experiment,64,↓,down,↓,0.5653089000843465,True,28,1
158K23S4,1384,experiment,77,↑,up,↑,0.5486622001044452,True,28,1
158K23S4,1385,experiment,89,↓,down,↓,0.44086139975115657,True,28,1
158K23S4,1386,experiment,106,→,down,↓,0.835519100073725,False,28,1
158K23S4,1387,experiment,68,→,right,→,0.49125769967213273,True,28,1
158K23S4,1388,experiment,79,←,down,↓,0.4931272999383509,False,28,1
158K23S4,1389,experiment,63,←,down,↓,0.5160341998562217,False,28,1
158K23S4,1390,experiment,76,↓,down,↓,0.36663420032709837,True,28,1
158K23S4,1391,experiment,91,→,down,↓,0.696246299892664,False,28,0
158K23S4,1392,experiment,69,↑,down,↓,1.117130400147289,False,28,1
158K23S4,1393,experiment,84,→,right,→,0.5159579999744892,True,28,1
158K23S4,1394,experiment,53,→,right,→,0.5734274000860751,True,28,1
158K23S4,1395,experiment,72,↓,right,→,0.526161199901253,False,28,1
158K23S4,1396,experiment,99,↑,down,↓,0.6878005000762641,False,28,1
158K23S4,1397,experiment,100,↓,down,↓,0.4104907000437379,True,28,1
158K23S4,1398,experiment,87,↑,down,↓,0.46109639992937446,False,28,1
158K23S4,1399,experiment,57,↓,down,↓,0.3591128997504711,True,28,1
158K23S4,1400,experiment,88,→,right,→,0.9635711000300944,True,28,0
158K23S4,1401,experiment,101,↑,up,↑,0.570450599770993,True,28,1
158K23S4,1402,experiment,60,←,left,←,0.4794872999191284,True,28,1
158K23S4,1403,experiment,71,←,left,←,0.36757380003109574,True,28,1
158K23S4,1404,experiment,92,↓,down,↓,0.5983635000884533,True,28,0
158K23S4,1405,experiment,50,↓,down,↓,0.5414277999661863,True,28,1
158K23S4,1406,experiment,62,→,right,→,0.8268385003320873,True,28,1
158K23S4,1407,experiment,65,↓,down,↓,0.4042945997789502,True,28,1
158K23S4,1408,experiment,94,↓,down,↓,0.3507329002022743,True,28,0
158K23S4,1409,experiment,83,←,right,→,0.3006348996423185,False,28,1
158K23S4,1410,experiment,97,↑,up,↑,0.7566693997941911,True,28,0
158K23S4,1411,experiment,86,↑,down,↓,0.8334820996969938,False,28,1
158K23S4,1412,experiment,108,↑,down,↓,0.41244859993457794,False,28,1
158K23S4,1413,experiment,82,↓,left,←,0.2750133997760713,False,28,1
158K23S4,1414,experiment,54,←,right,→,0.6579693998210132,False,28,0
158K23S4,1415,experiment,73,←,down,↓,0.9353557000868022,False,28,1
158K23S4,1416,experiment,103,←,left,←,0.5112212998792529,True,28,1
158K23S4,1417,experiment,95,↓,down,↓,0.41162879997864366,True,28,1
158K23S4,1418,experiment,66,←,left,←,0.5800532000139356,True,28,1
158K23S4,1419,experiment,51,←,down,↓,0.6198754999786615,False,28,1
158K23S4,1420,experiment,85,↑,down,↓,0.40686480002477765,False,28,1
158K23S4,1421,experiment,102,↓,up,↑,0.4354175003245473,False,28,1
158K23S4,1422,experiment,55,→,right,→,0.3754495996981859,True,28,1
158K23S4,1423,experiment,80,↑,up,↑,0.4931904999539256,True,28,0
158K23S4,1424,experiment,56,→,right,→,0.43869350012391806,True,28,1
158K23S4,1425,experiment,81,→,down,↓,0.9777251002378762,False,28,1
158K23S4,1426,experiment,61,↑,up,↑,0.5421357001177967,True,28,1
158K23S4,1427,training,52,↓,down,↓,0.5191913000307977,True,28,0
158K23S4,1428,training,104,←,left,←,0.9035885999910533,True,28,1
158K23S4,1429,experiment,70,→,down,↓,0.6838865000754595,False,28,1
158K23S4,1430,experiment,57,→,right,→,0.34254240011796355,True,28,1
158K23S4,1431,experiment,63,↑,up,↑,0.6017550998367369,True,28,1
158K23S4,1432,experiment,62,↓,down,↓,0.5330358003266156,True,28,1
158K23S4,1433,experiment,82,→,right,→,0.3421032000333071,True,28,1
158K23S4,1434,experiment,61,→,right,→,0.4735979000106454,True,28,0
158K23S4,1435,experiment,56,↑,up,↑,0.5634575001895428,True,28,1
158K23S4,1436,experiment,83,→,right,→,0.42498019989579916,True,28,1
158K23S4,1437,experiment,69,↑,down,↓,0.6248431000858545,False,28,1
158K23S4,1438,experiment,60,↓,down,↓,0.34209039993584156,True,28,1
158K23S4,1439,experiment,50,↓,down,↓,0.8685033000074327,True,28,0
158K23S4,1440,experiment,99,↓,down,↓,0.8006996000185609,True,28,1
158K23S4,1441,experiment,81,→,right,→,0.48515130020678043,True,28,1
158K23S4,1442,experiment,75,→,right,→,0.5287588001228869,True,28,1
158K23S4,1443,experiment,55,←,left,←,0.47297800006344914,True,28,1
158K23S4,1444,experiment,74,→,right,→,0.45312129985541105,True,28,1
158K23S4,1445,experiment,101,←,left,←,0.45717950025573373,True,28,1
158K23S4,1446,experiment,48,↑,up,↑,0.5428345003165305,True,28,1
158K23S4,1447,experiment,76,→,right,→,0.47131940023973584,True,28,1
158K23S4,1448,experiment,88,←,left,←,0.4229057002812624,True,28,1
158K23S4,1449,experiment,67,↑,up,↑,0.4394542998634279,True,28,1
158K23S4,1450,experiment,100,←,left,←,0.451912899967283,True,28,1
158K23S4,1451,experiment,92,→,right,→,0.8912251000292599,True,28,1
158K23S4,1452,experiment,104,→,right,→,0.5242456002160907,True,28,1
158K23S4,1453,experiment,58,→,right,→,0.3249474000185728,True,28,1
158K23S4,1454,experiment,64,←,left,←,0.5848922003060579,True,28,0
158K23S4,1455,experiment,78,→,left,←,0.5752882002852857,False,28,1
158K23S4,1456,experiment,68,↑,up,↑,0.5052558998577297,True,28,1
158K23S4,1457,experiment,53,→,right,→,0.4350041998550296,True,28,1
158K23S4,1458,experiment,49,←,left,←,0.48926000017672777,True,28,1
158K23S4,1459,experiment,93,→,right,→,0.7584414999000728,True,28,1
158K23S4,1460,experiment,90,↓,down,↓,0.609676199965179,True,28,1
158K23S4,1461,experiment,96,→,right,→,0.5770568000152707,True,28,1
158K23S4,1462,experiment,95,←,left,←,0.5621617003343999,True,28,1
158K23S4,1463,experiment,108,↓,down,↓,0.5751606998965144,True,28,1
158K23S4,1464,experiment,59,↑,up,↑,0.5321476999670267,True,28,1
158K23S4,1465,experiment,79,→,right,→,0.7324896003119648,True,28,1
158K23S4,1466,experiment,84,←,down,↓,0.6585487998090684,False,28,1
158K23S4,1467,experiment,72,↑,up,↑,0.7281665001064539,True,28,1
158K23S4,1468,experiment,71,→,down,↓,0.6592490999028087,False,28,1
158K23S4,1469,experiment,77,↑,up,↑,0.5588048999197781,True,28,1
158K23S4,1470,experiment,94,↑,left,←,0.6410820996388793,False,28,1
158K23S4,1471,experiment,80,↑,up,↑,0.5641457000747323,True,28,1
158K23S4,1472,experiment,89,←,left,←,0.5596926002763212,True,28,1
158K23S4,1473,experiment,51,↓,down,↓,0.5039781001396477,True,28,1
158K23S4,1474,experiment,106,↓,down,↓,0.408780500292778,True,28,1
158K23S4,1475,experiment,66,↓,down,↓,0.3759317002259195,True,28,1
158K23S4,1476,experiment,52,↓,down,↓,0.3423440996557474,True,28,0
158K23S4,1477,experiment,86,←,left,←,0.4782440001145005,True,28,0
158K23S4,1478,experiment,91,→,right,→,0.5086825997568667,True,28,1
158K23S4,1479,experiment,85,↓,down,↓,0.4766828999854624,True,28,1
158K23S4,1480,experiment,105,←,left,←,0.38434380013495684,True,28,1
158K23S4,1481,experiment,103,←,right,→,0.515039199963212,False,28,0
158K23S4,1482,experiment,87,←,left,←,0.3592916000634432,True,28,1
158K23S4,1483,experiment,97,↑,right,→,0.35069140000268817,False,28,0
