PART_ID,Trial_no,Trial_type,CSI,Stim_letter,Key_pressed,letter_choose,Rt,Corr,Stimulus Time,nDropped
159K21S4,1,training,120,←,no_key,no_letter,-1.0,False,60,2
159K21S4,2,training,120,→,right,→,0.6002590996213257,True,60,0
159K21S4,3,training,120,↓,down,↓,0.491746099665761,True,60,0
159K21S4,4,training,120,→,right,→,0.4255296001210809,True,60,0
159K21S4,5,training,120,←,left,←,0.37728699995204806,True,60,0
159K21S4,6,training,120,→,right,→,0.4005223996937275,True,60,0
159K21S4,7,training,120,→,right,→,0.7902542999945581,True,60,0
159K21S4,8,training,120,↓,down,↓,0.49985710019245744,True,60,0
159K21S4,9,training,120,←,left,←,0.6016035000793636,True,60,0
159K21S4,10,training,120,←,left,←,0.6946004000492394,True,60,0
159K21S4,11,training,120,↓,left,←,0.6821038997732103,False,60,0
159K21S4,12,training,120,→,right,→,0.6092938999645412,True,60,0
159K21S4,13,training,120,↑,up,↑,0.5591684998944402,True,60,0
159K21S4,14,training,120,→,right,→,0.7562452000565827,True,60,0
159K21S4,15,training,120,↓,down,↓,0.6169503000564873,True,60,0
159K21S4,16,training,120,→,right,→,0.6173942000605166,True,60,0
159K21S4,17,training,120,↓,down,↓,0.43523479998111725,True,60,0
159K21S4,18,training,120,↑,up,↑,0.48565519973635674,True,60,0
159K21S4,19,training,120,→,right,→,0.5084951999597251,True,60,0
159K21S4,20,training,120,↓,down,↓,0.4601835999637842,True,60,0
159K21S4,21,no_adaptation,120,↑,up,↑,0.9234414999373257,True,36,0
159K21S4,22,no_adaptation,120,↓,down,↓,0.5655497000552714,True,36,0
159K21S4,23,no_adaptation,120,↑,up,↑,0.7022310001775622,True,36,0
159K21S4,24,no_adaptation,120,→,right,→,0.4426250997930765,True,36,0
159K21S4,25,no_adaptation,120,↑,up,↑,0.5261006997898221,True,36,0
159K21S4,26,no_adaptation,120,↑,up,↑,0.9523566998541355,True,36,0
159K21S4,27,no_adaptation,120,→,no_key,no_letter,-1.0,False,36,0
159K21S4,28,no_adaptation,120,→,right,→,0.4507173001766205,True,36,0
159K21S4,29,no_adaptation,120,←,left,←,0.42567860009148717,True,36,0
159K21S4,30,no_adaptation,120,←,left,←,0.5002271998673677,True,36,0
159K21S4,31,no_adaptation,120,↑,up,↑,0.48066879995167255,True,36,0
159K21S4,32,no_adaptation,120,↓,no_key,no_letter,-1.0,False,36,0
159K21S4,33,no_adaptation,120,↑,up,↑,0.4923076000995934,True,36,0
159K21S4,34,no_adaptation,120,←,left,←,0.5910947998054326,True,36,0
159K21S4,35,no_adaptation,120,↓,down,↓,0.5103936996310949,True,36,0
159K21S4,36,no_adaptation,120,↑,up,↑,0.40979869989678264,True,36,0
159K21S4,37,no_adaptation,120,→,right,→,0.5031568999402225,True,36,0
159K21S4,38,no_adaptation,120,↑,up,↑,0.42576840007677674,True,36,0
159K21S4,39,no_adaptation,120,↑,no_key,no_letter,-1.0,False,36,0
159K21S4,40,no_adaptation,120,↑,up,↑,0.40907280007377267,True,36,0
159K21S4,41,training,66,→,right,→,0.584188399836421,True,36,0
159K21S4,42,training,80,↑,up,↑,0.470507999882102,True,36,1
159K21S4,43,experiment,67,←,left,←,0.5722878999076784,True,36,0
159K21S4,44,experiment,92,↓,down,↓,0.5182773000560701,True,36,1
159K21S4,45,experiment,99,↑,up,↑,0.3840685002505779,True,36,1
159K21S4,46,experiment,103,↓,down,↓,0.6541515002027154,True,36,0
159K21S4,47,experiment,105,↓,down,↓,0.5375177999958396,True,36,1
159K21S4,48,experiment,108,↑,up,↑,0.48803839972242713,True,36,1
159K21S4,49,experiment,91,↑,up,↑,0.35089509980753064,True,36,1
159K21S4,50,experiment,97,←,left,←,0.5341985998675227,True,36,0
159K21S4,51,experiment,51,↑,up,↑,0.4010453997179866,True,36,1
159K21S4,52,experiment,70,→,right,→,0.4092590999789536,True,36,0
159K21S4,53,experiment,71,→,up,↑,0.3925650999881327,False,36,0
159K21S4,54,experiment,75,→,right,→,0.5500583997927606,True,36,0
159K21S4,55,experiment,76,→,right,→,0.4007517001591623,True,36,1
159K21S4,56,experiment,85,↓,down,↓,0.49766060011461377,True,36,0
159K21S4,57,experiment,72,←,left,←,0.5732268998399377,True,36,1
159K21S4,58,experiment,106,↑,up,↑,0.40912560001015663,True,36,1
159K21S4,59,experiment,80,↓,down,↓,0.6956274001859128,True,36,0
159K21S4,60,experiment,64,↑,up,↑,0.3350893002934754,True,36,1
159K21S4,61,experiment,104,↓,down,↓,0.5967950997874141,True,36,0
159K21S4,62,experiment,49,←,no_key,no_letter,-1.0,False,36,1
159K21S4,63,experiment,78,↓,down,↓,0.4424644000828266,True,36,1
159K21S4,64,experiment,68,→,right,→,0.6502201003022492,True,36,0
159K21S4,65,experiment,54,↑,up,↑,0.4006556998938322,True,36,1
159K21S4,66,experiment,56,←,left,←,0.4173813001252711,True,36,0
159K21S4,67,experiment,65,←,left,←,0.47634030040353537,True,36,0
159K21S4,68,experiment,61,←,left,←,0.4424370997585356,True,36,1
159K21S4,69,experiment,52,→,right,→,0.4424046999774873,True,36,0
159K21S4,70,experiment,79,↑,up,↑,0.6445448999293149,True,36,0
159K21S4,71,experiment,58,↑,up,↑,0.4256270001642406,True,36,1
159K21S4,72,experiment,77,↓,down,↓,0.5155006996355951,True,36,0
159K21S4,73,experiment,60,←,left,←,0.417346800211817,True,36,1
159K21S4,74,experiment,93,↑,no_key,no_letter,-1.0,False,36,0
159K21S4,75,experiment,86,→,right,→,0.49479010002687573,True,36,1
159K21S4,76,experiment,87,↑,up,↑,0.5097926002927125,True,36,1
159K21S4,77,experiment,107,←,left,←,0.36706920014694333,True,36,1
159K21S4,78,experiment,48,←,left,←,0.5581868998706341,True,36,0
159K21S4,79,experiment,94,↑,up,↑,0.4259831001982093,True,36,1
159K21S4,80,experiment,95,→,right,→,0.44236569991335273,True,36,0
159K21S4,81,experiment,83,←,left,←,0.5371677000075579,True,36,0
159K21S4,82,experiment,63,→,right,→,0.44237569998949766,True,36,1
159K21S4,83,experiment,102,↑,up,↑,0.5541445999406278,True,36,0
159K21S4,84,experiment,53,↓,up,↑,0.48239379981532693,False,36,1
159K21S4,85,experiment,96,↑,no_key,no_letter,-1.0,False,36,1
159K21S4,86,experiment,57,↑,up,↑,0.4417230999097228,True,36,1
159K21S4,87,experiment,89,←,left,←,0.40912480000406504,True,36,0
159K21S4,88,experiment,98,↑,up,↑,0.5866101998835802,True,36,0
159K21S4,89,experiment,101,↓,down,↓,0.49741030018776655,True,36,1
159K21S4,90,experiment,81,→,right,→,0.43518290016800165,True,36,1
159K21S4,91,experiment,50,↑,up,↑,0.3681430001743138,True,36,0
159K21S4,92,experiment,90,←,left,←,0.5056575001217425,True,36,0
159K21S4,93,experiment,73,→,right,→,0.6766921998932958,True,36,1
159K21S4,94,experiment,55,→,right,→,0.495214999653399,True,36,1
159K21S4,95,experiment,62,←,left,←,0.4173878999426961,True,36,1
159K21S4,96,experiment,69,→,right,→,0.37575319968163967,True,36,0
159K21S4,97,experiment,82,↑,up,↑,0.49915360007435083,True,36,0
159K21S4,98,experiment,66,↓,down,↓,0.6809259001165628,True,36,1
159K21S4,99,experiment,59,↑,up,↑,0.7774637001566589,True,36,1
159K21S4,100,experiment,74,→,right,→,0.5696470998227596,True,36,1
159K21S4,101,experiment,84,↓,down,↓,0.5347373997792602,True,36,1
159K21S4,102,experiment,100,→,right,→,0.4254171000793576,True,36,1
159K21S4,103,experiment,88,←,no_key,no_letter,-1.0,False,36,0
159K21S4,104,training,79,←,left,←,0.44231020007282495,True,35,0
159K21S4,105,training,82,↓,down,↓,0.5411694999784231,True,35,0
159K21S4,106,experiment,69,←,left,←,0.5603191000409424,True,35,1
159K21S4,107,experiment,54,←,left,←,0.7116348999552429,True,35,1
159K21S4,108,experiment,57,↓,down,↓,0.7600453002378345,True,35,1
159K21S4,109,experiment,77,→,right,→,0.7438392001204193,True,35,1
159K21S4,110,experiment,101,↓,down,↓,0.6400975999422371,True,35,1
159K21S4,111,experiment,67,→,right,→,0.46468849992379546,True,35,1
159K21S4,112,experiment,82,→,right,→,0.36734949983656406,True,35,0
159K21S4,113,experiment,50,→,right,→,0.37566660018637776,True,35,0
159K21S4,114,experiment,95,↑,no_key,no_letter,-1.0,False,35,0
159K21S4,115,experiment,64,↓,down,↓,0.5583458999171853,True,35,1
159K21S4,116,experiment,71,←,left,←,0.417153500020504,True,35,1
159K21S4,117,experiment,52,↑,up,↑,0.5736255999654531,True,35,0
159K21S4,118,experiment,96,←,left,←,0.5503275999799371,True,35,1
159K21S4,119,experiment,103,←,left,←,0.509802000131458,True,35,1
159K21S4,120,experiment,65,→,right,→,0.417365999892354,True,35,1
159K21S4,121,experiment,94,←,left,←,0.35910020023584366,True,35,0
159K21S4,122,experiment,83,←,left,←,0.3757043997757137,True,35,0
159K21S4,123,experiment,55,←,left,←,0.308402800001204,True,35,0
159K21S4,124,experiment,59,↓,down,↓,0.5980400000698864,True,35,0
159K21S4,125,experiment,88,←,left,←,0.3673740001395345,True,35,1
159K21S4,126,experiment,75,↑,up,↑,0.3918628003448248,True,35,0
159K21S4,127,experiment,100,←,left,←,0.375845099799335,True,35,0
159K21S4,128,experiment,78,↓,down,↓,0.5966983996331692,True,35,0
159K21S4,129,experiment,62,↑,up,↑,0.9121746001765132,True,35,1
159K21S4,130,experiment,66,←,left,←,0.39239290030673146,True,35,1
159K21S4,131,experiment,104,↑,up,↑,0.4666659999638796,True,35,0
159K21S4,132,experiment,51,↑,up,↑,0.44234760012477636,True,35,1
159K21S4,133,experiment,53,↑,up,↑,0.3003770997747779,True,35,0
159K21S4,134,experiment,99,↑,up,↑,0.5328710996545851,True,35,0
159K21S4,135,experiment,58,→,left,←,0.4341047997586429,False,35,1
159K21S4,136,experiment,107,↓,down,↓,0.5503191999159753,True,35,0
159K21S4,137,experiment,106,↑,up,↑,0.524704699870199,True,35,1
159K21S4,138,experiment,93,→,right,→,0.5284775998443365,True,35,1
159K21S4,139,experiment,79,→,right,→,0.48882220033556223,True,35,1
159K21S4,140,experiment,108,→,right,→,0.7051731003448367,True,35,1
159K21S4,141,experiment,91,←,left,←,0.46258219983428717,True,35,1
159K21S4,142,experiment,70,←,left,←,0.40904950024560094,True,35,0
159K21S4,143,experiment,92,←,right,→,0.476203799713403,False,35,0
159K21S4,144,experiment,87,↓,down,↓,0.5798120000399649,True,35,1
159K21S4,145,experiment,89,→,right,→,0.48664300004020333,True,35,1
159K21S4,146,experiment,74,↓,down,↓,0.5379211003892124,True,35,1
159K21S4,147,experiment,63,↑,up,↑,0.5349528999067843,True,35,1
159K21S4,148,experiment,90,←,left,←,0.5793865001760423,True,35,1
159K21S4,149,experiment,48,←,left,←,0.5801168000325561,True,35,1
159K21S4,150,experiment,61,→,right,→,0.6241468000225723,True,35,1
159K21S4,151,experiment,84,←,left,←,0.3171711000613868,True,35,1
159K21S4,152,experiment,97,↓,down,↓,0.5493470998480916,True,35,0
159K21S4,153,experiment,49,↑,up,↑,0.6147850998677313,True,35,1
159K21S4,154,experiment,81,→,no_key,no_letter,-1.0,False,35,1
159K21S4,155,experiment,85,←,left,←,0.4340144000016153,True,35,1
159K21S4,156,experiment,56,↑,up,↑,0.5551074999384582,True,35,0
159K21S4,157,experiment,73,←,left,←,0.40914310002699494,True,35,1
159K21S4,158,experiment,60,↑,up,↑,0.6152181997895241,True,35,0
159K21S4,159,experiment,76,→,right,→,0.5810033003799617,True,35,1
159K21S4,160,experiment,98,←,left,←,0.38393810018897057,True,35,1
159K21S4,161,experiment,102,↓,down,↓,0.8827949999831617,True,35,0
159K21S4,162,experiment,72,→,right,→,0.5999091002158821,True,35,1
159K21S4,163,experiment,86,↓,down,↓,0.634158699773252,True,35,1
159K21S4,164,experiment,105,←,left,←,0.5174897997640073,True,35,1
159K21S4,165,experiment,80,↑,up,↑,0.49381630029529333,True,35,1
159K21S4,166,experiment,68,↑,up,↑,0.5074268998578191,True,35,1
159K21S4,167,training,99,←,left,←,0.3506841999478638,True,34,0
159K21S4,168,training,101,↓,down,↓,0.6350059001706541,True,34,0
159K21S4,169,experiment,48,→,left,←,0.5775866997428238,False,34,1
159K21S4,170,experiment,101,↑,up,↑,0.5924721001647413,True,34,1
159K21S4,171,experiment,66,→,right,→,0.6025738003663719,True,34,1
159K21S4,172,experiment,102,↓,down,↓,0.5121315000578761,True,34,1
159K21S4,173,experiment,103,↑,up,↑,0.5612411997281015,True,34,1
159K21S4,174,experiment,79,↑,up,↑,0.40911820018664,True,34,1
159K21S4,175,experiment,68,→,right,→,0.4573832000605762,True,34,0
159K21S4,176,experiment,71,→,right,→,0.3920768001116812,True,34,0
159K21S4,177,experiment,75,↑,up,↑,0.40068159997463226,True,34,0
159K21S4,178,experiment,97,→,right,→,0.46097860019654036,True,34,0
159K21S4,179,experiment,83,↑,up,↑,0.3754238002002239,True,34,1
159K21S4,180,experiment,98,←,left,←,0.4257120001129806,True,34,0
159K21S4,181,experiment,60,↓,down,↓,0.5758794001303613,True,34,0
159K21S4,182,experiment,78,↓,down,↓,0.4711159998551011,True,34,1
159K21S4,183,experiment,64,↑,up,↑,0.7820288999937475,True,34,1
159K21S4,184,experiment,94,←,left,←,0.368079099804163,True,34,1
159K21S4,185,experiment,96,→,right,→,0.40886460011824965,True,34,0
159K21S4,186,experiment,55,→,right,→,0.716248800046742,True,34,0
159K21S4,187,experiment,61,→,right,→,0.5789630999788642,True,34,1
159K21S4,188,experiment,59,←,left,←,0.40921959979459643,True,34,1
159K21S4,189,experiment,81,↑,up,↑,0.40068509988486767,True,34,0
159K21S4,190,experiment,107,←,left,←,0.8955832002684474,True,34,0
159K21S4,191,experiment,58,↑,up,↑,0.5762608000077307,True,34,1
159K21S4,192,experiment,80,↓,down,↓,0.5023402003571391,True,34,1
159K21S4,193,experiment,86,←,left,←,0.5735150999389589,True,34,1
159K21S4,194,experiment,99,↑,up,↑,0.5170871000736952,True,34,1
159K21S4,195,experiment,50,↓,down,↓,0.48752930015325546,True,34,1
159K21S4,196,experiment,63,→,left,←,0.48665499966591597,False,34,1
159K21S4,197,experiment,84,←,left,←,0.5829733000136912,True,34,1
159K21S4,198,experiment,91,↑,up,↑,0.5290894000791013,True,34,1
159K21S4,199,experiment,52,←,left,←,0.3591312002390623,True,34,1
159K21S4,200,experiment,62,←,left,←,0.4865862000733614,True,34,0
159K21S4,201,experiment,74,←,left,←,0.3920980002731085,True,34,1
159K21S4,202,experiment,69,↓,down,↓,0.5790854999795556,True,34,0
159K21S4,203,experiment,53,→,left,←,0.4584247004240751,False,34,1
159K21S4,204,experiment,105,↑,up,↑,0.5238801999948919,True,34,1
159K21S4,205,experiment,49,↑,no_key,no_letter,-1.0,False,34,1
159K21S4,206,experiment,93,→,right,→,0.4258131003007293,True,34,1
159K21S4,207,experiment,108,→,right,→,0.3670709999278188,True,34,0
159K21S4,208,experiment,88,↑,up,↑,0.5509581998921931,True,34,0
159K21S4,209,experiment,76,→,right,→,0.4712049998342991,True,34,1
159K21S4,210,experiment,70,↑,up,↑,0.43383400002494454,True,34,1
159K21S4,211,experiment,51,↑,up,↑,0.417378599755466,True,34,0
159K21S4,212,experiment,57,→,right,→,0.581534800119698,True,34,0
159K21S4,213,experiment,54,↑,up,↑,0.48410960007458925,True,34,1
159K21S4,214,experiment,100,↓,down,↓,0.5508701000362635,True,34,1
159K21S4,215,experiment,106,↑,up,↑,0.6531809000298381,True,34,1
159K21S4,216,experiment,90,↓,down,↓,0.5490291998721659,True,34,1
159K21S4,217,experiment,82,→,right,→,0.4177809995599091,True,34,1
159K21S4,218,experiment,87,↑,up,↑,0.41738460026681423,True,34,0
159K21S4,219,experiment,89,↑,up,↑,0.5421239999122918,True,34,0
159K21S4,220,experiment,92,←,left,←,0.5380075997672975,True,34,1
159K21S4,221,experiment,85,↑,up,↑,0.4008336002007127,True,34,1
159K21S4,222,experiment,95,←,left,←,0.5193413002416492,True,34,0
159K21S4,223,experiment,67,←,left,←,0.42570640007033944,True,34,1
159K21S4,224,experiment,73,←,left,←,0.6021576002240181,True,34,0
159K21S4,225,experiment,77,↑,up,↑,0.38494399981573224,True,34,1
159K21S4,226,experiment,65,←,left,←,0.3924716003239155,True,34,0
159K21S4,227,experiment,104,→,right,→,0.47147450037300587,True,34,0
159K21S4,228,experiment,56,↑,up,↑,0.4975591003894806,True,34,1
159K21S4,229,experiment,72,↓,down,↓,0.5252441996708512,True,34,1
159K21S4,230,training,88,↑,up,↑,0.4615937997587025,True,33,0
159K21S4,231,training,53,←,left,←,0.3340819999575615,True,33,1
159K21S4,232,experiment,78,←,left,←,0.6250566001981497,True,33,0
159K21S4,233,experiment,65,↓,down,↓,0.6182687999680638,True,33,1
159K21S4,234,experiment,58,←,left,←,0.44576049968600273,True,33,1
159K21S4,235,experiment,68,→,right,→,0.6369373998604715,True,33,0
159K21S4,236,experiment,106,↓,down,↓,0.567903000395745,True,33,1
159K21S4,237,experiment,81,→,right,→,0.4621687000617385,True,33,1
159K21S4,238,experiment,54,↓,down,↓,0.47311729984357953,True,33,1
159K21S4,239,experiment,49,↓,down,↓,0.5815937998704612,True,33,1
159K21S4,240,experiment,74,↑,no_key,no_letter,-1.0,False,33,1
159K21S4,241,experiment,86,↑,up,↑,0.40057549998164177,True,33,1
159K21S4,242,experiment,53,←,left,←,0.44839269993826747,True,33,0
159K21S4,243,experiment,55,→,right,→,0.42581510031595826,True,33,1
159K21S4,244,experiment,70,←,left,←,0.38424899987876415,True,33,0
159K21S4,245,experiment,75,↓,no_key,no_letter,-1.0,False,33,0
159K21S4,246,experiment,48,←,left,←,0.38421159982681274,True,33,1
159K21S4,247,experiment,61,↑,no_key,no_letter,-1.0,False,33,0
159K21S4,248,experiment,82,↑,up,↑,0.518032000400126,True,33,1
159K21S4,249,experiment,57,↑,up,↑,0.46235339995473623,True,33,1
159K21S4,250,experiment,94,→,left,←,0.44438960030674934,False,33,1
159K21S4,251,experiment,76,←,left,←,0.7362500000745058,True,33,0
159K21S4,252,experiment,56,→,right,→,0.5520518999546766,True,33,1
159K21S4,253,experiment,103,↑,up,↑,0.5355954002588987,True,33,1
159K21S4,254,experiment,71,←,left,←,0.5701729999855161,True,33,1
159K21S4,255,experiment,92,↓,down,↓,0.6846154998056591,True,33,1
159K21S4,256,experiment,91,←,left,←,0.47469200007617474,True,33,1
159K21S4,257,experiment,73,↑,up,↑,0.5029314002022147,True,33,1
159K21S4,258,experiment,96,←,left,←,0.5226504998281598,True,33,1
159K21S4,259,experiment,66,←,left,←,0.3592162998393178,True,33,1
159K21S4,260,experiment,64,←,left,←,0.5152373998425901,True,33,0
159K21S4,261,experiment,101,↑,up,↑,0.4924796996638179,True,33,1
159K21S4,262,experiment,107,↓,up,↑,0.38397710025310516,False,33,1
159K21S4,263,experiment,77,←,left,←,0.56345280027017,True,33,0
159K21S4,264,experiment,89,←,left,←,0.4708166001364589,True,33,1
159K21S4,265,experiment,85,↑,up,↑,0.45618259999901056,True,33,1
159K21S4,266,experiment,79,↑,up,↑,0.5463013001717627,True,33,1
159K21S4,267,experiment,97,↑,up,↑,0.44399760011583567,True,33,1
159K21S4,268,experiment,72,↑,up,↑,0.3757016002200544,True,33,0
159K21S4,269,experiment,52,←,left,←,0.6328262002207339,True,33,0
159K21S4,270,experiment,105,↓,down,↓,0.5402812003158033,True,33,1
159K21S4,271,experiment,108,↓,down,↓,0.570215200074017,True,33,1
159K21S4,272,experiment,87,→,right,→,0.5263379001989961,True,33,1
159K21S4,273,experiment,93,←,left,←,0.40076009975746274,True,33,1
159K21S4,274,experiment,63,←,left,←,0.44522969983518124,True,33,0
159K21S4,275,experiment,100,↑,up,↑,0.41763299982994795,True,33,0
159K21S4,276,experiment,59,→,no_key,no_letter,-1.0,False,33,0
159K21S4,277,experiment,98,→,right,→,0.661523099988699,True,33,1
159K21S4,278,experiment,90,↑,up,↑,0.3841208000667393,True,33,1
159K21S4,279,experiment,62,←,left,←,0.5279613002203405,True,33,0
159K21S4,280,experiment,95,←,left,←,0.45158159965649247,True,33,1
159K21S4,281,experiment,104,↑,up,↑,0.4936677999794483,True,33,1
159K21S4,282,experiment,88,↑,up,↑,0.35908039985224605,True,33,1
159K21S4,283,experiment,67,↓,down,↓,0.6711323000490665,True,33,0
159K21S4,284,experiment,50,→,right,→,0.39236969966441393,True,33,1
159K21S4,285,experiment,51,↓,down,↓,0.5381034999154508,True,33,0
159K21S4,286,experiment,99,↑,up,↑,0.5870507000945508,True,33,1
159K21S4,287,experiment,69,←,left,←,0.5724517996422946,True,33,1
159K21S4,288,experiment,83,↑,up,↑,0.6734910998493433,True,33,1
159K21S4,289,experiment,102,←,no_key,no_letter,-1.0,False,33,1
159K21S4,290,experiment,84,↑,up,↑,0.562069300096482,True,33,1
159K21S4,291,experiment,60,→,right,→,0.6396144996397197,True,33,1
159K21S4,292,experiment,80,→,right,→,0.6748545002192259,True,33,1
159K21S4,293,training,52,↓,down,↓,0.6523997001349926,True,33,0
159K21S4,294,training,90,↑,up,↑,0.35064580012112856,True,33,1
159K21S4,295,experiment,96,↑,up,↑,0.6692641000263393,True,33,0
159K21S4,296,experiment,97,↓,down,↓,0.6499129999428988,True,33,1
159K21S4,297,experiment,60,↑,up,↑,0.5716210999526083,True,33,1
159K21S4,298,experiment,87,←,left,←,0.5194585998542607,True,33,1
159K21S4,299,experiment,98,↑,up,↑,0.561827199999243,True,33,1
159K21S4,300,experiment,69,↑,up,↑,0.3838010998442769,True,33,1
159K21S4,301,experiment,66,↑,up,↑,0.351483799982816,True,33,0
159K21S4,302,experiment,104,→,right,→,0.4765893002040684,True,33,0
159K21S4,303,experiment,52,→,right,→,0.6720647001639009,True,33,1
159K21S4,304,experiment,82,→,right,→,0.37569390004500747,True,33,1
159K21S4,305,experiment,71,→,right,→,0.6022482998669147,True,33,0
159K21S4,306,experiment,93,↓,up,↑,0.6829904997721314,False,33,1
159K21S4,307,experiment,83,→,right,→,0.5877749999053776,True,33,1
159K21S4,308,experiment,54,←,right,→,0.4977107997983694,False,33,1
159K21S4,309,experiment,56,←,left,←,0.35889750020578504,True,33,1
159K21S4,310,experiment,92,←,left,←,0.3670705002732575,True,33,0
159K21S4,311,experiment,86,↓,down,↓,0.49728989973664284,True,33,0
159K21S4,312,experiment,57,↑,up,↑,0.4821084002032876,True,33,1
159K21S4,313,experiment,61,↑,up,↑,0.5462225000374019,True,33,1
159K21S4,314,experiment,74,↑,up,↑,0.35065940022468567,True,33,1
159K21S4,315,experiment,51,→,right,→,0.48402270022779703,True,33,0
159K21S4,316,experiment,80,↓,down,↓,0.6457937997765839,True,33,1
159K21S4,317,experiment,91,↓,down,↓,0.5577433998696506,True,33,1
159K21S4,318,experiment,76,↓,down,↓,0.7015592004172504,True,33,1
159K21S4,319,experiment,84,↓,down,↓,0.6052729999646544,True,33,1
159K21S4,320,experiment,70,←,left,←,0.6294201998971403,True,33,1
159K21S4,321,experiment,102,↓,down,↓,0.497787700034678,True,33,1
159K21S4,322,experiment,48,↑,no_key,no_letter,-1.0,False,33,1
159K21S4,323,experiment,85,↑,up,↑,0.659009300172329,True,33,1
159K21S4,324,experiment,88,→,left,←,0.5710722003132105,False,33,1
159K21S4,325,experiment,62,↓,down,↓,0.5032108998857439,True,33,1
159K21S4,326,experiment,65,↓,down,↓,0.45379360020160675,True,33,1
159K21S4,327,experiment,81,↓,down,↓,0.639869499951601,True,33,1
159K21S4,328,experiment,100,←,left,←,0.47633689967915416,True,33,1
159K21S4,329,experiment,107,↑,up,↑,0.597337800078094,True,33,1
159K21S4,330,experiment,103,→,right,→,0.4171719001606107,True,33,1
159K21S4,331,experiment,72,↓,down,↓,0.7214532997459173,True,33,0
159K21S4,332,experiment,49,→,right,→,0.4600825998932123,True,33,1
159K21S4,333,experiment,79,←,left,←,0.5589354000985622,True,33,1
159K21S4,334,experiment,58,↓,no_key,no_letter,-1.0,False,33,1
159K21S4,335,experiment,94,↑,no_key,no_letter,-1.0,False,33,1
159K21S4,336,experiment,95,←,left,←,0.5537916999310255,True,33,1
159K21S4,337,experiment,108,←,left,←,0.5274900002405047,True,33,1
159K21S4,338,experiment,75,→,right,→,0.6011601998470724,True,33,1
159K21S4,339,experiment,101,→,no_key,no_letter,-1.0,False,33,1
159K21S4,340,experiment,106,↑,up,↑,0.5736869000829756,True,33,1
159K21S4,341,experiment,77,→,up,↑,0.3757500001229346,False,33,1
159K21S4,342,experiment,105,↑,up,↑,0.5222173999063671,True,33,0
159K21S4,343,experiment,53,↓,down,↓,0.5552408001385629,True,33,1
159K21S4,344,experiment,68,↓,down,↓,0.5980369001626968,True,33,1
159K21S4,345,experiment,90,↑,up,↑,0.6237352001480758,True,33,1
159K21S4,346,experiment,50,→,right,→,0.565748100169003,True,33,1
159K21S4,347,experiment,67,↑,up,↑,0.3935955995693803,True,33,1
159K21S4,348,experiment,63,↓,down,↓,1.3069222001358867,True,33,0
159K21S4,349,experiment,99,←,left,←,0.3420934001915157,True,33,1
159K21S4,350,experiment,64,←,left,←,0.5056996000930667,True,33,0
159K21S4,351,experiment,55,↓,down,↓,0.7068398999981582,True,33,1
159K21S4,352,experiment,78,←,left,←,0.604141800198704,True,33,1
159K21S4,353,experiment,89,↓,down,↓,0.5262756999582052,True,33,1
159K21S4,354,experiment,73,↑,up,↑,0.5205891998484731,True,33,1
159K21S4,355,experiment,59,→,right,→,0.5517481002025306,True,33,1
159K21S4,356,training,56,↑,no_key,no_letter,-1.0,False,33,0
159K21S4,357,training,102,→,left,←,0.6826987001113594,False,33,1
159K21S4,358,experiment,49,←,left,←,0.38390540005639195,True,33,1
159K21S4,359,experiment,86,↓,down,↓,0.5939567997120321,True,33,0
159K21S4,360,experiment,82,←,left,←,0.5107367001473904,True,33,1
159K21S4,361,experiment,99,↑,up,↑,0.40169750014320016,True,33,1
159K21S4,362,experiment,73,←,left,←,0.3926556999795139,True,33,0
159K21S4,363,experiment,75,↓,down,↓,0.5265620998106897,True,33,0
159K21S4,364,experiment,102,↑,up,↑,0.4171457998454571,True,33,1
159K21S4,365,experiment,97,←,left,←,0.6296741999685764,True,33,0
159K21S4,366,experiment,54,↓,down,↓,0.5860533001832664,True,33,1
159K21S4,367,experiment,98,↑,up,↑,0.6178512996993959,True,33,1
159K21S4,368,experiment,89,↑,up,↑,0.4672805001027882,True,33,1
159K21S4,369,experiment,59,↓,down,↓,0.508564000017941,True,33,1
159K21S4,370,experiment,80,←,left,←,0.4540249998681247,True,33,1
159K21S4,371,experiment,77,↓,down,↓,0.6492178002372384,True,33,1
159K21S4,372,experiment,52,↓,down,↓,0.4542372999712825,True,33,1
159K21S4,373,experiment,64,←,left,←,0.6296819001436234,True,33,1
159K21S4,374,experiment,71,↓,down,↓,0.5563118997961283,True,33,1
159K21S4,375,experiment,72,↓,no_key,no_letter,-1.0,False,33,1
159K21S4,376,experiment,74,↓,down,↓,0.6310161999426782,True,33,1
159K21S4,377,experiment,104,↑,up,↑,0.60252679977566,True,33,1
159K21S4,378,experiment,61,←,left,←,0.4256821000017226,True,33,1
159K21S4,379,experiment,85,→,no_key,no_letter,-1.0,False,33,0
159K21S4,380,experiment,107,←,left,←,0.38383719976991415,True,33,1
159K21S4,381,experiment,91,←,left,←,0.3590954998508096,True,33,0
159K21S4,382,experiment,108,→,right,→,0.8050576997920871,True,33,0
159K21S4,383,experiment,78,→,right,→,0.42585329990834,True,33,1
159K21S4,384,experiment,66,←,left,←,0.44376259995624423,True,33,0
159K21S4,385,experiment,57,↓,down,↓,0.49393940018489957,True,33,0
159K21S4,386,experiment,65,←,left,←,0.5803845999762416,True,33,1
159K21S4,387,experiment,63,↑,up,↑,0.5677907997742295,True,33,1
159K21S4,388,experiment,76,↑,up,↑,0.5436167996376753,True,33,1
159K21S4,389,experiment,106,↓,down,↓,0.710198299959302,True,33,1
159K21S4,390,experiment,101,↓,down,↓,0.6559883998706937,True,33,1
159K21S4,391,experiment,90,→,right,→,0.4715103004127741,True,33,1
159K21S4,392,experiment,58,←,left,←,0.49663810012862086,True,33,1
159K21S4,393,experiment,70,↑,up,↑,0.6210997002199292,True,33,1
159K21S4,394,experiment,105,↑,up,↑,0.5291661000810564,True,33,1
159K21S4,395,experiment,87,↓,down,↓,0.6549185998737812,True,33,1
159K21S4,396,experiment,83,↓,down,↓,0.44951700000092387,True,33,1
159K21S4,397,experiment,48,←,left,←,0.6383417001925409,True,33,1
159K21S4,398,experiment,69,↓,down,↓,0.5893931002356112,True,33,1
159K21S4,399,experiment,81,←,left,←,0.41744229989126325,True,33,1
159K21S4,400,experiment,96,↑,up,↑,0.6091768997721374,True,33,0
159K21S4,401,experiment,67,→,right,→,0.4585787998512387,True,33,1
159K21S4,402,experiment,68,↑,up,↑,0.5213973000645638,True,33,1
159K21S4,403,experiment,51,↓,down,↓,0.46725660003721714,True,33,1
159K21S4,404,experiment,95,←,no_key,no_letter,-1.0,False,33,1
159K21S4,405,experiment,93,↓,down,↓,0.5231252000667155,True,33,1
159K21S4,406,experiment,88,←,left,←,0.4257053998298943,True,33,1
159K21S4,407,experiment,103,↓,down,↓,0.6287060002796352,True,33,0
159K21S4,408,experiment,92,→,right,→,0.4451057002879679,True,33,1
159K21S4,409,experiment,50,←,left,←,0.5855682999826968,True,33,1
159K21S4,410,experiment,56,→,right,→,0.5033990000374615,True,33,1
159K21S4,411,experiment,79,←,left,←,0.4258384997956455,True,33,1
159K21S4,412,experiment,100,←,left,←,0.3257253998890519,True,33,0
159K21S4,413,experiment,62,→,right,→,0.4837225000374019,True,33,0
159K21S4,414,experiment,60,→,right,→,0.41736890003085136,True,33,1
159K21S4,415,experiment,94,↓,down,↓,0.5235442002303898,True,33,0
159K21S4,416,experiment,55,←,left,←,0.4602319002151489,True,33,1
159K21S4,417,experiment,84,↑,up,↑,0.3587966002523899,True,33,1
159K21S4,418,experiment,53,→,right,→,0.47676899982616305,True,33,0
159K21S4,419,training,74,↑,up,↑,0.5040577002801001,True,32,0
159K21S4,420,training,85,→,right,→,0.4955031001009047,True,32,1
159K21S4,421,experiment,68,↓,down,↓,0.5408256002701819,True,32,1
159K21S4,422,experiment,70,↑,up,↑,0.3424315000884235,True,32,1
159K21S4,423,experiment,96,↓,down,↓,0.633289999794215,True,32,0
159K21S4,424,experiment,69,↓,down,↓,0.48080259980633855,True,32,1
159K21S4,425,experiment,87,↑,up,↑,0.5040878998115659,True,32,1
159K21S4,426,experiment,54,↑,up,↑,0.5138758001849055,True,32,1
159K21S4,427,experiment,77,↓,down,↓,0.5952121000736952,True,32,1
159K21S4,428,experiment,102,↓,down,↓,0.6012857002206147,True,32,1
159K21S4,429,experiment,82,←,left,←,0.6056943000294268,True,32,1
159K21S4,430,experiment,60,↑,up,↑,0.49713069992139935,True,32,1
159K21S4,431,experiment,53,↑,up,↑,0.45930280024185777,True,32,1
159K21S4,432,experiment,58,↓,down,↓,0.6532803997397423,True,32,1
159K21S4,433,experiment,76,←,left,←,0.400694299954921,True,32,1
159K21S4,434,experiment,104,←,left,←,0.3517840001732111,True,32,0
159K21S4,435,experiment,56,→,right,→,0.44544029980897903,True,32,0
159K21S4,436,experiment,64,→,left,←,0.4090677001513541,False,32,1
159K21S4,437,experiment,92,↓,down,↓,0.5737292002886534,True,32,0
159K21S4,438,experiment,62,→,right,→,0.41738290013745427,True,32,1
159K21S4,439,experiment,59,↓,down,↓,0.572902400046587,True,32,0
159K21S4,440,experiment,50,↓,down,↓,0.5410024998709559,True,32,1
159K21S4,441,experiment,101,↑,up,↑,0.46939759980887175,True,32,1
159K21S4,442,experiment,103,→,right,→,0.44063099985942245,True,32,1
159K21S4,443,experiment,88,→,right,→,0.5368335000239313,True,32,0
159K21S4,444,experiment,91,↓,down,↓,0.5088813002221286,True,32,1
159K21S4,445,experiment,55,↓,down,↓,0.4779747002758086,True,32,1
159K21S4,446,experiment,85,→,right,→,0.542490900028497,True,32,1
159K21S4,447,experiment,83,↑,up,↑,0.724895799998194,True,32,1
159K21S4,448,experiment,81,←,left,←,0.45261389994993806,True,32,1
159K21S4,449,experiment,72,→,right,→,0.6018870999105275,True,32,1
159K21S4,450,experiment,97,↓,down,↓,0.6013004998676479,True,32,1
159K21S4,451,experiment,79,↓,down,↓,0.6866473997943103,True,32,1
159K21S4,452,experiment,48,↓,down,↓,0.48308430006727576,True,32,1
159K21S4,453,experiment,78,↓,down,↓,0.5495246998034418,True,32,1
159K21S4,454,experiment,49,↓,down,↓,0.4789253999479115,True,32,1
159K21S4,455,experiment,108,→,no_key,no_letter,-1.0,False,32,1
159K21S4,456,experiment,57,↓,down,↓,0.6388876000419259,True,32,1
159K21S4,457,experiment,107,←,left,←,0.44225720036774874,True,32,1
159K21S4,458,experiment,98,↓,down,↓,0.550386399962008,True,32,1
159K21S4,459,experiment,105,↓,down,↓,0.46896620001643896,True,32,1
159K21S4,460,experiment,51,↓,down,↓,0.545329499989748,True,32,1
159K21S4,461,experiment,99,←,left,←,0.4173582000657916,True,32,1
159K21S4,462,experiment,75,↓,down,↓,0.4798925998620689,True,32,0
159K21S4,463,experiment,52,→,left,←,0.5469926996156573,False,32,1
159K21S4,464,experiment,65,↓,down,↓,0.5190709000453353,True,32,1
159K21S4,465,experiment,74,↓,down,↓,0.625479799695313,True,32,1
159K21S4,466,experiment,100,→,right,→,0.47092789970338345,True,32,1
159K21S4,467,experiment,86,↓,down,↓,0.4395988998003304,True,32,1
159K21S4,468,experiment,66,↑,up,↑,0.6710010003298521,True,32,1
159K21S4,469,experiment,95,←,no_key,no_letter,-1.0,False,32,1
159K21S4,470,experiment,80,←,left,←,0.4757500998675823,True,32,1
159K21S4,471,experiment,89,↓,down,↓,0.6332518998533487,True,32,1
159K21S4,472,experiment,61,←,left,←,0.6913650999777019,True,32,1
159K21S4,473,experiment,73,↑,up,↑,0.5912361997179687,True,32,1
159K21S4,474,experiment,93,→,right,→,0.44064419995993376,True,32,1
159K21S4,475,experiment,106,↑,up,↑,0.48273489996790886,True,32,1
159K21S4,476,experiment,84,↑,up,↑,0.4514476000331342,True,32,1
159K21S4,477,experiment,94,↓,down,↓,0.48965790029615164,True,32,1
159K21S4,478,experiment,71,↓,down,↓,0.5741407000459731,True,32,1
159K21S4,479,experiment,63,↑,up,↑,0.5617928998544812,True,32,1
159K21S4,480,experiment,90,→,left,←,0.4090297999791801,False,32,1
159K21S4,481,experiment,67,↑,up,↑,0.4859052002429962,True,32,0
159K21S4,482,training,50,↑,up,↑,0.4572708001360297,True,31,0
159K21S4,483,training,84,←,left,←,0.5785791999660432,True,31,1
159K21S4,484,experiment,74,↑,up,↑,0.5306687001138926,True,31,1
159K21S4,485,experiment,50,←,left,←,0.45253170002251863,True,31,1
159K21S4,486,experiment,71,↓,down,↓,0.5625864001922309,True,31,1
159K21S4,487,experiment,104,↑,no_key,no_letter,-1.0,False,31,1
159K21S4,488,experiment,72,↑,up,↑,0.42811329988762736,True,31,1
159K21S4,489,experiment,100,↑,up,↑,0.4724403000436723,True,31,0
159K21S4,490,experiment,78,↑,up,↑,0.34267689986154437,True,31,1
159K21S4,491,experiment,53,↑,up,↑,0.49937500013038516,True,31,0
159K21S4,492,experiment,70,↓,down,↓,0.5918887001462281,True,31,1
159K21S4,493,experiment,62,↓,down,↓,0.6591683998703957,True,31,1
159K21S4,494,experiment,66,↑,up,↑,0.5146882999688387,True,31,1
159K21S4,495,experiment,97,←,left,←,0.5732693001627922,True,31,1
159K21S4,496,experiment,92,↓,up,↑,0.4633394000120461,False,31,1
159K21S4,497,experiment,94,←,left,←,0.40912239998579025,True,31,1
159K21S4,498,experiment,48,→,right,→,0.428844700101763,True,31,0
159K21S4,499,experiment,64,→,right,→,0.35875599971041083,True,31,0
159K21S4,500,experiment,82,→,right,→,0.5150205004028976,True,31,0
159K21S4,501,experiment,52,→,right,→,0.37576999980956316,True,31,1
159K21S4,502,experiment,85,↑,no_key,no_letter,-1.0,False,31,0
159K21S4,503,experiment,83,↑,up,↑,0.5118068000301719,True,31,1
159K21S4,504,experiment,58,←,left,←,0.4324099998921156,True,31,1
159K21S4,505,experiment,79,↑,up,↑,0.38415220007300377,True,31,1
159K21S4,506,experiment,76,←,left,←,0.49098230013623834,True,31,0
159K21S4,507,experiment,93,→,right,→,0.4090462997555733,True,31,1
159K21S4,508,experiment,68,↑,up,↑,0.3931657001376152,True,31,0
159K21S4,509,experiment,49,↓,up,↑,0.575573000125587,False,31,0
159K21S4,510,experiment,57,↑,up,↑,0.49306049989536405,True,31,1
159K21S4,511,experiment,90,←,left,←,0.3924859999679029,True,31,1
159K21S4,512,experiment,98,↓,down,↓,0.658243800047785,True,31,0
159K21S4,513,experiment,91,←,left,←,0.5372512000612915,True,31,1
159K21S4,514,experiment,96,↑,up,↑,0.579598699696362,True,31,1
159K21S4,515,experiment,107,↑,up,↑,0.4886282002553344,True,31,1
159K21S4,516,experiment,67,↓,down,↓,0.6864718003198504,True,31,1
159K21S4,517,experiment,59,←,left,←,0.3681558999232948,True,31,1
159K21S4,518,experiment,63,↑,up,↑,0.37568969978019595,True,31,0
159K21S4,519,experiment,55,↑,up,↑,0.4806705000810325,True,31,0
159K21S4,520,experiment,102,↓,down,↓,0.68308059964329,True,31,1
159K21S4,521,experiment,108,↓,down,↓,0.5873845000751317,True,31,1
159K21S4,522,experiment,81,↓,down,↓,0.4411392002366483,True,31,1
159K21S4,523,experiment,61,←,no_key,no_letter,-1.0,False,31,1
159K21S4,524,experiment,54,↓,down,↓,0.5472078998573124,True,31,1
159K21S4,525,experiment,88,→,right,→,0.639555299654603,True,31,1
159K21S4,526,experiment,84,←,no_key,no_letter,-1.0,False,31,1
159K21S4,527,experiment,87,←,left,←,0.35905040008947253,True,31,1
159K21S4,528,experiment,105,←,left,←,0.3840499999932945,True,31,0
159K21S4,529,experiment,80,↑,up,↑,0.4090746999718249,True,31,0
159K21S4,530,experiment,103,↓,down,↓,0.911353399977088,True,31,0
159K21S4,531,experiment,65,←,no_key,no_letter,-1.0,False,31,1
159K21S4,532,experiment,69,←,left,←,0.36762259993702173,True,31,1
159K21S4,533,experiment,95,↓,down,↓,0.649659899994731,True,31,0
159K21S4,534,experiment,77,←,left,←,0.40925040002912283,True,31,1
159K21S4,535,experiment,73,←,left,←,0.3763987999409437,True,31,0
159K21S4,536,experiment,86,↑,up,↑,0.656145699787885,True,31,0
159K21S4,537,experiment,99,↓,down,↓,0.4605799000710249,True,31,1
159K21S4,538,experiment,51,←,left,←,0.40181880025193095,True,31,1
159K21S4,539,experiment,101,←,left,←,0.46231819968670607,True,31,0
159K21S4,540,experiment,60,↑,up,↑,0.4793489999137819,True,31,1
159K21S4,541,experiment,106,←,left,←,0.4407806000672281,True,31,1
159K21S4,542,experiment,56,←,left,←,0.39238250022754073,True,31,1
159K21S4,543,experiment,75,←,left,←,0.49869650043547153,True,31,0
159K21S4,544,experiment,89,↑,up,↑,0.5527177997864783,True,31,1
159K21S4,545,training,73,↑,up,↑,0.46408360032364726,True,31,0
159K21S4,546,training,54,←,left,←,0.459080099593848,True,31,1
159K21S4,547,experiment,94,←,left,←,0.5051489002071321,True,31,1
159K21S4,548,experiment,89,↓,down,↓,0.48709720000624657,True,31,1
159K21S4,549,experiment,49,↑,up,↑,0.5151053001172841,True,31,1
159K21S4,550,experiment,75,→,no_key,no_letter,-1.0,False,31,1
159K21S4,551,experiment,77,↓,down,↓,0.8298601000569761,True,31,1
159K21S4,552,experiment,71,→,right,→,0.4527209997177124,True,31,1
159K21S4,553,experiment,60,↑,up,↑,0.5264770998619497,True,31,1
159K21S4,554,experiment,99,←,left,←,0.4801218998618424,True,31,1
159K21S4,555,experiment,103,→,right,→,0.4660988999530673,True,31,1
159K21S4,556,experiment,64,↑,up,↑,0.5139378998428583,True,31,1
159K21S4,557,experiment,51,←,no_key,no_letter,-1.0,False,31,1
159K21S4,558,experiment,93,→,right,→,0.463601800147444,True,31,1
159K21S4,559,experiment,70,←,left,←,0.565331400372088,True,31,1
159K21S4,560,experiment,91,→,right,→,0.4327983004041016,True,31,1
159K21S4,561,experiment,74,←,left,←,0.4776754998601973,True,31,1
159K21S4,562,experiment,92,↓,down,↓,0.547838700003922,True,31,1
159K21S4,563,experiment,67,↑,up,↑,0.3923865999095142,True,31,1
159K21S4,564,experiment,61,←,left,←,0.6266742004081607,True,31,0
159K21S4,565,experiment,52,↑,up,↑,0.3770997002720833,True,31,1
159K21S4,566,experiment,100,↓,down,↓,0.5750180003233254,True,31,0
159K21S4,567,experiment,102,→,right,→,0.43779070023447275,True,31,1
159K21S4,568,experiment,63,↑,up,↑,0.3922679997049272,True,31,1
159K21S4,569,experiment,87,→,right,→,0.44952020002529025,True,31,0
159K21S4,570,experiment,62,↓,down,↓,0.5064159003086388,True,31,1
159K21S4,571,experiment,81,↓,down,↓,0.6109095998108387,True,31,1
159K21S4,572,experiment,80,↓,down,↓,0.6876137997023761,True,31,1
159K21S4,573,experiment,79,↑,up,↑,0.7052748999558389,True,31,1
159K21S4,574,experiment,105,↓,down,↓,0.633629800286144,True,31,1
159K21S4,575,experiment,65,↓,down,↓,0.48254070011898875,True,31,1
159K21S4,576,experiment,58,←,left,←,0.5555392000824213,True,31,1
159K21S4,577,experiment,82,↑,no_key,no_letter,-1.0,False,31,1
159K21S4,578,experiment,106,→,right,→,0.4727473999373615,True,31,1
159K21S4,579,experiment,107,→,right,→,0.7057669996283948,True,31,1
159K21S4,580,experiment,86,↓,down,↓,0.4964843997731805,True,31,1
159K21S4,581,experiment,104,↓,down,↓,0.6420547002926469,True,31,1
159K21S4,582,experiment,76,→,right,→,0.5905745001509786,True,31,1
159K21S4,583,experiment,69,↓,down,↓,0.5676346998661757,True,31,1
159K21S4,584,experiment,66,←,left,←,0.43542269989848137,True,31,1
159K21S4,585,experiment,55,↓,down,↓,0.5026954999193549,True,31,1
159K21S4,586,experiment,53,←,left,←,0.7048283000476658,True,31,1
159K21S4,587,experiment,96,→,right,→,0.5239972998388112,True,31,1
159K21S4,588,experiment,50,↑,up,↑,0.4700736999511719,True,31,1
159K21S4,589,experiment,83,↑,up,↑,0.5433987001888454,True,31,1
159K21S4,590,experiment,54,←,left,←,0.45563820004463196,True,31,1
159K21S4,591,experiment,72,↓,down,↓,0.6849510995671153,True,31,1
159K21S4,592,experiment,97,←,left,←,0.5770207000896335,True,31,1
159K21S4,593,experiment,56,←,left,←,0.4472386999987066,True,31,1
159K21S4,594,experiment,73,→,right,→,0.5646180002950132,True,31,1
159K21S4,595,experiment,90,↓,down,↓,0.5755467000417411,True,31,1
159K21S4,596,experiment,59,→,right,→,0.4090645001269877,True,31,1
159K21S4,597,experiment,108,←,left,←,0.6396603002212942,True,31,0
159K21S4,598,experiment,84,↑,up,↑,0.481712699867785,True,31,1
159K21S4,599,experiment,57,←,no_key,no_letter,-1.0,False,31,1
159K21S4,600,experiment,48,→,right,→,0.4459750996902585,True,31,1
159K21S4,601,experiment,88,↓,down,↓,0.510128399822861,True,31,1
159K21S4,602,experiment,101,←,left,←,0.4005578001961112,True,31,1
159K21S4,603,experiment,68,↓,down,↓,0.6407163999974728,True,31,0
159K21S4,604,experiment,98,←,left,←,0.5259859999641776,True,31,1
159K21S4,605,experiment,85,↓,down,↓,0.6843367000110447,True,31,1
159K21S4,606,experiment,95,←,no_key,no_letter,-1.0,False,31,1
159K21S4,607,experiment,78,←,left,←,0.6096246000379324,True,31,1
159K21S4,608,training,91,→,left,←,0.38416590029373765,False,30,0
159K21S4,609,training,100,↓,down,↓,0.6810189001262188,True,30,0
159K21S4,610,experiment,51,↓,down,↓,0.6125308000482619,True,30,1
159K21S4,611,experiment,87,↑,up,↑,0.38388550002127886,True,30,1
159K21S4,612,experiment,107,↓,up,↑,0.5388492001220584,False,30,0
159K21S4,613,experiment,99,↑,up,↑,0.4758095000870526,True,30,1
159K21S4,614,experiment,98,↓,down,↓,0.5519535997882485,True,30,1
159K21S4,615,experiment,49,↓,down,↓,0.5292762997560203,True,30,1
159K21S4,616,experiment,80,↓,down,↓,0.665362199768424,True,30,1
159K21S4,617,experiment,71,←,left,←,0.5909875999204814,True,30,1
159K21S4,618,experiment,55,←,left,←,0.4845039998181164,True,30,1
159K21S4,619,experiment,65,↓,down,↓,0.6194083001464605,True,30,1
159K21S4,620,experiment,104,→,right,→,0.6556017003022134,True,30,1
159K21S4,621,experiment,59,←,left,←,0.45737510034814477,True,30,1
159K21S4,622,experiment,50,←,left,←,0.43073209980502725,True,30,1
159K21S4,623,experiment,93,↓,down,↓,0.6455327002331614,True,30,1
159K21S4,624,experiment,103,↑,no_key,no_letter,-1.0,False,30,1
159K21S4,625,experiment,95,↑,up,↑,0.4604577999562025,True,30,1
159K21S4,626,experiment,69,→,right,→,0.5148270996287465,True,30,1
159K21S4,627,experiment,57,←,left,←,0.4589762999676168,True,30,1
159K21S4,628,experiment,83,→,right,→,0.4368974999524653,True,30,1
159K21S4,629,experiment,61,↑,up,↑,0.6383978999219835,True,30,1
159K21S4,630,experiment,106,←,no_key,no_letter,-1.0,False,30,1
159K21S4,631,experiment,91,←,right,→,0.7416233997792006,False,30,1
159K21S4,632,experiment,96,↑,up,↑,0.36677750013768673,True,30,1
159K21S4,633,experiment,74,←,left,←,0.4637059001252055,True,30,0
159K21S4,634,experiment,75,↑,up,↑,0.3926435001194477,True,30,1
159K21S4,635,experiment,94,←,left,←,0.5003062998875976,True,30,0
159K21S4,636,experiment,84,↑,up,↑,0.4840178000740707,True,30,1
159K21S4,637,experiment,48,→,no_key,no_letter,-1.0,False,30,1
159K21S4,638,experiment,60,↑,up,↑,0.8396199000999331,True,30,1
159K21S4,639,experiment,66,←,no_key,no_letter,-1.0,False,30,1
159K21S4,640,experiment,73,→,right,→,0.5619723997078836,True,30,1
159K21S4,641,experiment,102,↑,up,↑,0.5372509998269379,True,30,1
159K21S4,642,experiment,76,←,up,↑,0.6742312996648252,False,30,1
159K21S4,643,experiment,88,←,left,←,0.7053567999973893,True,30,1
159K21S4,644,experiment,89,→,left,←,0.767141000367701,False,30,1
159K21S4,645,experiment,81,←,left,←,0.6692353002727032,True,30,1
159K21S4,646,experiment,100,↑,up,↑,0.9207770000211895,True,30,1
159K21S4,647,experiment,52,←,no_key,no_letter,-1.0,False,30,1
159K21S4,648,experiment,90,↓,up,↑,0.6233122004196048,False,30,1
159K21S4,649,experiment,56,↑,up,↑,0.5311440001241863,True,30,1
159K21S4,650,experiment,53,←,left,←,0.3921412001363933,True,30,1
159K21S4,651,experiment,64,→,left,←,0.6942908000200987,False,30,0
159K21S4,652,experiment,72,→,right,→,0.538372800219804,True,30,1
159K21S4,653,experiment,79,↑,up,↑,0.384022600017488,True,30,1
159K21S4,654,experiment,70,←,left,←,0.3579791998490691,True,30,0
159K21S4,655,experiment,58,→,left,←,0.5288768000900745,False,30,0
159K21S4,656,experiment,82,↑,up,↑,0.47195499995723367,True,30,1
159K21S4,657,experiment,97,↓,down,↓,0.5564341996796429,True,30,1
159K21S4,658,experiment,54,↓,down,↓,0.43630259996280074,True,30,1
159K21S4,659,experiment,77,→,right,→,0.34243940003216267,True,30,1
159K21S4,660,experiment,85,←,left,←,0.5096860001794994,True,30,0
159K21S4,661,experiment,67,↓,down,↓,0.5067151999101043,True,30,1
159K21S4,662,experiment,78,→,right,→,0.48416339978575706,True,30,1
159K21S4,663,experiment,68,→,right,→,0.5299539002589881,True,30,1
159K21S4,664,experiment,101,→,right,→,0.3840760001912713,True,30,1
159K21S4,665,experiment,86,→,right,→,0.6303805001080036,True,30,0
159K21S4,666,experiment,63,↓,down,↓,0.5678153000771999,True,30,1
159K21S4,667,experiment,92,←,left,←,0.45023659989237785,True,30,1
159K21S4,668,experiment,62,↓,down,↓,0.611298999749124,True,30,1
159K21S4,669,experiment,105,→,right,→,0.5915895998477936,True,30,1
159K21S4,670,experiment,108,→,right,→,0.36735490011051297,True,30,1
159K21S4,671,training,61,←,right,→,0.5125635000877082,False,30,0
159K21S4,672,training,104,→,right,→,0.5213300003670156,True,30,1
159K21S4,673,experiment,108,↑,up,↑,0.5839757001958787,True,30,1
159K21S4,674,experiment,88,↓,down,↓,0.5469585000537336,True,30,1
159K21S4,675,experiment,104,←,left,←,0.6021800003945827,True,30,1
159K21S4,676,experiment,62,↑,up,↑,0.5013676001690328,True,30,1
159K21S4,677,experiment,102,→,right,→,0.6788138002157211,True,30,1
159K21S4,678,experiment,87,→,right,→,0.5344882998615503,True,30,1
159K21S4,679,experiment,93,→,right,→,0.5218722000718117,True,30,1
159K21S4,680,experiment,101,→,right,→,0.4990083002485335,True,30,1
159K21S4,681,experiment,82,↑,up,↑,0.3922298001125455,True,30,1
159K21S4,682,experiment,90,↑,up,↑,0.35065879998728633,True,30,0
159K21S4,683,experiment,91,↑,up,↑,0.37568379985168576,True,30,0
159K21S4,684,experiment,72,↑,up,↑,0.5765887997113168,True,30,0
159K21S4,685,experiment,55,↓,up,↑,0.6550413998775184,False,30,1
159K21S4,686,experiment,107,→,right,→,0.3590087001211941,True,30,1
159K21S4,687,experiment,53,←,right,→,0.47217349987477064,False,30,0
159K21S4,688,experiment,64,←,left,←,0.43190379999578,True,30,1
159K21S4,689,experiment,78,↓,down,↓,0.5161039000377059,True,30,1
159K21S4,690,experiment,65,→,right,→,0.617382800206542,True,30,1
159K21S4,691,experiment,56,→,right,→,0.5578028997406363,True,30,1
159K21S4,692,experiment,51,↓,down,↓,0.48623819975182414,True,30,1
159K21S4,693,experiment,69,→,right,→,0.499666899908334,True,30,1
159K21S4,694,experiment,79,→,right,→,0.37571460008621216,True,30,1
159K21S4,695,experiment,97,←,left,←,0.5092174997553229,True,30,0
159K21S4,696,experiment,99,↓,down,↓,0.6154942000284791,True,30,1
159K21S4,697,experiment,84,↓,down,↓,0.4585910998284817,True,30,1
159K21S4,698,experiment,98,↑,up,↑,0.5833189999684691,True,30,1
159K21S4,699,experiment,80,↑,no_key,no_letter,-1.0,False,30,1
159K21S4,700,experiment,96,↑,up,↑,0.3756660996004939,True,30,1
159K21S4,701,experiment,89,←,left,←,0.4191972999833524,True,30,0
159K21S4,702,experiment,68,←,left,←,0.4508166001178324,True,30,0
159K21S4,703,experiment,61,←,left,←,0.36733439983800054,True,30,1
159K21S4,704,experiment,70,→,right,→,0.5096805999055505,True,30,0
159K21S4,705,experiment,52,↑,up,↑,0.40082049975171685,True,30,1
159K21S4,706,experiment,106,→,right,→,0.5477075995877385,True,30,0
159K21S4,707,experiment,94,←,left,←,0.45414890022948384,True,30,1
159K21S4,708,experiment,86,→,right,→,0.5029082000255585,True,30,1
159K21S4,709,experiment,100,←,left,←,0.5612416998483241,True,30,1
159K21S4,710,experiment,50,↓,right,→,0.67409129999578,False,30,1
159K21S4,711,experiment,60,↑,up,↑,0.39242029981687665,True,30,1
159K21S4,712,experiment,76,→,right,→,0.43353789998218417,True,30,0
159K21S4,713,experiment,92,←,left,←,0.4648389997892082,True,30,1
159K21S4,714,experiment,105,←,left,←,0.42742349999025464,True,30,1
159K21S4,715,experiment,83,↓,down,↓,0.6617045998573303,True,30,1
159K21S4,716,experiment,48,↓,down,↓,0.4991428996436298,True,30,1
159K21S4,717,experiment,77,←,left,←,0.5092771002091467,True,30,1
159K21S4,718,experiment,54,←,left,←,0.5665880003944039,True,30,1
159K21S4,719,experiment,103,↓,down,↓,0.4773333999328315,True,30,1
159K21S4,720,experiment,81,↓,down,↓,0.4792112000286579,True,30,1
159K21S4,721,experiment,59,↓,down,↓,0.5921565000899136,True,30,1
159K21S4,722,experiment,57,←,left,←,0.5653570997528732,True,30,1
159K21S4,723,experiment,73,→,no_key,no_letter,-1.0,False,30,1
159K21S4,724,experiment,49,→,no_key,no_letter,-1.0,False,30,1
159K21S4,725,experiment,71,↑,no_key,no_letter,-1.0,False,30,1
159K21S4,726,experiment,58,↓,down,↓,0.48335549980401993,True,30,1
159K21S4,727,experiment,75,→,right,→,0.30934639973565936,True,30,1
159K21S4,728,experiment,63,←,no_key,no_letter,-1.0,False,30,0
159K21S4,729,experiment,95,←,no_key,no_letter,-1.0,False,30,1
159K21S4,730,experiment,74,←,left,←,0.6102323001250625,True,30,1
159K21S4,731,experiment,66,←,left,←,0.5156055996194482,True,30,1
159K21S4,732,experiment,67,←,left,←,0.39210790023207664,True,30,1
159K21S4,733,experiment,85,↑,up,↑,0.5158334001898766,True,30,0
159K21S4,734,training,48,←,right,→,0.49756709998473525,False,30,0
159K21S4,735,training,48,←,left,←,0.43746519973501563,True,30,1
159K21S4,736,experiment,97,↑,up,↑,0.5309521001763642,True,30,1
159K21S4,737,experiment,54,←,left,←,0.40069760009646416,True,30,1
159K21S4,738,experiment,90,←,left,←,0.5248818998225033,True,30,0
159K21S4,739,experiment,80,←,left,←,0.4370328998193145,True,30,1
159K21S4,740,experiment,64,↓,down,↓,0.6537451003678143,True,30,1
159K21S4,741,experiment,74,→,right,→,0.5467217001132667,True,30,1
159K21S4,742,experiment,107,↑,up,↑,0.4887521001510322,True,30,1
159K21S4,743,experiment,102,↑,up,↑,0.6988432998768985,True,30,1
159K21S4,744,experiment,98,↓,down,↓,0.8538081999868155,True,30,1
159K21S4,745,experiment,103,↑,up,↑,0.5052581001073122,True,30,1
159K21S4,746,experiment,81,↑,up,↑,0.3674562997184694,True,30,1
159K21S4,747,experiment,104,←,left,←,0.42420919984579086,True,30,0
159K21S4,748,experiment,78,→,right,→,0.5084037999622524,True,30,1
159K21S4,749,experiment,92,→,right,→,0.6410676999948919,True,30,1
159K21S4,750,experiment,68,←,no_key,no_letter,-1.0,False,30,1
159K21S4,751,experiment,76,↑,up,↑,0.6020591999404132,True,30,1
159K21S4,752,experiment,72,↓,down,↓,0.5777481999248266,True,30,1
159K21S4,753,experiment,51,→,right,→,0.6897666999138892,True,30,1
159K21S4,754,experiment,96,←,left,←,0.5656520999036729,True,30,1
159K21S4,755,experiment,106,↓,down,↓,0.5312592000700533,True,30,1
159K21S4,756,experiment,73,↑,up,↑,0.5252900002524257,True,30,1
159K21S4,757,experiment,75,→,right,→,0.5512866000644863,True,30,1
159K21S4,758,experiment,99,→,right,→,0.36739989975467324,True,30,1
159K21S4,759,experiment,94,→,right,→,0.5131418998353183,True,30,0
159K21S4,760,experiment,105,↑,up,↑,0.3506999001838267,True,30,1
159K21S4,761,experiment,53,↑,up,↑,0.40080719999969006,True,30,0
159K21S4,762,experiment,61,↓,down,↓,0.8361165001988411,True,30,0
159K21S4,763,experiment,60,→,right,→,0.5907073998823762,True,30,1
159K21S4,764,experiment,89,←,left,←,0.47289829980582,True,30,1
159K21S4,765,experiment,48,↑,up,↑,0.7097218995913863,True,30,1
159K21S4,766,experiment,49,↓,down,↓,0.5207035997882485,True,30,1
159K21S4,767,experiment,57,←,left,←,0.4484553998336196,True,30,1
159K21S4,768,experiment,65,↑,up,↑,0.5606797002255917,True,30,1
159K21S4,769,experiment,87,↓,down,↓,0.5489648999646306,True,30,1
159K21S4,770,experiment,93,↑,up,↑,0.4316523000597954,True,30,1
159K21S4,771,experiment,58,←,left,←,0.46675890032202005,True,30,1
159K21S4,772,experiment,70,↑,up,↑,1.0564938001334667,True,30,1
159K21S4,773,experiment,101,←,left,←,0.46040179999545217,True,30,1
159K21S4,774,experiment,62,↓,right,→,0.7569320998154581,False,30,1
159K21S4,775,experiment,55,←,left,←,0.44407910015434027,True,30,1
159K21S4,776,experiment,63,↑,up,↑,0.5890661999583244,True,30,1
159K21S4,777,experiment,85,←,left,←,0.4252431998029351,True,30,1
159K21S4,778,experiment,66,←,left,←,0.4496397003531456,True,30,1
159K21S4,779,experiment,69,↑,up,↑,0.5523401997052133,True,30,1
159K21S4,780,experiment,84,←,left,←,0.47030390007421374,True,30,1
159K21S4,781,experiment,82,↑,up,↑,0.38510929979383945,True,30,1
159K21S4,782,experiment,91,←,left,←,0.44123810017481446,True,30,0
159K21S4,783,experiment,79,←,left,←,0.3671253998763859,True,30,1
159K21S4,784,experiment,67,→,right,→,0.8074292996898293,True,30,0
159K21S4,785,experiment,77,→,right,→,0.5331657002680004,True,30,1
159K21S4,786,experiment,50,←,left,←,0.4468779996968806,True,30,1
159K21S4,787,experiment,88,→,right,→,0.4473907998763025,True,30,1
159K21S4,788,experiment,52,→,right,→,0.3756923000328243,True,30,1
159K21S4,789,experiment,83,↓,up,↑,0.7285433998331428,False,30,0
159K21S4,790,experiment,108,→,right,→,0.4006684999912977,True,30,1
159K21S4,791,experiment,100,→,right,→,0.3507345002144575,True,30,0
159K21S4,792,experiment,56,→,right,→,0.5480964998714626,True,30,0
159K21S4,793,experiment,86,↑,up,↑,0.4652630998753011,True,30,1
159K21S4,794,experiment,71,↓,down,↓,0.7426074999384582,True,30,1
159K21S4,795,experiment,59,↑,up,↑,0.5088877002708614,True,30,1
159K21S4,796,experiment,95,←,left,←,0.7126242001540959,True,30,1
159K21S4,797,training,85,↓,down,↓,0.5245465999469161,True,29,0
159K21S4,798,training,87,←,left,←,0.5701349996961653,True,29,1
159K21S4,799,experiment,49,←,left,←,0.5708853998221457,True,29,1
159K21S4,800,experiment,59,↑,up,↑,0.567987899761647,True,29,1
159K21S4,801,experiment,97,→,right,→,0.5930166998878121,True,29,1
159K21S4,802,experiment,83,→,left,←,0.4292484996840358,False,29,1
159K21S4,803,experiment,95,↑,up,↑,0.5717870001681149,True,29,1
159K21S4,804,experiment,92,↓,down,↓,0.5178793999366462,True,29,1
159K21S4,805,experiment,71,→,right,→,0.40976310009136796,True,29,1
159K21S4,806,experiment,66,←,left,←,0.43454149970784783,True,29,0
159K21S4,807,experiment,68,→,right,→,0.4984428999014199,True,29,1
159K21S4,808,experiment,85,←,left,←,0.4180979002267122,True,29,1
159K21S4,809,experiment,100,↓,down,↓,0.6552113997749984,True,29,1
159K21S4,810,experiment,48,→,right,→,0.6123624998144805,True,29,1
159K21S4,811,experiment,67,↓,down,↓,0.48508410016074777,True,29,1
159K21S4,812,experiment,82,→,right,→,0.5181986000388861,True,29,1
159K21S4,813,experiment,99,→,right,→,0.6082238997332752,True,29,1
159K21S4,814,experiment,93,↑,no_key,no_letter,-1.0,False,29,1
159K21S4,815,experiment,60,←,left,←,0.38516939990222454,True,29,1
159K21S4,816,experiment,102,→,no_key,no_letter,-1.0,False,29,0
159K21S4,817,experiment,84,↑,no_key,no_letter,-1.0,False,29,1
159K21S4,818,experiment,70,↓,down,↓,0.7126869997009635,True,29,1
159K21S4,819,experiment,56,↓,down,↓,0.49728629970923066,True,29,1
159K21S4,820,experiment,61,←,left,←,0.4249230995774269,True,29,1
159K21S4,821,experiment,98,←,left,←,0.6950278002768755,True,29,1
159K21S4,822,experiment,90,↑,up,↑,0.5490329000167549,True,29,1
159K21S4,823,experiment,87,↑,up,↑,0.34238910023123026,True,29,1
159K21S4,824,experiment,103,↑,up,↑,0.35069099999964237,True,29,0
159K21S4,825,experiment,64,↓,down,↓,0.5171341001987457,True,29,0
159K21S4,826,experiment,62,↓,down,↓,0.539523399900645,True,29,1
159K21S4,827,experiment,65,↑,up,↑,0.4319990002550185,True,29,1
159K21S4,828,experiment,50,→,right,→,0.5336817000061274,True,29,1
159K21S4,829,experiment,78,↑,up,↑,0.3510606000199914,True,29,1
159K21S4,830,experiment,51,→,no_key,no_letter,-1.0,False,29,0
159K21S4,831,experiment,53,↑,up,↑,0.7202421999536455,True,29,1
159K21S4,832,experiment,54,←,left,←,0.6332078003324568,True,29,1
159K21S4,833,experiment,58,←,left,←,0.4521805001422763,True,29,1
159K21S4,834,experiment,77,↑,up,↑,0.456468400079757,True,29,1
159K21S4,835,experiment,69,↓,down,↓,0.5188614004291594,True,29,1
159K21S4,836,experiment,88,←,left,←,0.48454990005120635,True,29,1
159K21S4,837,experiment,81,←,left,←,0.35083220014348626,True,29,1
159K21S4,838,experiment,86,→,right,→,0.45076460018754005,True,29,0
159K21S4,839,experiment,104,→,right,→,0.7016508001834154,True,29,1
159K21S4,840,experiment,107,←,left,←,0.4537134999409318,True,29,1
159K21S4,841,experiment,57,↓,down,↓,0.5045040999539196,True,29,1
159K21S4,842,experiment,89,↑,up,↑,0.4382441001944244,True,29,1
159K21S4,843,experiment,101,↑,up,↑,0.6269368003122509,True,29,1
159K21S4,844,experiment,63,↓,down,↓,0.5647311001084745,True,29,1
159K21S4,845,experiment,96,→,no_key,no_letter,-1.0,False,29,1
159K21S4,846,experiment,52,↑,up,↑,0.6158483996987343,True,29,1
159K21S4,847,experiment,74,→,right,→,0.43040439998731017,True,29,1
159K21S4,848,experiment,72,↑,no_key,no_letter,-1.0,False,29,1
159K21S4,849,experiment,76,→,right,→,0.6146537000313401,True,29,1
159K21S4,850,experiment,79,←,left,←,0.4512113998644054,True,29,1
159K21S4,851,experiment,75,↓,down,↓,0.5037734000943601,True,29,1
159K21S4,852,experiment,94,↑,up,↑,0.7001554002054036,True,29,1
159K21S4,853,experiment,106,←,left,←,0.6129116998054087,True,29,1
159K21S4,854,experiment,105,↓,down,↓,0.6246155998669565,True,29,1
159K21S4,855,experiment,91,→,right,→,0.6251731999218464,True,29,1
159K21S4,856,experiment,73,→,right,→,0.37665610015392303,True,29,1
159K21S4,857,experiment,55,→,right,→,0.573131900280714,True,29,0
159K21S4,858,experiment,80,↑,up,↑,0.44317330000922084,True,29,1
159K21S4,859,experiment,108,→,right,→,0.47732429997995496,True,29,1
159K21S4,860,training,53,↑,up,↑,0.5613377001136541,True,29,0
159K21S4,861,training,95,←,left,←,0.5309449001215398,True,29,1
159K21S4,862,experiment,104,←,left,←,0.3758427002467215,True,29,1
159K21S4,863,experiment,61,↓,down,↓,0.5107793998904526,True,29,0
159K21S4,864,experiment,97,→,right,→,0.7937750001437962,True,29,1
159K21S4,865,experiment,92,↓,down,↓,0.49114219984039664,True,29,1
159K21S4,866,experiment,74,←,left,←,0.5027568000368774,True,29,1
159K21S4,867,experiment,101,↓,down,↓,0.6085974001325667,True,29,1
159K21S4,868,experiment,55,↓,down,↓,0.49371679965406656,True,29,1
159K21S4,869,experiment,87,←,left,←,0.4368202998302877,True,29,1
159K21S4,870,experiment,106,↑,up,↑,0.45539140002802014,True,29,1
159K21S4,871,experiment,58,↓,down,↓,0.5216033002361655,True,29,1
159K21S4,872,experiment,60,→,right,→,0.43241330003365874,True,29,1
159K21S4,873,experiment,90,←,left,←,0.44079829985275865,True,29,1
159K21S4,874,experiment,63,↓,down,↓,0.6419635000638664,True,29,1
159K21S4,875,experiment,67,→,right,→,0.4816378001123667,True,29,1
159K21S4,876,experiment,86,↓,down,↓,0.5133403004147112,True,29,1
159K21S4,877,experiment,66,↑,up,↑,0.4305696999654174,True,29,1
159K21S4,878,experiment,62,→,right,→,0.46416949992999434,True,29,1
159K21S4,879,experiment,96,↓,down,↓,0.461136800237,True,29,1
159K21S4,880,experiment,80,→,right,→,0.48005100013688207,True,29,1
159K21S4,881,experiment,93,↑,up,↑,0.789718700107187,True,29,1
159K21S4,882,experiment,107,↓,down,↓,0.5217270003631711,True,29,1
159K21S4,883,experiment,76,→,left,←,0.5390811003744602,False,29,1
159K21S4,884,experiment,75,←,left,←,0.42804779997095466,True,29,1
159K21S4,885,experiment,50,←,left,←,0.4902648003771901,True,29,1
159K21S4,886,experiment,102,←,no_key,no_letter,-1.0,False,29,1
159K21S4,887,experiment,91,←,left,←,0.561262599658221,True,29,1
159K21S4,888,experiment,100,←,left,←,0.5052312999032438,True,29,1
159K21S4,889,experiment,88,↑,up,↑,0.6072478001005948,True,29,1
159K21S4,890,experiment,78,←,left,←,0.5087545998394489,True,29,1
159K21S4,891,experiment,84,→,right,→,0.4361553001217544,True,29,1
159K21S4,892,experiment,48,↓,down,↓,0.5062316996045411,True,29,1
159K21S4,893,experiment,57,↓,down,↓,0.45855960017070174,True,29,1
159K21S4,894,experiment,49,←,left,←,0.439830900169909,True,29,1
159K21S4,895,experiment,103,→,right,→,0.6595427999272943,True,29,1
159K21S4,896,experiment,69,↑,up,↑,0.5218592998571694,True,29,1
159K21S4,897,experiment,51,↑,up,↑,0.42039569979533553,True,29,1
159K21S4,898,experiment,68,↑,no_key,no_letter,-1.0,False,29,1
159K21S4,899,experiment,54,←,no_key,no_letter,-1.0,False,29,1
159K21S4,900,experiment,81,→,right,→,0.6294848998077214,True,29,1
159K21S4,901,experiment,59,→,no_key,no_letter,-1.0,False,29,1
159K21S4,902,experiment,52,→,right,→,0.334067199844867,True,29,1
159K21S4,903,experiment,105,↓,down,↓,0.7535300999879837,True,29,0
159K21S4,904,experiment,71,↑,up,↑,0.5475742998532951,True,29,1
159K21S4,905,experiment,77,→,right,→,0.41215649992227554,True,29,1
159K21S4,906,experiment,108,←,right,→,0.5267285997979343,False,29,0
159K21S4,907,experiment,94,→,right,→,0.6827897997573018,True,29,1
159K21S4,908,experiment,89,→,no_key,no_letter,-1.0,False,29,1
159K21S4,909,experiment,95,↑,up,↑,0.39256539987400174,True,29,1
159K21S4,910,experiment,83,←,right,→,0.4964159997180104,False,29,0
159K21S4,911,experiment,99,↑,up,↑,0.63514140015468,True,29,1
159K21S4,912,experiment,53,←,left,←,0.5038592997007072,True,29,1
159K21S4,913,experiment,64,→,right,→,0.4301105998456478,True,29,1
159K21S4,914,experiment,65,↑,up,↑,0.5186711000278592,True,29,1
159K21S4,915,experiment,85,↓,down,↓,0.5094121000729501,True,29,1
159K21S4,916,experiment,72,↓,down,↓,0.6009223000146449,True,29,1
159K21S4,917,experiment,82,↓,down,↓,0.5892417002469301,True,29,1
159K21S4,918,experiment,56,←,left,←,0.538735100068152,True,29,1
159K21S4,919,experiment,70,↑,up,↑,0.4534915997646749,True,29,1
159K21S4,920,experiment,79,→,right,→,0.640913600102067,True,29,1
159K21S4,921,experiment,98,→,no_key,no_letter,-1.0,False,29,1
159K21S4,922,experiment,73,←,left,←,0.4095422001555562,True,29,1
159K21S4,923,training,70,→,left,←,0.5522620999254286,False,29,0
159K21S4,924,training,96,↑,up,↑,0.5219943998381495,True,29,1
159K21S4,925,experiment,94,↓,down,↓,0.6854054001159966,True,29,1
159K21S4,926,experiment,80,↑,up,↑,0.39251579996198416,True,29,1
159K21S4,927,experiment,78,↑,up,↑,0.3841407001018524,True,29,0
159K21S4,928,experiment,71,↑,up,↑,0.5012093000113964,True,29,0
159K21S4,929,experiment,70,←,left,←,0.5455829999409616,True,29,1
159K21S4,930,experiment,84,↓,down,↓,0.519650399684906,True,29,1
159K21S4,931,experiment,54,↓,down,↓,0.6326827998273075,True,29,1
159K21S4,932,experiment,56,↑,up,↑,0.5245479000732303,True,29,1
159K21S4,933,experiment,63,↓,down,↓,0.4982859003357589,True,29,1
159K21S4,934,experiment,59,→,no_key,no_letter,-1.0,False,29,1
159K21S4,935,experiment,74,→,right,→,0.39241789979860187,True,29,1
159K21S4,936,experiment,81,↓,down,↓,0.4817691002972424,True,29,0
159K21S4,937,experiment,73,↑,up,↑,0.43789799977093935,True,29,1
159K21S4,938,experiment,69,→,right,→,0.5008972003124654,True,29,1
159K21S4,939,experiment,53,←,left,←,0.6390281999483705,True,29,1
159K21S4,940,experiment,61,↑,up,↑,0.5767168002203107,True,29,1
159K21S4,941,experiment,66,↑,up,↑,0.5233986000530422,True,29,1
159K21S4,942,experiment,91,↓,down,↓,0.7197997001931071,True,29,1
159K21S4,943,experiment,52,↓,down,↓,0.47369870031252503,True,29,1
159K21S4,944,experiment,106,↑,up,↑,0.6989087997935712,True,29,1
159K21S4,945,experiment,104,→,right,→,0.4359045000746846,True,29,1
159K21S4,946,experiment,82,↓,down,↓,0.4870845000259578,True,29,1
159K21S4,947,experiment,79,←,left,←,0.4971028002910316,True,29,1
159K21S4,948,experiment,93,←,no_key,no_letter,-1.0,False,29,1
159K21S4,949,experiment,64,→,right,→,0.7877592002041638,True,29,1
159K21S4,950,experiment,83,→,right,→,0.4325526999309659,True,29,1
159K21S4,951,experiment,92,↑,up,↑,0.5522859999909997,True,29,1
159K21S4,952,experiment,77,→,right,→,0.48820789996534586,True,29,1
159K21S4,953,experiment,98,↓,down,↓,0.5155460997484624,True,29,1
159K21S4,954,experiment,62,←,left,←,0.657973799854517,True,29,1
159K21S4,955,experiment,107,↓,down,↓,0.5957295997068286,True,29,1
159K21S4,956,experiment,103,↑,no_key,no_letter,-1.0,False,29,1
159K21S4,957,experiment,88,←,right,→,0.6470027002505958,False,29,1
159K21S4,958,experiment,72,→,right,→,0.5486255004070699,True,29,1
159K21S4,959,experiment,108,↑,no_key,no_letter,-1.0,False,29,1
159K21S4,960,experiment,57,↓,down,↓,0.6426129001192749,True,29,1
159K21S4,961,experiment,68,→,right,→,0.497934200335294,True,29,1
159K21S4,962,experiment,95,←,left,←,0.5341018000617623,True,29,1
159K21S4,963,experiment,55,↓,down,↓,0.5741594000719488,True,29,1
159K21S4,964,experiment,90,↑,up,↑,0.39222299959510565,True,29,1
159K21S4,965,experiment,96,↓,down,↓,0.5611557001248002,True,29,0
159K21S4,966,experiment,105,←,left,←,0.4471256001852453,True,29,1
159K21S4,967,experiment,99,→,right,→,0.5323397000320256,True,29,1
159K21S4,968,experiment,75,↑,up,↑,0.6530327000655234,True,29,1
159K21S4,969,experiment,85,→,right,→,0.5266610998660326,True,29,1
159K21S4,970,experiment,101,←,left,←,0.4554037000052631,True,29,1
159K21S4,971,experiment,76,↑,up,↑,0.3840335998684168,True,29,1
159K21S4,972,experiment,89,←,left,←,0.391722499858588,True,29,0
159K21S4,973,experiment,87,←,left,←,0.36760260025039315,True,29,0
159K21S4,974,experiment,100,↓,down,↓,0.4801328000612557,True,29,0
159K21S4,975,experiment,102,→,right,→,0.4345689998008311,True,29,1
159K21S4,976,experiment,65,←,left,←,0.4353757998906076,True,29,1
159K21S4,977,experiment,86,↑,up,↑,0.6290334002114832,True,29,1
159K21S4,978,experiment,49,←,left,←,0.4670738000422716,True,29,1
159K21S4,979,experiment,97,↑,up,↑,0.6318048997782171,True,29,1
159K21S4,980,experiment,67,→,right,→,0.4241439998149872,True,29,1
159K21S4,981,experiment,58,←,left,←,0.4433287000283599,True,29,1
159K21S4,982,experiment,60,↑,up,↑,0.7494413000531495,True,29,1
159K21S4,983,experiment,51,↑,up,↑,0.4940909999422729,True,29,1
159K21S4,984,experiment,48,↑,up,↑,0.36736589996144176,True,29,1
159K21S4,985,experiment,50,↓,down,↓,0.4904200001619756,True,29,0
159K21S4,986,training,49,↓,down,↓,0.5036745998077095,True,28,0
159K21S4,987,training,76,↑,up,↑,0.522064599674195,True,28,1
159K21S4,988,experiment,92,↑,up,↑,0.383897100109607,True,28,1
159K21S4,989,experiment,82,→,right,→,0.7148637999780476,True,28,0
159K21S4,990,experiment,79,←,left,←,0.6356229996308684,True,28,1
159K21S4,991,experiment,104,↑,up,↑,0.9832310997880995,True,28,1
159K21S4,992,experiment,56,←,left,←,0.6369970003142953,True,28,1
159K21S4,993,experiment,85,→,right,→,0.4870720002800226,True,28,1
159K21S4,994,experiment,73,→,right,→,0.38339299988001585,True,28,1
159K21S4,995,experiment,88,←,left,←,0.47792689967900515,True,28,0
159K21S4,996,experiment,81,→,right,→,0.384283599909395,True,28,1
159K21S4,997,experiment,83,↑,up,↑,0.384188000112772,True,28,0
159K21S4,998,experiment,89,←,left,←,0.5264266999438405,True,28,0
159K21S4,999,experiment,96,→,right,→,0.3757094000466168,True,28,1
159K21S4,1000,experiment,103,←,left,←,0.42334270011633635,True,28,0
159K21S4,1001,experiment,58,←,left,←,0.4988206997513771,True,28,1
159K21S4,1002,experiment,63,↓,down,↓,0.5053441999480128,True,28,1
159K21S4,1003,experiment,69,↑,up,↑,0.5898104999214411,True,28,1
159K21S4,1004,experiment,91,→,right,→,0.4236561004072428,True,28,1
159K21S4,1005,experiment,66,↓,down,↓,0.5682474998757243,True,28,1
159K21S4,1006,experiment,108,→,left,←,0.5173394000157714,False,28,1
159K21S4,1007,experiment,71,↑,up,↑,0.7207829002290964,True,28,1
159K21S4,1008,experiment,61,↓,down,↓,0.5670997998677194,True,28,1
159K21S4,1009,experiment,97,↓,left,←,0.31747190002352,False,28,1
159K21S4,1010,experiment,60,←,no_key,no_letter,-1.0,False,28,0
159K21S4,1011,experiment,100,↑,up,↑,0.648724100086838,True,28,1
159K21S4,1012,experiment,53,↑,up,↑,0.40544490003958344,True,28,1
159K21S4,1013,experiment,86,↓,down,↓,0.5116028999909759,True,28,1
159K21S4,1014,experiment,72,↑,no_key,no_letter,-1.0,False,28,1
159K21S4,1015,experiment,101,↓,down,↓,0.4849868002347648,True,28,1
159K21S4,1016,experiment,51,↓,up,↑,0.6642861003056169,False,28,1
159K21S4,1017,experiment,52,←,left,←,0.4600166999734938,True,28,1
159K21S4,1018,experiment,48,→,up,↑,0.8334904001094401,False,28,1
159K21S4,1019,experiment,59,↑,up,↑,0.3420636998489499,True,28,1
159K21S4,1020,experiment,62,←,no_key,no_letter,-1.0,False,28,0
159K21S4,1021,experiment,93,↑,up,↑,0.3263966999948025,True,28,1
159K21S4,1022,experiment,78,↑,up,↑,0.3507582996971905,True,28,0
159K21S4,1023,experiment,102,←,left,←,0.5173567999154329,True,28,0
159K21S4,1024,experiment,90,↓,down,↓,0.5384534001350403,True,28,1
159K21S4,1025,experiment,76,→,left,←,0.5552093000151217,False,28,1
159K21S4,1026,experiment,107,→,right,→,0.35909169958904386,True,28,1
159K21S4,1027,experiment,99,↓,right,→,0.6812220001593232,False,28,0
159K21S4,1028,experiment,84,↑,up,↑,0.48205879982560873,True,28,1
159K21S4,1029,experiment,55,↓,down,↓,0.603675200138241,True,28,1
159K21S4,1030,experiment,64,→,right,→,0.43806609977036715,True,28,1
159K21S4,1031,experiment,106,→,right,→,0.40175410034134984,True,28,1
159K21S4,1032,experiment,54,↓,down,↓,0.47862569987773895,True,28,0
159K21S4,1033,experiment,74,↓,down,↓,0.45858810003846884,True,28,1
159K21S4,1034,experiment,105,→,right,→,0.43775369971990585,True,28,1
159K21S4,1035,experiment,94,↓,down,↓,0.5081211999058723,True,28,1
159K21S4,1036,experiment,87,↑,up,↑,0.41892659990116954,True,28,1
159K21S4,1037,experiment,80,↓,down,↓,0.7506275996565819,True,28,1
159K21S4,1038,experiment,57,↓,up,↑,0.5973791000433266,False,28,1
159K21S4,1039,experiment,50,←,left,←,0.4284570999443531,True,28,1
159K21S4,1040,experiment,98,↓,down,↓,0.6345293000340462,True,28,1
159K21S4,1041,experiment,77,→,right,→,0.44716789992526174,True,28,1
159K21S4,1042,experiment,68,↑,up,↑,0.37588849989697337,True,28,1
159K21S4,1043,experiment,67,→,right,→,0.4483235999941826,True,28,0
159K21S4,1044,experiment,65,→,left,←,0.528488100040704,False,28,1
159K21S4,1045,experiment,95,←,left,←,0.5075598997063935,True,28,1
159K21S4,1046,experiment,49,→,right,→,0.5826837001368403,True,28,1
159K21S4,1047,experiment,75,↑,up,↑,0.6140549001283944,True,28,1
159K21S4,1048,experiment,70,↓,down,↓,0.5018123998306692,True,28,1
159K21S4,1049,training,88,↓,no_key,no_letter,-1.0,False,28,0
159K21S4,1050,training,56,↑,up,↑,0.37570219999179244,True,28,1
159K21S4,1051,experiment,52,→,right,→,0.43289680033922195,True,28,0
159K21S4,1052,experiment,86,←,left,←,0.41910130018368363,True,28,1
159K21S4,1053,experiment,101,→,left,←,0.7276544999331236,False,28,1
159K21S4,1054,experiment,95,↓,down,↓,0.642902999650687,True,28,1
159K21S4,1055,experiment,54,↓,down,↓,0.5187511998228729,True,28,1
159K21S4,1056,experiment,59,↑,up,↑,0.35165470000356436,True,28,1
159K21S4,1057,experiment,92,←,left,←,0.4011079999618232,True,28,0
159K21S4,1058,experiment,81,↓,up,↑,0.5730368001386523,False,28,0
159K21S4,1059,experiment,78,→,right,→,0.4198990003205836,True,28,1
159K21S4,1060,experiment,62,↓,down,↓,0.6138795004226267,True,28,1
159K21S4,1061,experiment,69,↑,up,↑,0.48589019989594817,True,28,1
159K21S4,1062,experiment,99,→,right,→,0.5053334999829531,True,28,1
159K21S4,1063,experiment,87,↓,up,↑,0.6557376999408007,False,28,1
159K21S4,1064,experiment,85,↑,up,↑,0.6409856001846492,True,28,1
159K21S4,1065,experiment,48,↑,up,↑,0.40737910009920597,True,28,1
159K21S4,1066,experiment,76,←,left,←,0.5009792000055313,True,28,1
159K21S4,1067,experiment,90,↓,left,←,0.30854819994419813,False,28,1
159K21S4,1068,experiment,71,←,left,←,0.43006910011172295,True,28,0
159K21S4,1069,experiment,61,←,left,←,0.5362785998731852,True,28,1
159K21S4,1070,experiment,91,→,left,←,0.4602850000374019,False,28,1
159K21S4,1071,experiment,50,→,no_key,no_letter,-1.0,False,28,1
159K21S4,1072,experiment,58,←,left,←,0.6892886999994516,True,28,1
159K21S4,1073,experiment,66,↑,left,←,0.6474262997508049,False,28,1
159K21S4,1074,experiment,97,↑,up,↑,0.4207929000258446,True,28,1
159K21S4,1075,experiment,89,→,right,→,0.4617618997581303,True,28,1
159K21S4,1076,experiment,75,→,right,→,0.3757264004088938,True,28,1
159K21S4,1077,experiment,65,←,left,←,0.8050346998497844,True,28,0
159K21S4,1078,experiment,56,↓,no_key,no_letter,-1.0,False,28,1
159K21S4,1079,experiment,74,↓,down,↓,0.5405741999857128,True,28,1
159K21S4,1080,experiment,80,↓,down,↓,0.4679598002694547,True,28,1
159K21S4,1081,experiment,102,↑,no_key,no_letter,-1.0,False,28,1
159K21S4,1082,experiment,96,↓,down,↓,0.618510500062257,True,28,1
159K21S4,1083,experiment,93,←,left,←,0.650575099978596,True,28,1
159K21S4,1084,experiment,73,←,no_key,no_letter,-1.0,False,28,1
159K21S4,1085,experiment,55,↓,down,↓,0.5051923003047705,True,28,1
159K21S4,1086,experiment,88,↑,up,↑,0.6151351002044976,True,28,1
159K21S4,1087,experiment,57,→,right,→,0.6032527000643313,True,28,1
159K21S4,1088,experiment,108,←,left,←,0.37589009990915656,True,28,1
159K21S4,1089,experiment,104,←,no_key,no_letter,-1.0,False,28,0
159K21S4,1090,experiment,70,↑,up,↑,0.5689606997184455,True,28,1
159K21S4,1091,experiment,106,→,left,←,0.6466045998968184,False,28,1
159K21S4,1092,experiment,79,↑,up,↑,0.4103962001390755,True,28,1
159K21S4,1093,experiment,72,↓,down,↓,0.5451028002426028,True,28,1
159K21S4,1094,experiment,94,←,left,←,0.4121360997669399,True,28,1
159K21S4,1095,experiment,103,←,left,←,0.5126326000317931,True,28,1
159K21S4,1096,experiment,100,←,left,←,0.5385656002908945,True,28,1
159K21S4,1097,experiment,83,↑,up,↑,0.42506520031020045,True,28,1
159K21S4,1098,experiment,51,↑,up,↑,0.5347763001918793,True,28,1
159K21S4,1099,experiment,77,↓,down,↓,0.5355264004319906,True,28,1
159K21S4,1100,experiment,105,←,left,←,0.5588297001086175,True,28,1
159K21S4,1101,experiment,49,↓,down,↓,0.9359773998148739,True,28,1
159K21S4,1102,experiment,60,→,left,←,0.5743485996499658,False,28,1
159K21S4,1103,experiment,107,←,left,←,0.41176569974049926,True,28,1
159K21S4,1104,experiment,67,←,left,←,0.5004401998594403,True,28,1
159K21S4,1105,experiment,82,→,right,→,0.42895640013739467,True,28,1
159K21S4,1106,experiment,64,↓,no_key,no_letter,-1.0,False,28,1
159K21S4,1107,experiment,98,←,left,←,0.5607547000981867,True,28,1
159K21S4,1108,experiment,84,←,left,←,0.5581998997367918,True,28,1
159K21S4,1109,experiment,68,↓,up,↑,0.6008713999763131,False,28,1
159K21S4,1110,experiment,63,↑,no_key,no_letter,-1.0,False,28,1
159K21S4,1111,experiment,53,↑,up,↑,0.46162869967520237,True,28,1
159K21S4,1112,training,72,↑,up,↑,0.5110667999833822,True,28,0
159K21S4,1113,training,67,→,right,→,0.5641541997902095,True,28,1
159K21S4,1114,experiment,102,←,left,←,0.6511667999438941,True,28,1
159K21S4,1115,experiment,98,↑,no_key,no_letter,-1.0,False,28,1
159K21S4,1116,experiment,106,↓,down,↓,0.512402799911797,True,28,1
159K21S4,1117,experiment,67,↓,down,↓,0.4775004000402987,True,28,1
159K21S4,1118,experiment,96,→,right,→,0.41847370006144047,True,28,1
159K21S4,1119,experiment,90,↓,left,←,0.674848800059408,False,28,1
159K21S4,1120,experiment,56,↓,down,↓,0.6129828998818994,True,28,1
159K21S4,1121,experiment,62,↑,up,↑,0.7834204002283514,True,28,1
159K21S4,1122,experiment,88,↓,down,↓,1.0183786996640265,True,28,1
159K21S4,1123,experiment,72,←,no_key,no_letter,-1.0,False,28,1
159K21S4,1124,experiment,60,↓,down,↓,0.4969693999737501,True,28,1
159K21S4,1125,experiment,77,↓,down,↓,0.571055700071156,True,28,1
159K21S4,1126,experiment,57,←,left,←,0.3756812997162342,True,28,1
159K21S4,1127,experiment,108,→,no_key,no_letter,-1.0,False,28,0
159K21S4,1128,experiment,52,→,right,→,0.4714468000456691,True,28,1
159K21S4,1129,experiment,63,←,left,←,0.38417760003358126,True,28,1
159K21S4,1130,experiment,87,←,left,←,0.5141954002901912,True,28,0
159K21S4,1131,experiment,82,←,left,←,0.3757108999416232,True,28,1
159K21S4,1132,experiment,95,←,left,←,0.46673360001295805,True,28,0
159K21S4,1133,experiment,84,←,left,←,0.35068099992349744,True,28,1
159K21S4,1134,experiment,74,←,left,←,0.36740290001034737,True,28,0
159K21S4,1135,experiment,89,↓,down,↓,0.6396697000600398,True,28,0
159K21S4,1136,experiment,105,→,right,→,0.586614300031215,True,28,1
159K21S4,1137,experiment,93,←,left,←,0.5480467998422682,True,28,1
159K21S4,1138,experiment,100,↓,down,↓,0.49239710019901395,True,28,1
159K21S4,1139,experiment,97,↑,up,↑,0.5760648003779352,True,28,1
159K21S4,1140,experiment,92,←,left,←,0.4742971998639405,True,28,1
159K21S4,1141,experiment,61,→,left,←,0.49881809996441007,False,28,1
159K21S4,1142,experiment,58,↓,no_key,no_letter,-1.0,False,28,1
159K21S4,1143,experiment,73,→,right,→,0.36743020033463836,True,28,1
159K21S4,1144,experiment,53,→,right,→,0.5654417001642287,True,28,0
159K21S4,1145,experiment,59,←,no_key,no_letter,-1.0,False,28,1
159K21S4,1146,experiment,99,↓,down,↓,0.5093334997072816,True,28,1
159K21S4,1147,experiment,83,↓,down,↓,1.2449500998482108,True,28,1
159K21S4,1148,experiment,68,↓,up,↑,0.6922786999493837,False,28,1
159K21S4,1149,experiment,64,←,left,←,0.4271713001653552,True,28,1
159K21S4,1150,experiment,50,↓,down,↓,0.4570931997150183,True,28,1
159K21S4,1151,experiment,54,↑,no_key,no_letter,-1.0,False,28,1
159K21S4,1152,experiment,80,↑,up,↑,0.46152549982070923,True,28,1
159K21S4,1153,experiment,48,↓,down,↓,0.5068757999688387,True,28,1
159K21S4,1154,experiment,49,↓,down,↓,0.5819506999105215,True,28,1
159K21S4,1155,experiment,69,↓,down,↓,0.4634712999686599,True,28,1
159K21S4,1156,experiment,75,←,left,←,0.587491299957037,True,28,1
159K21S4,1157,experiment,81,↑,down,↓,0.5685107996687293,False,28,1
159K21S4,1158,experiment,94,↓,up,↑,0.474312299862504,False,28,1
159K21S4,1159,experiment,78,↓,right,→,0.36714749969542027,False,28,1
159K21S4,1160,experiment,70,←,left,←,0.5504277995787561,True,28,0
159K21S4,1161,experiment,91,→,right,→,0.43396530020982027,True,28,1
159K21S4,1162,experiment,101,↑,up,↑,0.6545225996524096,True,28,1
159K21S4,1163,experiment,103,↑,up,↑,0.5218675998039544,True,28,1
159K21S4,1164,experiment,71,↓,down,↓,0.6210620999336243,True,28,1
159K21S4,1165,experiment,76,↓,down,↓,0.4746862999163568,True,28,1
159K21S4,1166,experiment,85,↓,up,↑,0.5391037999652326,False,28,1
159K21S4,1167,experiment,107,↓,down,↓,0.5694649000652134,True,28,1
159K21S4,1168,experiment,66,→,right,→,0.4286193000152707,True,28,1
159K21S4,1169,experiment,104,→,left,←,0.45662169996649027,False,28,1
159K21S4,1170,experiment,79,←,left,←,0.4277001000009477,True,28,1
159K21S4,1171,experiment,55,→,right,→,0.4243529001250863,True,28,1
159K21S4,1172,experiment,65,↓,no_key,no_letter,-1.0,False,28,1
159K21S4,1173,experiment,51,↑,up,↑,0.44380690017715096,True,28,1
159K21S4,1174,experiment,86,↑,up,↑,0.3259675996378064,True,28,1
159K21S4,1175,training,80,↑,up,↑,0.5023867003619671,True,28,0
159K21S4,1176,training,86,↑,up,↑,0.46946849999949336,True,28,1
159K21S4,1177,experiment,67,↑,up,↑,0.3338959999382496,True,28,1
159K21S4,1178,experiment,83,↑,up,↑,0.3089633001945913,True,28,0
159K21S4,1179,experiment,68,←,left,←,0.5271023996174335,True,28,0
159K21S4,1180,experiment,82,↓,down,↓,0.518418500199914,True,28,1
159K21S4,1181,experiment,85,←,left,←,0.5251629003323615,True,28,1
159K21S4,1182,experiment,73,↑,up,↑,0.5115674999542534,True,28,1
159K21S4,1183,experiment,78,↓,down,↓,0.48104079999029636,True,28,1
159K21S4,1184,experiment,76,←,left,←,0.46807550033554435,True,28,1
159K21S4,1185,experiment,100,→,no_key,no_letter,-1.0,False,28,1
159K21S4,1186,experiment,63,→,right,→,0.5263895001262426,True,28,1
159K21S4,1187,experiment,48,←,left,←,0.43336830008774996,True,28,1
159K21S4,1188,experiment,80,↑,up,↑,0.5170830995775759,True,28,1
159K21S4,1189,experiment,69,←,left,←,0.40147809963673353,True,28,1
159K21S4,1190,experiment,84,←,left,←,0.5243804999627173,True,28,0
159K21S4,1191,experiment,66,↑,up,↑,0.5051659001037478,True,28,1
159K21S4,1192,experiment,75,↓,down,↓,0.7876566997729242,True,28,1
159K21S4,1193,experiment,59,→,right,→,0.47992909979075193,True,28,1
159K21S4,1194,experiment,94,↓,up,↑,0.47688090009614825,False,28,1
159K21S4,1195,experiment,53,↓,down,↓,0.47206929977983236,True,28,1
159K21S4,1196,experiment,54,↓,down,↓,0.5795288998633623,True,28,1
159K21S4,1197,experiment,91,↑,no_key,no_letter,-1.0,False,28,1
159K21S4,1198,experiment,51,←,left,←,0.4798816000111401,True,28,1
159K21S4,1199,experiment,58,↑,no_key,no_letter,-1.0,False,28,1
159K21S4,1200,experiment,56,→,right,→,0.41020660009235144,True,28,1
159K21S4,1201,experiment,103,←,left,←,0.6624975996091962,True,28,1
159K21S4,1202,experiment,107,↓,down,↓,0.4958269000053406,True,28,1
159K21S4,1203,experiment,90,↓,down,↓,0.4701296999119222,True,28,1
159K21S4,1204,experiment,57,↑,down,↓,0.5120025998912752,False,28,1
159K21S4,1205,experiment,86,→,right,→,0.42288440000265837,True,28,1
159K21S4,1206,experiment,71,↓,down,↓,0.4618191998451948,True,28,1
159K21S4,1207,experiment,89,↑,up,↑,0.4376657996326685,True,28,1
159K21S4,1208,experiment,52,←,left,←,0.5943815000355244,True,28,1
159K21S4,1209,experiment,72,→,right,→,0.42672739969566464,True,28,1
159K21S4,1210,experiment,79,→,right,→,0.5588787002488971,True,28,1
159K21S4,1211,experiment,77,↑,up,↑,0.534549199976027,True,28,1
159K21S4,1212,experiment,101,↓,down,↓,0.48729699989780784,True,28,1
159K21S4,1213,experiment,55,←,left,←,0.41005800012499094,True,28,1
159K21S4,1214,experiment,49,↑,up,↑,0.42422209959477186,True,28,1
159K21S4,1215,experiment,88,↑,up,↑,0.5934817004017532,True,28,1
159K21S4,1216,experiment,81,←,left,←,0.42292620008811355,True,28,1
159K21S4,1217,experiment,92,↓,down,↓,0.46268009999766946,True,28,1
159K21S4,1218,experiment,98,←,no_key,no_letter,-1.0,False,28,1
159K21S4,1219,experiment,64,←,left,←,0.40190540021285415,True,28,1
159K21S4,1220,experiment,60,→,left,←,0.4527678000740707,False,28,0
159K21S4,1221,experiment,97,↑,up,↑,0.41846040030941367,True,28,1
159K21S4,1222,experiment,102,←,left,←,0.4308939999900758,True,28,1
159K21S4,1223,experiment,104,↓,up,↑,0.5626245001330972,False,28,1
159K21S4,1224,experiment,74,→,left,←,0.4511541002430022,False,28,1
159K21S4,1225,experiment,61,↓,up,↑,0.5325152999721467,False,28,1
159K21S4,1226,experiment,105,→,right,→,0.42780299996957183,True,28,1
159K21S4,1227,experiment,65,←,right,→,0.5568469003774226,False,28,1
159K21S4,1228,experiment,87,→,right,→,0.522045100107789,True,28,1
159K21S4,1229,experiment,96,←,left,←,0.4919680003076792,True,28,1
159K21S4,1230,experiment,70,↑,no_key,no_letter,-1.0,False,28,1
159K21S4,1231,experiment,108,↓,down,↓,0.5283253998495638,True,28,1
159K21S4,1232,experiment,93,←,no_key,no_letter,-1.0,False,28,1
159K21S4,1233,experiment,106,→,right,→,0.41273829992860556,True,28,1
159K21S4,1234,experiment,99,↑,up,↑,0.35901089990511537,True,28,1
159K21S4,1235,experiment,95,←,up,↑,0.8676630002446473,False,28,0
159K21S4,1236,experiment,50,↑,up,↑,0.41614750027656555,True,28,1
159K21S4,1237,experiment,62,↑,up,↑,0.35080929985269904,True,28,1
159K21S4,1238,training,79,←,no_key,no_letter,-1.0,False,28,0
159K21S4,1239,training,85,→,right,→,0.5566730001010001,True,28,1
159K21S4,1240,experiment,62,↓,down,↓,0.5854307999834418,True,28,1
159K21S4,1241,experiment,73,↑,no_key,no_letter,-1.0,False,28,1
159K21S4,1242,experiment,94,→,right,→,0.5262774000875652,True,28,1
159K21S4,1243,experiment,50,↓,down,↓,0.4877581996843219,True,28,1
159K21S4,1244,experiment,101,↓,down,↓,0.4504088000394404,True,28,1
159K21S4,1245,experiment,95,←,right,→,0.6326050995849073,False,28,1
159K21S4,1246,experiment,48,↓,down,↓,0.558935800101608,True,28,1
159K21S4,1247,experiment,107,←,left,←,0.5486634997650981,True,28,1
159K21S4,1248,experiment,55,→,right,→,0.40471989987418056,True,28,1
159K21S4,1249,experiment,67,↑,up,↑,1.2692648000083864,True,28,0
159K21S4,1250,experiment,49,↑,up,↑,0.5617959001101553,True,28,1
159K21S4,1251,experiment,91,↑,up,↑,0.3098832997493446,True,28,1
159K21S4,1252,experiment,66,↓,up,↑,0.4737048000097275,False,28,0
159K21S4,1253,experiment,56,↓,up,↑,0.4278923003003001,False,28,1
159K21S4,1254,experiment,77,←,left,←,0.4010609998367727,True,28,1
159K21S4,1255,experiment,65,↑,down,↓,0.5463523999787867,False,28,0
159K21S4,1256,experiment,88,↑,left,←,0.4390163002535701,False,28,1
159K21S4,1257,experiment,90,←,left,←,0.7190433000214398,True,28,1
159K21S4,1258,experiment,81,←,left,←,0.43109670002013445,True,28,1
159K21S4,1259,experiment,54,←,left,←,0.5235762996599078,True,28,1
159K21S4,1260,experiment,53,↓,up,↑,0.7246173000894487,False,28,1
159K21S4,1261,experiment,93,→,right,→,0.3841052995994687,True,28,1
159K21S4,1262,experiment,92,↑,up,↑,0.45770819997414947,True,28,0
159K21S4,1263,experiment,69,←,left,←,0.4403718998655677,True,28,1
159K21S4,1264,experiment,79,↑,no_key,no_letter,-1.0,False,28,1
159K21S4,1265,experiment,103,↓,up,↑,0.5492495996877551,False,28,1
159K21S4,1266,experiment,83,←,left,←,0.44312599999830127,True,28,1
159K21S4,1267,experiment,75,←,no_key,no_letter,-1.0,False,28,1
159K21S4,1268,experiment,51,↓,down,↓,0.49091329984366894,True,28,1
159K21S4,1269,experiment,70,→,right,→,0.6718124998733401,True,28,1
159K21S4,1270,experiment,98,↑,no_key,no_letter,-1.0,False,28,1
159K21S4,1271,experiment,108,↓,down,↓,0.49104190012440085,True,28,1
159K21S4,1272,experiment,84,↓,down,↓,0.5471162996254861,True,28,1
159K21S4,1273,experiment,87,↑,down,↓,0.7678125002421439,False,28,1
159K21S4,1274,experiment,63,←,left,←,0.3757666000165045,True,28,1
159K21S4,1275,experiment,59,↑,no_key,no_letter,-1.0,False,28,0
159K21S4,1276,experiment,74,↑,up,↑,0.5716665000654757,True,28,1
159K21S4,1277,experiment,99,→,no_key,no_letter,-1.0,False,28,1
159K21S4,1278,experiment,61,↓,up,↑,0.5465012998320162,False,28,1
159K21S4,1279,experiment,97,↓,down,↓,0.5401675002649426,True,28,1
159K21S4,1280,experiment,102,←,left,←,0.4204078000038862,True,28,1
159K21S4,1281,experiment,86,←,left,←,0.3515890999697149,True,28,1
159K21S4,1282,experiment,72,←,right,→,0.5437489999458194,False,28,0
159K21S4,1283,experiment,82,→,left,←,0.5104923001490533,False,28,1
159K21S4,1284,experiment,52,↑,up,↑,0.8325183000415564,True,28,1
159K21S4,1285,experiment,76,↑,no_key,no_letter,-1.0,False,28,1
159K21S4,1286,experiment,57,→,right,→,0.4541503000073135,True,28,1
159K21S4,1287,experiment,106,↓,no_key,no_letter,-1.0,False,28,1
159K21S4,1288,experiment,78,↓,no_key,no_letter,-1.0,False,28,1
159K21S4,1289,experiment,104,↓,no_key,no_letter,-1.0,False,28,1
159K21S4,1290,experiment,71,↓,down,↓,0.35982410004362464,True,28,1
159K21S4,1291,experiment,89,←,no_key,no_letter,-1.0,False,28,0
159K21S4,1292,experiment,105,↓,down,↓,0.48255320033058524,True,28,1
159K21S4,1293,experiment,64,→,left,←,0.5295264003798366,False,28,1
159K21S4,1294,experiment,100,→,right,→,0.5787832997739315,True,28,1
159K21S4,1295,experiment,80,→,left,←,0.5295580998063087,False,28,1
159K21S4,1296,experiment,58,←,left,←,0.4244972001761198,True,28,1
159K21S4,1297,experiment,60,→,no_key,no_letter,-1.0,False,28,1
159K21S4,1298,experiment,96,↓,down,↓,0.5668957997113466,True,28,1
159K21S4,1299,experiment,85,↑,up,↑,0.4037498999387026,True,28,1
159K21S4,1300,experiment,68,→,right,→,0.6361140999943018,True,28,1
159K21S4,1301,training,50,↑,up,↑,0.6522936001420021,True,29,0
159K21S4,1302,training,70,→,right,→,0.4906222000718117,True,29,1
159K21S4,1303,experiment,53,↑,no_key,no_letter,-1.0,False,29,1
159K21S4,1304,experiment,71,→,left,←,0.42483949987217784,False,29,1
159K21S4,1305,experiment,108,↑,up,↑,0.5793107999488711,True,29,1
159K21S4,1306,experiment,80,↑,up,↑,0.4492329997010529,True,29,1
159K21S4,1307,experiment,63,←,right,→,0.43417989974841475,False,29,1
159K21S4,1308,experiment,58,↓,down,↓,0.5894046002067626,True,29,1
159K21S4,1309,experiment,96,→,right,→,0.629237299785018,True,29,1
159K21S4,1310,experiment,65,←,left,←,0.3758523999713361,True,29,1
159K21S4,1311,experiment,49,↓,down,↓,0.4461517999880016,True,29,0
159K21S4,1312,experiment,86,↑,up,↑,0.6071708998642862,True,29,1
159K21S4,1313,experiment,90,→,right,→,0.6005424996837974,True,29,1
159K21S4,1314,experiment,55,↑,no_key,no_letter,-1.0,False,29,1
159K21S4,1315,experiment,68,↑,up,↑,0.37567060021683574,True,29,1
159K21S4,1316,experiment,84,→,right,→,0.5590518997050822,True,29,0
159K21S4,1317,experiment,93,←,left,←,0.4178375997580588,True,29,1
159K21S4,1318,experiment,89,→,no_key,no_letter,-1.0,False,29,1
159K21S4,1319,experiment,107,→,right,→,0.4104532999917865,True,29,1
159K21S4,1320,experiment,50,←,left,←,0.4246267001144588,True,29,0
159K21S4,1321,experiment,51,↓,right,→,0.6621023998595774,False,29,1
159K21S4,1322,experiment,77,→,right,→,0.593826400116086,True,29,1
159K21S4,1323,experiment,95,→,right,→,0.6662686001509428,True,29,1
159K21S4,1324,experiment,76,↓,down,↓,0.550010799895972,True,29,1
159K21S4,1325,experiment,60,↓,down,↓,0.6757825999520719,True,29,1
159K21S4,1326,experiment,100,→,right,→,0.44731209985911846,True,29,1
159K21S4,1327,experiment,82,←,left,←,0.4336204999126494,True,29,1
159K21S4,1328,experiment,66,←,no_key,no_letter,-1.0,False,29,1
159K21S4,1329,experiment,102,↑,up,↑,0.5710269999690354,True,29,1
159K21S4,1330,experiment,52,↑,up,↑,0.7548096999526024,True,29,1
159K21S4,1331,experiment,75,↑,up,↑,0.6595240002498031,True,29,1
159K21S4,1332,experiment,56,→,right,→,0.7263457998633385,True,29,1
159K21S4,1333,experiment,91,↑,up,↑,0.42691330006346107,True,29,1
159K21S4,1334,experiment,88,←,left,←,0.7396522997878492,True,29,1
159K21S4,1335,experiment,99,←,right,→,0.5487227998673916,False,29,1
159K21S4,1336,experiment,73,←,no_key,no_letter,-1.0,False,29,1
159K21S4,1337,experiment,105,→,no_key,no_letter,-1.0,False,29,1
159K21S4,1338,experiment,59,→,no_key,no_letter,-1.0,False,29,1
159K21S4,1339,experiment,74,→,right,→,0.39178659999743104,True,29,1
159K21S4,1340,experiment,69,→,right,→,0.3587667001411319,True,29,0
159K21S4,1341,experiment,61,↓,down,↓,0.5259422999806702,True,29,0
159K21S4,1342,experiment,70,←,left,←,0.4177791001275182,True,29,1
159K21S4,1343,experiment,83,↓,down,↓,0.4764553001150489,True,29,1
159K21S4,1344,experiment,104,↓,down,↓,0.4784820000641048,True,29,1
159K21S4,1345,experiment,94,↓,down,↓,0.6118919998407364,True,29,1
159K21S4,1346,experiment,67,↓,down,↓,0.4134627999737859,True,29,1
159K21S4,1347,experiment,79,→,right,→,0.4260443998500705,True,29,1
159K21S4,1348,experiment,72,↑,up,↑,0.39237819984555244,True,29,1
159K21S4,1349,experiment,97,↑,up,↑,0.3765255999751389,True,29,0
159K21S4,1350,experiment,103,←,no_key,no_letter,-1.0,False,29,0
159K21S4,1351,experiment,62,↑,up,↑,0.43625180004164577,True,29,1
159K21S4,1352,experiment,98,→,right,→,0.5778264999389648,True,29,1
159K21S4,1353,experiment,106,→,right,→,0.37595170037820935,True,29,1
159K21S4,1354,experiment,81,↓,down,↓,0.5006933002732694,True,29,0
159K21S4,1355,experiment,101,↓,down,↓,0.606795399915427,True,29,1
159K21S4,1356,experiment,85,↓,down,↓,0.4416793002746999,True,29,1
159K21S4,1357,experiment,64,→,right,→,0.6184724001213908,True,29,1
159K21S4,1358,experiment,48,→,right,→,0.49758119974285364,True,29,1
159K21S4,1359,experiment,87,→,right,→,0.38422319991514087,True,29,1
159K21S4,1360,experiment,92,→,right,→,0.3426177999936044,True,29,0
159K21S4,1361,experiment,78,↓,up,↑,0.529452099930495,False,29,0
159K21S4,1362,experiment,57,→,right,→,0.4728767001070082,True,29,1
159K21S4,1363,experiment,54,↑,up,↑,0.5476591000333428,True,29,1
159K21S4,1364,training,48,→,right,→,0.4632517001591623,True,29,0
159K21S4,1365,training,107,↓,right,→,0.5286427000537515,False,29,1
159K21S4,1366,experiment,69,→,right,→,0.4604012002237141,True,29,1
159K21S4,1367,experiment,76,→,right,→,0.3500903001986444,True,29,1
159K21S4,1368,experiment,56,↓,down,↓,0.5512195001356304,True,29,0
159K21S4,1369,experiment,101,←,up,↑,1.0312997000291944,False,29,1
159K21S4,1370,experiment,71,→,right,→,0.35024189995601773,True,29,1
159K21S4,1371,experiment,51,↑,no_key,no_letter,-1.0,False,29,0
159K21S4,1372,experiment,91,←,left,←,0.5790412002243102,True,29,1
159K21S4,1373,experiment,77,←,left,←,0.7862160997465253,True,29,1
159K21S4,1374,experiment,88,→,right,→,0.5490985997021198,True,29,1
159K21S4,1375,experiment,89,←,no_key,no_letter,-1.0,False,29,1
159K21S4,1376,experiment,90,↑,up,↑,0.5345189999789,True,29,1
159K21S4,1377,experiment,103,↓,down,↓,0.7102995002642274,True,29,1
159K21S4,1378,experiment,53,↑,up,↑,0.4880427997559309,True,29,1
159K21S4,1379,experiment,59,↓,down,↓,0.6964440997689962,True,29,1
159K21S4,1380,experiment,102,←,left,←,0.43408389994874597,True,29,1
159K21S4,1381,experiment,82,↓,down,↓,0.6533868000842631,True,29,1
159K21S4,1382,experiment,54,→,right,→,0.46496239956468344,True,29,1
159K21S4,1383,experiment,83,↓,down,↓,0.4825331997126341,True,29,1
159K21S4,1384,experiment,79,↑,down,↓,0.5644351998344064,False,29,1
159K21S4,1385,experiment,49,←,left,←,0.6851959000341594,True,29,1
159K21S4,1386,experiment,74,→,right,→,0.4568843999877572,True,29,1
159K21S4,1387,experiment,67,→,right,→,0.47203190019354224,True,29,1
159K21S4,1388,experiment,65,↓,down,↓,0.4796086000278592,True,29,1
159K21S4,1389,experiment,81,←,left,←,0.4564959998242557,True,29,1
159K21S4,1390,experiment,105,→,left,←,0.8829430001787841,False,29,1
159K21S4,1391,experiment,106,→,right,→,0.4439327996224165,True,29,1
159K21S4,1392,experiment,108,→,right,→,0.7179950000718236,True,29,1
159K21S4,1393,experiment,70,←,left,←,0.6577220000326633,True,29,1
159K21S4,1394,experiment,66,↑,up,↑,0.4253047998063266,True,29,1
159K21S4,1395,experiment,80,←,left,←,0.42170289997011423,True,29,1
159K21S4,1396,experiment,57,←,left,←,0.6249347999691963,True,29,1
159K21S4,1397,experiment,87,↑,up,↑,0.5465971999801695,True,29,1
159K21S4,1398,experiment,93,↑,up,↑,0.5496515999548137,True,29,1
159K21S4,1399,experiment,61,→,right,→,0.4431374999694526,True,29,1
159K21S4,1400,experiment,98,←,left,←,0.5604612003080547,True,29,1
159K21S4,1401,experiment,107,←,left,←,0.5501549998298287,True,29,1
159K21S4,1402,experiment,100,←,left,←,0.4229651000350714,True,29,1
159K21S4,1403,experiment,78,↓,left,←,0.6913200998678803,False,29,1
159K21S4,1404,experiment,97,→,left,←,0.6152804000303149,False,29,1
159K21S4,1405,experiment,62,↓,down,↓,0.5133862998336554,True,29,1
159K21S4,1406,experiment,75,↓,up,↑,0.7957936003804207,False,29,1
159K21S4,1407,experiment,55,←,left,←,0.5691996002569795,True,29,1
159K21S4,1408,experiment,92,↓,down,↓,0.5076087000779808,True,29,1
159K21S4,1409,experiment,96,←,left,←,0.582967100199312,True,29,1
159K21S4,1410,experiment,85,←,left,←,0.49913879996165633,True,29,1
159K21S4,1411,experiment,73,↓,down,↓,0.6143828998319805,True,29,1
159K21S4,1412,experiment,52,↑,up,↑,0.3924806001596153,True,29,1
159K21S4,1413,experiment,58,↓,down,↓,0.6247374997474253,True,29,0
159K21S4,1414,experiment,48,→,right,→,0.4713465999811888,True,29,1
159K21S4,1415,experiment,50,←,left,←,0.5316691002808511,True,29,1
159K21S4,1416,experiment,86,→,right,→,0.5292891999706626,True,29,1
159K21S4,1417,experiment,63,←,left,←,0.375929799862206,True,29,1
159K21S4,1418,experiment,84,↑,up,↑,0.3757163998670876,True,29,0
159K21S4,1419,experiment,94,←,left,←,0.39237500028684735,True,29,0
159K21S4,1420,experiment,104,→,right,→,0.4256090996786952,True,29,0
159K21S4,1421,experiment,64,↓,down,↓,0.6266274000518024,True,29,1
159K21S4,1422,experiment,60,↑,up,↑,0.5254653999581933,True,29,1
159K21S4,1423,experiment,68,←,left,←,0.6095540001988411,True,29,1
159K21S4,1424,experiment,95,↓,down,↓,0.7052122997120023,True,29,1
159K21S4,1425,experiment,99,→,left,←,0.4435283001512289,False,29,1
159K21S4,1426,experiment,72,←,left,←,0.4815885997377336,True,29,1
159K21S4,1427,training,75,←,left,←,0.45723630022257566,True,29,0
159K21S4,1428,training,73,→,right,→,0.35911280009895563,True,29,1
159K21S4,1429,experiment,97,↑,up,↑,0.4239266999065876,True,29,0
159K21S4,1430,experiment,61,←,left,←,0.41001850040629506,True,29,1
159K21S4,1431,experiment,93,→,right,→,0.4101167996414006,True,29,0
159K21S4,1432,experiment,73,→,right,→,0.35899080010131,True,29,0
159K21S4,1433,experiment,85,↑,up,↑,0.38445329992100596,True,29,0
159K21S4,1434,experiment,95,↓,down,↓,0.5495400000363588,True,29,0
159K21S4,1435,experiment,54,↑,down,↓,0.7013338003307581,False,29,1
159K21S4,1436,experiment,104,↓,up,↑,0.47829729970544577,False,29,1
159K21S4,1437,experiment,65,→,left,←,0.5253662997856736,False,29,1
159K21S4,1438,experiment,48,←,left,←,0.3424321999773383,True,29,1
159K21S4,1439,experiment,94,←,left,←,0.4905644999817014,True,29,0
159K21S4,1440,experiment,74,↑,no_key,no_letter,-1.0,False,29,1
159K21S4,1441,experiment,52,→,left,←,0.4398292996920645,False,29,1
159K21S4,1442,experiment,49,↑,up,↑,0.5256225997582078,True,29,1
159K21S4,1443,experiment,68,↓,up,↑,0.5537946000695229,False,29,1
159K21S4,1444,experiment,92,↓,no_key,no_letter,-1.0,False,29,1
159K21S4,1445,experiment,66,←,no_key,no_letter,-1.0,False,29,1
159K21S4,1446,experiment,63,↓,down,↓,0.5043083997443318,True,29,1
159K21S4,1447,experiment,70,↓,down,↓,0.4526305003091693,True,29,1
159K21S4,1448,experiment,62,→,right,→,0.4616711996495724,True,29,1
159K21S4,1449,experiment,59,→,right,→,0.3673645001836121,True,29,1
159K21S4,1450,experiment,82,↑,up,↑,0.5009312001056969,True,29,0
159K21S4,1451,experiment,80,↑,up,↑,0.5820009000599384,True,29,1
159K21S4,1452,experiment,91,↓,down,↓,0.5920297997072339,True,29,1
159K21S4,1453,experiment,81,→,up,↑,0.957137499935925,False,29,1
159K21S4,1454,experiment,56,↓,down,↓,0.5798276998102665,True,29,1
159K21S4,1455,experiment,78,↓,down,↓,0.5224910997785628,True,29,1
159K21S4,1456,experiment,83,↑,up,↑,0.5536809000186622,True,29,1
159K21S4,1457,experiment,106,↓,down,↓,0.5760018001310527,True,29,1
159K21S4,1458,experiment,84,←,left,←,0.884705999866128,True,29,1
159K21S4,1459,experiment,69,↓,up,↑,0.5141350999474525,False,29,1
159K21S4,1460,experiment,100,→,no_key,no_letter,-1.0,False,29,1
159K21S4,1461,experiment,55,↓,down,↓,0.548776900395751,True,29,1
159K21S4,1462,experiment,67,↓,up,↑,0.5040850001387298,False,29,1
159K21S4,1463,experiment,98,↓,down,↓,0.563181500416249,True,29,1
159K21S4,1464,experiment,75,←,left,←,0.5711694001220167,True,29,1
159K21S4,1465,experiment,72,↓,down,↓,0.46006180020049214,True,29,1
159K21S4,1466,experiment,79,↑,down,↓,0.5269686998799443,False,29,1
159K21S4,1467,experiment,99,↓,down,↓,0.4886986999772489,True,29,1
159K21S4,1468,experiment,53,←,left,←,0.5631515001878142,True,29,1
159K21S4,1469,experiment,57,←,left,←,0.4100468000397086,True,29,1
159K21S4,1470,experiment,96,↑,up,↑,0.5287472000345588,True,29,0
159K21S4,1471,experiment,89,↓,down,↓,0.8056473000906408,True,29,1
159K21S4,1472,experiment,103,↓,down,↓,0.62664550030604,True,29,1
159K21S4,1473,experiment,90,→,right,→,0.7554639000445604,True,29,1
159K21S4,1474,experiment,102,↓,down,↓,0.538790799677372,True,29,1
159K21S4,1475,experiment,71,↑,down,↓,0.5171908000484109,False,29,1
159K21S4,1476,experiment,105,↑,up,↑,0.3671566001139581,True,29,1
159K21S4,1477,experiment,76,↑,up,↑,0.36729269986972213,True,29,0
159K21S4,1478,experiment,101,←,left,←,0.5796368001028895,True,29,0
159K21S4,1479,experiment,64,→,right,→,0.7267697001807392,True,29,1
159K21S4,1480,experiment,108,↑,up,↑,0.5736088999547064,True,29,1
159K21S4,1481,experiment,86,→,right,→,0.4496221002191305,True,29,1
159K21S4,1482,experiment,51,↓,up,↑,0.5183522999286652,False,29,1
159K21S4,1483,experiment,58,→,right,→,0.39232910005375743,True,29,1
159K21S4,1484,experiment,87,←,left,←,0.5767558999359608,True,29,0
159K21S4,1485,experiment,88,↓,right,→,0.3173852995969355,False,29,1
159K21S4,1486,experiment,50,↑,down,↓,0.6383586996234953,False,29,0
159K21S4,1487,experiment,77,←,left,←,0.46657649986445904,True,29,1
159K21S4,1488,experiment,107,←,left,←,0.3421467002481222,True,29,1
159K21S4,1489,experiment,60,↓,down,↓,0.513798899948597,True,29,0
159K21S4,1490,training,98,→,right,→,0.4285682002082467,True,29,0
