PART_ID,Trial_no,Trial_type,CSI,Stim_letter,Key_pressed,letter_choose,Rt,Corr,Stimulus Time,nDropped
160K25S1,1,training,120,↑,down,↓,0.641872100008186,False,60,1
160K25S1,2,training,120,→,right,→,0.45894360000966117,True,60,0
160K25S1,3,training,120,→,right,→,0.4764973999990616,True,60,0
160K25S1,4,training,120,↓,right,→,0.575888000021223,False,60,0
160K25S1,5,training,120,→,right,→,0.476512699999148,True,60,0
160K25S1,6,training,120,→,right,→,0.45991800000774674,True,60,0
160K25S1,7,training,120,↓,left,←,0.41825979997520335,False,60,0
160K25S1,8,training,120,↑,down,↓,0.4267859999963548,False,60,0
160K25S1,9,training,120,←,left,←,0.4332898999855388,True,60,0
160K25S1,10,training,120,↑,up,↑,0.5755299999727868,True,60,0
160K25S1,11,training,120,←,right,→,0.45986319999792613,False,60,0
160K25S1,12,training,120,←,down,↓,0.541915899986634,False,60,0
160K25S1,13,training,120,←,left,←,0.558824799983995,True,60,0
160K25S1,14,training,120,↓,down,↓,0.4766833999892697,True,60,0
160K25S1,15,training,120,↑,up,↑,0.4675822999852244,True,60,0
160K25S1,16,training,120,←,left,←,0.459763999999268,True,60,0
160K25S1,17,training,120,↑,up,↑,0.526805899979081,True,60,0
160K25S1,18,training,120,→,right,→,0.5915127999905962,True,60,0
160K25S1,19,training,120,↓,down,↓,0.5170764999929816,True,60,0
160K25S1,20,training,120,↑,up,↑,0.5332304000039585,True,60,0
160K25S1,21,no_adaptation,120,↑,up,↑,0.4082524999976158,True,36,0
160K25S1,22,no_adaptation,120,→,right,→,0.5662291000189725,True,36,0
160K25S1,23,no_adaptation,120,←,left,←,0.536285800015321,True,36,0
160K25S1,24,no_adaptation,120,↑,up,↑,0.4994109999970533,True,36,0
160K25S1,25,no_adaptation,120,←,down,↓,0.48784250000608154,False,36,0
160K25S1,26,no_adaptation,120,↓,down,↓,0.46909810000215657,True,36,0
160K25S1,27,no_adaptation,120,→,right,→,0.40879539999878034,True,36,0
160K25S1,28,no_adaptation,120,↑,up,↑,0.4092485000146553,True,36,0
160K25S1,29,no_adaptation,120,←,right,→,0.450979199988069,False,36,0
160K25S1,30,no_adaptation,120,→,left,←,0.42536270001437515,False,36,0
160K25S1,31,no_adaptation,120,→,right,→,0.41689599998062477,True,36,0
160K25S1,32,no_adaptation,120,←,left,←,0.4169883000140544,True,36,0
160K25S1,33,no_adaptation,120,↑,up,↑,0.3673232999863103,True,36,0
160K25S1,34,no_adaptation,120,←,left,←,0.3421455000061542,True,36,0
160K25S1,35,no_adaptation,120,←,left,←,0.4423891000042204,True,36,0
160K25S1,36,no_adaptation,120,→,right,→,0.43390519998501986,True,36,0
160K25S1,37,no_adaptation,120,↑,up,↑,0.39959250000538304,True,36,0
160K25S1,38,no_adaptation,120,→,right,→,0.5912138000130653,True,36,0
160K25S1,39,no_adaptation,120,↓,down,↓,0.576379200007068,True,36,0
160K25S1,40,no_adaptation,120,↓,down,↓,0.5057393999886699,True,36,0
160K25S1,41,training,75,↑,up,↑,0.43393790000118315,True,36,0
160K25S1,42,training,55,↑,no_key,no_letter,-1.0,False,36,0
160K25S1,43,experiment,108,→,right,→,0.43349800002761185,True,36,1
160K25S1,44,experiment,95,→,right,→,0.48460709999199025,True,36,0
160K25S1,45,experiment,57,↑,up,↑,1.5661842999979854,True,36,1
160K25S1,46,experiment,59,↓,up,↑,0.6848157000204083,False,36,1
160K25S1,47,experiment,79,←,left,←,0.4879496000066865,True,36,1
160K25S1,48,experiment,56,←,left,←,1.3699389999965206,True,36,1
160K25S1,49,experiment,106,→,right,→,0.417502099997364,True,36,1
160K25S1,50,experiment,77,←,left,←,0.4254994000075385,True,36,1
160K25S1,51,experiment,87,↑,up,↑,0.47323010000400245,True,36,0
160K25S1,52,experiment,54,↓,up,↑,0.6522723000089172,False,36,1
160K25S1,53,experiment,94,↑,up,↑,0.4678258000058122,True,36,1
160K25S1,54,experiment,72,↓,up,↑,0.40949609997915104,False,36,1
160K25S1,55,experiment,93,↑,up,↑,1.0494380999880377,True,36,0
160K25S1,56,experiment,63,→,right,→,0.43416880001313984,True,36,1
160K25S1,57,experiment,66,→,no_key,no_letter,-1.0,False,36,0
160K25S1,58,experiment,88,↓,down,↓,0.7454921000171453,True,36,1
160K25S1,59,experiment,61,↑,up,↑,0.4163031999778468,True,36,1
160K25S1,60,experiment,55,←,left,←,0.6129416000039782,True,36,0
160K25S1,61,experiment,103,←,left,←,0.6032400999974925,True,36,1
160K25S1,62,experiment,75,↓,down,↓,0.49867529998300597,True,36,1
160K25S1,63,experiment,84,→,right,→,0.6188494999951217,True,36,1
160K25S1,64,experiment,49,←,left,←,0.48234009998850524,True,36,1
160K25S1,65,experiment,73,←,left,←,0.43356149998726323,True,36,1
160K25S1,66,experiment,96,↓,up,↑,0.9264276000030804,False,36,1
160K25S1,67,experiment,51,↑,up,↑,0.8089304000022821,True,36,1
160K25S1,68,experiment,97,←,left,←,0.42628779998631217,True,36,1
160K25S1,69,experiment,82,↓,down,↓,0.47708779998356476,True,36,0
160K25S1,70,experiment,78,←,left,←,0.4009939999959897,True,36,1
160K25S1,71,experiment,53,←,left,←,0.4257105000142474,True,36,0
160K25S1,72,experiment,90,↑,up,↑,1.2313585999945644,True,36,0
160K25S1,73,experiment,52,↓,down,↓,0.741410899994662,True,36,1
160K25S1,74,experiment,92,↑,up,↑,0.43319419998442754,True,36,1
160K25S1,75,experiment,67,→,right,→,0.4982693000056315,True,36,0
160K25S1,76,experiment,102,↓,down,↓,0.596938600006979,True,36,1
160K25S1,77,experiment,48,↑,up,↑,0.653539200022351,True,36,1
160K25S1,78,experiment,71,↓,down,↓,0.7081895000010263,True,36,1
160K25S1,79,experiment,65,←,left,←,0.43321909999940544,True,36,1
160K25S1,80,experiment,74,→,right,→,0.45051880000391975,True,36,0
160K25S1,81,experiment,83,→,left,←,0.7154860000009649,False,36,0
160K25S1,82,experiment,107,→,right,→,0.5082427999877837,True,36,1
160K25S1,83,experiment,70,→,right,→,0.433724100003019,True,36,1
160K25S1,84,experiment,80,→,right,→,0.5971428000193555,True,36,0
160K25S1,85,experiment,100,→,right,→,0.8444481999904383,True,36,1
160K25S1,86,experiment,105,↓,up,↑,0.7606174999964423,False,36,1
160K25S1,87,experiment,98,→,right,→,0.5943559000152163,True,36,1
160K25S1,88,experiment,101,↑,up,↑,0.7696471000090241,True,36,1
160K25S1,89,experiment,89,←,left,←,0.550025700009428,True,36,1
160K25S1,90,experiment,91,↓,down,↓,0.7945584999979474,True,36,1
160K25S1,91,experiment,62,→,right,→,0.3916466000082437,True,36,1
160K25S1,92,experiment,69,→,right,→,0.6328696999989916,True,36,0
160K25S1,93,experiment,85,←,left,←,0.5318490999925416,True,36,1
160K25S1,94,experiment,81,→,right,→,0.4504756999958772,True,36,1
160K25S1,95,experiment,50,↓,down,↓,0.6730347000120673,True,36,0
160K25S1,96,experiment,76,↓,down,↓,0.7013213000027463,True,36,1
160K25S1,97,experiment,99,↓,down,↓,0.593093300005421,True,36,1
160K25S1,98,experiment,104,↑,up,↑,0.6793922999931965,True,36,1
160K25S1,99,experiment,58,→,right,→,0.375434600020526,True,36,1
160K25S1,100,experiment,68,←,left,←,0.38370480001321994,True,36,0
160K25S1,101,experiment,86,→,right,→,0.744509799988009,True,36,0
160K25S1,102,experiment,60,←,left,←,0.3922607999993488,True,36,1
160K25S1,103,experiment,64,↑,up,↑,0.778175099985674,True,36,0
160K25S1,104,training,105,←,left,←,0.949560900015058,True,36,0
160K25S1,105,training,61,→,right,→,0.4175108000054024,True,36,1
160K25S1,106,experiment,50,↑,up,↑,0.4746426999918185,True,36,0
160K25S1,107,experiment,68,←,right,→,0.6814099000184797,False,36,0
160K25S1,108,experiment,106,→,right,→,0.41736769999261014,True,36,1
160K25S1,109,experiment,71,←,left,←,0.4003429999866057,True,36,0
160K25S1,110,experiment,98,→,right,→,0.425743900006637,True,36,0
160K25S1,111,experiment,93,↓,down,↓,0.5794718000106514,True,36,1
160K25S1,112,experiment,74,↓,down,↓,0.5723245999834035,True,36,1
160K25S1,113,experiment,100,←,left,←,0.5484220999933314,True,36,1
160K25S1,114,experiment,101,↓,down,↓,0.5174764999828767,True,36,1
160K25S1,115,experiment,52,→,right,→,0.607968800002709,True,36,1
160K25S1,116,experiment,96,↑,up,↑,0.4729700000025332,True,36,1
160K25S1,117,experiment,108,↑,no_key,no_letter,-1.0,False,36,0
160K25S1,118,experiment,89,←,right,→,0.5107318999944255,False,36,1
160K25S1,119,experiment,83,→,right,→,0.40903319997596554,True,36,1
160K25S1,120,experiment,65,↑,up,↑,0.7136775999970268,True,36,1
160K25S1,121,experiment,88,↑,up,↑,0.48065589999896474,True,36,1
160K25S1,122,experiment,95,↓,down,↓,0.5660979999811389,True,36,1
160K25S1,123,experiment,58,↓,down,↓,0.6525086000037845,True,36,1
160K25S1,124,experiment,79,↓,down,↓,0.5048703000065871,True,36,1
160K25S1,125,experiment,53,↓,down,↓,0.4757582999882288,True,36,1
160K25S1,126,experiment,70,→,right,→,0.4261797000071965,True,36,1
160K25S1,127,experiment,67,↑,up,↑,0.6256888000061736,True,36,0
160K25S1,128,experiment,60,↑,up,↑,0.5732779999962077,True,36,1
160K25S1,129,experiment,49,→,right,→,0.43378439999651164,True,36,1
160K25S1,130,experiment,92,↑,up,↑,0.4712724999990314,True,36,0
160K25S1,131,experiment,99,←,right,→,0.5074721999990288,False,36,1
160K25S1,132,experiment,86,↓,down,↓,0.6587426999758463,True,36,1
160K25S1,133,experiment,94,←,left,←,0.4417820000089705,True,36,1
160K25S1,134,experiment,102,→,right,→,0.5100224000052549,True,36,0
160K25S1,135,experiment,103,←,left,←,0.3754336999845691,True,36,1
160K25S1,136,experiment,78,↓,down,↓,0.49536699999589473,True,36,0
160K25S1,137,experiment,72,↓,down,↓,0.692284099990502,True,36,1
160K25S1,138,experiment,48,→,right,→,0.6813585000054445,True,36,1
160K25S1,139,experiment,66,↓,down,↓,0.816715099994326,True,36,1
160K25S1,140,experiment,64,→,right,→,0.6673731000046246,True,36,1
160K25S1,141,experiment,51,↓,down,↓,0.6238970000122208,True,36,1
160K25S1,142,experiment,91,↑,up,↑,0.881294999999227,True,36,1
160K25S1,143,experiment,54,↓,down,↓,0.7008103999833111,True,36,1
160K25S1,144,experiment,73,↓,down,↓,0.921149100002367,True,36,1
160K25S1,145,experiment,85,→,right,→,0.7444106999901123,True,36,1
160K25S1,146,experiment,69,→,right,→,0.9242898999946192,True,36,1
160K25S1,147,experiment,55,→,right,→,0.9256170000007842,True,36,1
160K25S1,148,experiment,63,←,left,←,0.6845626000140328,True,36,1
160K25S1,149,experiment,76,↓,down,↓,0.6642652000009548,True,36,1
160K25S1,150,experiment,107,→,right,→,1.85110810000333,True,36,1
160K25S1,151,experiment,61,→,right,→,0.653408699989086,True,36,1
160K25S1,152,experiment,90,←,left,←,0.613632199994754,True,36,1
160K25S1,153,experiment,104,↓,down,↓,0.5792680000013206,True,36,1
160K25S1,154,experiment,81,↑,up,↑,0.4895437999803107,True,36,1
160K25S1,155,experiment,77,→,right,→,0.4848366999940481,True,36,1
160K25S1,156,experiment,97,↑,up,↑,0.7292555999883916,True,36,1
160K25S1,157,experiment,84,←,left,←,0.744608100008918,True,36,1
160K25S1,158,experiment,57,←,left,←,0.5765862000116613,True,36,1
160K25S1,159,experiment,56,↑,up,↑,0.5594318000075873,True,36,1
160K25S1,160,experiment,82,←,left,←,0.9024863000086043,True,36,1
160K25S1,161,experiment,59,→,right,→,0.7113896000082605,True,36,1
160K25S1,162,experiment,105,→,right,→,0.6007652999833226,True,36,1
160K25S1,163,experiment,62,→,right,→,0.6054703999834601,True,36,1
160K25S1,164,experiment,75,↑,up,↑,0.46851159998914227,True,36,1
160K25S1,165,experiment,80,↑,up,↑,0.5668542000057641,True,36,0
160K25S1,166,experiment,87,→,right,→,0.5958716000022832,True,36,1
160K25S1,167,training,53,↓,down,↓,0.7793252999836113,True,35,0
160K25S1,168,training,63,←,left,←,0.48771129999659024,True,35,1
160K25S1,169,experiment,106,↑,up,↑,0.6654139000165742,True,35,1
160K25S1,170,experiment,74,↓,down,↓,0.5829227000067476,True,35,1
160K25S1,171,experiment,103,↑,up,↑,0.7656590999977197,True,35,1
160K25S1,172,experiment,78,↓,down,↓,0.6375888000184204,True,35,1
160K25S1,173,experiment,51,↑,up,↑,0.7235516000073403,True,35,1
160K25S1,174,experiment,79,←,left,←,0.72486210000352,True,35,1
160K25S1,175,experiment,83,↓,down,↓,0.9968848999997135,True,35,1
160K25S1,176,experiment,55,←,left,←,0.8433457000064664,True,35,1
160K25S1,177,experiment,86,↓,down,↓,0.7496409000013955,True,35,1
160K25S1,178,experiment,89,↓,down,↓,1.3467238000012003,True,35,1
160K25S1,179,experiment,91,↑,up,↑,0.5352234999882057,True,35,1
160K25S1,180,experiment,81,↑,up,↑,0.607511499983957,True,35,1
160K25S1,181,experiment,104,→,right,→,0.7332890000252519,True,35,1
160K25S1,182,experiment,62,↓,down,↓,0.9238542999955826,True,35,1
160K25S1,183,experiment,98,↓,down,↓,0.7669460000179242,True,35,1
160K25S1,184,experiment,75,←,left,←,0.7522738999978174,True,35,1
160K25S1,185,experiment,99,↑,up,↑,0.5297512999968603,True,35,1
160K25S1,186,experiment,105,↓,up,↑,0.9300913000188302,False,35,1
160K25S1,187,experiment,107,→,right,→,0.5778668999846559,True,35,1
160K25S1,188,experiment,53,→,right,→,0.7218784000142477,True,35,1
160K25S1,189,experiment,71,↓,down,↓,1.022155600017868,True,35,1
160K25S1,190,experiment,64,←,left,←,0.496215499995742,True,35,1
160K25S1,191,experiment,49,←,left,←,0.6287102000205778,True,35,1
160K25S1,192,experiment,97,↓,down,↓,0.6521245999902021,True,35,1
160K25S1,193,experiment,100,→,right,→,0.6250803000002634,True,35,1
160K25S1,194,experiment,56,↑,up,↑,0.6383732999966014,True,35,1
160K25S1,195,experiment,54,→,left,←,0.8828700000012759,False,35,1
160K25S1,196,experiment,76,↓,down,↓,0.6149033999827225,True,35,1
160K25S1,197,experiment,67,←,left,←,0.4886203999922145,True,35,1
160K25S1,198,experiment,69,→,right,→,0.6707264000142459,True,35,1
160K25S1,199,experiment,58,↑,up,↑,0.720706699998118,True,35,1
160K25S1,200,experiment,77,↓,down,↓,0.7465551999921445,True,35,1
160K25S1,201,experiment,52,←,left,←,0.5478884000040125,True,35,1
160K25S1,202,experiment,70,↑,up,↑,0.5191418999747839,True,35,1
160K25S1,203,experiment,61,↓,down,↓,0.7909053000039421,True,35,1
160K25S1,204,experiment,95,↑,up,↑,0.6241909999807831,True,35,1
160K25S1,205,experiment,101,←,left,←,0.5023185999889392,True,35,1
160K25S1,206,experiment,96,↓,down,↓,0.7628313000022899,True,35,1
160K25S1,207,experiment,65,↓,down,↓,0.7275089000177104,True,35,1
160K25S1,208,experiment,108,→,right,→,0.6633603000082076,True,35,1
160K25S1,209,experiment,48,→,right,→,0.7334277000045404,True,35,1
160K25S1,210,experiment,94,→,right,→,0.6014009999926202,True,35,1
160K25S1,211,experiment,85,↑,up,↑,0.4857084999966901,True,35,1
160K25S1,212,experiment,50,→,right,→,0.5383202999946661,True,35,1
160K25S1,213,experiment,73,→,right,→,0.6528632999979891,True,35,1
160K25S1,214,experiment,63,↑,up,↑,0.4424777000094764,True,35,1
160K25S1,215,experiment,59,↓,down,↓,0.7134139999980107,True,35,0
160K25S1,216,experiment,87,←,left,←,0.6083292000112124,True,35,1
160K25S1,217,experiment,84,↓,down,↓,0.660867699974915,True,35,1
160K25S1,218,experiment,68,↑,up,↑,0.8760763000173029,True,35,1
160K25S1,219,experiment,90,←,left,←,0.6920434999919962,True,35,1
160K25S1,220,experiment,93,↓,down,↓,0.6742823000240605,True,35,1
160K25S1,221,experiment,82,↑,up,↑,0.5483353000017814,True,35,1
160K25S1,222,experiment,88,→,right,→,0.6336583999800496,True,35,1
160K25S1,223,experiment,57,↓,down,↓,0.5582073999976274,True,35,1
160K25S1,224,experiment,102,←,left,←,0.6223927999963053,True,35,1
160K25S1,225,experiment,80,↑,up,↑,0.48319500000798143,True,35,1
160K25S1,226,experiment,92,←,left,←,0.5138781999994535,True,35,1
160K25S1,227,experiment,72,→,right,→,0.8380649999890011,True,35,1
160K25S1,228,experiment,66,↓,down,↓,0.5988260000012815,True,35,1
160K25S1,229,experiment,60,→,right,→,0.7553392999980133,True,35,1
160K25S1,230,training,58,←,left,←,0.6547200999921188,True,34,0
160K25S1,231,training,98,←,left,←,0.5166609000007156,True,34,1
160K25S1,232,experiment,73,→,right,→,0.6326860000262968,True,34,1
160K25S1,233,experiment,89,←,left,←,0.4088161000108812,True,34,1
160K25S1,234,experiment,107,↓,down,↓,0.7824033999931999,True,34,1
160K25S1,235,experiment,74,←,no_key,no_letter,-1.0,False,34,1
160K25S1,236,experiment,52,←,left,←,0.4652545999852009,True,34,1
160K25S1,237,experiment,108,→,right,→,0.40898989999550395,True,34,1
160K25S1,238,experiment,91,←,left,←,0.7242161000031047,True,34,0
160K25S1,239,experiment,104,↑,up,↑,0.5172221000248101,True,34,1
160K25S1,240,experiment,62,→,right,→,0.6445118999981787,True,34,1
160K25S1,241,experiment,53,↑,up,↑,0.6977568999864161,True,34,1
160K25S1,242,experiment,71,↑,up,↑,0.8626983000140171,True,34,1
160K25S1,243,experiment,54,←,left,←,0.6506998999975622,True,34,1
160K25S1,244,experiment,97,→,right,→,0.5932805999764241,True,34,1
160K25S1,245,experiment,105,↑,up,↑,0.6231477000110317,True,34,1
160K25S1,246,experiment,96,→,right,→,0.7988465999951586,True,34,1
160K25S1,247,experiment,60,↓,down,↓,0.7233505999902263,True,34,1
160K25S1,248,experiment,77,↑,up,↑,0.949745999998413,True,34,1
160K25S1,249,experiment,86,→,right,→,0.715572000015527,True,34,1
160K25S1,250,experiment,57,↓,down,↓,0.6604977000097279,True,34,1
160K25S1,251,experiment,48,↓,down,↓,0.8906379999825731,True,34,1
160K25S1,252,experiment,102,←,right,→,0.5580094000033569,False,34,1
160K25S1,253,experiment,80,←,left,←,1.5173972000193316,True,34,1
160K25S1,254,experiment,83,↓,down,↓,0.5339427000144497,True,34,1
160K25S1,255,experiment,94,←,left,←,0.6739417999924626,True,34,1
160K25S1,256,experiment,82,↓,down,↓,1.0442650000040885,True,34,1
160K25S1,257,experiment,63,↑,up,↑,0.9346650999796111,True,34,1
160K25S1,258,experiment,92,→,right,→,0.6513829999894369,True,34,1
160K25S1,259,experiment,103,↑,down,↓,0.8082408999907784,False,34,1
160K25S1,260,experiment,69,←,left,←,0.5370354000187945,True,34,1
160K25S1,261,experiment,93,→,right,→,0.6208837000012863,True,34,1
160K25S1,262,experiment,79,↑,up,↑,0.5861231999879237,True,34,1
160K25S1,263,experiment,72,↑,up,↑,0.5477174000116065,True,34,1
160K25S1,264,experiment,66,↑,up,↑,0.48021469998639077,True,34,1
160K25S1,265,experiment,58,↓,down,↓,0.7221204999950714,True,34,1
160K25S1,266,experiment,81,↑,up,↑,0.6747882000054233,True,34,1
160K25S1,267,experiment,78,↓,down,↓,0.6542404000065289,True,34,1
160K25S1,268,experiment,70,←,left,←,0.7171970000199508,True,34,1
160K25S1,269,experiment,76,←,left,←,0.6878067000070587,True,34,1
160K25S1,270,experiment,84,↑,up,↑,0.6250642000231892,True,34,1
160K25S1,271,experiment,75,↑,up,↑,0.743380400002934,True,34,1
160K25S1,272,experiment,85,↓,down,↓,0.7019957000156865,True,34,1
160K25S1,273,experiment,67,←,left,←,0.4923858999973163,True,34,1
160K25S1,274,experiment,55,←,left,←,0.5667494999943301,True,34,1
160K25S1,275,experiment,98,↑,up,↑,0.8803587000002153,True,34,1
160K25S1,276,experiment,101,→,left,←,1.0682667000219226,False,34,1
160K25S1,277,experiment,51,↓,down,↓,0.6490373999986332,True,34,1
160K25S1,278,experiment,90,↓,down,↓,0.7539473999931943,True,34,1
160K25S1,279,experiment,100,↑,up,↑,0.9388151000021026,True,34,1
160K25S1,280,experiment,88,↓,down,↓,0.5605971999757458,True,34,1
160K25S1,281,experiment,59,↑,up,↑,0.823449299990898,True,34,1
160K25S1,282,experiment,65,←,left,←,0.46567220002179965,True,34,1
160K25S1,283,experiment,64,↓,down,↓,0.8816488000156824,True,34,1
160K25S1,284,experiment,49,←,left,←,0.6386508000141475,True,34,1
160K25S1,285,experiment,87,↓,down,↓,0.9291988000040874,True,34,1
160K25S1,286,experiment,50,←,left,←,0.6593022000161,True,34,1
160K25S1,287,experiment,106,↓,down,↓,0.6225345999991987,True,34,1
160K25S1,288,experiment,68,↑,up,↑,0.9674427999998443,True,34,1
160K25S1,289,experiment,95,→,right,→,0.5857307999976911,True,34,1
160K25S1,290,experiment,61,↑,up,↑,0.9031519000127446,True,34,1
160K25S1,291,experiment,99,↓,down,↓,0.5467827999964356,True,34,1
160K25S1,292,experiment,56,→,right,→,0.7462912000191864,True,34,1
160K25S1,293,training,48,←,left,←,0.7483479999937117,True,33,0
160K25S1,294,training,75,↑,up,↑,0.5503825999912806,True,33,1
160K25S1,295,experiment,81,↑,up,↑,0.813666900008684,True,33,1
160K25S1,296,experiment,54,↓,down,↓,0.5318368999869563,True,33,1
160K25S1,297,experiment,76,→,right,→,0.5816996000066865,True,33,1
160K25S1,298,experiment,77,←,left,←,0.6453718999982812,True,33,1
160K25S1,299,experiment,61,→,right,→,0.6714699000003748,True,33,1
160K25S1,300,experiment,59,↓,left,←,0.9292977000004612,False,33,1
160K25S1,301,experiment,97,→,right,→,0.6204914999834727,True,33,1
160K25S1,302,experiment,64,←,right,→,0.7188900000182912,False,33,1
160K25S1,303,experiment,106,→,right,→,0.6159054000163451,True,33,1
160K25S1,304,experiment,53,↑,up,↑,0.9576638999860734,True,33,1
160K25S1,305,experiment,50,↑,up,↑,0.8154338999884203,True,33,1
160K25S1,306,experiment,49,→,right,→,0.48696490001748316,True,33,1
160K25S1,307,experiment,82,↓,down,↓,0.6968368999951053,True,33,1
160K25S1,308,experiment,71,←,left,←,0.6377995999937411,True,33,1
160K25S1,309,experiment,62,↓,down,↓,0.6637219999975059,True,33,1
160K25S1,310,experiment,94,↓,down,↓,0.902484899997944,True,33,1
160K25S1,311,experiment,93,↓,down,↓,0.8282457999885082,True,33,1
160K25S1,312,experiment,70,←,left,←,0.500556199986022,True,33,1
160K25S1,313,experiment,60,↑,up,↑,0.7731935000047088,True,33,1
160K25S1,314,experiment,51,←,left,←,0.5416522000159603,True,33,1
160K25S1,315,experiment,83,↑,up,↑,0.7330569999758154,True,33,1
160K25S1,316,experiment,100,→,right,→,0.45553939999081194,True,33,1
160K25S1,317,experiment,68,←,left,←,0.6146458000002895,True,33,1
160K25S1,318,experiment,107,→,right,→,0.5712799000029918,True,33,1
160K25S1,319,experiment,84,↓,up,↑,0.8246258000144735,False,33,1
160K25S1,320,experiment,57,←,left,←,0.46148230001563206,True,33,1
160K25S1,321,experiment,66,→,right,→,0.6611026999889873,True,33,1
160K25S1,322,experiment,73,←,left,←,0.39987639998435043,True,33,1
160K25S1,323,experiment,63,→,no_key,no_letter,-1.0,False,33,0
160K25S1,324,experiment,85,→,left,←,0.7253921000228729,False,33,1
160K25S1,325,experiment,65,→,right,→,0.6674790999968536,True,33,1
160K25S1,326,experiment,89,←,left,←,0.571778199984692,True,33,1
160K25S1,327,experiment,74,↑,up,↑,0.5009876000112854,True,33,1
160K25S1,328,experiment,72,↑,up,↑,0.5772150999982841,True,33,1
160K25S1,329,experiment,105,↑,up,↑,0.4563926000264473,True,33,1
160K25S1,330,experiment,104,↓,down,↓,0.6595636999991257,True,33,1
160K25S1,331,experiment,88,→,right,→,0.6287551999848802,True,33,1
160K25S1,332,experiment,91,→,right,→,0.3757863999926485,True,33,1
160K25S1,333,experiment,108,→,right,→,0.4912041999923531,True,33,0
160K25S1,334,experiment,98,←,left,←,1.8958104999910574,True,33,1
160K25S1,335,experiment,52,↓,down,↓,0.5393719999992754,True,33,1
160K25S1,336,experiment,78,←,left,←,0.5320851000142284,True,33,1
160K25S1,337,experiment,75,←,left,←,0.710689800005639,True,33,1
160K25S1,338,experiment,103,↑,up,↑,0.9044279000081588,True,33,1
160K25S1,339,experiment,56,←,left,←,0.5540446999948472,True,33,1
160K25S1,340,experiment,80,←,left,←,0.5379952999937814,True,33,1
160K25S1,341,experiment,102,←,left,←,0.7394044999964535,True,33,1
160K25S1,342,experiment,79,←,left,←,0.5965601000061724,True,33,1
160K25S1,343,experiment,55,←,left,←,0.5865221999993082,True,33,1
160K25S1,344,experiment,67,←,left,←,0.3664528999943286,True,33,1
160K25S1,345,experiment,92,→,right,→,0.5204530000046361,True,33,0
160K25S1,346,experiment,95,→,right,→,0.5169335999817122,True,33,1
160K25S1,347,experiment,99,↓,down,↓,0.6238538000034168,True,33,1
160K25S1,348,experiment,87,→,right,→,0.5143673999991734,True,33,1
160K25S1,349,experiment,69,→,right,→,0.4872730000060983,True,33,1
160K25S1,350,experiment,48,↑,up,↑,0.9642555000027642,True,33,1
160K25S1,351,experiment,86,↑,up,↑,0.818002299987711,True,33,1
160K25S1,352,experiment,101,↓,down,↓,0.6721048000035807,True,33,1
160K25S1,353,experiment,58,↑,up,↑,0.8180934999836609,True,33,1
160K25S1,354,experiment,90,↑,up,↑,0.6363639000046533,True,33,1
160K25S1,355,experiment,96,↑,up,↑,0.8999418999883346,True,33,1
160K25S1,356,training,105,←,left,←,0.4588297999871429,True,32,0
160K25S1,357,training,48,↓,down,↓,0.5368002000031993,True,32,1
160K25S1,358,experiment,66,↓,up,↑,0.6542082000232767,False,32,1
160K25S1,359,experiment,82,↓,down,↓,0.6895618000125978,True,32,1
160K25S1,360,experiment,97,→,right,→,0.4861825999978464,True,32,1
160K25S1,361,experiment,92,→,right,→,0.5168093999964185,True,32,1
160K25S1,362,experiment,53,←,left,←,0.48719419998815283,True,32,1
160K25S1,363,experiment,93,←,left,←,0.4171263000171166,True,32,1
160K25S1,364,experiment,86,↓,down,↓,0.5444556000002194,True,32,1
160K25S1,365,experiment,61,←,left,←,0.5349753999907989,True,32,1
160K25S1,366,experiment,73,→,right,→,0.4898817000212148,True,32,1
160K25S1,367,experiment,94,↓,down,↓,0.5273006999923382,True,32,1
160K25S1,368,experiment,108,→,right,→,0.5430496000044513,True,32,1
160K25S1,369,experiment,48,←,left,←,0.7059132999856956,True,32,1
160K25S1,370,experiment,102,↑,up,↑,0.7884036999894306,True,32,1
160K25S1,371,experiment,78,↓,down,↓,0.7794882000016514,True,32,1
160K25S1,372,experiment,50,↓,down,↓,0.6683218000107445,True,32,1
160K25S1,373,experiment,71,→,right,→,0.4667265999887604,True,32,1
160K25S1,374,experiment,87,↑,up,↑,0.8434177000017371,True,32,1
160K25S1,375,experiment,68,←,right,→,0.7802790999994613,False,32,1
160K25S1,376,experiment,64,↑,left,←,1.2481597999867518,False,32,1
160K25S1,377,experiment,91,←,no_key,no_letter,-1.0,False,32,1
160K25S1,378,experiment,83,→,right,→,0.46462750001228414,True,32,1
160K25S1,379,experiment,58,→,right,→,0.698812699993141,True,32,1
160K25S1,380,experiment,72,↓,down,↓,0.6077733999991324,True,32,1
160K25S1,381,experiment,62,↓,down,↓,0.6351179999765009,True,32,1
160K25S1,382,experiment,54,←,right,→,0.5443059999961406,False,32,1
160K25S1,383,experiment,80,↑,up,↑,0.6167522000032477,True,32,1
160K25S1,384,experiment,100,→,right,→,0.4952395999862347,True,32,1
160K25S1,385,experiment,57,↓,up,↑,0.9210367999912705,False,32,1
160K25S1,386,experiment,63,↑,down,↓,1.063492099987343,False,32,1
160K25S1,387,experiment,59,←,left,←,0.6259788000024855,True,32,1
160K25S1,388,experiment,67,↑,up,↑,0.8432157000061125,True,32,1
160K25S1,389,experiment,96,↑,up,↑,0.5146685999934562,True,32,1
160K25S1,390,experiment,76,→,right,→,0.6209426000132225,True,32,1
160K25S1,391,experiment,105,↑,up,↑,0.49743809999199584,True,32,1
160K25S1,392,experiment,60,↑,up,↑,0.6983361000020523,True,32,1
160K25S1,393,experiment,95,←,left,←,0.5831651999906171,True,32,1
160K25S1,394,experiment,56,←,left,←,0.7256771000102162,True,32,1
160K25S1,395,experiment,70,←,left,←,0.6102661000040825,True,32,1
160K25S1,396,experiment,103,↑,up,↑,0.5760338999971282,True,32,1
160K25S1,397,experiment,99,←,left,←,0.449057099991478,True,32,1
160K25S1,398,experiment,101,↑,up,↑,0.6938973999931477,True,32,1
160K25S1,399,experiment,104,↑,right,→,1.0005106000171509,False,32,1
160K25S1,400,experiment,84,↓,down,↓,0.772803899977589,True,32,1
160K25S1,401,experiment,85,↓,down,↓,0.5704910000204109,True,32,1
160K25S1,402,experiment,52,→,right,→,0.9145682999806013,True,32,1
160K25S1,403,experiment,55,↑,up,↑,0.5804396000166889,True,32,1
160K25S1,404,experiment,81,←,left,←,0.45858370000496507,True,32,1
160K25S1,405,experiment,77,←,left,←,0.8550181000027806,True,32,1
160K25S1,406,experiment,88,→,right,→,0.5042713000148069,True,32,1
160K25S1,407,experiment,89,↑,up,↑,0.8626848999992944,True,32,1
160K25S1,408,experiment,90,→,right,→,0.4707815999863669,True,32,1
160K25S1,409,experiment,49,↑,up,↑,0.7801406999933533,True,32,1
160K25S1,410,experiment,98,↓,down,↓,0.6049157999805175,True,32,1
160K25S1,411,experiment,107,→,right,→,0.6900147999986075,True,32,1
160K25S1,412,experiment,106,→,right,→,0.6034498999943025,True,32,1
160K25S1,413,experiment,75,↑,down,↓,0.9384028000058606,False,32,1
160K25S1,414,experiment,69,→,right,→,0.6225126000063028,True,32,1
160K25S1,415,experiment,79,←,left,←,0.6198392999940552,True,32,1
160K25S1,416,experiment,51,↑,up,↑,0.49866159999510273,True,32,1
160K25S1,417,experiment,65,→,right,→,0.6814984999946319,True,32,1
160K25S1,418,experiment,74,↑,up,↑,0.43898340000305325,True,32,1
160K25S1,419,training,79,←,left,←,0.5012557999871206,True,32,0
160K25S1,420,training,105,→,right,→,0.47082870002486743,True,32,1
160K25S1,421,experiment,54,←,left,←,0.4744747999939136,True,32,1
160K25S1,422,experiment,65,←,left,←,0.6503083000134211,True,32,1
160K25S1,423,experiment,106,↓,down,↓,0.5417012000107206,True,32,1
160K25S1,424,experiment,72,↓,down,↓,0.48049809999065474,True,32,1
160K25S1,425,experiment,87,→,right,→,1.3767607000190765,True,32,1
160K25S1,426,experiment,83,→,right,→,0.5112233999825548,True,32,1
160K25S1,427,experiment,51,←,right,→,0.8904396000143606,False,32,1
160K25S1,428,experiment,66,↓,down,↓,0.7133827999932691,True,32,1
160K25S1,429,experiment,69,→,down,↓,1.1342087000084575,False,32,1
160K25S1,430,experiment,82,↓,down,↓,0.49420650000683963,True,32,1
160K25S1,431,experiment,74,→,right,→,0.5145134000049438,True,32,1
160K25S1,432,experiment,107,←,left,←,0.8590740000072401,True,32,1
160K25S1,433,experiment,89,→,right,→,0.4022279999917373,True,32,1
160K25S1,434,experiment,56,←,left,←,0.4162798000033945,True,32,0
160K25S1,435,experiment,78,→,right,→,0.4628202000167221,True,32,0
160K25S1,436,experiment,77,↓,down,↓,0.4908106999937445,True,32,1
160K25S1,437,experiment,79,↓,down,↓,0.4855090999917593,True,32,1
160K25S1,438,experiment,88,→,right,→,0.49342399998568,True,32,1
160K25S1,439,experiment,102,←,left,←,0.40938709999318235,True,32,1
160K25S1,440,experiment,92,↓,down,↓,0.5214082000020426,True,32,0
160K25S1,441,experiment,55,↓,down,↓,0.4435164999740664,True,32,1
160K25S1,442,experiment,95,↓,down,↓,0.4340033999760635,True,32,1
160K25S1,443,experiment,67,→,right,→,0.4985325000016019,True,32,0
160K25S1,444,experiment,58,→,right,→,0.3997531000059098,True,32,1
160K25S1,445,experiment,94,↑,up,↑,0.4688618000072893,True,32,0
160K25S1,446,experiment,63,↓,down,↓,0.4694837999995798,True,32,1
160K25S1,447,experiment,49,↑,up,↑,0.4907859999802895,True,32,1
160K25S1,448,experiment,103,↑,left,←,0.8933715000166558,False,32,1
160K25S1,449,experiment,64,↓,down,↓,0.6208904999948572,True,32,1
160K25S1,450,experiment,108,←,right,→,0.7289121999929193,False,32,1
160K25S1,451,experiment,71,↑,up,↑,0.6288192000065465,True,32,1
160K25S1,452,experiment,75,←,left,←,0.43533959999331273,True,32,1
160K25S1,453,experiment,90,↓,down,↓,0.7238992000056896,True,32,0
160K25S1,454,experiment,59,↓,right,→,1.2518551000102889,False,32,1
160K25S1,455,experiment,73,↓,down,↓,0.5382066000020131,True,32,1
160K25S1,456,experiment,105,←,left,←,0.45875200000591576,True,32,1
160K25S1,457,experiment,101,→,right,→,0.4088165999855846,True,32,1
160K25S1,458,experiment,60,↑,up,↑,0.571025200013537,True,32,0
160K25S1,459,experiment,53,←,left,←,0.5866749999986496,True,32,1
160K25S1,460,experiment,52,←,no_key,no_letter,-1.0,False,32,1
160K25S1,461,experiment,91,←,left,←,0.48026959999697283,True,32,1
160K25S1,462,experiment,80,↑,up,↑,0.4585328999964986,True,32,1
160K25S1,463,experiment,84,→,right,→,0.5171219000185374,True,32,1
160K25S1,464,experiment,48,↑,up,↑,0.49666289999731816,True,32,1
160K25S1,465,experiment,98,→,no_key,no_letter,-1.0,False,32,1
160K25S1,466,experiment,57,↑,up,↑,0.5654601999849547,True,32,1
160K25S1,467,experiment,61,↑,up,↑,0.47495689999777824,True,32,1
160K25S1,468,experiment,62,←,left,←,0.48400200001196936,True,32,1
160K25S1,469,experiment,97,←,left,←,0.46474809999926947,True,32,1
160K25S1,470,experiment,99,←,left,←,0.4776654999877792,True,32,1
160K25S1,471,experiment,104,→,right,→,0.728919399989536,True,32,1
160K25S1,472,experiment,81,→,right,→,0.7460806999879424,True,32,1
160K25S1,473,experiment,50,←,left,←,0.5953229999868199,True,32,1
160K25S1,474,experiment,70,↓,left,←,0.7405865999753587,False,32,1
160K25S1,475,experiment,76,←,left,←,0.4171467999985907,True,32,1
160K25S1,476,experiment,93,↑,up,↑,0.6390623000042979,True,32,0
160K25S1,477,experiment,68,←,left,←,0.41689100000075996,True,32,1
160K25S1,478,experiment,85,↑,up,↑,0.4668387999990955,True,32,0
160K25S1,479,experiment,86,→,no_key,no_letter,-1.0,False,32,1
160K25S1,480,experiment,96,←,left,←,0.6954037999967113,True,32,1
160K25S1,481,experiment,100,←,right,→,0.8191709000093397,False,32,1
160K25S1,482,training,108,↓,down,↓,0.5680367999884766,True,32,0
160K25S1,483,training,52,↑,up,↑,0.5284639000019524,True,32,1
160K25S1,484,experiment,95,↑,up,↑,0.5002648999798112,True,32,1
160K25S1,485,experiment,84,↑,up,↑,0.5968592999852262,True,32,1
160K25S1,486,experiment,72,↓,down,↓,0.7656811999913771,True,32,1
160K25S1,487,experiment,53,→,right,→,0.8300725999870338,True,32,1
160K25S1,488,experiment,106,→,left,←,0.8738960000046063,False,32,1
160K25S1,489,experiment,48,←,left,←,1.2239786999998614,True,32,1
160K25S1,490,experiment,67,↓,down,↓,0.6249472000054084,True,32,1
160K25S1,491,experiment,70,←,left,←,0.5532466000004206,True,32,1
160K25S1,492,experiment,78,→,right,→,0.4586402000277303,True,32,1
160K25S1,493,experiment,54,→,right,→,0.4539641000155825,True,32,1
160K25S1,494,experiment,98,↓,down,↓,0.5080273999774363,True,32,1
160K25S1,495,experiment,51,↓,down,↓,0.5348917999945115,True,32,1
160K25S1,496,experiment,99,↑,up,↑,0.6171705999877304,True,32,1
160K25S1,497,experiment,90,↓,down,↓,0.6673184999963269,True,32,1
160K25S1,498,experiment,101,←,down,↓,0.7035786999913398,False,32,1
160K25S1,499,experiment,96,←,left,←,0.4369849999784492,True,32,1
160K25S1,500,experiment,60,←,left,←,0.4397513000003528,True,32,0
160K25S1,501,experiment,71,→,right,→,0.6942984999914188,True,32,1
160K25S1,502,experiment,62,↓,down,↓,0.5583925000100862,True,32,1
160K25S1,503,experiment,58,→,right,→,0.46955169999273494,True,32,1
160K25S1,504,experiment,105,↑,up,↑,0.7604477000131737,True,32,1
160K25S1,505,experiment,57,→,right,→,0.5677904000040144,True,32,1
160K25S1,506,experiment,74,↑,up,↑,0.880436399980681,True,32,1
160K25S1,507,experiment,89,↓,down,↓,0.5693085000093561,True,32,1
160K25S1,508,experiment,73,↑,up,↑,0.7216690000204835,True,32,1
160K25S1,509,experiment,52,↓,down,↓,0.5644389000080992,True,32,1
160K25S1,510,experiment,55,→,right,→,0.7236015999806114,True,32,1
160K25S1,511,experiment,87,←,left,←,0.4165509000013117,True,32,1
160K25S1,512,experiment,63,↓,down,↓,0.5886425000207964,True,32,0
160K25S1,513,experiment,66,↓,down,↓,0.7517387999978382,True,32,1
160K25S1,514,experiment,91,→,right,→,0.5804070000012871,True,32,1
160K25S1,515,experiment,81,↓,down,↓,0.49027889998978935,True,32,1
160K25S1,516,experiment,83,←,left,←,0.7076797999907285,True,32,1
160K25S1,517,experiment,97,→,right,→,0.5838709000090603,True,32,1
160K25S1,518,experiment,50,→,right,→,0.6322210000071209,True,32,1
160K25S1,519,experiment,104,↑,up,↑,1.0208787000156008,True,32,1
160K25S1,520,experiment,102,→,left,←,0.9468373999989126,False,32,1
160K25S1,521,experiment,64,→,right,→,0.5040913000120781,True,32,1
160K25S1,522,experiment,85,↑,up,↑,0.816105299978517,True,32,1
160K25S1,523,experiment,103,→,right,→,0.39195059999474324,True,32,1
160K25S1,524,experiment,79,↓,down,↓,0.6600519000203349,True,32,0
160K25S1,525,experiment,94,←,left,←,0.7791497000143863,True,32,1
160K25S1,526,experiment,77,↑,up,↑,0.6588736000121571,True,32,1
160K25S1,527,experiment,93,→,right,→,0.6341586000053212,True,32,1
160K25S1,528,experiment,49,←,left,←,0.4651014000119176,True,32,1
160K25S1,529,experiment,65,←,left,←,0.8014000999974087,True,32,1
160K25S1,530,experiment,88,↓,up,↑,1.276588200009428,False,32,1
160K25S1,531,experiment,75,↓,down,↓,0.6501819000113755,True,32,1
160K25S1,532,experiment,107,→,down,↓,0.7165439999953378,False,32,1
160K25S1,533,experiment,69,↓,down,↓,0.5456481000001077,True,32,1
160K25S1,534,experiment,59,↓,down,↓,0.9286508999939542,True,32,1
160K25S1,535,experiment,68,→,right,→,0.5577027999970596,True,32,1
160K25S1,536,experiment,80,↓,down,↓,0.4531478999997489,True,32,1
160K25S1,537,experiment,108,↓,down,↓,0.5757059999741614,True,32,1
160K25S1,538,experiment,61,↑,up,↑,0.7729134000255726,True,32,1
160K25S1,539,experiment,86,←,left,←,0.8978801000048406,True,32,1
160K25S1,540,experiment,56,↓,down,↓,0.5798191000067163,True,32,1
160K25S1,541,experiment,82,←,left,←,0.4578591999888886,True,32,1
160K25S1,542,experiment,100,↑,down,↓,0.6948457999969833,False,32,1
160K25S1,543,experiment,76,↑,up,↑,0.498517100000754,True,32,1
160K25S1,544,experiment,92,↑,up,↑,0.7364770999993198,True,32,1
160K25S1,545,training,68,←,left,←,0.39188839998678304,True,31,0
160K25S1,546,training,82,↓,down,↓,0.6404795999987982,True,31,0
160K25S1,547,experiment,64,↑,up,↑,0.7621852000011131,True,31,1
160K25S1,548,experiment,48,→,right,→,0.6679615000030026,True,31,1
160K25S1,549,experiment,92,↑,up,↑,0.8672793000005186,True,31,1
160K25S1,550,experiment,82,←,left,←,0.6222420000121929,True,31,1
160K25S1,551,experiment,77,↓,down,↓,0.5481539999891538,True,31,1
160K25S1,552,experiment,94,→,right,→,0.48727660000440665,True,31,1
160K25S1,553,experiment,70,→,right,→,0.44546879999688827,True,31,1
160K25S1,554,experiment,93,→,right,→,0.6373726000019815,True,31,1
160K25S1,555,experiment,56,←,left,←,0.5053339000151027,True,31,1
160K25S1,556,experiment,59,↑,up,↑,0.5299290999828372,True,31,1
160K25S1,557,experiment,97,←,left,←,0.439389500010293,True,31,1
160K25S1,558,experiment,107,←,no_key,no_letter,-1.0,False,31,1
160K25S1,559,experiment,67,→,right,→,0.6299251000164077,True,31,1
160K25S1,560,experiment,86,↑,up,↑,0.568616699980339,True,31,1
160K25S1,561,experiment,101,↓,down,↓,0.6491826999990735,True,31,1
160K25S1,562,experiment,60,↑,up,↑,0.4995930999866687,True,31,1
160K25S1,563,experiment,53,↑,up,↑,0.4389513999922201,True,31,1
160K25S1,564,experiment,85,↑,up,↑,0.5692706000118051,True,31,1
160K25S1,565,experiment,50,↑,up,↑,0.5781275999906939,True,31,1
160K25S1,566,experiment,72,↓,down,↓,0.8195290000003297,True,31,1
160K25S1,567,experiment,78,↓,down,↓,0.7054420000058599,True,31,1
160K25S1,568,experiment,62,↑,up,↑,0.4810248000139836,True,31,1
160K25S1,569,experiment,98,→,right,→,0.4776858000259381,True,31,1
160K25S1,570,experiment,58,↑,right,→,0.9202172000077553,False,31,1
160K25S1,571,experiment,90,↑,up,↑,0.5820615999982692,True,31,1
160K25S1,572,experiment,83,↑,up,↑,0.8836170000140555,True,31,1
160K25S1,573,experiment,76,↓,down,↓,0.7436199999938253,True,31,1
160K25S1,574,experiment,95,↑,up,↑,0.5712390999833588,True,31,1
160K25S1,575,experiment,65,↑,up,↑,0.8315671999880578,True,31,1
160K25S1,576,experiment,87,←,left,←,0.4979845999914687,True,31,1
160K25S1,577,experiment,75,←,left,←,0.4535691000055522,True,31,1
160K25S1,578,experiment,69,→,right,→,0.49250280001433566,True,31,1
160K25S1,579,experiment,96,→,right,→,0.5457396999991033,True,31,1
160K25S1,580,experiment,66,←,left,←,0.6300520999939181,True,31,1
160K25S1,581,experiment,61,←,left,←,0.3918093999964185,True,31,1
160K25S1,582,experiment,73,↓,down,↓,0.569583500007866,True,31,0
160K25S1,583,experiment,108,↑,down,↓,1.1753627999860328,False,31,1
160K25S1,584,experiment,51,↓,down,↓,0.648165099992184,True,31,1
160K25S1,585,experiment,99,↓,down,↓,0.589694900001632,True,31,1
160K25S1,586,experiment,84,←,no_key,no_letter,-1.0,False,31,1
160K25S1,587,experiment,68,←,left,←,0.43202629999723285,True,31,1
160K25S1,588,experiment,57,←,no_key,no_letter,-1.0,False,31,0
160K25S1,589,experiment,80,↑,up,↑,0.5655743999814149,True,31,1
160K25S1,590,experiment,49,↑,up,↑,0.6793423999915831,True,31,1
160K25S1,591,experiment,104,↑,up,↑,0.8342319999937899,True,31,1
160K25S1,592,experiment,89,↓,down,↓,0.7720306999981403,True,31,1
160K25S1,593,experiment,100,↑,down,↓,0.6443279999948572,False,31,1
160K25S1,594,experiment,79,←,left,←,0.5368704000138678,True,31,1
160K25S1,595,experiment,74,←,no_key,no_letter,-1.0,False,31,1
160K25S1,596,experiment,106,↓,down,↓,0.6284060000034515,True,31,1
160K25S1,597,experiment,81,↑,up,↑,0.9927894000138622,True,31,1
160K25S1,598,experiment,52,↓,down,↓,0.5523801000090316,True,31,1
160K25S1,599,experiment,105,←,left,←,0.6000246000185143,True,31,1
160K25S1,600,experiment,63,←,left,←,0.6835864999738988,True,31,1
160K25S1,601,experiment,102,↓,down,↓,0.6475118999951519,True,31,1
160K25S1,602,experiment,55,↓,down,↓,0.5072222000162583,True,31,1
160K25S1,603,experiment,54,←,left,←,0.6455068000068422,True,31,1
160K25S1,604,experiment,71,→,right,→,0.4763260000036098,True,31,1
160K25S1,605,experiment,103,↑,down,↓,0.9040346999827307,False,31,1
160K25S1,606,experiment,88,→,right,→,0.7908506000239868,True,31,1
160K25S1,607,experiment,91,→,right,→,0.7217716999875847,True,31,1
160K25S1,608,training,81,←,left,←,0.5665306000155397,True,31,0
160K25S1,609,training,93,←,left,←,0.6657245999958832,True,31,1
160K25S1,610,experiment,58,↑,up,↑,0.5323989000171423,True,31,1
160K25S1,611,experiment,49,→,right,→,0.67091860002256,True,31,1
160K25S1,612,experiment,60,→,right,→,0.40914000000339,True,31,1
160K25S1,613,experiment,81,→,right,→,0.45368059998145327,True,31,0
160K25S1,614,experiment,69,↓,down,↓,0.5649601999903098,True,31,1
160K25S1,615,experiment,61,→,no_key,no_letter,-1.0,False,31,1
160K25S1,616,experiment,99,↓,down,↓,0.661770400009118,True,31,1
160K25S1,617,experiment,59,←,left,←,0.4962701000040397,True,31,1
160K25S1,618,experiment,80,↓,up,↑,0.7619039999844972,False,31,1
160K25S1,619,experiment,86,↑,down,↓,0.7113954999949783,False,31,1
160K25S1,620,experiment,84,←,left,←,0.5757821000006516,True,31,1
160K25S1,621,experiment,71,↓,down,↓,0.6415294999897014,True,31,1
160K25S1,622,experiment,63,↓,down,↓,0.523648400005186,True,31,1
160K25S1,623,experiment,101,↑,up,↑,0.445483499992406,True,31,1
160K25S1,624,experiment,106,↑,up,↑,0.48126120000961237,True,31,1
160K25S1,625,experiment,97,→,right,→,0.46208389999810606,True,31,1
160K25S1,626,experiment,66,→,left,←,0.622348900011275,False,31,1
160K25S1,627,experiment,48,↑,up,↑,0.5817836000060197,True,31,1
160K25S1,628,experiment,85,↓,down,↓,0.610893799981568,True,31,1
160K25S1,629,experiment,54,→,left,←,0.47296900002402253,False,31,1
160K25S1,630,experiment,94,↓,down,↓,0.7193960000004154,True,31,1
160K25S1,631,experiment,98,↓,down,↓,0.9068182000191882,True,31,1
160K25S1,632,experiment,92,↑,up,↑,0.7765412000007927,True,31,1
160K25S1,633,experiment,73,↓,down,↓,0.8978126999863889,True,31,1
160K25S1,634,experiment,90,↓,down,↓,0.7289706999727059,True,31,1
160K25S1,635,experiment,105,↑,down,↓,1.2169134999858215,False,31,1
160K25S1,636,experiment,64,↓,down,↓,0.8037677999818698,True,31,1
160K25S1,637,experiment,102,↓,down,↓,0.6185314000176731,True,31,1
160K25S1,638,experiment,103,→,right,→,0.5845594999846071,True,31,1
160K25S1,639,experiment,50,→,right,→,0.4887375999824144,True,31,1
160K25S1,640,experiment,93,→,right,→,0.5668315000075381,True,31,1
160K25S1,641,experiment,55,↓,down,↓,0.6944905999989714,True,31,1
160K25S1,642,experiment,88,↑,up,↑,0.8224485999962781,True,31,1
160K25S1,643,experiment,107,↓,down,↓,0.7544071000011172,True,31,1
160K25S1,644,experiment,104,←,left,←,0.4577393000072334,True,31,1
160K25S1,645,experiment,89,→,down,↓,0.8426482999930158,False,31,1
160K25S1,646,experiment,65,←,left,←,0.8201198000169825,True,31,1
160K25S1,647,experiment,91,↓,down,↓,0.6937227000016719,True,31,1
160K25S1,648,experiment,67,←,left,←,0.47605999998631887,True,31,1
160K25S1,649,experiment,76,↓,down,↓,0.8007204000023194,True,31,1
160K25S1,650,experiment,68,↓,down,↓,1.0030912999936845,True,31,1
160K25S1,651,experiment,74,←,left,←,0.5223130999947898,True,31,1
160K25S1,652,experiment,82,→,right,→,0.4587491999845952,True,31,1
160K25S1,653,experiment,72,←,left,←,0.5448800000012852,True,31,1
160K25S1,654,experiment,52,←,left,←,0.562711800012039,True,31,1
160K25S1,655,experiment,78,↑,up,↑,0.9946994000056293,True,31,1
160K25S1,656,experiment,56,→,right,→,0.6328284000046551,True,31,1
160K25S1,657,experiment,100,←,left,←,0.4467927999794483,True,31,1
160K25S1,658,experiment,53,←,left,←,0.5956461999739986,True,31,1
160K25S1,659,experiment,70,↑,up,↑,0.49288530001649633,True,31,1
160K25S1,660,experiment,75,→,right,→,0.4331608999927994,True,31,1
160K25S1,661,experiment,83,←,left,←,0.7319909999787342,True,31,1
160K25S1,662,experiment,62,←,left,←,0.40880549998837523,True,31,1
160K25S1,663,experiment,95,↑,up,↑,0.49092759998166,True,31,1
160K25S1,664,experiment,79,↓,down,↓,0.6458282000094187,True,31,1
160K25S1,665,experiment,77,→,right,→,0.3921363000117708,True,31,1
160K25S1,666,experiment,51,←,left,←,0.4503979999863077,True,31,0
160K25S1,667,experiment,87,←,left,←,0.35809940000763163,True,31,1
160K25S1,668,experiment,96,↑,right,→,0.7735669999965467,False,31,0
160K25S1,669,experiment,57,→,right,→,0.636473799997475,True,31,1
160K25S1,670,experiment,108,←,left,←,0.43229309999151155,True,31,1
160K25S1,671,training,78,←,no_key,no_letter,-1.0,False,31,0
160K25S1,672,training,70,←,left,←,0.5893428999988828,True,31,1
160K25S1,673,experiment,80,↑,up,↑,0.5314335000002757,True,31,1
160K25S1,674,experiment,97,→,right,→,0.43091179998009466,True,31,1
160K25S1,675,experiment,62,↑,no_key,no_letter,-1.0,False,31,1
160K25S1,676,experiment,51,←,left,←,0.4995762000035029,True,31,1
160K25S1,677,experiment,58,↓,down,↓,0.7007830000075046,True,31,1
160K25S1,678,experiment,56,→,right,→,0.6473464999871794,True,31,1
160K25S1,679,experiment,64,↓,down,↓,0.7122116000100505,True,31,1
160K25S1,680,experiment,90,→,right,→,0.455265500000678,True,31,1
160K25S1,681,experiment,96,↓,down,↓,0.6290042999899015,True,31,1
160K25S1,682,experiment,87,↑,up,↑,0.9028825999994297,True,31,1
160K25S1,683,experiment,52,→,right,→,0.5303409999760333,True,31,1
160K25S1,684,experiment,101,→,right,→,0.5156168999965303,True,31,1
160K25S1,685,experiment,74,↑,up,↑,0.9191511999815702,True,31,1
160K25S1,686,experiment,70,↓,down,↓,0.5717185999965295,True,31,1
160K25S1,687,experiment,83,↑,up,↑,0.9296022999915294,True,31,1
160K25S1,688,experiment,108,↓,down,↓,0.7613252000010107,True,31,1
160K25S1,689,experiment,71,→,right,→,0.4836907999997493,True,31,1
160K25S1,690,experiment,55,↓,down,↓,0.6306227000022773,True,31,1
160K25S1,691,experiment,100,↓,down,↓,0.5485343000036664,True,31,1
160K25S1,692,experiment,85,↑,up,↑,0.9068512999801897,True,31,1
160K25S1,693,experiment,48,←,left,←,0.7276006999891251,True,31,1
160K25S1,694,experiment,88,↑,up,↑,0.8137264999968465,True,31,1
160K25S1,695,experiment,98,→,right,→,0.6049851000134367,True,31,1
160K25S1,696,experiment,91,↓,up,↑,0.9590876000002027,False,31,1
160K25S1,697,experiment,102,←,left,←,0.45560469999327324,True,31,1
160K25S1,698,experiment,77,←,left,←,0.6760027000273112,True,31,1
160K25S1,699,experiment,49,←,left,←,0.5772586000093725,True,31,1
160K25S1,700,experiment,81,↓,down,↓,0.5438900999724865,True,31,1
160K25S1,701,experiment,50,→,right,→,0.45034610002767295,True,31,1
160K25S1,702,experiment,89,←,left,←,0.5070123000186868,True,31,1
160K25S1,703,experiment,105,↑,up,↑,0.5083925000217278,True,31,1
160K25S1,704,experiment,99,←,left,←,0.7117526999791153,True,31,1
160K25S1,705,experiment,60,→,right,→,0.47984360001282766,True,31,1
160K25S1,706,experiment,107,←,left,←,0.5933768000104465,True,31,1
160K25S1,707,experiment,76,←,left,←,0.5050966000126209,True,31,1
160K25S1,708,experiment,57,↓,down,↓,0.706185999995796,True,31,1
160K25S1,709,experiment,93,←,left,←,0.5838187000190374,True,31,1
160K25S1,710,experiment,106,→,left,←,0.741504800011171,False,31,1
160K25S1,711,experiment,79,↑,up,↑,0.9501377000124194,True,31,1
160K25S1,712,experiment,75,←,left,←,0.6721445000148378,True,31,1
160K25S1,713,experiment,92,↓,left,←,1.190991799987387,False,31,1
160K25S1,714,experiment,84,↑,up,↑,0.964105599996401,True,31,1
160K25S1,715,experiment,78,→,right,→,0.46815410000272095,True,31,1
160K25S1,716,experiment,67,→,right,→,0.5317997999954969,True,31,1
160K25S1,717,experiment,95,↓,down,↓,0.9917348000162747,True,31,1
160K25S1,718,experiment,66,←,left,←,0.5384629999753088,True,31,1
160K25S1,719,experiment,73,↑,up,↑,0.8530193999758922,True,31,1
160K25S1,720,experiment,63,↑,up,↑,0.8147495999874081,True,31,1
160K25S1,721,experiment,86,←,left,←,0.5299766000243835,True,31,1
160K25S1,722,experiment,65,←,left,←,0.6001583999895956,True,31,1
160K25S1,723,experiment,103,←,left,←,0.48592780000763014,True,31,1
160K25S1,724,experiment,94,←,left,←,0.4089770000136923,True,31,1
160K25S1,725,experiment,82,↑,up,↑,0.5765347999986261,True,31,0
160K25S1,726,experiment,59,←,no_key,no_letter,-1.0,False,31,1
160K25S1,727,experiment,68,↓,down,↓,0.7800972999830265,True,31,1
160K25S1,728,experiment,53,←,left,←,0.5878440999949817,True,31,1
160K25S1,729,experiment,72,→,right,→,0.5563471999776084,True,31,1
160K25S1,730,experiment,54,→,right,→,0.7485802999872249,True,31,1
160K25S1,731,experiment,104,→,right,→,0.644664899999043,True,31,1
160K25S1,732,experiment,69,↓,down,↓,0.6446243999816943,True,31,1
160K25S1,733,experiment,61,↓,down,↓,0.6872176999750081,True,31,1
160K25S1,734,training,67,→,right,→,0.7032203999988269,True,30,0
160K25S1,735,training,70,←,left,←,0.46056559999124147,True,30,1
160K25S1,736,experiment,61,→,right,→,0.5265441000228748,True,30,1
160K25S1,737,experiment,85,→,right,→,0.6217735999962315,True,30,1
160K25S1,738,experiment,90,→,right,→,0.4005860000033863,True,30,1
160K25S1,739,experiment,75,←,left,←,0.5906535999965854,True,30,0
160K25S1,740,experiment,66,→,right,→,0.465497899975162,True,30,1
160K25S1,741,experiment,101,←,right,→,0.7096640000236221,False,30,1
160K25S1,742,experiment,67,↑,up,↑,0.9797581000020728,True,30,1
160K25S1,743,experiment,78,→,right,→,0.5951668999914546,True,30,1
160K25S1,744,experiment,84,↓,down,↓,0.6718473999935668,True,30,1
160K25S1,745,experiment,97,↑,up,↑,0.7174131000065245,True,30,1
160K25S1,746,experiment,72,←,left,←,0.441328999993857,True,30,1
160K25S1,747,experiment,87,↓,down,↓,0.5310754999809433,True,30,1
160K25S1,748,experiment,95,↓,down,↓,0.4869718000118155,True,30,1
160K25S1,749,experiment,74,↑,up,↑,0.5469518000027165,True,30,1
160K25S1,750,experiment,102,↓,down,↓,0.5157166999997571,True,30,1
160K25S1,751,experiment,71,←,left,←,0.6159755999979097,True,30,1
160K25S1,752,experiment,108,↑,up,↑,0.5642731999978423,True,30,1
160K25S1,753,experiment,83,↑,up,↑,0.698283600009745,True,30,1
160K25S1,754,experiment,100,↑,up,↑,0.742032600013772,True,30,1
160K25S1,755,experiment,92,→,right,→,0.642047300003469,True,30,1
160K25S1,756,experiment,88,↓,down,↓,0.5479976999922656,True,30,1
160K25S1,757,experiment,81,↓,down,↓,0.45171349999145605,True,30,1
160K25S1,758,experiment,52,↓,down,↓,0.696530499990331,True,30,1
160K25S1,759,experiment,70,↑,up,↑,0.5897230000118725,True,30,1
160K25S1,760,experiment,57,→,right,→,0.42817870000726543,True,30,1
160K25S1,761,experiment,96,→,no_key,no_letter,-1.0,False,30,1
160K25S1,762,experiment,86,↑,up,↑,0.7230764999985695,True,30,1
160K25S1,763,experiment,98,↓,down,↓,0.6462399000010919,True,30,1
160K25S1,764,experiment,63,↓,down,↓,0.4562648999853991,True,30,1
160K25S1,765,experiment,64,←,left,←,0.46471670002210885,True,30,1
160K25S1,766,experiment,69,↓,down,↓,0.5201301000197418,True,30,1
160K25S1,767,experiment,73,←,left,←,0.3675119999970775,True,30,1
160K25S1,768,experiment,51,←,left,←,0.49983269997755997,True,30,0
160K25S1,769,experiment,89,↓,down,↓,0.6668678999994881,True,30,1
160K25S1,770,experiment,48,↑,up,↑,0.47263229999225587,True,30,1
160K25S1,771,experiment,103,→,right,→,0.42813650000607595,True,30,1
160K25S1,772,experiment,55,↓,down,↓,0.6168720999849029,True,30,1
160K25S1,773,experiment,76,↓,down,↓,0.6394902000029106,True,30,1
160K25S1,774,experiment,60,↑,up,↑,0.7304345999727957,True,30,1
160K25S1,775,experiment,62,↓,down,↓,0.729226600000402,True,30,1
160K25S1,776,experiment,68,←,left,←,0.4699220000184141,True,30,1
160K25S1,777,experiment,104,↑,up,↑,1.0172941999917384,True,30,1
160K25S1,778,experiment,53,←,left,←,0.6395007999963127,True,30,1
160K25S1,779,experiment,77,←,right,→,0.7088204000028782,False,30,1
160K25S1,780,experiment,49,→,right,→,0.5365325000020675,True,30,1
160K25S1,781,experiment,107,←,left,←,0.4242302000056952,True,30,1
160K25S1,782,experiment,56,↑,up,↑,0.8450667999859434,True,30,0
160K25S1,783,experiment,91,↑,up,↑,0.8618118000158574,True,30,1
160K25S1,784,experiment,80,←,left,←,0.44165849999990314,True,30,1
160K25S1,785,experiment,58,→,right,→,0.6849607999902219,True,30,1
160K25S1,786,experiment,79,↓,down,↓,0.5118705999921076,True,30,1
160K25S1,787,experiment,94,→,right,→,0.7162945999880321,True,30,1
160K25S1,788,experiment,82,←,right,→,0.7172261999803595,False,30,1
160K25S1,789,experiment,50,↓,down,↓,0.5522618000104558,True,30,1
160K25S1,790,experiment,93,↓,down,↓,0.587962299992796,True,30,1
160K25S1,791,experiment,54,↑,up,↑,0.954803600005107,True,30,1
160K25S1,792,experiment,59,←,left,←,0.6496553999895696,True,30,1
160K25S1,793,experiment,65,↓,down,↓,0.6264907000004314,True,30,1
160K25S1,794,experiment,106,↓,down,↓,0.5187550999980886,True,30,1
160K25S1,795,experiment,99,↑,up,↑,0.5460808000061661,True,30,1
160K25S1,796,experiment,105,←,left,←,0.4495197999931406,True,30,1
160K25S1,797,training,72,←,left,←,0.4146879000181798,True,29,0
160K25S1,798,training,93,→,right,→,0.4233700000040699,True,29,1
160K25S1,799,experiment,108,→,left,←,0.4506310000142548,False,29,1
160K25S1,800,experiment,62,↑,up,↑,0.4683665999909863,True,29,1
160K25S1,801,experiment,67,↓,down,↓,0.7000024000008125,True,29,1
160K25S1,802,experiment,82,→,right,→,0.445467000012286,True,29,1
160K25S1,803,experiment,54,↓,down,↓,0.6496576999779791,True,29,1
160K25S1,804,experiment,90,↑,up,↑,0.4664591000182554,True,29,1
160K25S1,805,experiment,87,↓,down,↓,0.5632909999985714,True,29,1
160K25S1,806,experiment,50,→,right,→,0.4210486999945715,True,29,1
160K25S1,807,experiment,48,↑,up,↑,0.8356510000012349,True,29,1
160K25S1,808,experiment,79,↓,up,↑,0.7687478000007104,False,29,1
160K25S1,809,experiment,77,→,right,→,0.6169941000116523,True,29,1
160K25S1,810,experiment,75,→,right,→,0.4801397999981418,True,29,1
160K25S1,811,experiment,96,↑,up,↑,0.5654910999874119,True,29,1
160K25S1,812,experiment,98,→,right,→,0.7745523999910802,True,29,1
160K25S1,813,experiment,60,↓,down,↓,0.5806236999924295,True,29,1
160K25S1,814,experiment,49,↑,up,↑,0.4777403000043705,True,29,1
160K25S1,815,experiment,78,→,right,→,0.41767880000406876,True,29,1
160K25S1,816,experiment,61,↓,down,↓,0.5480279000184964,True,29,1
160K25S1,817,experiment,101,↑,up,↑,0.8608675000141375,True,29,1
160K25S1,818,experiment,105,←,no_key,no_letter,-1.0,False,29,1
160K25S1,819,experiment,64,↑,up,↑,0.5836019999987911,True,29,1
160K25S1,820,experiment,100,↓,down,↓,0.5196825999883004,True,29,1
160K25S1,821,experiment,91,↓,down,↓,0.701833600003738,True,29,1
160K25S1,822,experiment,94,→,right,→,0.36722710001049563,True,29,1
160K25S1,823,experiment,51,←,left,←,0.3921723000239581,True,29,0
160K25S1,824,experiment,55,←,left,←,0.4179086000076495,True,29,0
160K25S1,825,experiment,95,↑,up,↑,0.8015034999989439,True,29,1
160K25S1,826,experiment,88,←,left,←,0.413060899998527,True,29,1
160K25S1,827,experiment,53,→,left,←,0.8905098999966867,False,29,1
160K25S1,828,experiment,99,↑,up,↑,0.5347757000126876,True,29,1
160K25S1,829,experiment,83,→,right,→,0.5981605999986641,True,29,1
160K25S1,830,experiment,74,↑,up,↑,0.6141250999935437,True,29,1
160K25S1,831,experiment,63,→,left,←,0.48943169999984093,False,29,1
160K25S1,832,experiment,80,↑,up,↑,0.8513073000067379,True,29,1
160K25S1,833,experiment,52,↓,down,↓,0.8727408999984618,True,29,1
160K25S1,834,experiment,106,→,right,→,0.5472831999941263,True,29,1
160K25S1,835,experiment,102,↓,left,←,0.7397734000114724,False,29,1
160K25S1,836,experiment,97,→,right,→,0.4387159000034444,True,29,1
160K25S1,837,experiment,58,↓,left,←,0.786267699993914,False,29,1
160K25S1,838,experiment,76,→,right,→,0.6500262999907136,True,29,1
160K25S1,839,experiment,84,↓,left,←,0.7245810000167694,False,29,1
160K25S1,840,experiment,103,←,left,←,0.4381899000145495,True,29,1
160K25S1,841,experiment,70,↑,right,→,0.8458340000070166,False,29,1
160K25S1,842,experiment,92,→,right,→,0.46964749999460764,True,29,1
160K25S1,843,experiment,93,↑,up,↑,0.5408442999760155,True,29,1
160K25S1,844,experiment,89,→,right,→,0.48996410000836477,True,29,1
160K25S1,845,experiment,65,→,left,←,0.5692247999832034,False,29,1
160K25S1,846,experiment,86,←,left,←,0.35927749998518266,True,29,1
160K25S1,847,experiment,107,↓,down,↓,0.5484033999964595,True,29,0
160K25S1,848,experiment,56,↓,down,↓,0.5485172999906354,True,29,1
160K25S1,849,experiment,85,←,down,↓,0.5466013999830466,False,29,1
160K25S1,850,experiment,73,←,left,←,0.4530756000021938,True,29,1
160K25S1,851,experiment,104,←,left,←,0.3664631999854464,True,29,1
160K25S1,852,experiment,72,←,left,←,0.5865578000084497,True,29,0
160K25S1,853,experiment,81,↑,up,↑,0.6405988000042271,True,29,1
160K25S1,854,experiment,68,←,no_key,no_letter,-1.0,False,29,1
160K25S1,855,experiment,59,←,no_key,no_letter,-1.0,False,29,1
160K25S1,856,experiment,69,←,right,→,0.5597848999896087,False,29,1
160K25S1,857,experiment,57,→,right,→,0.4548214999958873,True,29,1
160K25S1,858,experiment,71,↓,right,→,0.5337424000026658,False,29,1
160K25S1,859,experiment,66,→,right,→,0.8107131999859121,True,29,1
160K25S1,860,training,79,←,left,←,0.6760638999985531,True,29,0
160K25S1,861,training,102,↑,up,↑,0.6878891000233125,True,29,1
160K25S1,862,experiment,70,↑,up,↑,0.7498257999832276,True,29,1
160K25S1,863,experiment,108,↑,up,↑,0.5484583000070415,True,29,1
160K25S1,864,experiment,80,←,left,←,0.42097090001334436,True,29,1
160K25S1,865,experiment,73,→,right,→,0.383426899992628,True,29,1
160K25S1,866,experiment,61,→,right,→,0.5761649000050966,True,29,0
160K25S1,867,experiment,89,↑,up,↑,0.5161136999959126,True,29,1
160K25S1,868,experiment,95,↓,down,↓,0.5124313999840524,True,29,1
160K25S1,869,experiment,74,→,right,→,0.4359075999818742,True,29,1
160K25S1,870,experiment,69,←,left,←,0.3252471999730915,True,29,1
160K25S1,871,experiment,78,←,left,←,0.35880799998994917,True,29,0
160K25S1,872,experiment,58,↓,down,↓,0.6033505999948829,True,29,0
160K25S1,873,experiment,79,→,right,→,0.4895742000080645,True,29,1
160K25S1,874,experiment,93,→,right,→,0.687534999975469,True,29,1
160K25S1,875,experiment,102,←,left,←,0.4194300999806728,True,29,1
160K25S1,876,experiment,88,→,right,→,0.5008743999933358,True,29,1
160K25S1,877,experiment,63,→,left,←,0.6606753999949433,False,29,1
160K25S1,878,experiment,105,↑,up,↑,0.4961161999963224,True,29,1
160K25S1,879,experiment,87,←,left,←,0.663440400006948,True,29,1
160K25S1,880,experiment,85,↑,up,↑,0.5932851000106893,True,29,1
160K25S1,881,experiment,96,→,down,↓,1.170359899988398,False,29,1
160K25S1,882,experiment,53,↑,up,↑,0.7781694000004791,True,29,1
160K25S1,883,experiment,67,←,left,←,0.42177230000379495,True,29,1
160K25S1,884,experiment,84,↓,down,↓,0.8488024999969639,True,29,1
160K25S1,885,experiment,83,→,right,→,0.4997576999885496,True,29,1
160K25S1,886,experiment,101,↑,up,↑,0.8868422000086866,True,29,1
160K25S1,887,experiment,106,↓,down,↓,0.8248371999943629,True,29,1
160K25S1,888,experiment,66,↑,up,↑,0.714450500003295,True,29,1
160K25S1,889,experiment,59,↓,up,↑,0.8507360999938101,False,29,1
160K25S1,890,experiment,103,↓,down,↓,0.5112372000003234,True,29,1
160K25S1,891,experiment,86,←,left,←,0.47056670000893064,True,29,1
160K25S1,892,experiment,55,↑,up,↑,0.6738787999784108,True,29,1
160K25S1,893,experiment,75,↑,up,↑,0.5587450999883004,True,29,1
160K25S1,894,experiment,91,←,left,←,0.818533399986336,True,29,1
160K25S1,895,experiment,90,↑,up,↑,0.7805061000108253,True,29,1
160K25S1,896,experiment,76,→,right,→,0.4364134999923408,True,29,1
160K25S1,897,experiment,56,→,left,←,1.0016083999944385,False,29,1
160K25S1,898,experiment,77,↓,down,↓,0.7123021000006702,True,29,1
160K25S1,899,experiment,52,←,no_key,no_letter,-1.0,False,29,1
160K25S1,900,experiment,92,→,right,→,0.6489668999856804,True,29,1
160K25S1,901,experiment,68,↓,down,↓,0.616974400007166,True,29,1
160K25S1,902,experiment,51,←,right,→,0.8475433999847155,False,29,1
160K25S1,903,experiment,64,←,left,←,0.5048984000168275,True,29,1
160K25S1,904,experiment,100,←,no_key,no_letter,-1.0,False,29,1
160K25S1,905,experiment,54,→,right,→,0.5511283999949228,True,29,1
160K25S1,906,experiment,81,←,left,←,0.37546569999540225,True,29,1
160K25S1,907,experiment,98,←,left,←,0.43137609999394044,True,29,0
160K25S1,908,experiment,65,→,left,←,0.5933658999856561,False,29,1
160K25S1,909,experiment,48,↓,down,↓,0.6655232000048272,True,29,1
160K25S1,910,experiment,94,←,left,←,0.4247523999947589,True,29,1
160K25S1,911,experiment,107,↑,up,↑,0.8758475999929942,True,29,1
160K25S1,912,experiment,97,↓,down,↓,0.5455704999912996,True,29,1
160K25S1,913,experiment,71,←,left,←,0.7244341000041459,True,29,1
160K25S1,914,experiment,82,→,right,→,0.46853230000124313,True,29,1
160K25S1,915,experiment,57,↑,up,↑,0.8394238000037149,True,29,1
160K25S1,916,experiment,104,←,left,←,0.5479339999728836,True,29,1
160K25S1,917,experiment,60,←,left,←,0.4664239000121597,True,29,1
160K25S1,918,experiment,99,→,right,→,0.4472931000054814,True,29,1
160K25S1,919,experiment,72,↑,up,↑,0.8539251000038348,True,29,1
160K25S1,920,experiment,50,↑,up,↑,0.7559260000125505,True,29,1
160K25S1,921,experiment,49,↑,up,↑,0.4938030000193976,True,29,1
160K25S1,922,experiment,62,↑,up,↑,0.44616469999891706,True,29,1
160K25S1,923,training,92,→,right,→,0.5779591999889817,True,29,0
160K25S1,924,training,70,↑,up,↑,0.4840410999895539,True,29,1
160K25S1,925,experiment,76,↑,up,↑,0.6479913000075612,True,29,1
160K25S1,926,experiment,77,←,no_key,no_letter,-1.0,False,29,1
160K25S1,927,experiment,95,→,right,→,0.41064250000636093,True,29,1
160K25S1,928,experiment,58,←,left,←,0.5425586999917869,True,29,1
160K25S1,929,experiment,84,↓,down,↓,0.9734646999859251,True,29,1
160K25S1,930,experiment,101,↓,down,↓,0.6616189999913331,True,29,1
160K25S1,931,experiment,63,↓,down,↓,0.7109832000278402,True,29,1
160K25S1,932,experiment,92,↑,up,↑,0.5085439000104088,True,29,1
160K25S1,933,experiment,64,↑,up,↑,0.595838500012178,True,29,1
160K25S1,934,experiment,54,←,left,←,0.4103923999937251,True,29,1
160K25S1,935,experiment,55,↓,down,↓,0.5518035000131931,True,29,0
160K25S1,936,experiment,97,←,left,←,0.45790549999219365,True,29,1
160K25S1,937,experiment,67,↓,down,↓,0.5859493000025395,True,29,1
160K25S1,938,experiment,85,↓,down,↓,0.4547587000124622,True,29,1
160K25S1,939,experiment,107,→,right,→,0.6814243999833707,True,29,1
160K25S1,940,experiment,108,→,right,→,0.419755199982319,True,29,1
160K25S1,941,experiment,104,→,right,→,0.5761117000074591,True,29,1
160K25S1,942,experiment,66,↓,down,↓,0.7239739999931771,True,29,1
160K25S1,943,experiment,91,↑,up,↑,0.4730103999900166,True,29,1
160K25S1,944,experiment,70,↑,up,↑,0.8073267000145279,True,29,1
160K25S1,945,experiment,79,→,right,→,0.5739712000067811,True,29,1
160K25S1,946,experiment,78,↑,up,↑,0.4773306999995839,True,29,1
160K25S1,947,experiment,89,←,left,←,0.4214016000041738,True,29,1
160K25S1,948,experiment,56,↑,up,↑,0.6177316000103019,True,29,1
160K25S1,949,experiment,106,←,left,←,0.43887670000549406,True,29,1
160K25S1,950,experiment,82,→,right,→,0.409937299991725,True,29,1
160K25S1,951,experiment,59,↓,down,↓,0.6702247000066563,True,29,0
160K25S1,952,experiment,102,↑,up,↑,0.6899096999841277,True,29,1
160K25S1,953,experiment,81,→,right,→,0.42082589998608455,True,29,1
160K25S1,954,experiment,90,↑,up,↑,0.52549159998307,True,29,1
160K25S1,955,experiment,51,←,left,←,0.45594050001818687,True,29,1
160K25S1,956,experiment,83,←,left,←,0.4114693000155967,True,29,1
160K25S1,957,experiment,105,→,right,→,0.4877445999882184,True,29,1
160K25S1,958,experiment,74,←,left,←,0.6760523999982979,True,29,1
160K25S1,959,experiment,75,←,no_key,no_letter,-1.0,False,29,1
160K25S1,960,experiment,50,→,right,→,0.46852429999853484,True,29,1
160K25S1,961,experiment,72,↓,down,↓,0.8825415000028443,True,29,1
160K25S1,962,experiment,96,↓,down,↓,0.5438403000007384,True,29,1
160K25S1,963,experiment,93,↓,down,↓,0.7397586000151932,True,29,1
160K25S1,964,experiment,60,←,left,←,0.4346998000110034,True,29,1
160K25S1,965,experiment,88,←,right,→,0.6046523000113666,False,29,1
160K25S1,966,experiment,52,↓,down,↓,0.5077142000081949,True,29,1
160K25S1,967,experiment,100,→,right,→,0.4385574000189081,True,29,1
160K25S1,968,experiment,94,→,left,←,0.7421824999910314,False,29,1
160K25S1,969,experiment,69,→,right,→,0.42639070001314394,True,29,1
160K25S1,970,experiment,99,→,right,→,0.6007423000119161,True,29,1
160K25S1,971,experiment,62,←,left,←,0.6687131999933627,True,29,1
160K25S1,972,experiment,71,↓,down,↓,0.666947000019718,True,29,1
160K25S1,973,experiment,98,↑,up,↑,0.6006248000194319,True,29,1
160K25S1,974,experiment,68,←,left,←,0.7942958000057843,True,29,1
160K25S1,975,experiment,73,→,right,→,0.5709221000142861,True,29,1
160K25S1,976,experiment,61,←,left,←,0.4641742000239901,True,29,1
160K25S1,977,experiment,53,←,right,→,0.9083550999930594,False,29,1
160K25S1,978,experiment,49,↑,up,↑,0.5843533999868669,True,29,1
160K25S1,979,experiment,87,↓,down,↓,0.7405758000095375,True,29,1
160K25S1,980,experiment,57,←,left,←,0.39239250001264736,True,29,1
160K25S1,981,experiment,80,→,right,→,0.4427185000095051,True,29,1
160K25S1,982,experiment,65,←,left,←,0.6123310999828391,True,29,1
160K25S1,983,experiment,103,→,right,→,0.4573955000087153,True,29,1
160K25S1,984,experiment,48,↓,down,↓,0.6635014000057708,True,29,1
160K25S1,985,experiment,86,↓,down,↓,0.49698339999304153,True,29,1
160K25S1,986,training,100,→,right,→,0.5230109000112861,True,28,0
160K25S1,987,training,100,↓,down,↓,0.7173511000000872,True,28,1
160K25S1,988,experiment,106,←,right,→,0.7501495000033174,False,28,1
160K25S1,989,experiment,50,↓,down,↓,0.5039523000014015,True,28,1
160K25S1,990,experiment,52,←,left,←,0.45884350000415,True,28,1
160K25S1,991,experiment,97,↑,up,↑,0.5768580999865662,True,28,1
160K25S1,992,experiment,72,←,left,←,0.6027200999960769,True,28,1
160K25S1,993,experiment,96,↑,up,↑,0.5151655999943614,True,28,1
160K25S1,994,experiment,95,↓,down,↓,0.7117155999876559,True,28,1
160K25S1,995,experiment,99,↑,up,↑,0.5307447999948636,True,28,1
160K25S1,996,experiment,102,↑,up,↑,0.5721952999883797,True,28,1
160K25S1,997,experiment,73,↓,down,↓,0.7257748000265565,True,28,1
160K25S1,998,experiment,91,←,left,←,0.3588220999808982,True,28,1
160K25S1,999,experiment,104,→,right,→,0.4185649999999441,True,28,0
160K25S1,1000,experiment,83,←,no_key,no_letter,-1.0,False,28,1
160K25S1,1001,experiment,76,↑,up,↑,0.5619176999898627,True,28,1
160K25S1,1002,experiment,94,→,right,→,0.4607166000059806,True,28,1
160K25S1,1003,experiment,98,→,right,→,0.9146644999855198,True,28,1
160K25S1,1004,experiment,62,←,left,←,0.5296800000069197,True,28,1
160K25S1,1005,experiment,85,↑,up,↑,0.50520260000485,True,28,1
160K25S1,1006,experiment,89,↓,down,↓,0.5034473999985494,True,28,1
160K25S1,1007,experiment,64,→,right,→,0.42298740000114776,True,28,1
160K25S1,1008,experiment,81,↑,up,↑,0.5390838999883272,True,28,1
160K25S1,1009,experiment,87,←,left,←,0.4171315000276081,True,28,1
160K25S1,1010,experiment,70,↑,up,↑,0.47354590002214536,True,28,1
160K25S1,1011,experiment,74,↑,up,↑,0.5184647000278346,True,28,1
160K25S1,1012,experiment,93,↑,up,↑,0.4917293000034988,True,28,1
160K25S1,1013,experiment,86,↓,down,↓,0.5320294999983162,True,28,1
160K25S1,1014,experiment,57,→,right,→,0.6039243999985047,True,28,1
160K25S1,1015,experiment,103,←,left,←,0.48229990000254475,True,28,1
160K25S1,1016,experiment,49,↓,down,↓,0.6547973999986425,True,28,1
160K25S1,1017,experiment,68,→,right,→,0.6390926000021864,True,28,1
160K25S1,1018,experiment,107,↓,down,↓,0.47373440000228584,True,28,1
160K25S1,1019,experiment,101,↑,up,↑,0.742114099994069,True,28,1
160K25S1,1020,experiment,54,↓,down,↓,0.5907682999968529,True,28,1
160K25S1,1021,experiment,84,←,left,←,0.5477247999806423,True,28,1
160K25S1,1022,experiment,69,↑,up,↑,0.5675008000107482,True,28,1
160K25S1,1023,experiment,58,→,right,→,0.6938484999991488,True,28,1
160K25S1,1024,experiment,77,↑,down,↓,0.6171574000036344,False,28,1
160K25S1,1025,experiment,100,↑,up,↑,0.47999829999753274,True,28,1
160K25S1,1026,experiment,80,↓,down,↓,0.5064560000027996,True,28,1
160K25S1,1027,experiment,59,↓,down,↓,0.6029612999991514,True,28,1
160K25S1,1028,experiment,105,→,right,→,0.7367028000007849,True,28,1
160K25S1,1029,experiment,92,←,left,←,0.7337146999780089,True,28,1
160K25S1,1030,experiment,108,→,right,→,0.48480939998989925,True,28,1
160K25S1,1031,experiment,63,→,right,→,0.7570440999988932,True,28,1
160K25S1,1032,experiment,79,←,right,→,0.7890604000131134,False,28,1
160K25S1,1033,experiment,75,←,right,→,0.5892177000059746,False,28,1
160K25S1,1034,experiment,88,↑,up,↑,0.5690576000197325,True,28,1
160K25S1,1035,experiment,67,↑,up,↑,0.8525461000099313,True,28,1
160K25S1,1036,experiment,53,↓,down,↓,0.5451857000007294,True,28,1
160K25S1,1037,experiment,61,↓,up,↑,0.736016099981498,False,28,1
160K25S1,1038,experiment,48,←,left,←,0.4189296000113245,True,28,1
160K25S1,1039,experiment,60,→,right,→,0.4388371999957599,True,28,1
160K25S1,1040,experiment,65,→,left,←,1.016021899995394,False,28,1
160K25S1,1041,experiment,56,↓,down,↓,0.49344449999625795,True,28,1
160K25S1,1042,experiment,66,↑,up,↑,0.452333000022918,True,28,1
160K25S1,1043,experiment,55,↓,up,↑,0.8484591000014916,False,28,1
160K25S1,1044,experiment,71,↓,down,↓,0.5518372000078671,True,28,1
160K25S1,1045,experiment,78,→,right,→,0.4005096000037156,True,28,1
160K25S1,1046,experiment,51,↑,up,↑,0.5273488000093494,True,28,0
160K25S1,1047,experiment,82,←,right,→,0.6315956000180449,False,28,1
160K25S1,1048,experiment,90,←,left,←,0.672793100005947,True,28,1
160K25S1,1049,training,106,↑,right,→,0.8338534999929834,False,28,0
160K25S1,1050,training,88,←,no_key,no_letter,-1.0,False,28,1
160K25S1,1051,experiment,107,←,left,←,0.605548399995314,True,28,1
160K25S1,1052,experiment,87,↓,down,↓,0.48083040001802146,True,28,1
160K25S1,1053,experiment,108,→,right,→,0.4109762000152841,True,28,1
160K25S1,1054,experiment,65,←,left,←,0.40458239999134094,True,28,1
160K25S1,1055,experiment,62,↑,up,↑,0.45575010002357885,True,28,0
160K25S1,1056,experiment,97,→,right,→,0.35089860000880435,True,28,1
160K25S1,1057,experiment,96,←,left,←,0.33338219998404384,True,28,1
160K25S1,1058,experiment,50,↓,left,←,1.5780441999959294,False,28,0
160K25S1,1059,experiment,56,↓,down,↓,0.5453524999902584,True,28,1
160K25S1,1060,experiment,55,→,right,→,0.681822699989425,True,28,1
160K25S1,1061,experiment,72,←,no_key,no_letter,-1.0,False,28,1
160K25S1,1062,experiment,58,←,left,←,0.4325488000176847,True,28,1
160K25S1,1063,experiment,91,→,no_key,no_letter,-1.0,False,28,1
160K25S1,1064,experiment,103,→,right,→,0.4925709000090137,True,28,1
160K25S1,1065,experiment,57,→,right,→,0.5340940000023693,True,28,1
160K25S1,1066,experiment,105,↑,right,→,0.55050900002243,False,28,1
160K25S1,1067,experiment,48,↓,down,↓,0.5134114999964368,True,28,1
160K25S1,1068,experiment,69,↓,down,↓,0.5261963999946602,True,28,1
160K25S1,1069,experiment,66,↑,down,↓,0.8037253000074998,False,28,1
160K25S1,1070,experiment,53,→,right,→,0.4027363999921363,True,28,1
160K25S1,1071,experiment,94,↑,up,↑,0.8434917000122368,True,28,1
160K25S1,1072,experiment,100,←,left,←,0.7291828999877907,True,28,1
160K25S1,1073,experiment,84,↓,down,↓,0.5845409000176005,True,28,1
160K25S1,1074,experiment,88,→,left,←,0.6682589999982156,False,28,1
160K25S1,1075,experiment,49,↑,up,↑,0.7778168999939226,True,28,1
160K25S1,1076,experiment,67,↓,down,↓,0.7012953000084963,True,28,1
160K25S1,1077,experiment,51,↓,left,←,0.6966962000005879,False,28,1
160K25S1,1078,experiment,85,↓,down,↓,0.6891996000194922,True,28,1
160K25S1,1079,experiment,73,↑,up,↑,0.9576698999735527,True,28,1
160K25S1,1080,experiment,64,→,right,→,0.4588252999819815,True,28,1
160K25S1,1081,experiment,89,→,right,→,0.4041618999908678,True,28,1
160K25S1,1082,experiment,90,→,right,→,0.8535139000159688,True,28,0
160K25S1,1083,experiment,102,↑,up,↑,0.5301217999949586,True,28,1
160K25S1,1084,experiment,98,→,right,→,0.4446577000198886,True,28,1
160K25S1,1085,experiment,77,↓,down,↓,0.5058046999911312,True,28,1
160K25S1,1086,experiment,81,←,left,←,0.4431652999774087,True,28,1
160K25S1,1087,experiment,93,→,right,→,0.40407150000100955,True,28,1
160K25S1,1088,experiment,75,↑,left,←,0.7300285999954212,False,28,1
160K25S1,1089,experiment,106,←,left,←,0.6420868999848608,True,28,1
160K25S1,1090,experiment,95,→,right,→,0.6254358000005595,True,28,1
160K25S1,1091,experiment,101,→,left,←,0.8475725000025705,False,28,1
160K25S1,1092,experiment,71,←,left,←,0.9908044000039808,True,28,1
160K25S1,1093,experiment,54,←,left,←,0.4217291999957524,True,28,1
160K25S1,1094,experiment,78,←,left,←,0.4434420999896247,True,28,1
160K25S1,1095,experiment,60,↑,right,→,0.8619982000091113,False,28,1
160K25S1,1096,experiment,70,←,left,←,0.4767664000100922,True,28,1
160K25S1,1097,experiment,63,←,left,←,0.4536340999766253,True,28,1
160K25S1,1098,experiment,79,↓,left,←,0.8900964999920689,False,28,1
160K25S1,1099,experiment,83,←,left,←,0.41913320001913235,True,28,1
160K25S1,1100,experiment,68,←,left,←,0.4439221000066027,True,28,1
160K25S1,1101,experiment,82,↓,down,↓,0.4875225000141654,True,28,1
160K25S1,1102,experiment,99,→,right,→,0.6755054000241216,True,28,1
160K25S1,1103,experiment,59,←,left,←,0.6378726999973878,True,28,1
160K25S1,1104,experiment,74,←,left,←,0.724139700003434,True,28,1
160K25S1,1105,experiment,86,→,right,→,0.4830221000011079,True,28,1
160K25S1,1106,experiment,104,↑,up,↑,0.6937359999865294,True,28,1
160K25S1,1107,experiment,92,→,right,→,0.5723142999922857,True,28,1
160K25S1,1108,experiment,76,←,left,←,0.40476470001158305,True,28,1
160K25S1,1109,experiment,52,→,right,→,0.45116009999765083,True,28,0
160K25S1,1110,experiment,61,↓,down,↓,0.573858099989593,True,28,1
160K25S1,1111,experiment,80,↑,up,↑,0.5883670999901369,True,28,1
160K25S1,1112,training,87,↓,down,↓,0.5406052999896929,True,28,0
160K25S1,1113,training,58,←,left,←,0.6044831000035629,True,28,1
160K25S1,1114,experiment,83,↓,down,↓,0.5531123999971896,True,28,1
160K25S1,1115,experiment,91,←,left,←,0.4850864000036381,True,28,1
160K25S1,1116,experiment,89,↑,up,↑,0.46891490000416525,True,28,1
160K25S1,1117,experiment,72,↓,down,↓,0.6025912000040989,True,28,1
160K25S1,1118,experiment,99,←,left,←,0.38381110000773333,True,28,1
160K25S1,1119,experiment,49,→,right,→,0.4506411000038497,True,28,1
160K25S1,1120,experiment,54,↓,down,↓,0.4631412999879103,True,28,1
160K25S1,1121,experiment,77,→,right,→,0.5473674999957439,True,28,1
160K25S1,1122,experiment,80,↓,down,↓,0.5634029000066221,True,28,1
160K25S1,1123,experiment,60,←,left,←,0.5855711000040174,True,28,1
160K25S1,1124,experiment,67,←,left,←,0.5082276000175625,True,28,1
160K25S1,1125,experiment,56,↓,down,↓,0.7098567000066396,True,28,1
160K25S1,1126,experiment,50,↑,down,↓,0.569718400016427,False,28,1
160K25S1,1127,experiment,73,↑,up,↑,0.5069402999943122,True,28,1
160K25S1,1128,experiment,71,→,right,→,0.49552469997433946,True,28,1
160K25S1,1129,experiment,93,→,left,←,0.6057100000034552,False,28,1
160K25S1,1130,experiment,63,↓,down,↓,0.48070849999203347,True,28,1
160K25S1,1131,experiment,102,↑,up,↑,0.5080336999963038,True,28,1
160K25S1,1132,experiment,82,↓,down,↓,0.7330203000165056,True,28,1
160K25S1,1133,experiment,70,←,left,←,0.6010414000193123,True,28,1
160K25S1,1134,experiment,74,←,left,←,0.42524280000361614,True,28,1
160K25S1,1135,experiment,108,↑,up,↑,0.4763096999959089,True,28,1
160K25S1,1136,experiment,61,↑,up,↑,0.5734452999895439,True,28,1
160K25S1,1137,experiment,87,↓,down,↓,0.7460562999767717,True,28,1
160K25S1,1138,experiment,59,↑,up,↑,0.8650306999916211,True,28,1
160K25S1,1139,experiment,81,↑,up,↑,0.5080498000024818,True,28,1
160K25S1,1140,experiment,100,←,left,←,0.5113340999814682,True,28,1
160K25S1,1141,experiment,103,→,right,→,0.48933410001336597,True,28,1
160K25S1,1142,experiment,64,↑,up,↑,0.48059779999312013,True,28,1
160K25S1,1143,experiment,88,→,right,→,0.6969438999949489,True,28,1
160K25S1,1144,experiment,51,←,left,←,0.42045669999788515,True,28,1
160K25S1,1145,experiment,95,→,right,→,0.476062700006878,True,28,1
160K25S1,1146,experiment,86,↑,up,↑,0.45308140001725405,True,28,1
160K25S1,1147,experiment,107,←,left,←,0.4010792000044603,True,28,1
160K25S1,1148,experiment,52,←,left,←,0.3422122999909334,True,28,0
160K25S1,1149,experiment,85,↓,down,↓,0.7091002000088338,True,28,0
160K25S1,1150,experiment,57,↓,down,↓,0.510542500007432,True,28,1
160K25S1,1151,experiment,62,→,right,→,0.6859492000075988,True,28,1
160K25S1,1152,experiment,90,→,right,→,0.4132448000018485,True,28,1
160K25S1,1153,experiment,68,←,left,←,0.4785795000207145,True,28,1
160K25S1,1154,experiment,55,←,left,←,0.4096494999830611,True,28,1
160K25S1,1155,experiment,98,↑,up,↑,0.8732199000078253,True,28,1
160K25S1,1156,experiment,101,←,left,←,0.42946690000826493,True,28,1
160K25S1,1157,experiment,79,↑,up,↑,0.46649049999541603,True,28,1
160K25S1,1158,experiment,96,→,right,→,0.44820509999408387,True,28,1
160K25S1,1159,experiment,84,↓,down,↓,0.9309889999858569,True,28,1
160K25S1,1160,experiment,92,←,no_key,no_letter,-1.0,False,28,1
160K25S1,1161,experiment,97,↑,right,→,0.7644379000121262,False,28,1
160K25S1,1162,experiment,69,→,right,→,0.5195467000012286,True,28,1
160K25S1,1163,experiment,65,↓,down,↓,0.4855412000033539,True,28,1
160K25S1,1164,experiment,105,→,right,→,0.41604819998610765,True,28,1
160K25S1,1165,experiment,75,←,right,→,0.5351744000217877,False,28,1
160K25S1,1166,experiment,76,→,right,→,0.4167258999950718,True,28,1
160K25S1,1167,experiment,104,↓,down,↓,0.5499973999976646,True,28,1
160K25S1,1168,experiment,78,←,left,←,0.4225592000002507,True,28,1
160K25S1,1169,experiment,94,↑,up,↑,0.5110581000044476,True,28,1
160K25S1,1170,experiment,66,↓,down,↓,0.5334141000057571,True,28,1
160K25S1,1171,experiment,58,↑,left,←,0.6769673000089824,False,28,1
160K25S1,1172,experiment,48,→,right,→,0.4425329000223428,True,28,1
160K25S1,1173,experiment,53,←,left,←,0.5118965999863576,True,28,1
160K25S1,1174,experiment,106,↓,down,↓,0.552818500000285,True,28,1
160K25S1,1175,training,52,→,right,→,0.4471293000096921,True,28,0
160K25S1,1176,training,60,↑,up,↑,0.8016012000152841,True,28,1
160K25S1,1177,experiment,53,↑,up,↑,0.7689910999906715,True,28,1
160K25S1,1178,experiment,71,←,left,←,0.4034943000006024,True,28,1
160K25S1,1179,experiment,107,↓,down,↓,0.623453599982895,True,28,0
160K25S1,1180,experiment,90,↓,down,↓,0.4895957999979146,True,28,1
160K25S1,1181,experiment,81,↑,up,↑,0.6991902999870945,True,28,1
160K25S1,1182,experiment,67,←,left,←,0.5694417000049725,True,28,1
160K25S1,1183,experiment,89,↓,down,↓,0.5177426000009291,True,28,1
160K25S1,1184,experiment,92,↓,down,↓,0.5230679999804124,True,28,1
160K25S1,1185,experiment,69,↑,up,↑,0.4798832999949809,True,28,1
160K25S1,1186,experiment,61,↑,up,↑,0.6088428000221029,True,28,1
160K25S1,1187,experiment,74,↓,down,↓,0.43252609999035485,True,28,1
160K25S1,1188,experiment,54,→,right,→,0.6456381999887526,True,28,1
160K25S1,1189,experiment,62,→,right,→,0.46383439999772236,True,28,1
160K25S1,1190,experiment,73,←,left,←,0.5093866999959573,True,28,1
160K25S1,1191,experiment,100,←,left,←,0.696467500005383,True,28,1
160K25S1,1192,experiment,48,↑,up,↑,0.5570811000070535,True,28,1
160K25S1,1193,experiment,97,←,left,←,0.35028110002167523,True,28,1
160K25S1,1194,experiment,106,↑,up,↑,0.5339413000037894,True,28,0
160K25S1,1195,experiment,79,↓,down,↓,0.6388893999974243,True,28,1
160K25S1,1196,experiment,78,→,right,→,0.4597751999972388,True,28,1
160K25S1,1197,experiment,76,↓,down,↓,0.4649828000110574,True,28,1
160K25S1,1198,experiment,68,←,left,←,0.4562253000040073,True,28,1
160K25S1,1199,experiment,105,↓,down,↓,0.499219199991785,True,28,1
160K25S1,1200,experiment,104,←,right,→,0.6692849000100978,False,28,1
160K25S1,1201,experiment,88,↑,up,↑,0.7743062000081409,True,28,1
160K25S1,1202,experiment,60,→,right,→,0.4516509000095539,True,28,1
160K25S1,1203,experiment,99,→,up,↑,0.7453112000075635,False,28,1
160K25S1,1204,experiment,94,↑,up,↑,0.7166553999995813,True,28,1
160K25S1,1205,experiment,108,↓,up,↑,0.8046688000031281,False,28,1
160K25S1,1206,experiment,64,→,right,→,0.6636960000032559,True,28,1
160K25S1,1207,experiment,63,↓,down,↓,0.5926154000044335,True,28,1
160K25S1,1208,experiment,55,↑,up,↑,0.799190699995961,True,28,1
160K25S1,1209,experiment,95,↑,up,↑,0.5122577000001911,True,28,1
160K25S1,1210,experiment,98,↑,up,↑,0.6999145000008866,True,28,1
160K25S1,1211,experiment,91,↓,down,↓,0.5064598000026308,True,28,1
160K25S1,1212,experiment,80,→,right,→,0.7958463999966625,True,28,1
160K25S1,1213,experiment,51,↑,up,↑,0.6518390999990515,True,28,1
160K25S1,1214,experiment,58,←,up,↑,0.6306261999998242,False,28,1
160K25S1,1215,experiment,56,↓,down,↓,0.6596298999793362,True,28,1
160K25S1,1216,experiment,70,↑,up,↑,0.6267615999968257,True,28,1
160K25S1,1217,experiment,85,↑,up,↑,0.48554590001003817,True,28,1
160K25S1,1218,experiment,72,↓,down,↓,0.6028590999776497,True,28,1
160K25S1,1219,experiment,101,↓,down,↓,0.4980974000063725,True,28,1
160K25S1,1220,experiment,66,→,right,→,0.47236919999704696,True,28,1
160K25S1,1221,experiment,87,↑,up,↑,0.4409432999964338,True,28,1
160K25S1,1222,experiment,65,←,left,←,0.6421294999890961,True,28,1
160K25S1,1223,experiment,84,→,right,→,0.42915650000213645,True,28,1
160K25S1,1224,experiment,49,←,left,←,0.5399442999914754,True,28,1
160K25S1,1225,experiment,86,↑,up,↑,0.6823340999835636,True,28,1
160K25S1,1226,experiment,77,→,right,→,0.638257100014016,True,28,1
160K25S1,1227,experiment,83,←,left,←,0.6813409999886062,True,28,1
160K25S1,1228,experiment,52,←,left,←,0.6694423999870196,True,28,1
160K25S1,1229,experiment,59,↑,up,↑,0.807483599986881,True,28,1
160K25S1,1230,experiment,102,↓,down,↓,0.5418082000105642,True,28,1
160K25S1,1231,experiment,103,→,right,→,0.7025139999750536,True,28,1
160K25S1,1232,experiment,96,↓,down,↓,0.4752548999967985,True,28,1
160K25S1,1233,experiment,75,↓,down,↓,0.6319957000087015,True,28,1
160K25S1,1234,experiment,57,↑,up,↑,0.5961102999863215,True,28,1
160K25S1,1235,experiment,93,←,left,←,0.4136768000025768,True,28,1
160K25S1,1236,experiment,50,↑,up,↑,0.5971587999956682,True,28,1
160K25S1,1237,experiment,82,→,right,→,0.530151199985994,True,28,1
160K25S1,1238,training,86,↑,up,↑,0.49299289999180473,True,28,0
160K25S1,1239,training,78,↓,down,↓,0.6639199000201188,True,28,1
160K25S1,1240,experiment,74,↑,up,↑,0.5649592000117991,True,28,1
160K25S1,1241,experiment,83,→,right,→,0.6031193000089843,True,28,1
160K25S1,1242,experiment,57,↓,down,↓,0.6410946999967564,True,28,1
160K25S1,1243,experiment,82,↑,up,↑,0.4683710999961477,True,28,1
160K25S1,1244,experiment,85,↑,up,↑,0.6940429999958724,True,28,1
160K25S1,1245,experiment,78,↓,down,↓,0.6890435999957845,True,28,1
160K25S1,1246,experiment,52,↓,down,↓,0.444537900009891,True,28,1
160K25S1,1247,experiment,54,←,left,←,0.4494101000018418,True,28,1
160K25S1,1248,experiment,70,←,left,←,0.4246397000097204,True,28,1
160K25S1,1249,experiment,102,←,left,←,0.6063288000004832,True,28,1
160K25S1,1250,experiment,93,↓,down,↓,0.5195921999984421,True,28,1
160K25S1,1251,experiment,107,←,left,←,0.44002620002720505,True,28,1
160K25S1,1252,experiment,73,↓,down,↓,0.6948090000078082,True,28,1
160K25S1,1253,experiment,92,↓,down,↓,0.6688344999856781,True,28,1
160K25S1,1254,experiment,108,←,left,←,0.5829963999858592,True,28,1
160K25S1,1255,experiment,101,←,left,←,0.384260799997719,True,28,1
160K25S1,1256,experiment,50,↑,up,↑,0.5747771000023931,True,28,0
160K25S1,1257,experiment,69,↓,down,↓,0.49756540000089444,True,28,1
160K25S1,1258,experiment,80,↓,down,↓,0.47527740002260543,True,28,1
160K25S1,1259,experiment,104,←,right,→,0.6462757999834139,False,28,1
160K25S1,1260,experiment,66,↓,down,↓,0.4391438000020571,True,28,1
160K25S1,1261,experiment,49,←,left,←,0.4775007000134792,True,28,1
160K25S1,1262,experiment,79,→,right,→,0.44061649998184294,True,28,1
160K25S1,1263,experiment,99,←,left,←,0.518558599986136,True,28,1
160K25S1,1264,experiment,91,↓,down,↓,0.4128269999928307,True,28,1
160K25S1,1265,experiment,58,←,left,←,0.40105750001384877,True,28,1
160K25S1,1266,experiment,94,↑,up,↑,0.817851999978302,True,28,0
160K25S1,1267,experiment,67,←,left,←,0.4197437000111677,True,28,1
160K25S1,1268,experiment,76,↑,up,↑,0.48151930002495646,True,28,1
160K25S1,1269,experiment,56,→,right,→,0.4760527999897022,True,28,1
160K25S1,1270,experiment,61,↑,up,↑,0.6058289999782573,True,28,1
160K25S1,1271,experiment,100,↓,down,↓,0.5082578000146896,True,28,1
160K25S1,1272,experiment,87,→,left,←,0.571926300006453,False,28,1
160K25S1,1273,experiment,96,←,left,←,0.5332508999854326,True,28,1
160K25S1,1274,experiment,53,→,left,←,0.558749199990416,False,28,1
160K25S1,1275,experiment,75,←,left,←,0.3590596000140067,True,28,1
160K25S1,1276,experiment,63,→,right,→,0.5170754999853671,True,28,0
160K25S1,1277,experiment,64,←,left,←,0.4194499999866821,True,28,1
160K25S1,1278,experiment,89,↑,up,↑,0.8058463000052143,True,28,1
160K25S1,1279,experiment,105,←,left,←,0.6833852000127081,True,28,1
160K25S1,1280,experiment,84,↑,up,↑,0.6285276999988127,True,28,1
160K25S1,1281,experiment,88,→,right,→,0.4865128000092227,True,28,1
160K25S1,1282,experiment,103,→,right,→,0.7774519999802578,True,28,1
160K25S1,1283,experiment,90,→,left,←,0.4534309000009671,False,28,1
160K25S1,1284,experiment,68,↑,up,↑,0.685031600005459,True,28,1
160K25S1,1285,experiment,62,→,right,→,0.45367310001165606,True,28,1
160K25S1,1286,experiment,81,←,left,←,0.5529745999956504,True,28,1
160K25S1,1287,experiment,71,→,right,→,0.47594679999747314,True,28,1
160K25S1,1288,experiment,51,↓,down,↓,0.6243567000201438,True,28,1
160K25S1,1289,experiment,48,→,right,→,0.5361368000158109,True,28,1
160K25S1,1290,experiment,60,↓,down,↓,0.50307380000595,True,28,1
160K25S1,1291,experiment,95,↑,up,↑,0.52412769998773,True,28,1
160K25S1,1292,experiment,55,↓,up,↑,0.8132859999896027,False,28,1
160K25S1,1293,experiment,65,←,left,←,0.5835122000135016,True,28,1
160K25S1,1294,experiment,97,↓,down,↓,0.49677900000824593,True,28,1
160K25S1,1295,experiment,86,↓,down,↓,0.7207324000191875,True,28,1
160K25S1,1296,experiment,106,→,down,↓,0.5369352000125218,False,28,1
160K25S1,1297,experiment,77,→,right,→,0.46651939998264425,True,28,1
160K25S1,1298,experiment,98,↓,down,↓,0.48019070000736974,True,28,1
160K25S1,1299,experiment,72,←,left,←,0.42126919998554513,True,28,1
160K25S1,1300,experiment,59,↑,up,↑,0.49689690000377595,True,28,1
160K25S1,1301,training,93,↓,down,↓,0.4919361000065692,True,28,0
160K25S1,1302,training,74,↑,up,↑,0.6638334000017494,True,28,1
160K25S1,1303,experiment,84,↓,up,↑,0.5699511999846436,False,28,1
160K25S1,1304,experiment,92,←,no_key,no_letter,-1.0,False,28,1
160K25S1,1305,experiment,66,→,right,→,0.44421580000198446,True,28,1
160K25S1,1306,experiment,53,←,left,←,0.6259049000218511,True,28,1
160K25S1,1307,experiment,62,←,left,←,0.5643293999892194,True,28,1
160K25S1,1308,experiment,89,→,right,→,0.7926562000066042,True,28,1
160K25S1,1309,experiment,80,→,right,→,0.6713226999854669,True,28,1
160K25S1,1310,experiment,86,↓,down,↓,0.6480969999975059,True,28,1
160K25S1,1311,experiment,65,→,right,→,0.4567613999824971,True,28,1
160K25S1,1312,experiment,63,↑,up,↑,0.522022699995432,True,28,1
160K25S1,1313,experiment,56,←,left,←,0.41144760002498515,True,28,1
160K25S1,1314,experiment,76,←,left,←,0.4254860000219196,True,28,1
160K25S1,1315,experiment,94,↑,up,↑,0.4657341999991331,True,28,1
160K25S1,1316,experiment,71,→,right,→,0.4088540000084322,True,28,1
160K25S1,1317,experiment,55,↓,down,↓,0.477479699999094,True,28,1
160K25S1,1318,experiment,97,←,left,←,0.4029242999968119,True,28,1
160K25S1,1319,experiment,48,→,left,←,0.6749660999921616,False,28,0
160K25S1,1320,experiment,98,←,left,←,0.5201718999887817,True,28,1
160K25S1,1321,experiment,60,↑,right,→,0.6562140999885742,False,28,1
160K25S1,1322,experiment,102,↓,left,←,0.4842130999895744,False,28,1
160K25S1,1323,experiment,75,→,right,→,0.44074459999683313,True,28,1
160K25S1,1324,experiment,54,↑,up,↑,0.4532724999880884,True,28,1
160K25S1,1325,experiment,104,←,left,←,0.6493106000125408,True,28,1
160K25S1,1326,experiment,67,↓,down,↓,0.6576497000060044,True,28,1
160K25S1,1327,experiment,61,←,left,←,0.44350259998464026,True,28,1
160K25S1,1328,experiment,101,↑,left,←,0.6649847000080626,False,28,1
160K25S1,1329,experiment,88,←,left,←,0.4022069000056945,True,28,1
160K25S1,1330,experiment,99,↑,right,→,0.6007355000183452,False,28,1
160K25S1,1331,experiment,74,→,right,→,0.4886877000099048,True,28,1
160K25S1,1332,experiment,85,→,left,←,0.6892880999948829,False,28,1
160K25S1,1333,experiment,83,↓,down,↓,0.4829076000023633,True,28,1
160K25S1,1334,experiment,82,↑,up,↑,1.076972399983788,True,28,1
160K25S1,1335,experiment,87,↑,up,↑,0.7334441999846604,True,28,1
160K25S1,1336,experiment,100,←,left,←,0.43158420000690967,True,28,1
160K25S1,1337,experiment,77,←,left,←,0.5809033999976236,True,28,1
160K25S1,1338,experiment,91,↓,down,↓,0.4479694999754429,True,28,1
160K25S1,1339,experiment,93,←,left,←,0.4715953000122681,True,28,1
160K25S1,1340,experiment,108,→,right,→,0.5134446999873035,True,28,1
160K25S1,1341,experiment,70,→,right,→,0.45415200002025813,True,28,1
160K25S1,1342,experiment,106,↑,up,↑,0.7128677000000607,True,28,1
160K25S1,1343,experiment,52,←,left,←,0.5075026999984402,True,28,1
160K25S1,1344,experiment,95,←,left,←,0.3425404999870807,True,28,1
160K25S1,1345,experiment,58,←,right,→,0.6314656999893486,False,28,0
160K25S1,1346,experiment,103,↑,up,↑,0.7162429000018165,True,28,1
160K25S1,1347,experiment,49,→,right,→,0.6397919000010006,True,28,1
160K25S1,1348,experiment,68,↑,up,↑,0.4640254999976605,True,28,1
160K25S1,1349,experiment,105,↓,up,↑,0.523191999993287,False,28,1
160K25S1,1350,experiment,96,←,left,←,0.43867850000970066,True,28,1
160K25S1,1351,experiment,72,↑,up,↑,0.6618242000113241,True,28,1
160K25S1,1352,experiment,69,→,right,→,0.6691068999934942,True,28,1
160K25S1,1353,experiment,50,↓,down,↓,0.4982945999945514,True,28,1
160K25S1,1354,experiment,90,↓,down,↓,0.6808124000090174,True,28,1
160K25S1,1355,experiment,59,→,left,←,0.5544211000087671,False,28,1
160K25S1,1356,experiment,64,→,right,→,0.4798274000058882,True,28,1
160K25S1,1357,experiment,107,↓,down,↓,0.4812466000148561,True,28,1
160K25S1,1358,experiment,78,←,left,←,0.6684793000167701,True,28,1
160K25S1,1359,experiment,57,→,right,→,0.6315084999951068,True,28,1
160K25S1,1360,experiment,51,←,left,←,0.6301008999871556,True,28,1
160K25S1,1361,experiment,73,←,left,←,0.5490159000037238,True,28,1
160K25S1,1362,experiment,81,↑,up,↑,0.9722372000105679,True,28,1
160K25S1,1363,experiment,79,↓,down,↓,0.43569869999191724,True,28,1
