PART_ID,Trial_no,Trial_type,CSI,Stim_letter,Key_pressed,letter_choose,Rt,Corr,Stimulus Time,nDropped
162K27S2,1,training,120,→,right,→,0.5509422000031918,True,60,0
162K27S2,2,training,120,↓,down,↓,1.410619099973701,True,60,0
162K27S2,3,training,120,↑,up,↑,0.5923606000142172,True,60,0
162K27S2,4,training,120,→,right,→,0.4854822999914177,True,60,0
162K27S2,5,training,120,↓,down,↓,1.5155874000047334,True,60,0
162K27S2,6,training,120,↑,up,↑,0.49254669999936596,True,60,0
162K27S2,7,training,120,↓,down,↓,0.5840629999875091,True,60,0
162K27S2,8,training,120,←,down,↓,0.3768280000076629,False,60,0
162K27S2,9,training,120,↓,down,↓,0.6424437999958172,True,60,0
162K27S2,10,training,120,←,left,←,0.7608319999999367,True,60,0
162K27S2,11,training,120,↓,down,↓,0.6182246000389569,True,60,0
162K27S2,12,training,120,→,right,→,0.5171524999896064,True,60,0
162K27S2,13,training,120,↑,up,↑,0.5674291999894194,True,60,0
162K27S2,14,training,120,↑,up,↑,0.4682002999470569,True,60,0
162K27S2,15,training,120,←,left,←,1.3966010000440292,True,60,0
162K27S2,16,training,120,→,right,→,0.6257897999603301,True,60,0
162K27S2,17,training,120,←,left,←,0.49234769999748096,True,60,0
162K27S2,18,training,120,↑,up,↑,0.5258974999887869,True,60,0
162K27S2,19,training,120,↑,up,↑,0.3685496000107378,True,60,0
162K27S2,20,training,120,←,left,←,0.5926025999942794,True,60,0
162K27S2,21,no_adaptation,120,↓,down,↓,0.6720461000222713,True,36,0
162K27S2,22,no_adaptation,120,↑,up,↑,0.6119242999702692,True,36,0
162K27S2,23,no_adaptation,120,←,right,→,0.44243179995100945,False,36,0
162K27S2,24,no_adaptation,120,→,right,→,0.5593466999707744,True,36,0
162K27S2,25,no_adaptation,120,↓,down,↓,0.6802078000037,True,36,0
162K27S2,26,no_adaptation,120,↑,up,↑,0.5323099000379443,True,36,0
162K27S2,27,no_adaptation,120,↓,down,↓,0.5579232000163756,True,36,0
162K27S2,28,no_adaptation,120,↑,up,↑,0.5827315000351518,True,36,0
162K27S2,29,no_adaptation,120,←,left,←,0.5506127999979071,True,36,0
162K27S2,30,no_adaptation,120,↑,up,↑,0.4959104000008665,True,36,0
162K27S2,31,no_adaptation,120,←,left,←,0.5149480000254698,True,36,0
162K27S2,32,no_adaptation,120,←,left,←,0.50961870001629,True,36,0
162K27S2,33,no_adaptation,120,←,left,←,0.42567710002185777,True,36,0
162K27S2,34,no_adaptation,120,→,right,→,0.710239400039427,True,36,0
162K27S2,35,no_adaptation,120,↓,down,↓,0.7448386000469327,True,36,0
162K27S2,36,no_adaptation,120,↓,down,↓,0.8660101999994367,True,36,0
162K27S2,37,no_adaptation,120,↓,down,↓,0.622463500010781,True,36,0
162K27S2,38,no_adaptation,120,↓,down,↓,0.5886487999814562,True,36,0
162K27S2,39,no_adaptation,120,↑,up,↑,0.684196200047154,True,36,0
162K27S2,40,no_adaptation,120,↑,up,↑,0.4091643000137992,True,36,0
162K27S2,41,training,48,→,right,→,0.4959796000039205,True,36,0
162K27S2,42,training,107,↑,up,↑,0.5039353999891318,True,36,1
162K27S2,43,experiment,69,→,right,→,0.564479399996344,True,36,1
162K27S2,44,experiment,53,↑,up,↑,0.5236728999880143,True,36,1
162K27S2,45,experiment,86,↓,down,↓,0.6337208999902941,True,36,1
162K27S2,46,experiment,56,↓,down,↓,0.6054364999872632,True,36,1
162K27S2,47,experiment,95,→,right,→,0.4856030999799259,True,36,1
162K27S2,48,experiment,77,↑,up,↑,0.4722609000164084,True,36,1
162K27S2,49,experiment,75,↑,up,↑,0.4340980999986641,True,36,0
162K27S2,50,experiment,96,←,left,←,0.6734326999867335,True,36,0
162K27S2,51,experiment,102,←,left,←,0.4340115999802947,True,36,1
162K27S2,52,experiment,101,↑,up,↑,0.688511100015603,True,36,0
162K27S2,53,experiment,60,↓,down,↓,0.6005647999700159,True,36,1
162K27S2,54,experiment,99,→,right,→,0.4340041999821551,True,36,1
162K27S2,55,experiment,64,↓,down,↓,0.4421285000280477,True,36,0
162K27S2,56,experiment,90,→,no_key,no_letter,-1.0,False,36,0
162K27S2,57,experiment,51,↑,up,↑,0.7037534000119194,True,36,1
162K27S2,58,experiment,54,↓,down,↓,0.5854935999959707,True,36,1
162K27S2,59,experiment,67,↑,up,↑,0.5874799000448547,True,36,1
162K27S2,60,experiment,63,↓,down,↓,0.6309166999999434,True,36,1
162K27S2,61,experiment,70,↓,down,↓,0.6539236000389792,True,36,1
162K27S2,62,experiment,68,→,right,→,0.6687189000076614,True,36,1
162K27S2,63,experiment,57,↓,down,↓,0.45081159996334463,True,36,1
162K27S2,64,experiment,66,↑,up,↑,0.48629430000437424,True,36,0
162K27S2,65,experiment,74,←,left,←,0.4007217000471428,True,36,1
162K27S2,66,experiment,73,↑,up,↑,0.5606776000349782,True,36,0
162K27S2,67,experiment,87,←,up,↑,0.30033160001039505,False,36,1
162K27S2,68,experiment,61,→,no_key,no_letter,-1.0,False,36,0
162K27S2,69,experiment,94,↑,up,↑,0.6058337999857031,True,36,1
162K27S2,70,experiment,88,↑,up,↑,0.5677700000233017,True,36,1
162K27S2,71,experiment,55,→,right,→,0.7104983000317588,True,36,1
162K27S2,72,experiment,105,↓,down,↓,0.4950360000366345,True,36,1
162K27S2,73,experiment,98,↓,down,↓,0.5862164000282064,True,36,1
162K27S2,74,experiment,80,↑,up,↑,0.4881611000164412,True,36,1
162K27S2,75,experiment,81,→,right,→,0.7130575000192039,True,36,1
162K27S2,76,experiment,100,→,right,→,0.4990093999658711,True,36,1
162K27S2,77,experiment,50,↓,down,↓,0.6381933999946341,True,36,1
162K27S2,78,experiment,65,↑,down,↓,0.7112872999859974,False,36,1
162K27S2,79,experiment,62,←,left,←,0.3841598000144586,True,36,1
162K27S2,80,experiment,59,←,left,←,0.4817338000284508,True,36,0
162K27S2,81,experiment,108,→,right,→,0.48207349999574944,True,36,1
162K27S2,82,experiment,48,↑,up,↑,0.5664718999760225,True,36,1
162K27S2,83,experiment,85,↑,up,↑,0.4994565999950282,True,36,1
162K27S2,84,experiment,83,←,left,←,0.4507753999787383,True,36,1
162K27S2,85,experiment,93,↑,up,↑,0.45084060000954196,True,36,0
162K27S2,86,experiment,97,→,no_key,no_letter,-1.0,False,36,0
162K27S2,87,experiment,84,↑,no_key,no_letter,-1.0,False,36,1
162K27S2,88,experiment,89,↓,down,↓,0.9909277999540791,True,36,1
162K27S2,89,experiment,82,↓,no_key,no_letter,-1.0,False,36,1
162K27S2,90,experiment,106,↓,down,↓,0.6490857999888249,True,36,1
162K27S2,91,experiment,49,↑,up,↑,0.4866395000135526,True,36,1
162K27S2,92,experiment,76,←,left,←,0.7051768000237644,True,36,1
162K27S2,93,experiment,92,←,left,←,0.5338564999983646,True,36,1
162K27S2,94,experiment,52,↑,up,↑,0.5750299000064842,True,36,1
162K27S2,95,experiment,107,→,right,→,0.6840097000240348,True,36,1
162K27S2,96,experiment,104,↑,up,↑,0.5096503000240773,True,36,1
162K27S2,97,experiment,103,→,no_key,no_letter,-1.0,False,36,1
162K27S2,98,experiment,79,↓,down,↓,1.1012684000306763,True,36,1
162K27S2,99,experiment,72,↓,down,↓,0.6968816000153311,True,36,1
162K27S2,100,experiment,58,←,left,←,0.5692853000364266,True,36,1
162K27S2,101,experiment,78,→,right,→,0.5284005000139587,True,36,1
162K27S2,102,experiment,91,←,no_key,no_letter,-1.0,False,36,1
162K27S2,103,experiment,71,↑,up,↑,0.6619556000223383,True,36,1
162K27S2,104,training,87,↓,down,↓,0.6320465999888256,True,36,0
162K27S2,105,training,107,↓,down,↓,0.5545902000158094,True,36,1
162K27S2,106,experiment,69,↑,up,↑,0.46973150002304465,True,36,1
162K27S2,107,experiment,91,↑,up,↑,0.3840144999558106,True,36,0
162K27S2,108,experiment,76,↓,down,↓,0.4982791999937035,True,36,0
162K27S2,109,experiment,81,↓,no_key,no_letter,-1.0,False,36,1
162K27S2,110,experiment,71,↑,up,↑,0.46888669999316335,True,36,1
162K27S2,111,experiment,89,↓,down,↓,0.3923878999776207,True,36,0
162K27S2,112,experiment,94,↓,down,↓,0.7155622999998741,True,36,0
162K27S2,113,experiment,104,→,no_key,no_letter,-1.0,False,36,1
162K27S2,114,experiment,70,→,right,→,0.5014972999924794,True,36,1
162K27S2,115,experiment,52,←,left,←,0.48034970002481714,True,36,1
162K27S2,116,experiment,108,→,right,→,0.43382809998001903,True,36,1
162K27S2,117,experiment,85,↑,up,↑,0.416706099989824,True,36,0
162K27S2,118,experiment,60,↑,up,↑,0.6447809999808669,True,36,0
162K27S2,119,experiment,73,↓,no_key,no_letter,-1.0,False,36,1
162K27S2,120,experiment,67,↓,down,↓,0.60534040001221,True,36,1
162K27S2,121,experiment,101,←,left,←,0.3342560000019148,True,36,1
162K27S2,122,experiment,49,→,right,→,0.5004620999679901,True,36,0
162K27S2,123,experiment,96,→,right,→,0.616310200013686,True,36,1
162K27S2,124,experiment,93,→,right,→,0.6163373999879695,True,36,1
162K27S2,125,experiment,106,←,left,←,0.6759870999958366,True,36,1
162K27S2,126,experiment,90,↓,down,↓,0.44238259998383,True,36,1
162K27S2,127,experiment,53,↓,down,↓,0.6387998999562114,True,36,0
162K27S2,128,experiment,99,←,no_key,no_letter,-1.0,False,36,1
162K27S2,129,experiment,77,→,right,→,0.4833570999908261,True,36,1
162K27S2,130,experiment,105,↑,no_key,no_letter,-1.0,False,36,1
162K27S2,131,experiment,84,↓,down,↓,0.6492565000080504,True,36,1
162K27S2,132,experiment,97,↓,down,↓,0.558660399983637,True,36,1
162K27S2,133,experiment,102,↑,up,↑,0.45049570000264794,True,36,1
162K27S2,134,experiment,75,←,left,←,0.6903371000080369,True,36,1
162K27S2,135,experiment,83,↓,down,↓,0.6108070999616757,True,36,1
162K27S2,136,experiment,68,↑,up,↑,0.507497799990233,True,36,1
162K27S2,137,experiment,59,↓,down,↓,0.6273433999740519,True,36,1
162K27S2,138,experiment,57,↑,up,↑,0.6950362999923527,True,36,1
162K27S2,139,experiment,61,←,left,←,0.47913300001528114,True,36,1
162K27S2,140,experiment,78,→,right,→,0.5052326000295579,True,36,1
162K27S2,141,experiment,92,←,left,←,0.6297917999909259,True,36,1
162K27S2,142,experiment,62,→,right,→,0.49569910002173856,True,36,1
162K27S2,143,experiment,98,↓,down,↓,0.5467444999958389,True,36,1
162K27S2,144,experiment,63,→,right,→,0.60745270003099,True,36,1
162K27S2,145,experiment,64,→,no_key,no_letter,-1.0,False,36,1
162K27S2,146,experiment,86,←,left,←,0.4258232999709435,True,36,1
162K27S2,147,experiment,51,←,no_key,no_letter,-1.0,False,36,0
162K27S2,148,experiment,80,→,right,→,0.4427080000168644,True,36,1
162K27S2,149,experiment,74,←,left,←,0.35155009996378794,True,36,0
162K27S2,150,experiment,72,→,right,→,0.5195278000319377,True,36,0
162K27S2,151,experiment,56,←,left,←,0.9678786000004038,True,36,1
162K27S2,152,experiment,55,←,left,←,0.6706044999882579,True,36,1
162K27S2,153,experiment,66,←,left,←,0.5419154999544844,True,36,1
162K27S2,154,experiment,54,↓,down,↓,0.6537598999566399,True,36,1
162K27S2,155,experiment,95,↑,up,↑,0.6357923000468872,True,36,1
162K27S2,156,experiment,79,←,left,←,0.655856000026688,True,36,1
162K27S2,157,experiment,87,←,no_key,no_letter,-1.0,False,36,1
162K27S2,158,experiment,82,←,left,←,0.47851169999921694,True,36,1
162K27S2,159,experiment,48,↑,up,↑,0.5622863000025973,True,36,1
162K27S2,160,experiment,100,→,right,→,0.4904294000007212,True,36,1
162K27S2,161,experiment,103,→,right,→,0.49202910001622513,True,36,1
162K27S2,162,experiment,88,↓,no_key,no_letter,-1.0,False,36,1
162K27S2,163,experiment,58,↑,up,↑,0.608273999998346,True,36,1
162K27S2,164,experiment,107,←,left,←,0.5879117999575101,True,36,1
162K27S2,165,experiment,50,↓,no_key,no_letter,-1.0,False,36,1
162K27S2,166,experiment,65,↓,down,↓,0.8065823999932036,True,36,1
162K27S2,167,training,87,←,left,←,0.5627600000007078,True,36,0
162K27S2,168,training,71,←,left,←,0.44238309998763725,True,36,1
162K27S2,169,experiment,82,↓,down,↓,0.566952700028196,True,36,0
162K27S2,170,experiment,60,↓,down,↓,0.42541460000211373,True,36,1
162K27S2,171,experiment,51,←,left,←,0.5374791999929585,True,36,0
162K27S2,172,experiment,107,↑,up,↑,0.6959205000312068,True,36,1
162K27S2,173,experiment,70,←,left,←,0.44236659997841343,True,36,1
162K27S2,174,experiment,83,←,left,←,0.4092114999657497,True,36,0
162K27S2,175,experiment,101,↓,down,↓,1.3236798999714665,True,36,0
162K27S2,176,experiment,105,↓,down,↓,0.5713260999764316,True,36,1
162K27S2,177,experiment,61,→,no_key,no_letter,-1.0,False,36,1
162K27S2,178,experiment,69,→,no_key,no_letter,-1.0,False,36,1
162K27S2,179,experiment,54,→,right,→,0.6324682000558823,True,36,1
162K27S2,180,experiment,97,←,left,←,0.4174095999915153,True,36,1
162K27S2,181,experiment,76,↓,down,↓,0.484301200020127,True,36,0
162K27S2,182,experiment,68,↓,down,↓,0.5377819000277668,True,36,1
162K27S2,183,experiment,67,↑,up,↑,0.821472099982202,True,36,1
162K27S2,184,experiment,102,←,left,←,0.6340445000096224,True,36,1
162K27S2,185,experiment,79,↑,up,↑,0.6381465999875218,True,36,1
162K27S2,186,experiment,75,←,left,←,0.4174430000130087,True,36,1
162K27S2,187,experiment,52,→,left,←,0.4811411999980919,False,36,0
162K27S2,188,experiment,74,↓,down,↓,0.48467500001424924,True,36,1
162K27S2,189,experiment,87,↓,no_key,no_letter,-1.0,False,36,1
162K27S2,190,experiment,48,↓,down,↓,0.5327112000086345,True,36,1
162K27S2,191,experiment,66,→,right,→,0.48142349999397993,True,36,1
162K27S2,192,experiment,86,←,left,←,0.6248306999914348,True,36,1
162K27S2,193,experiment,56,→,right,→,0.5808589999796823,True,36,1
162K27S2,194,experiment,73,↑,up,↑,0.524859800003469,True,36,1
162K27S2,195,experiment,90,→,no_key,no_letter,-1.0,False,36,1
162K27S2,196,experiment,108,←,left,←,0.5025440999888815,True,36,1
162K27S2,197,experiment,50,←,left,←,0.41747539996868,True,36,1
162K27S2,198,experiment,49,→,right,→,0.44999360002111644,True,36,0
162K27S2,199,experiment,71,↓,down,↓,0.6139070999925025,True,36,0
162K27S2,200,experiment,91,←,left,←,0.48671609995653853,True,36,1
162K27S2,201,experiment,106,↑,up,↑,0.559486799989827,True,36,1
162K27S2,202,experiment,81,→,right,→,0.6616089000017382,True,36,1
162K27S2,203,experiment,58,↓,down,↓,0.5200331000378355,True,36,1
162K27S2,204,experiment,100,→,no_key,no_letter,-1.0,False,36,1
162K27S2,205,experiment,72,↑,up,↑,0.43402109999442473,True,36,1
162K27S2,206,experiment,96,↓,down,↓,0.4340317999594845,True,36,0
162K27S2,207,experiment,94,↑,up,↑,0.4716261000139639,True,36,0
162K27S2,208,experiment,62,→,right,→,0.47178730001905933,True,36,1
162K27S2,209,experiment,59,→,right,→,0.7123331000329927,True,36,0
162K27S2,210,experiment,89,↓,down,↓,0.45071760000428185,True,36,1
162K27S2,211,experiment,99,←,left,←,0.333593099960126,True,36,0
162K27S2,212,experiment,77,→,right,→,0.4830294999992475,True,36,0
162K27S2,213,experiment,84,←,left,←,0.6752084999461658,True,36,1
162K27S2,214,experiment,57,→,no_key,no_letter,-1.0,False,36,1
162K27S2,215,experiment,78,↓,down,↓,0.7078662000130862,True,36,1
162K27S2,216,experiment,53,↓,down,↓,0.7974880000110716,True,36,1
162K27S2,217,experiment,65,→,no_key,no_letter,-1.0,False,36,1
162K27S2,218,experiment,63,→,right,→,0.5314723000046797,True,36,1
162K27S2,219,experiment,103,←,left,←,0.42580399999860674,True,36,1
162K27S2,220,experiment,92,←,right,→,0.4423606999916956,False,36,0
162K27S2,221,experiment,64,↑,up,↑,0.6276699000154622,True,36,0
162K27S2,222,experiment,85,←,left,←,0.38381190004292876,True,36,1
162K27S2,223,experiment,93,↑,up,↑,0.41735220002010465,True,36,0
162K27S2,224,experiment,88,→,left,←,0.4092889999737963,False,36,0
162K27S2,225,experiment,80,←,left,←,0.43336520000593737,True,36,0
162K27S2,226,experiment,55,↑,up,↑,0.6727213999838568,True,36,0
162K27S2,227,experiment,104,←,left,←,0.6346824000356719,True,36,1
162K27S2,228,experiment,95,→,right,→,0.4895896000089124,True,36,1
162K27S2,229,experiment,98,→,right,→,0.47744390001753345,True,36,1
162K27S2,230,training,96,↓,down,↓,0.8114805999794044,True,36,0
162K27S2,231,training,57,↑,up,↑,0.41748020000522956,True,36,1
162K27S2,232,experiment,75,↓,down,↓,0.36718610004754737,True,36,0
162K27S2,233,experiment,95,↑,up,↑,0.6066167000099085,True,36,0
162K27S2,234,experiment,77,←,left,←,0.6043416000320576,True,36,1
162K27S2,235,experiment,67,→,right,→,0.4007706000120379,True,36,1
162K27S2,236,experiment,74,↓,down,↓,0.7085035999771208,True,36,0
162K27S2,237,experiment,99,↓,down,↓,0.6946304000448436,True,36,1
162K27S2,238,experiment,94,↓,down,↓,0.6434058000450023,True,36,1
162K27S2,239,experiment,68,↓,down,↓,0.5706542999832891,True,36,1
162K27S2,240,experiment,49,↑,up,↑,0.7153568000067025,True,36,1
162K27S2,241,experiment,83,↑,up,↑,0.522696600004565,True,36,1
162K27S2,242,experiment,50,→,right,→,0.7408950999961235,True,36,1
162K27S2,243,experiment,101,↓,left,←,0.6213089000084437,False,36,1
162K27S2,244,experiment,85,↑,up,↑,0.4877958000288345,True,36,1
162K27S2,245,experiment,62,←,left,←,0.433778699953109,True,36,1
162K27S2,246,experiment,51,↑,no_key,no_letter,-1.0,False,36,0
162K27S2,247,experiment,64,↑,up,↑,0.5757130000274628,True,36,1
162K27S2,248,experiment,78,↓,down,↓,0.5664228000096045,True,36,1
162K27S2,249,experiment,61,↑,up,↑,0.6031376000028104,True,36,1
162K27S2,250,experiment,63,↓,down,↓,0.5099324000184424,True,36,1
162K27S2,251,experiment,90,←,no_key,no_letter,-1.0,False,36,1
162K27S2,252,experiment,56,→,right,→,0.617649000021629,True,36,1
162K27S2,253,experiment,103,→,right,→,0.5181975000305101,True,36,1
162K27S2,254,experiment,65,↓,down,↓,0.7476368000498042,True,36,1
162K27S2,255,experiment,86,→,right,→,0.520604099961929,True,36,1
162K27S2,256,experiment,92,↓,down,↓,0.4851861000061035,True,36,1
162K27S2,257,experiment,59,←,left,←,0.6138574000215158,True,36,1
162K27S2,258,experiment,53,→,no_key,no_letter,-1.0,False,36,1
162K27S2,259,experiment,88,→,right,→,0.6947668999782763,True,36,1
162K27S2,260,experiment,66,→,left,←,0.4174856999889016,False,36,1
162K27S2,261,experiment,55,↓,down,↓,0.497220000019297,True,36,0
162K27S2,262,experiment,93,→,right,→,0.48605860001407564,True,36,1
162K27S2,263,experiment,71,←,left,←,0.6343579000094905,True,36,1
162K27S2,264,experiment,57,↑,up,↑,0.6617659999756142,True,36,1
162K27S2,265,experiment,106,→,right,→,0.5357985000009649,True,36,1
162K27S2,266,experiment,54,→,right,→,0.7122404999681748,True,36,1
162K27S2,267,experiment,72,↓,down,↓,0.6753678999957629,True,36,1
162K27S2,268,experiment,76,↓,down,↓,0.450948600017,True,36,1
162K27S2,269,experiment,100,↑,down,↓,1.0827515000128187,False,36,0
162K27S2,270,experiment,108,→,right,→,0.4755531999981031,True,36,1
162K27S2,271,experiment,98,↓,down,↓,0.7347084000357427,True,36,1
162K27S2,272,experiment,84,↓,down,↓,0.6211402000044473,True,36,1
162K27S2,273,experiment,58,↓,down,↓,0.5692390000331216,True,36,1
162K27S2,274,experiment,91,→,right,→,0.6275755999959074,True,36,1
162K27S2,275,experiment,102,↑,up,↑,0.5442855000146665,True,36,1
162K27S2,276,experiment,70,↓,down,↓,0.5151224000146613,True,36,1
162K27S2,277,experiment,80,↑,up,↑,0.5155487000010908,True,36,1
162K27S2,278,experiment,89,←,left,←,0.6649782999884337,True,36,1
162K27S2,279,experiment,82,↑,up,↑,0.47499970003264025,True,36,1
162K27S2,280,experiment,79,←,left,←,0.6685854999814183,True,36,1
162K27S2,281,experiment,60,→,right,→,0.4255299000069499,True,36,1
162K27S2,282,experiment,96,→,right,→,0.6280893000075594,True,36,0
162K27S2,283,experiment,52,↓,no_key,no_letter,-1.0,False,36,1
162K27S2,284,experiment,81,→,right,→,0.5514553000102751,True,36,1
162K27S2,285,experiment,104,←,left,←,0.4259440999594517,True,36,1
162K27S2,286,experiment,69,↓,down,↓,0.5256165999453515,True,36,0
162K27S2,287,experiment,87,→,right,→,0.468139499949757,True,36,1
162K27S2,288,experiment,97,↑,no_key,no_letter,-1.0,False,36,0
162K27S2,289,experiment,73,↑,up,↑,0.4340329999686219,True,36,1
162K27S2,290,experiment,107,←,left,←,0.4830505999852903,True,36,0
162K27S2,291,experiment,105,→,right,→,0.47622499999124557,True,36,1
162K27S2,292,experiment,48,→,no_key,no_letter,-1.0,False,36,0
162K27S2,293,training,63,↑,up,↑,0.5441229999996722,True,36,0
162K27S2,294,training,67,→,right,→,0.5557890000054613,True,36,1
162K27S2,295,experiment,78,↑,up,↑,0.6117117999820039,True,36,1
162K27S2,296,experiment,79,→,right,→,0.45047719997819513,True,36,1
162K27S2,297,experiment,99,←,left,←,0.37591290002455935,True,36,0
162K27S2,298,experiment,101,←,left,←,1.4913148999912664,True,36,0
162K27S2,299,experiment,72,←,right,→,0.4717881000251509,False,36,1
162K27S2,300,experiment,106,→,right,→,0.47319340001558885,True,36,1
162K27S2,301,experiment,104,↑,up,↑,0.4906706999754533,True,36,1
162K27S2,302,experiment,98,→,right,→,0.5021572000114247,True,36,1
162K27S2,303,experiment,107,←,left,←,0.6221702999901026,True,36,1
162K27S2,304,experiment,55,↑,up,↑,0.49853370001073927,True,36,1
162K27S2,305,experiment,89,→,right,→,0.4422086999984458,True,36,1
162K27S2,306,experiment,48,→,right,→,0.4789372000377625,True,36,0
162K27S2,307,experiment,88,←,left,←,0.5094550999929197,True,36,1
162K27S2,308,experiment,82,→,no_key,no_letter,-1.0,False,36,1
162K27S2,309,experiment,77,←,left,←,0.36736700002802536,True,36,1
162K27S2,310,experiment,80,→,left,←,1.0748661000397988,False,36,0
162K27S2,311,experiment,102,→,right,→,0.4780507999821566,True,36,1
162K27S2,312,experiment,59,←,no_key,no_letter,-1.0,False,36,1
162K27S2,313,experiment,85,→,right,→,0.6587554000434466,True,36,1
162K27S2,314,experiment,57,←,right,→,0.5011595000396483,False,36,1
162K27S2,315,experiment,86,↓,down,↓,0.7161642999853939,True,36,1
162K27S2,316,experiment,103,↓,down,↓,0.5329279999714345,True,36,1
162K27S2,317,experiment,66,→,right,→,0.513284599990584,True,36,1
162K27S2,318,experiment,108,←,left,←,0.5764927999698557,True,36,1
162K27S2,319,experiment,100,↓,down,↓,0.5037297999951988,True,36,1
162K27S2,320,experiment,95,↓,down,↓,0.7719309999956749,True,36,1
162K27S2,321,experiment,96,↑,up,↑,0.46901410003192723,True,36,1
162K27S2,322,experiment,69,←,left,←,0.6822301000356674,True,36,0
162K27S2,323,experiment,74,↓,down,↓,0.48581830004695803,True,36,1
162K27S2,324,experiment,50,↑,no_key,no_letter,-1.0,False,36,1
162K27S2,325,experiment,56,←,left,←,0.5840503000072204,True,36,1
162K27S2,326,experiment,87,→,right,→,0.4677434000186622,True,36,1
162K27S2,327,experiment,97,→,right,→,0.5518533000140451,True,36,0
162K27S2,328,experiment,64,←,left,←,0.5640360999968834,True,36,1
162K27S2,329,experiment,83,←,left,←,0.6015547999995761,True,36,1
162K27S2,330,experiment,54,←,left,←,0.6231993000255898,True,36,1
162K27S2,331,experiment,70,←,left,←,0.5426429000217468,True,36,1
162K27S2,332,experiment,84,↓,down,↓,0.4692325000069104,True,36,1
162K27S2,333,experiment,76,↑,up,↑,0.6160882000112906,True,36,0
162K27S2,334,experiment,58,←,left,←,0.4763838999788277,True,36,1
162K27S2,335,experiment,52,↓,down,↓,0.4714699999894947,True,36,1
162K27S2,336,experiment,61,←,left,←,0.6473911000066437,True,36,0
162K27S2,337,experiment,90,↑,up,↑,0.6150587000302039,True,36,1
162K27S2,338,experiment,94,←,left,←,0.4257508000009693,True,36,1
162K27S2,339,experiment,67,→,right,→,0.5272126999916509,True,36,0
162K27S2,340,experiment,60,←,left,←,0.4343816000036895,True,36,1
162K27S2,341,experiment,71,←,no_key,no_letter,-1.0,False,36,0
162K27S2,342,experiment,53,←,left,←,0.6674783999915235,True,36,1
162K27S2,343,experiment,91,↑,up,↑,0.5458820999483578,True,36,1
162K27S2,344,experiment,81,←,left,←,0.49670989997684956,True,36,1
162K27S2,345,experiment,65,↑,up,↑,0.646904600027483,True,36,1
162K27S2,346,experiment,75,↑,up,↑,0.5236439000000246,True,36,1
162K27S2,347,experiment,92,→,right,→,0.4878021999611519,True,36,1
162K27S2,348,experiment,93,←,left,←,0.3926254999823868,True,36,1
162K27S2,349,experiment,68,↓,down,↓,0.45070879999548197,True,36,0
162K27S2,350,experiment,105,←,left,←,0.5922241999651305,True,36,0
162K27S2,351,experiment,73,↓,up,↑,0.48801370000001043,False,36,1
162K27S2,352,experiment,62,←,left,←,0.6871642000041902,True,36,1
162K27S2,353,experiment,51,→,right,→,0.4338630000129342,True,36,1
162K27S2,354,experiment,63,→,right,→,0.6678848000010476,True,36,0
162K27S2,355,experiment,49,←,left,←,0.6325866000261158,True,36,1
162K27S2,356,training,102,↑,up,↑,0.48314009996829554,True,36,0
162K27S2,357,training,104,←,left,←,0.5727423999924213,True,36,1
162K27S2,358,experiment,66,→,right,→,0.5033640999463387,True,36,1
162K27S2,359,experiment,49,→,no_key,no_letter,-1.0,False,36,1
162K27S2,360,experiment,92,↑,up,↑,0.5890215000254102,True,36,1
162K27S2,361,experiment,83,↑,up,↑,0.48953069996787235,True,36,1
162K27S2,362,experiment,84,→,right,→,0.47388870001304895,True,36,1
162K27S2,363,experiment,101,→,right,→,0.5005179999861866,True,36,0
162K27S2,364,experiment,50,↓,down,↓,0.6077034000190906,True,36,1
162K27S2,365,experiment,89,←,no_key,no_letter,-1.0,False,36,1
162K27S2,366,experiment,64,↑,up,↑,0.4426761000067927,True,36,1
162K27S2,367,experiment,103,↑,up,↑,0.5201778000337072,True,36,0
162K27S2,368,experiment,90,←,left,←,0.5892749999766238,True,36,1
162K27S2,369,experiment,94,↑,up,↑,0.5500395999988541,True,36,1
162K27S2,370,experiment,102,↓,no_key,no_letter,-1.0,False,36,1
162K27S2,371,experiment,106,←,left,←,0.4175034999498166,True,36,1
162K27S2,372,experiment,76,↓,no_key,no_letter,-1.0,False,36,0
162K27S2,373,experiment,57,↑,up,↑,0.4173066000221297,True,36,1
162K27S2,374,experiment,88,↓,down,↓,0.7278632000088692,True,36,0
162K27S2,375,experiment,62,↑,up,↑,0.4174097000504844,True,36,1
162K27S2,376,experiment,48,→,right,→,0.5487579999607988,True,36,0
162K27S2,377,experiment,52,↓,down,↓,0.5492613000096753,True,36,1
162K27S2,378,experiment,70,→,right,→,0.6795763000263833,True,36,1
162K27S2,379,experiment,73,←,no_key,no_letter,-1.0,False,36,1
162K27S2,380,experiment,55,↑,up,↑,0.7701840000227094,True,36,1
162K27S2,381,experiment,86,→,right,→,0.5825515000033192,True,36,1
162K27S2,382,experiment,67,←,no_key,no_letter,-1.0,False,36,1
162K27S2,383,experiment,68,↓,right,→,1.1228584999917075,False,36,1
162K27S2,384,experiment,69,→,right,→,0.47114049998344854,True,36,1
162K27S2,385,experiment,93,←,left,←,0.5161661999882199,True,36,1
162K27S2,386,experiment,96,↑,up,↑,0.4088865999947302,True,36,1
162K27S2,387,experiment,79,←,left,←,0.7004461999749765,True,36,0
162K27S2,388,experiment,61,↓,down,↓,0.7637715999735519,True,36,1
162K27S2,389,experiment,87,↓,down,↓,0.6713988999836147,True,36,1
162K27S2,390,experiment,82,→,right,→,0.7927756000426598,True,36,1
162K27S2,391,experiment,78,→,right,→,0.4949696999974549,True,36,1
162K27S2,392,experiment,104,↑,up,↑,0.4425993000040762,True,36,1
162K27S2,393,experiment,71,→,right,→,0.47042689996305853,True,36,0
162K27S2,394,experiment,99,↑,up,↑,0.6497034999774769,True,36,1
162K27S2,395,experiment,75,→,right,→,0.4709616999607533,True,36,1
162K27S2,396,experiment,105,↑,no_key,no_letter,-1.0,False,36,1
162K27S2,397,experiment,60,↓,down,↓,0.701148500025738,True,36,1
162K27S2,398,experiment,58,←,left,←,0.4424177000182681,True,36,1
162K27S2,399,experiment,77,↓,down,↓,0.4896348000038415,True,36,0
162K27S2,400,experiment,81,↑,up,↑,0.39142480003647506,True,36,1
162K27S2,401,experiment,63,←,no_key,no_letter,-1.0,False,36,0
162K27S2,402,experiment,95,→,right,→,0.4709730999893509,True,36,1
162K27S2,403,experiment,85,→,left,←,0.49521820002701133,False,36,0
162K27S2,404,experiment,97,↑,up,↑,0.5064783000270836,True,36,1
162K27S2,405,experiment,98,↓,down,↓,0.4775025999988429,True,36,1
162K27S2,406,experiment,59,←,left,←,0.4421959000173956,True,36,1
162K27S2,407,experiment,108,←,left,←,0.6637021999922581,True,36,0
162K27S2,408,experiment,80,↓,down,↓,0.5698233000002801,True,36,1
162K27S2,409,experiment,72,↓,down,↓,0.4091071000439115,True,36,1
162K27S2,410,experiment,107,↑,down,↓,0.7422838999773376,False,36,0
162K27S2,411,experiment,74,↓,down,↓,0.45068569999421015,True,36,1
162K27S2,412,experiment,65,↓,down,↓,0.36859410000033677,True,36,0
162K27S2,413,experiment,51,→,right,→,0.47946679999586195,True,36,0
162K27S2,414,experiment,53,→,right,→,0.5215992999728769,True,36,1
162K27S2,415,experiment,91,→,right,→,0.5664871000335552,True,36,1
162K27S2,416,experiment,56,→,right,→,0.47737849998520687,True,36,1
162K27S2,417,experiment,54,←,left,←,0.4089655000134371,True,36,1
162K27S2,418,experiment,100,←,left,←,0.48530520003987476,True,36,0
162K27S2,419,training,87,↓,no_key,no_letter,-1.0,False,36,0
162K27S2,420,training,101,→,no_key,no_letter,-1.0,False,36,1
162K27S2,421,experiment,54,↑,up,↑,0.48410110000986606,True,36,1
162K27S2,422,experiment,98,←,left,←,0.37647769995965064,True,36,1
162K27S2,423,experiment,66,↓,down,↓,0.4820552000310272,True,36,0
162K27S2,424,experiment,87,→,right,→,0.41813240002375096,True,36,1
162K27S2,425,experiment,73,←,left,←,0.3925677000079304,True,36,0
162K27S2,426,experiment,100,←,right,→,0.44219629996223375,False,36,0
162K27S2,427,experiment,99,↓,down,↓,0.5543455999577418,True,36,0
162K27S2,428,experiment,104,←,left,←,0.47370880004018545,True,36,1
162K27S2,429,experiment,95,←,left,←,0.37568880000617355,True,36,0
162K27S2,430,experiment,58,←,left,←,0.5311852999730036,True,36,0
162K27S2,431,experiment,103,←,no_key,no_letter,-1.0,False,36,1
162K27S2,432,experiment,56,↑,up,↑,0.7855477000121027,True,36,1
162K27S2,433,experiment,61,↓,down,↓,0.5174338000360876,True,36,1
162K27S2,434,experiment,60,→,right,→,0.46900450001703575,True,36,1
162K27S2,435,experiment,96,↑,up,↑,0.4815912999911234,True,36,0
162K27S2,436,experiment,71,←,left,←,0.4496902000391856,True,36,1
162K27S2,437,experiment,72,↓,down,↓,0.4996396999922581,True,36,0
162K27S2,438,experiment,88,↓,down,↓,0.4743958999752067,True,36,1
162K27S2,439,experiment,94,←,left,←,0.4952366999932565,True,36,1
162K27S2,440,experiment,105,→,right,→,0.6639373999787495,True,36,1
162K27S2,441,experiment,53,↑,up,↑,0.5873303000116721,True,36,1
162K27S2,442,experiment,69,←,left,←,0.36740519996965304,True,36,1
162K27S2,443,experiment,63,←,left,←,0.42597849998855963,True,36,0
162K27S2,444,experiment,89,↓,down,↓,0.5052618999616243,True,36,0
162K27S2,445,experiment,57,↓,down,↓,0.5136566999717616,True,36,1
162K27S2,446,experiment,76,↓,down,↓,0.43429349997313693,True,36,1
162K27S2,447,experiment,51,←,left,←,0.4730453999945894,True,36,0
162K27S2,448,experiment,67,↓,down,↓,0.7032499000197276,True,36,1
162K27S2,449,experiment,107,←,left,←,0.4799553999910131,True,36,1
162K27S2,450,experiment,50,↓,down,↓,0.4004693999886513,True,36,1
162K27S2,451,experiment,101,→,right,→,0.4809417000506073,True,36,0
162K27S2,452,experiment,59,←,left,←,0.6412191999843344,True,36,1
162K27S2,453,experiment,78,↑,up,↑,0.4423897999804467,True,36,1
162K27S2,454,experiment,102,→,right,→,0.5209734999807552,True,36,0
162K27S2,455,experiment,92,↑,up,↑,0.6852869000285864,True,36,1
162K27S2,456,experiment,70,←,left,←,0.36749529995722696,True,36,1
162K27S2,457,experiment,97,↑,up,↑,0.5704819000093266,True,36,0
162K27S2,458,experiment,85,→,right,→,0.5910108999814838,True,36,1
162K27S2,459,experiment,52,↓,down,↓,0.7822405999759212,True,36,1
162K27S2,460,experiment,80,↑,up,↑,0.611621499992907,True,36,1
162K27S2,461,experiment,77,↑,left,←,0.42595110001275316,False,36,1
162K27S2,462,experiment,55,↓,down,↓,0.5012109000235796,True,36,0
162K27S2,463,experiment,75,←,left,←,0.41730550001375377,True,36,1
162K27S2,464,experiment,84,→,right,→,0.409052699978929,True,36,0
162K27S2,465,experiment,74,←,left,←,0.4338638000190258,True,36,0
162K27S2,466,experiment,48,↑,up,↑,0.5432075999560766,True,36,0
162K27S2,467,experiment,49,↑,no_key,no_letter,-1.0,False,36,1
162K27S2,468,experiment,62,←,left,←,0.476584299991373,True,36,1
162K27S2,469,experiment,82,→,right,→,0.4775106000015512,True,36,1
162K27S2,470,experiment,106,↓,down,↓,0.4861761999782175,True,36,1
162K27S2,471,experiment,93,→,right,→,0.6110578999505378,True,36,1
162K27S2,472,experiment,91,↓,down,↓,0.5884693000116386,True,36,1
162K27S2,473,experiment,81,↓,down,↓,0.43429200001992285,True,36,1
162K27S2,474,experiment,86,↓,down,↓,0.5869266999652609,True,36,0
162K27S2,475,experiment,68,↓,down,↓,0.5166312999790534,True,36,1
162K27S2,476,experiment,108,↑,up,↑,0.6996380999917164,True,36,1
162K27S2,477,experiment,79,→,right,→,0.49333570001181215,True,36,1
162K27S2,478,experiment,83,↓,down,↓,0.5974763000267558,True,36,1
162K27S2,479,experiment,65,→,right,→,0.434136199997738,True,36,1
162K27S2,480,experiment,90,↓,down,↓,0.4254553999635391,True,36,0
162K27S2,481,experiment,64,↑,up,↑,0.4422633000067435,True,36,0
162K27S2,482,training,68,↑,up,↑,0.3841067000175826,True,35,0
162K27S2,483,training,79,↓,down,↓,0.6895340000046417,True,35,0
162K27S2,484,experiment,76,→,right,→,0.644257900014054,True,35,1
162K27S2,485,experiment,50,←,left,←,0.6415765000274405,True,35,1
162K27S2,486,experiment,97,↑,up,↑,0.5112169999629259,True,35,1
162K27S2,487,experiment,93,→,right,→,0.4259858999866992,True,35,1
162K27S2,488,experiment,48,→,right,→,0.698177200043574,True,35,0
162K27S2,489,experiment,56,↑,up,↑,0.5472018999862485,True,35,1
162K27S2,490,experiment,49,→,right,→,0.6046281000017188,True,35,1
162K27S2,491,experiment,82,↑,up,↑,0.6808872999972664,True,35,1
162K27S2,492,experiment,53,←,left,←,0.4004735999624245,True,35,1
162K27S2,493,experiment,77,→,right,→,0.6172103999997489,True,35,0
162K27S2,494,experiment,90,↓,down,↓,0.6021984000108205,True,35,1
162K27S2,495,experiment,70,↑,up,↑,0.442622400005348,True,35,1
162K27S2,496,experiment,61,↓,down,↓,0.4090714999474585,True,35,0
162K27S2,497,experiment,103,→,right,→,0.488868199987337,True,35,0
162K27S2,498,experiment,92,↓,down,↓,0.43410060001770034,True,35,1
162K27S2,499,experiment,65,↑,up,↑,0.434085100016091,True,35,0
162K27S2,500,experiment,74,→,right,→,0.4006741999764927,True,35,0
162K27S2,501,experiment,68,←,left,←,0.5648937000078149,True,35,0
162K27S2,502,experiment,107,↑,up,↑,0.40887450001901016,True,35,1
162K27S2,503,experiment,75,↑,up,↑,0.41751430003205314,True,35,0
162K27S2,504,experiment,72,←,left,←,0.46346689999336377,True,35,0
162K27S2,505,experiment,81,→,right,→,0.4008359999861568,True,35,1
162K27S2,506,experiment,99,→,right,→,0.5116922999732196,True,35,0
162K27S2,507,experiment,60,↓,up,↑,0.5108194000204094,False,35,1
162K27S2,508,experiment,100,↓,down,↓,0.3924665999948047,True,35,1
162K27S2,509,experiment,104,→,no_key,no_letter,-1.0,False,35,0
162K27S2,510,experiment,62,←,left,←,0.6585835999576375,True,35,1
162K27S2,511,experiment,96,←,left,←,0.4718639999628067,True,35,1
162K27S2,512,experiment,102,→,right,→,0.41736999998101965,True,35,1
162K27S2,513,experiment,64,↑,up,↑,0.5880964999669231,True,35,0
162K27S2,514,experiment,91,←,left,←,0.4702602000324987,True,35,1
162K27S2,515,experiment,84,←,left,←,0.4092094000079669,True,35,1
162K27S2,516,experiment,63,↓,down,↓,0.608644199965056,True,35,0
162K27S2,517,experiment,73,↑,down,↓,0.535756399971433,False,35,1
162K27S2,518,experiment,105,↓,down,↓,0.47921079996740445,True,35,1
162K27S2,519,experiment,94,→,right,→,0.48418049997417256,True,35,1
162K27S2,520,experiment,79,↑,up,↑,0.4708125000470318,True,35,1
162K27S2,521,experiment,52,→,right,→,0.5135515999863856,True,35,1
162K27S2,522,experiment,51,↓,down,↓,0.587782500020694,True,35,1
162K27S2,523,experiment,58,→,right,→,0.5124000000068918,True,35,1
162K27S2,524,experiment,89,→,right,→,0.7022589999833144,True,35,1
162K27S2,525,experiment,98,→,no_key,no_letter,-1.0,False,35,1
162K27S2,526,experiment,54,→,no_key,no_letter,-1.0,False,35,1
162K27S2,527,experiment,59,←,left,←,0.40839280001819134,True,35,1
162K27S2,528,experiment,85,↑,up,↑,0.5847332999692298,True,35,0
162K27S2,529,experiment,55,←,left,←,0.6228237000177614,True,35,1
162K27S2,530,experiment,106,↓,down,↓,0.4341483000316657,True,35,1
162K27S2,531,experiment,95,↑,up,↑,0.5530830000061542,True,35,0
162K27S2,532,experiment,83,→,right,→,0.6226098000188358,True,35,1
162K27S2,533,experiment,69,↓,down,↓,0.3921316000050865,True,35,1
162K27S2,534,experiment,80,→,right,→,0.6036052000126801,True,35,0
162K27S2,535,experiment,67,→,no_key,no_letter,-1.0,False,35,1
162K27S2,536,experiment,66,↑,up,↑,0.3933792999596335,True,35,1
162K27S2,537,experiment,87,↓,no_key,no_letter,-1.0,False,35,0
162K27S2,538,experiment,86,→,right,→,0.41733920003753155,True,35,1
162K27S2,539,experiment,108,→,right,→,0.44276689999969676,True,35,0
162K27S2,540,experiment,78,↓,no_key,no_letter,-1.0,False,35,0
162K27S2,541,experiment,57,→,no_key,no_letter,-1.0,False,35,1
162K27S2,542,experiment,88,↓,down,↓,0.4719110000296496,True,35,1
162K27S2,543,experiment,101,→,right,→,0.4826625999994576,True,35,1
162K27S2,544,experiment,71,→,right,→,0.5593283000052907,True,35,1
162K27S2,545,training,85,→,right,→,0.5066057000076398,True,35,0
162K27S2,546,training,71,↑,up,↑,0.5981517999898642,True,35,1
162K27S2,547,experiment,94,→,right,→,0.4866865999647416,True,35,1
162K27S2,548,experiment,52,↓,down,↓,0.43411859998013824,True,35,1
162K27S2,549,experiment,101,↓,down,↓,0.5737397999619134,True,35,0
162K27S2,550,experiment,50,←,left,←,0.5659181000082754,True,35,1
162K27S2,551,experiment,83,↓,no_key,no_letter,-1.0,False,35,1
162K27S2,552,experiment,103,↓,down,↓,0.4256228000158444,True,35,1
162K27S2,553,experiment,82,↑,no_key,no_letter,-1.0,False,35,0
162K27S2,554,experiment,81,↓,down,↓,0.659571300027892,True,35,1
162K27S2,555,experiment,86,↓,down,↓,0.5560193000128493,True,35,1
162K27S2,556,experiment,48,↑,down,↓,0.5335068000131287,False,35,1
162K27S2,557,experiment,59,↑,up,↑,0.5002275000442751,True,35,1
162K27S2,558,experiment,75,↑,up,↑,0.5189431999460794,True,35,1
162K27S2,559,experiment,100,←,left,←,0.5926954000024125,True,35,1
162K27S2,560,experiment,91,→,right,→,0.417361699976027,True,35,1
162K27S2,561,experiment,106,↑,up,↑,0.5498996999813244,True,35,0
162K27S2,562,experiment,85,↓,down,↓,0.5313453999697231,True,35,1
162K27S2,563,experiment,84,→,right,→,0.5775561999762431,True,35,1
162K27S2,564,experiment,66,↑,up,↑,0.4607598000438884,True,35,1
162K27S2,565,experiment,92,↑,left,←,0.36734850000357255,False,35,0
162K27S2,566,experiment,93,↓,down,↓,0.6604808000265621,True,35,0
162K27S2,567,experiment,53,←,left,←,0.504101200029254,True,35,1
162K27S2,568,experiment,95,←,left,←,0.6521501999814063,True,35,1
162K27S2,569,experiment,107,↑,up,↑,0.48640490003162995,True,35,1
162K27S2,570,experiment,49,←,left,←,0.546015800035093,True,35,1
162K27S2,571,experiment,88,↓,up,↑,0.510326299990993,False,35,1
162K27S2,572,experiment,90,←,left,←,0.5718801000039093,True,35,1
162K27S2,573,experiment,74,↑,up,↑,0.5959050999954343,True,35,1
162K27S2,574,experiment,63,↑,up,↑,0.6150384999928065,True,35,1
162K27S2,575,experiment,98,↓,down,↓,0.6374089999590069,True,35,1
162K27S2,576,experiment,79,←,left,←,0.5533840000280179,True,35,1
162K27S2,577,experiment,69,←,left,←,0.6041519999853335,True,35,1
162K27S2,578,experiment,58,←,left,←,0.7526125999866053,True,35,1
162K27S2,579,experiment,99,←,left,←,0.6971870999550447,True,35,1
162K27S2,580,experiment,96,→,right,→,0.62896170001477,True,35,1
162K27S2,581,experiment,51,↓,down,↓,0.7062155000166968,True,35,1
162K27S2,582,experiment,105,↑,up,↑,0.6026203000219539,True,35,1
162K27S2,583,experiment,102,→,right,→,0.6003193000215106,True,35,1
162K27S2,584,experiment,56,←,left,←,0.5016509999986738,True,35,1
162K27S2,585,experiment,77,←,left,←,0.5114839000161737,True,35,1
162K27S2,586,experiment,64,→,no_key,no_letter,-1.0,False,35,1
162K27S2,587,experiment,70,↓,down,↓,0.4876108000171371,True,35,1
162K27S2,588,experiment,57,←,left,←,0.6725813999655657,True,35,1
162K27S2,589,experiment,97,↑,down,↓,0.6608439999981783,False,35,1
162K27S2,590,experiment,61,←,left,←,0.5020763999782503,True,35,1
162K27S2,591,experiment,62,↓,down,↓,0.7492984000127763,True,35,1
162K27S2,592,experiment,71,→,right,→,0.535182099964004,True,35,1
162K27S2,593,experiment,89,↓,down,↓,0.6359597999835387,True,35,1
162K27S2,594,experiment,80,←,left,←,0.5675676999962889,True,35,1
162K27S2,595,experiment,72,↑,up,↑,0.40160340000875294,True,35,1
162K27S2,596,experiment,65,↑,up,↑,0.41744590003509074,True,35,0
162K27S2,597,experiment,67,↑,up,↑,0.5064947999780998,True,35,0
162K27S2,598,experiment,60,←,no_key,no_letter,-1.0,False,35,1
162K27S2,599,experiment,108,←,left,←,0.5271290999953635,True,35,1
162K27S2,600,experiment,76,↓,down,↓,0.46536139998352155,True,35,1
162K27S2,601,experiment,68,↑,up,↑,0.5909471999621019,True,35,1
162K27S2,602,experiment,73,←,left,←,0.5590354999876581,True,35,1
162K27S2,603,experiment,87,→,left,←,0.42634210002142936,False,35,1
162K27S2,604,experiment,78,←,right,→,0.5275134000112303,False,35,0
162K27S2,605,experiment,55,→,right,→,0.5279044000199065,True,35,1
162K27S2,606,experiment,104,←,left,←,0.6320147999795154,True,35,1
162K27S2,607,experiment,54,↓,down,↓,0.46091809996869415,True,35,1
162K27S2,608,training,89,→,right,→,0.4749176999903284,True,35,0
162K27S2,609,training,52,↓,no_key,no_letter,-1.0,False,35,1
162K27S2,610,experiment,102,↑,up,↑,0.6694923000177369,True,35,1
162K27S2,611,experiment,50,↑,up,↑,0.3924123999895528,True,35,1
162K27S2,612,experiment,92,←,no_key,no_letter,-1.0,False,35,0
162K27S2,613,experiment,107,→,left,←,0.4881645000423305,False,35,1
162K27S2,614,experiment,73,←,left,←,0.36735849996330217,True,35,1
162K27S2,615,experiment,94,↑,up,↑,0.5572951999492943,True,35,0
162K27S2,616,experiment,70,↓,down,↓,0.6233644000021741,True,35,1
162K27S2,617,experiment,48,↑,up,↑,0.5981037999736145,True,35,1
162K27S2,618,experiment,108,→,right,→,0.44259980000788346,True,35,1
162K27S2,619,experiment,84,←,left,←,0.5955547000048682,True,35,0
162K27S2,620,experiment,100,←,left,←,0.514143000007607,True,35,1
162K27S2,621,experiment,74,←,left,←,0.3756569999968633,True,35,1
162K27S2,622,experiment,58,↑,up,↑,0.5220098000136204,True,35,0
162K27S2,623,experiment,66,→,right,→,0.5185371999978088,True,35,1
162K27S2,624,experiment,87,←,left,←,0.6691366999875754,True,35,1
162K27S2,625,experiment,69,→,right,→,0.6346179000101984,True,35,1
162K27S2,626,experiment,61,↑,up,↑,0.3756681000231765,True,35,1
162K27S2,627,experiment,104,→,right,→,0.47472339996602386,True,35,0
162K27S2,628,experiment,71,→,right,→,0.48764519998803735,True,35,1
162K27S2,629,experiment,97,↑,up,↑,0.531212100002449,True,35,1
162K27S2,630,experiment,96,→,right,→,0.4856904000043869,True,35,1
162K27S2,631,experiment,55,←,left,←,0.5197173999622464,True,35,1
162K27S2,632,experiment,82,←,left,←,0.4341491999803111,True,35,1
162K27S2,633,experiment,57,←,left,←,0.4007652999716811,True,35,0
162K27S2,634,experiment,51,↑,up,↑,0.6011290999595076,True,35,0
162K27S2,635,experiment,98,↑,up,↑,0.35910090000834316,True,35,1
162K27S2,636,experiment,86,↑,no_key,no_letter,-1.0,False,35,0
162K27S2,637,experiment,62,↑,up,↑,0.3926763000199571,True,35,1
162K27S2,638,experiment,101,→,right,→,0.5191094999900088,True,35,0
162K27S2,639,experiment,85,←,left,←,0.3349039999884553,True,35,1
162K27S2,640,experiment,88,→,right,→,0.42578839999623597,True,35,0
162K27S2,641,experiment,64,↑,up,↑,0.5473662999575026,True,35,0
162K27S2,642,experiment,80,←,no_key,no_letter,-1.0,False,35,1
162K27S2,643,experiment,83,←,left,←,0.38483629998518154,True,35,1
162K27S2,644,experiment,72,↓,down,↓,0.6717042000382207,True,35,0
162K27S2,645,experiment,78,←,left,←,0.5623963000252843,True,35,1
162K27S2,646,experiment,91,↓,down,↓,0.4854764000046998,True,35,1
162K27S2,647,experiment,49,→,right,→,0.6012800000025891,True,35,1
162K27S2,648,experiment,106,→,left,←,0.41736419999506325,False,35,1
162K27S2,649,experiment,59,→,right,→,0.5287192999967374,True,35,0
162K27S2,650,experiment,67,↓,down,↓,0.4338325999560766,True,35,1
162K27S2,651,experiment,90,↑,up,↑,0.6050634999992326,True,35,0
162K27S2,652,experiment,99,↑,up,↑,0.4424301999970339,True,35,1
162K27S2,653,experiment,95,←,left,←,0.38404350000200793,True,35,0
162K27S2,654,experiment,79,←,left,←,0.3767340999911539,True,35,0
162K27S2,655,experiment,56,↓,down,↓,0.6611378000234254,True,35,0
162K27S2,656,experiment,77,→,right,→,0.6410825999919325,True,35,1
162K27S2,657,experiment,75,↓,down,↓,0.43410519999451935,True,35,1
162K27S2,658,experiment,54,↑,up,↑,0.4903537000063807,True,35,0
162K27S2,659,experiment,60,←,right,→,0.5381041999789886,False,35,1
162K27S2,660,experiment,65,←,left,←,0.35001870000269264,True,35,1
162K27S2,661,experiment,81,↓,down,↓,0.469890900014434,True,35,0
162K27S2,662,experiment,93,↓,down,↓,0.47527490003267303,True,35,1
162K27S2,663,experiment,89,→,right,→,0.6261272000265308,True,35,1
162K27S2,664,experiment,103,↓,down,↓,0.6304735000012442,True,35,1
162K27S2,665,experiment,53,←,left,←,0.4090229999856092,True,35,1
162K27S2,666,experiment,68,↑,up,↑,0.5716432000044733,True,35,0
162K27S2,667,experiment,52,↑,up,↑,0.48319509997963905,True,35,1
162K27S2,668,experiment,63,←,left,←,0.5626477000187151,True,35,1
162K27S2,669,experiment,105,→,no_key,no_letter,-1.0,False,35,1
162K27S2,670,experiment,76,←,left,←,0.4805705000180751,True,35,1
162K27S2,671,training,70,↑,up,↑,0.5542587000527419,True,35,0
162K27S2,672,training,87,→,right,→,0.5186172999674454,True,35,1
162K27S2,673,experiment,54,↑,up,↑,0.5996673000045121,True,35,1
162K27S2,674,experiment,96,↓,down,↓,0.5834065999952145,True,35,1
162K27S2,675,experiment,90,↓,down,↓,0.7457433000090532,True,35,1
162K27S2,676,experiment,100,↑,up,↑,0.6262274000328034,True,35,1
162K27S2,677,experiment,53,↓,down,↓,0.4265428999788128,True,35,1
162K27S2,678,experiment,98,↑,up,↑,1.0209405000205152,True,35,0
162K27S2,679,experiment,62,←,left,←,0.3505800000275485,True,35,1
162K27S2,680,experiment,103,←,right,→,0.3675041999667883,False,35,0
162K27S2,681,experiment,58,↓,down,↓,0.6595222000032663,True,35,0
162K27S2,682,experiment,67,→,right,→,0.594562699960079,True,35,1
162K27S2,683,experiment,51,←,left,←,0.6658027000376023,True,35,1
162K27S2,684,experiment,50,↑,up,↑,0.39207830000668764,True,35,1
162K27S2,685,experiment,92,←,left,←,0.6151621999451891,True,35,0
162K27S2,686,experiment,107,→,right,→,0.5784694999456406,True,35,1
162K27S2,687,experiment,68,→,right,→,0.5326185000012629,True,35,1
162K27S2,688,experiment,83,→,right,→,0.5394344999804161,True,35,1
162K27S2,689,experiment,93,↓,down,↓,0.5982964999857359,True,35,1
162K27S2,690,experiment,84,↓,down,↓,0.5061086000059731,True,35,1
162K27S2,691,experiment,101,↓,down,↓,0.41748679999727756,True,35,1
162K27S2,692,experiment,78,→,right,→,0.5765232999692671,True,35,0
162K27S2,693,experiment,87,↓,down,↓,0.6122192000038922,True,35,1
162K27S2,694,experiment,106,→,right,→,0.6562505000038072,True,35,1
162K27S2,695,experiment,91,↓,down,↓,0.5353860000032,True,35,1
162K27S2,696,experiment,82,→,down,↓,0.5903153999825008,False,35,1
162K27S2,697,experiment,89,↑,up,↑,0.5767654000082985,True,35,1
162K27S2,698,experiment,48,→,right,→,0.5535539999837056,True,35,1
162K27S2,699,experiment,77,↓,down,↓,0.5375192000064999,True,35,1
162K27S2,700,experiment,65,↑,up,↑,0.6539984000264667,True,35,1
162K27S2,701,experiment,61,↓,down,↓,0.43400250002741814,True,35,1
162K27S2,702,experiment,85,→,right,→,0.5531836000154726,True,35,0
162K27S2,703,experiment,81,↑,up,↑,0.41667050000978634,True,35,1
162K27S2,704,experiment,76,↓,up,↑,0.5972560999798588,False,35,0
162K27S2,705,experiment,63,→,right,→,0.40911880001658574,True,35,1
162K27S2,706,experiment,95,↓,down,↓,0.5994403000222519,True,35,0
162K27S2,707,experiment,60,→,right,→,0.49914289999287575,True,35,1
162K27S2,708,experiment,57,→,no_key,no_letter,-1.0,False,35,1
162K27S2,709,experiment,79,↓,down,↓,0.45954559999518096,True,35,1
162K27S2,710,experiment,75,→,right,→,0.49482399999396876,True,35,0
162K27S2,711,experiment,86,→,right,→,0.400649799965322,True,35,1
162K27S2,712,experiment,74,↑,up,↑,0.43409840000094846,True,35,0
162K27S2,713,experiment,55,↓,down,↓,0.4020118999760598,True,35,0
162K27S2,714,experiment,97,↓,down,↓,0.5835512999910861,True,35,0
162K27S2,715,experiment,71,←,left,←,0.6722844999749213,True,35,1
162K27S2,716,experiment,70,↓,down,↓,0.40067060000728816,True,35,1
162K27S2,717,experiment,49,→,right,→,0.4773337000515312,True,35,0
162K27S2,718,experiment,80,↑,up,↑,0.40066580002894625,True,35,1
162K27S2,719,experiment,56,↓,down,↓,0.6193307999637909,True,35,0
162K27S2,720,experiment,104,↑,up,↑,0.7116998000419699,True,35,1
162K27S2,721,experiment,52,↑,up,↑,0.5137289999984205,True,35,1
162K27S2,722,experiment,73,→,no_key,no_letter,-1.0,False,35,1
162K27S2,723,experiment,72,↓,no_key,no_letter,-1.0,False,35,1
162K27S2,724,experiment,59,↓,down,↓,0.7312160000437871,True,35,1
162K27S2,725,experiment,88,↓,down,↓,0.5764209000044502,True,35,1
162K27S2,726,experiment,108,→,right,→,0.5650031000259332,True,35,1
162K27S2,727,experiment,66,↑,up,↑,0.6400770000182092,True,35,1
162K27S2,728,experiment,64,←,left,←,0.5928818000247702,True,35,1
162K27S2,729,experiment,99,↑,down,↓,0.9037717999890447,False,35,1
162K27S2,730,experiment,94,↑,up,↑,0.4843865999719128,True,35,1
162K27S2,731,experiment,69,↓,down,↓,0.49750669999048114,True,35,1
162K27S2,732,experiment,102,↑,up,↑,0.40906059998087585,True,35,1
162K27S2,733,experiment,105,←,left,←,0.5913282000110485,True,35,0
162K27S2,734,training,66,↓,down,↓,0.5998474999796599,True,35,0
162K27S2,735,training,58,↓,down,↓,0.5081088999868371,True,35,1
162K27S2,736,experiment,108,←,left,←,0.4681673999875784,True,35,1
162K27S2,737,experiment,72,↑,up,↑,0.40164310002001,True,35,1
162K27S2,738,experiment,53,↓,down,↓,0.47803729999577627,True,35,0
162K27S2,739,experiment,80,→,right,→,0.6554319999995641,True,35,1
162K27S2,740,experiment,75,←,left,←,0.6038295000325888,True,35,1
162K27S2,741,experiment,66,←,left,←,0.7097210999927483,True,35,1
162K27S2,742,experiment,48,←,left,←,0.3924540999578312,True,35,1
162K27S2,743,experiment,67,→,right,→,0.6425052999984473,True,35,0
162K27S2,744,experiment,96,←,left,←,0.34242850000737235,True,35,1
162K27S2,745,experiment,105,←,left,←,0.5672121000243351,True,35,0
162K27S2,746,experiment,87,→,right,→,0.5234812999842688,True,35,1
162K27S2,747,experiment,68,←,no_key,no_letter,-1.0,False,35,1
162K27S2,748,experiment,50,↑,up,↑,0.6000294999685138,True,35,1
162K27S2,749,experiment,82,→,right,→,0.6922761999885552,True,35,1
162K27S2,750,experiment,52,↓,down,↓,0.6551213999628089,True,35,1
162K27S2,751,experiment,49,→,right,→,0.4686754999565892,True,35,1
162K27S2,752,experiment,60,←,left,←,0.5170666999765672,True,35,1
162K27S2,753,experiment,54,→,right,→,0.4782052999944426,True,35,1
162K27S2,754,experiment,69,↑,up,↑,0.47536879999097437,True,35,1
162K27S2,755,experiment,70,←,no_key,no_letter,-1.0,False,35,1
162K27S2,756,experiment,51,→,right,→,0.5130252999952063,True,35,1
162K27S2,757,experiment,94,↑,up,↑,0.5647746000322513,True,35,1
162K27S2,758,experiment,71,→,right,→,0.5901556999888271,True,35,1
162K27S2,759,experiment,77,↑,up,↑,0.5646658000187017,True,35,1
162K27S2,760,experiment,58,↓,down,↓,0.43408709997311234,True,35,1
162K27S2,761,experiment,78,↑,no_key,no_letter,-1.0,False,35,0
162K27S2,762,experiment,63,↑,up,↑,0.43398799997521564,True,35,1
162K27S2,763,experiment,92,←,left,←,0.40055319998646155,True,35,0
162K27S2,764,experiment,88,↑,up,↑,0.6920762999798171,True,35,0
162K27S2,765,experiment,55,↓,down,↓,0.44237199996132404,True,35,1
162K27S2,766,experiment,81,←,no_key,no_letter,-1.0,False,35,0
162K27S2,767,experiment,89,↑,up,↑,0.5961196999996901,True,35,1
162K27S2,768,experiment,104,→,right,→,0.7212125999503769,True,35,1
162K27S2,769,experiment,97,↓,down,↓,0.4599406999768689,True,35,1
162K27S2,770,experiment,91,↓,down,↓,0.43477370002074167,True,35,0
162K27S2,771,experiment,90,→,right,→,0.44163810001919046,True,35,0
162K27S2,772,experiment,107,←,left,←,0.6120131000061519,True,35,0
162K27S2,773,experiment,83,↓,down,↓,0.7277313999948092,True,35,1
162K27S2,774,experiment,102,↓,down,↓,0.48856059997342527,True,35,1
162K27S2,775,experiment,59,↓,down,↓,0.4887684000423178,True,35,1
162K27S2,776,experiment,98,→,right,→,0.5241779999923892,True,35,1
162K27S2,777,experiment,76,↑,no_key,no_letter,-1.0,False,35,1
162K27S2,778,experiment,74,→,right,→,0.42582930001663044,True,35,1
162K27S2,779,experiment,65,↑,no_key,no_letter,-1.0,False,35,0
162K27S2,780,experiment,79,↑,up,↑,0.5577684000018053,True,35,1
162K27S2,781,experiment,85,↓,down,↓,0.4173991000279784,True,35,1
162K27S2,782,experiment,62,↓,down,↓,0.5889527999679558,True,35,0
162K27S2,783,experiment,93,↓,down,↓,0.5740115999942645,True,35,1
162K27S2,784,experiment,86,↑,down,↓,0.46639700001105666,False,35,1
162K27S2,785,experiment,106,↑,up,↑,0.6117339999764226,True,35,1
162K27S2,786,experiment,84,←,left,←,0.42546679999213666,True,35,1
162K27S2,787,experiment,99,←,left,←,0.5164541000267491,True,35,0
162K27S2,788,experiment,73,↓,down,↓,0.4795334000373259,True,35,1
162K27S2,789,experiment,103,→,no_key,no_letter,-1.0,False,35,1
162K27S2,790,experiment,64,←,no_key,no_letter,-1.0,False,35,1
162K27S2,791,experiment,56,←,left,←,0.3506150000030175,True,35,1
162K27S2,792,experiment,101,↑,no_key,no_letter,-1.0,False,35,0
162K27S2,793,experiment,95,↓,no_key,no_letter,-1.0,False,35,1
162K27S2,794,experiment,61,↓,down,↓,0.43491259997244924,True,35,1
162K27S2,795,experiment,100,↑,down,↓,0.8541765999980271,False,35,0
162K27S2,796,experiment,57,←,left,←,0.49696830002358183,True,35,1
162K27S2,797,training,52,↑,up,↑,0.4005720000131987,True,35,0
162K27S2,798,training,98,↓,down,↓,0.620488699991256,True,35,0
162K27S2,799,experiment,53,↓,down,↓,0.4899435000261292,True,35,1
162K27S2,800,experiment,61,→,right,→,0.6016192000242881,True,35,1
162K27S2,801,experiment,70,→,right,→,0.4173727000015788,True,35,1
162K27S2,802,experiment,85,↑,up,↑,0.3840427999966778,True,35,0
162K27S2,803,experiment,97,→,right,→,0.4340379000059329,True,35,0
162K27S2,804,experiment,93,→,no_key,no_letter,-1.0,False,35,0
162K27S2,805,experiment,55,↑,up,↑,0.5221342999720946,True,35,1
162K27S2,806,experiment,72,↓,down,↓,0.5409786999807693,True,35,1
162K27S2,807,experiment,77,←,left,←,0.5812467999639921,True,35,1
162K27S2,808,experiment,69,←,left,←,0.40055839996784925,True,35,1
162K27S2,809,experiment,62,↓,down,↓,0.5775783999706618,True,35,0
162K27S2,810,experiment,57,→,left,←,0.42586720001418144,False,35,1
162K27S2,811,experiment,100,→,right,→,0.3673621999914758,True,35,0
162K27S2,812,experiment,65,→,right,→,0.5194039000198245,True,35,0
162K27S2,813,experiment,49,↑,up,↑,0.4823876000009477,True,35,1
162K27S2,814,experiment,98,→,left,←,0.693793700018432,False,35,1
162K27S2,815,experiment,94,→,right,→,0.5786809999844991,True,35,1
162K27S2,816,experiment,103,→,right,→,0.6088513999711722,True,35,1
162K27S2,817,experiment,80,↓,down,↓,0.5896772000123747,True,35,1
162K27S2,818,experiment,83,→,right,→,0.4900804999633692,True,35,1
162K27S2,819,experiment,101,←,right,→,0.46093789994483814,False,35,1
162K27S2,820,experiment,68,→,right,→,0.5069747000234202,True,35,0
162K27S2,821,experiment,64,→,right,→,0.465721599990502,True,35,1
162K27S2,822,experiment,89,↑,up,↑,0.5279339000117034,True,35,1
162K27S2,823,experiment,76,↑,up,↑,0.5215762000298128,True,35,1
162K27S2,824,experiment,108,→,right,→,0.6000515999621712,True,35,1
162K27S2,825,experiment,104,↑,no_key,no_letter,-1.0,False,35,1
162K27S2,826,experiment,78,←,left,←,0.6283021000563167,True,35,1
162K27S2,827,experiment,54,←,left,←,0.5210396000184119,True,35,1
162K27S2,828,experiment,92,↑,up,↑,0.6131339000421576,True,35,1
162K27S2,829,experiment,48,↑,up,↑,0.524537599994801,True,35,1
162K27S2,830,experiment,75,←,left,←,0.5424201000132598,True,35,1
162K27S2,831,experiment,107,→,left,←,0.6527821999625303,False,35,1
162K27S2,832,experiment,95,↑,up,↑,0.5547548999893479,True,35,1
162K27S2,833,experiment,51,←,left,←,0.5391041999682784,True,35,1
162K27S2,834,experiment,90,↓,no_key,no_letter,-1.0,False,35,1
162K27S2,835,experiment,87,↓,down,↓,0.4679343000170775,True,35,1
162K27S2,836,experiment,82,→,right,→,0.48475290002534166,True,35,1
162K27S2,837,experiment,105,↓,down,↓,0.5341689999913797,True,35,1
162K27S2,838,experiment,63,↓,down,↓,0.48367220000363886,True,35,1
162K27S2,839,experiment,91,↑,up,↑,0.4173539999756031,True,35,1
162K27S2,840,experiment,73,←,left,←,0.5120949999545701,True,35,0
162K27S2,841,experiment,84,←,left,←,0.4639617999782786,True,35,1
162K27S2,842,experiment,60,↓,down,↓,0.656566500023473,True,35,1
162K27S2,843,experiment,50,→,right,→,0.5091684999642894,True,35,1
162K27S2,844,experiment,79,←,left,←,0.7023198999813758,True,35,1
162K27S2,845,experiment,86,←,right,→,0.5413983999751508,False,35,1
162K27S2,846,experiment,66,↓,down,↓,0.6176566000212915,True,35,1
162K27S2,847,experiment,74,←,left,←,0.39269020000938326,True,35,1
162K27S2,848,experiment,56,→,right,→,0.40838759997859597,True,35,0
162K27S2,849,experiment,58,→,left,←,0.3923668999923393,False,35,0
162K27S2,850,experiment,81,→,right,→,0.5734644000185654,True,35,0
162K27S2,851,experiment,88,→,right,→,0.49689449998550117,True,35,1
162K27S2,852,experiment,59,→,right,→,0.5449468000442721,True,35,1
162K27S2,853,experiment,67,←,left,←,0.5887173999799415,True,35,1
162K27S2,854,experiment,52,←,left,←,0.4257707999786362,True,35,1
162K27S2,855,experiment,99,↑,down,↓,0.7928295999881811,False,35,0
162K27S2,856,experiment,96,→,right,→,0.7688716999837197,True,35,1
162K27S2,857,experiment,71,→,right,→,0.594305099977646,True,35,1
162K27S2,858,experiment,102,↓,down,↓,0.5763340000412427,True,35,1
162K27S2,859,experiment,106,↑,up,↑,0.5417038999730721,True,35,1
162K27S2,860,training,100,→,right,→,0.5182159999967553,True,35,0
162K27S2,861,training,63,↑,up,↑,0.375683999969624,True,35,1
162K27S2,862,experiment,95,→,right,→,0.5251040000002831,True,35,0
162K27S2,863,experiment,68,↑,up,↑,0.5451773999957368,True,35,1
162K27S2,864,experiment,102,↓,down,↓,0.43402360001346096,True,35,1
162K27S2,865,experiment,63,↓,down,↓,0.57031509996159,True,35,0
162K27S2,866,experiment,89,→,right,→,0.5095561999478377,True,35,1
162K27S2,867,experiment,83,←,left,←,0.3348302000085823,True,35,1
162K27S2,868,experiment,78,↑,up,↑,0.7011586999869905,True,35,0
162K27S2,869,experiment,88,↓,down,↓,0.36760270001832396,True,35,1
162K27S2,870,experiment,60,↓,down,↓,0.7762839000206441,True,35,0
162K27S2,871,experiment,94,→,right,→,0.6737941000028513,True,35,1
162K27S2,872,experiment,80,→,right,→,0.4917767999577336,True,35,1
162K27S2,873,experiment,52,→,right,→,0.4630098000052385,True,35,1
162K27S2,874,experiment,58,↑,up,↑,0.656228200008627,True,35,1
162K27S2,875,experiment,99,↓,down,↓,0.6606813999824226,True,35,1
162K27S2,876,experiment,79,→,right,→,0.441659800009802,True,35,1
162K27S2,877,experiment,107,←,left,←,0.5937262999941595,True,35,0
162K27S2,878,experiment,108,→,no_key,no_letter,-1.0,False,35,1
162K27S2,879,experiment,100,←,left,←,0.9896794999949634,True,35,1
162K27S2,880,experiment,96,↓,down,↓,0.6137422000174411,True,35,1
162K27S2,881,experiment,76,←,no_key,no_letter,-1.0,False,35,1
162K27S2,882,experiment,51,↓,down,↓,0.7075718000414781,True,35,1
162K27S2,883,experiment,77,↑,up,↑,0.43341649998910725,True,35,1
162K27S2,884,experiment,92,←,left,←,0.4339602999971248,True,35,0
162K27S2,885,experiment,49,→,right,→,0.49862189998384565,True,35,0
162K27S2,886,experiment,48,→,right,→,0.6382978999754414,True,35,1
162K27S2,887,experiment,73,→,no_key,no_letter,-1.0,False,35,1
162K27S2,888,experiment,85,←,left,←,0.40906079998239875,True,35,1
162K27S2,889,experiment,101,→,right,→,0.40046180004719645,True,35,0
162K27S2,890,experiment,90,↑,up,↑,0.599902399990242,True,35,0
162K27S2,891,experiment,67,←,left,←,0.40055930003290996,True,35,1
162K27S2,892,experiment,86,↑,up,↑,0.5240830999682657,True,35,0
162K27S2,893,experiment,72,→,right,→,0.44237750000320375,True,35,1
162K27S2,894,experiment,54,↑,up,↑,0.514450200018473,True,35,0
162K27S2,895,experiment,69,←,left,←,0.6066425000317395,True,35,1
162K27S2,896,experiment,64,↓,down,↓,0.417589099961333,True,35,1
162K27S2,897,experiment,65,→,right,→,0.5860590999945998,True,35,0
162K27S2,898,experiment,97,↑,up,↑,0.4349002999952063,True,35,1
162K27S2,899,experiment,55,←,left,←,0.5572918999823742,True,35,0
162K27S2,900,experiment,105,↓,down,↓,0.6036047000088729,True,35,1
162K27S2,901,experiment,57,↓,down,↓,0.5043072000262327,True,35,1
162K27S2,902,experiment,98,↑,up,↑,0.6190708999638446,True,35,1
162K27S2,903,experiment,62,↓,down,↓,0.4700636000488885,True,35,1
162K27S2,904,experiment,61,↑,down,↓,0.8859571000211872,False,35,1
162K27S2,905,experiment,74,↓,down,↓,0.6175838999915868,True,35,1
162K27S2,906,experiment,84,←,left,←,0.41746389999752864,True,35,1
162K27S2,907,experiment,66,→,right,→,0.557587799965404,True,35,0
162K27S2,908,experiment,81,→,right,→,0.5157880000188015,True,35,1
162K27S2,909,experiment,91,←,left,←,0.576593000034336,True,35,1
162K27S2,910,experiment,103,↑,up,↑,0.5429061999893747,True,35,1
162K27S2,911,experiment,87,↑,up,↑,0.4605500999605283,True,35,1
162K27S2,912,experiment,56,↑,up,↑,0.4174370999680832,True,35,0
162K27S2,913,experiment,82,↑,up,↑,0.4264953000238165,True,35,0
162K27S2,914,experiment,59,↑,up,↑,0.5722552000079304,True,35,0
162K27S2,915,experiment,71,→,right,→,0.5493521000025794,True,35,1
162K27S2,916,experiment,50,←,left,←,0.6384376999922097,True,35,1
162K27S2,917,experiment,53,↑,up,↑,0.46751919999951497,True,35,1
162K27S2,918,experiment,70,↑,up,↑,0.5525998999946751,True,35,1
162K27S2,919,experiment,106,←,left,←,0.5670029000029899,True,35,1
162K27S2,920,experiment,93,←,left,←,0.6090324000106193,True,35,1
162K27S2,921,experiment,75,←,left,←,0.38433560001431033,True,35,1
162K27S2,922,experiment,104,←,left,←,0.40062879998004064,True,35,0
162K27S2,923,training,62,↑,up,↑,0.4600655999965966,True,34,0
162K27S2,924,training,78,→,up,↑,0.45499900000868365,False,34,1
162K27S2,925,experiment,84,→,no_key,no_letter,-1.0,False,34,0
162K27S2,926,experiment,106,→,right,→,0.6540233999839984,True,34,1
162K27S2,927,experiment,55,←,left,←,0.4182942999759689,True,34,1
162K27S2,928,experiment,86,↓,down,↓,0.4340339999762364,True,34,0
162K27S2,929,experiment,103,↑,up,↑,0.40939390001585707,True,34,0
162K27S2,930,experiment,77,↓,down,↓,0.6839580999803729,True,34,0
162K27S2,931,experiment,51,→,right,→,0.4873566000023857,True,34,1
162K27S2,932,experiment,71,←,left,←,0.3840537000214681,True,34,1
162K27S2,933,experiment,85,↓,down,↓,0.4561239000177011,True,34,0
162K27S2,934,experiment,102,←,right,→,0.4171319999732077,False,34,1
162K27S2,935,experiment,107,←,left,←,0.5018633000436239,True,34,0
162K27S2,936,experiment,91,←,left,←,0.3582892999984324,True,34,1
162K27S2,937,experiment,81,↑,up,↑,0.49739059997955337,True,34,0
162K27S2,938,experiment,58,↓,down,↓,0.5858340000268072,True,34,1
162K27S2,939,experiment,49,↑,up,↑,0.4258034999947995,True,34,1
162K27S2,940,experiment,76,←,left,←,0.479096400027629,True,34,0
162K27S2,941,experiment,101,←,left,←,0.4980850000283681,True,34,1
162K27S2,942,experiment,94,→,right,→,0.48660190001828596,True,34,1
162K27S2,943,experiment,74,←,left,←,0.3591366999899037,True,34,1
162K27S2,944,experiment,61,↑,up,↑,0.48697160003939644,True,34,0
162K27S2,945,experiment,99,↑,up,↑,0.554489400004968,True,34,1
162K27S2,946,experiment,53,↓,down,↓,0.47441289998823777,True,34,1
162K27S2,947,experiment,48,←,left,←,0.6551482999930158,True,34,1
162K27S2,948,experiment,52,→,right,→,0.42573680001078174,True,34,1
162K27S2,949,experiment,75,↑,up,↑,0.49639280000701547,True,34,0
162K27S2,950,experiment,87,↓,down,↓,0.6312031999696046,True,34,1
162K27S2,951,experiment,93,→,no_key,no_letter,-1.0,False,34,1
162K27S2,952,experiment,90,→,left,←,0.5220683999941684,False,34,1
162K27S2,953,experiment,98,↑,up,↑,0.38378289999673143,True,34,1
162K27S2,954,experiment,92,↓,down,↓,0.4856774999643676,True,34,0
162K27S2,955,experiment,82,←,left,←,0.3596770000294782,True,34,1
162K27S2,956,experiment,60,→,right,→,0.4684369000024162,True,34,0
162K27S2,957,experiment,72,←,left,←,0.6644740999909118,True,34,1
162K27S2,958,experiment,63,↑,up,↑,0.4650069000199437,True,34,1
162K27S2,959,experiment,68,←,left,←,0.37580120004713535,True,34,1
162K27S2,960,experiment,67,→,right,→,0.45761250000214204,True,34,0
162K27S2,961,experiment,79,↓,down,↓,0.7161728999926709,True,34,1
162K27S2,962,experiment,97,↓,down,↓,0.7267391000059433,True,34,1
162K27S2,963,experiment,56,→,right,→,0.5189773000311106,True,34,1
162K27S2,964,experiment,62,←,left,←,0.334110600000713,True,34,1
162K27S2,965,experiment,64,↑,up,↑,0.433767499984242,True,34,0
162K27S2,966,experiment,66,→,right,→,0.41735820000758395,True,34,0
162K27S2,967,experiment,73,←,left,←,0.3674100000062026,True,34,0
162K27S2,968,experiment,54,↓,no_key,no_letter,-1.0,False,34,0
162K27S2,969,experiment,78,←,left,←,0.3515890999697149,True,34,1
162K27S2,970,experiment,88,←,left,←,0.3674407000071369,True,34,0
162K27S2,971,experiment,80,↓,down,↓,0.5527536000008695,True,34,0
162K27S2,972,experiment,105,↓,down,↓,0.6075150000397116,True,34,1
162K27S2,973,experiment,69,↑,up,↑,0.4878580999793485,True,34,1
162K27S2,974,experiment,96,↓,down,↓,0.6199057000339963,True,34,1
162K27S2,975,experiment,57,→,right,→,0.43374850001418963,True,34,1
162K27S2,976,experiment,50,←,left,←,0.4173869999940507,True,34,0
162K27S2,977,experiment,89,←,left,←,0.5825042999931611,True,34,0
162K27S2,978,experiment,83,↓,down,↓,0.5153109999955632,True,34,1
162K27S2,979,experiment,95,→,right,→,0.41734149999683723,True,34,1
162K27S2,980,experiment,104,←,left,←,0.5467862000223249,True,34,0
162K27S2,981,experiment,59,→,right,→,0.4729736000299454,True,34,1
162K27S2,982,experiment,65,↑,no_key,no_letter,-1.0,False,34,1
162K27S2,983,experiment,100,↓,down,↓,0.623969100008253,True,34,1
162K27S2,984,experiment,108,↑,up,↑,0.610663800034672,True,34,1
162K27S2,985,experiment,70,→,right,→,0.4829901000484824,True,34,1
162K27S2,986,training,56,↑,up,↑,0.5494877999881282,True,33,0
162K27S2,987,training,89,↑,up,↑,0.4578620999818668,True,33,1
162K27S2,988,experiment,94,←,up,↑,0.7917224999982864,False,33,1
162K27S2,989,experiment,65,↑,up,↑,0.5619998999754898,True,33,1
162K27S2,990,experiment,106,↓,down,↓,0.5119733000174165,True,33,1
162K27S2,991,experiment,81,↑,up,↑,0.5125111999805085,True,33,1
162K27S2,992,experiment,76,↓,no_key,no_letter,-1.0,False,33,1
162K27S2,993,experiment,88,←,right,→,1.2706624999991618,False,33,1
162K27S2,994,experiment,93,←,left,←,0.3838584999903105,True,33,1
162K27S2,995,experiment,52,↓,down,↓,0.6273422000231221,True,33,0
162K27S2,996,experiment,62,←,left,←,0.34211960004176944,True,33,1
162K27S2,997,experiment,50,↓,no_key,no_letter,-1.0,False,33,0
162K27S2,998,experiment,98,↓,down,↓,0.5438146999804303,True,33,1
162K27S2,999,experiment,69,→,right,→,0.5548038000124507,True,33,1
162K27S2,1000,experiment,91,←,left,←,0.6299334999639541,True,33,1
162K27S2,1001,experiment,89,→,right,→,0.6067194999777712,True,33,1
162K27S2,1002,experiment,102,←,left,←,0.6439476999803446,True,33,1
162K27S2,1003,experiment,73,↓,down,↓,0.46610590000636876,True,33,1
162K27S2,1004,experiment,60,↑,up,↑,0.4007306999992579,True,33,1
162K27S2,1005,experiment,79,←,left,←,0.6318991999723949,True,33,0
162K27S2,1006,experiment,66,↓,down,↓,0.6083416999899782,True,33,1
162K27S2,1007,experiment,67,→,left,←,0.3258636000100523,False,33,1
162K27S2,1008,experiment,57,←,left,←,0.47287419997155666,True,33,0
162K27S2,1009,experiment,107,←,left,←,0.6497810000437312,True,33,1
162K27S2,1010,experiment,103,↓,left,←,0.5811900999979116,False,33,1
162K27S2,1011,experiment,90,↓,down,↓,0.4795779000269249,True,33,1
162K27S2,1012,experiment,53,←,left,←,0.4983824999653734,True,33,1
162K27S2,1013,experiment,75,←,left,←,0.4173684000270441,True,33,1
162K27S2,1014,experiment,105,←,left,←,0.4097270999918692,True,33,0
162K27S2,1015,experiment,51,↓,down,↓,0.45492859999649227,True,33,0
162K27S2,1016,experiment,83,↓,down,↓,0.584255000052508,True,33,1
162K27S2,1017,experiment,85,→,left,←,0.32580210000742227,False,33,1
162K27S2,1018,experiment,68,↑,up,↑,0.6961721000261605,True,33,0
162K27S2,1019,experiment,71,↑,up,↑,0.6925097000203095,True,33,1
162K27S2,1020,experiment,99,←,left,←,0.37662100000306964,True,33,1
162K27S2,1021,experiment,58,↑,up,↑,0.46074120001867414,True,33,0
162K27S2,1022,experiment,70,↓,down,↓,0.4598464999580756,True,33,1
162K27S2,1023,experiment,87,↑,up,↑,0.754421999969054,True,33,1
162K27S2,1024,experiment,59,←,left,←,0.6162366999778897,True,33,1
162K27S2,1025,experiment,97,→,right,→,0.37560470000607893,True,33,1
162K27S2,1026,experiment,72,←,left,←,0.6633200999931432,True,33,0
162K27S2,1027,experiment,64,↓,down,↓,0.5271210999926552,True,33,1
162K27S2,1028,experiment,49,→,right,→,0.4974625000031665,True,33,1
162K27S2,1029,experiment,54,↑,up,↑,0.4675607999670319,True,33,1
162K27S2,1030,experiment,104,→,right,→,0.4936378999846056,True,33,1
162K27S2,1031,experiment,96,↓,down,↓,0.5696733999648131,True,33,1
162K27S2,1032,experiment,80,↑,up,↑,0.6800710000097752,True,33,1
162K27S2,1033,experiment,108,↑,up,↑,0.5764119999948889,True,33,1
162K27S2,1034,experiment,78,↑,up,↑,0.5592356999986805,True,33,1
162K27S2,1035,experiment,74,↓,down,↓,0.6641159999999218,True,33,1
162K27S2,1036,experiment,101,↓,down,↓,0.5952983999741264,True,33,1
162K27S2,1037,experiment,95,↑,down,↓,0.5319147999980487,False,33,1
162K27S2,1038,experiment,77,→,right,→,0.5005153999663889,True,33,1
162K27S2,1039,experiment,84,→,right,→,0.48411389999091625,True,33,1
162K27S2,1040,experiment,82,↑,up,↑,0.49313449999317527,True,33,1
162K27S2,1041,experiment,63,↓,down,↓,0.6042943999636918,True,33,1
162K27S2,1042,experiment,48,↓,down,↓,0.5800591000006534,True,33,1
162K27S2,1043,experiment,100,↑,up,↑,0.4174042000086047,True,33,1
162K27S2,1044,experiment,55,↑,down,↓,0.6234699999913573,False,33,0
162K27S2,1045,experiment,86,↑,no_key,no_letter,-1.0,False,33,1
162K27S2,1046,experiment,61,←,left,←,0.3842607999686152,True,33,1
162K27S2,1047,experiment,56,←,left,←,0.5245279000373557,True,33,0
162K27S2,1048,experiment,92,↑,up,↑,0.6086587000172585,True,33,1
162K27S2,1049,training,53,↓,down,↓,0.7388662999728695,True,33,0
162K27S2,1050,training,53,↑,down,↓,0.5393578999792226,False,33,1
162K27S2,1051,experiment,64,←,left,←,0.5999542999779806,True,33,1
162K27S2,1052,experiment,93,↑,up,↑,0.3932290999800898,True,33,1
162K27S2,1053,experiment,108,←,left,←,0.564098600007128,True,33,0
162K27S2,1054,experiment,81,←,left,←,0.3257458000443876,True,33,1
162K27S2,1055,experiment,107,→,right,→,0.44946480001090094,True,33,0
162K27S2,1056,experiment,80,←,left,←,0.49991110002156347,True,33,1
162K27S2,1057,experiment,59,←,left,←,0.42576690000714734,True,33,1
162K27S2,1058,experiment,97,↑,up,↑,0.3506887999828905,True,33,0
162K27S2,1059,experiment,78,↓,down,↓,0.6094911999534816,True,33,0
162K27S2,1060,experiment,99,←,left,←,0.46403380000265315,True,33,1
162K27S2,1061,experiment,53,←,left,←,0.3589716000133194,True,33,1
162K27S2,1062,experiment,94,↑,up,↑,0.4007088000071235,True,33,0
162K27S2,1063,experiment,63,←,left,←,0.367370399995707,True,33,0
162K27S2,1064,experiment,73,←,left,←,0.3931906999787316,True,33,0
162K27S2,1065,experiment,95,←,left,←,0.3924900999991223,True,33,0
162K27S2,1066,experiment,62,↓,down,↓,0.5388806000119075,True,33,0
162K27S2,1067,experiment,58,→,right,→,0.489583800022956,True,33,1
162K27S2,1068,experiment,50,↑,up,↑,0.6451434000045992,True,33,1
162K27S2,1069,experiment,52,→,right,→,0.47393630002625287,True,33,1
162K27S2,1070,experiment,67,↑,up,↑,0.5601623999536969,True,33,1
162K27S2,1071,experiment,51,↑,up,↑,0.5525640000123531,True,33,1
162K27S2,1072,experiment,82,↑,up,↑,0.7350635000038892,True,33,1
162K27S2,1073,experiment,77,↓,no_key,no_letter,-1.0,False,33,1
162K27S2,1074,experiment,71,↑,up,↑,0.4979837000137195,True,33,1
162K27S2,1075,experiment,79,→,right,→,0.6673282000119798,True,33,1
162K27S2,1076,experiment,74,↑,up,↑,0.551633299968671,True,33,1
162K27S2,1077,experiment,91,←,left,←,0.3589953999617137,True,33,1
162K27S2,1078,experiment,48,↓,down,↓,0.4528289000154473,True,33,0
162K27S2,1079,experiment,88,↓,down,↓,0.4607512999791652,True,33,1
162K27S2,1080,experiment,101,→,right,→,0.5843247000011615,True,33,1
162K27S2,1081,experiment,90,←,left,←,0.35079930000938475,True,33,1
162K27S2,1082,experiment,72,→,left,←,0.39240529999369755,False,33,0
162K27S2,1083,experiment,70,←,left,←,0.35050020000198856,True,33,0
162K27S2,1084,experiment,84,↓,right,→,0.3921621000044979,False,33,0
162K27S2,1085,experiment,106,→,right,→,0.4863302999874577,True,33,0
162K27S2,1086,experiment,61,↑,down,↓,0.8064326000167057,False,33,1
162K27S2,1087,experiment,56,↓,down,↓,0.45166510000126436,True,33,1
162K27S2,1088,experiment,69,↓,no_key,no_letter,-1.0,False,33,1
162K27S2,1089,experiment,85,←,left,←,0.3848018999560736,True,33,1
162K27S2,1090,experiment,60,↑,up,↑,0.4832569000427611,True,33,0
162K27S2,1091,experiment,49,←,left,←,0.5514371000463143,True,33,1
162K27S2,1092,experiment,83,→,left,←,0.4933828000212088,False,33,1
162K27S2,1093,experiment,65,←,right,→,0.4601411000476219,False,33,1
162K27S2,1094,experiment,96,←,no_key,no_letter,-1.0,False,33,1
162K27S2,1095,experiment,66,←,left,←,0.533220799989067,True,33,1
162K27S2,1096,experiment,103,↓,down,↓,0.39237120002508163,True,33,1
162K27S2,1097,experiment,100,←,left,←,0.5554844999569468,True,33,0
162K27S2,1098,experiment,104,→,right,→,0.6902145000058226,True,33,1
162K27S2,1099,experiment,98,↑,up,↑,0.7015781999798492,True,33,1
162K27S2,1100,experiment,54,↓,down,↓,0.463583100005053,True,33,1
162K27S2,1101,experiment,89,←,left,←,0.3504931000061333,True,33,1
162K27S2,1102,experiment,102,←,right,→,0.4863065000390634,False,33,0
162K27S2,1103,experiment,76,↑,up,↑,0.6971838000463322,True,33,1
162K27S2,1104,experiment,87,↑,down,↓,0.46408209996297956,False,33,1
162K27S2,1105,experiment,57,→,right,→,0.6420572999631986,True,33,1
162K27S2,1106,experiment,75,↓,down,↓,0.4792748000472784,True,33,1
162K27S2,1107,experiment,86,↑,up,↑,0.47088040004018694,True,33,1
162K27S2,1108,experiment,55,↓,down,↓,0.4494421999552287,True,33,1
162K27S2,1109,experiment,105,→,right,→,0.40879640000639483,True,33,0
162K27S2,1110,experiment,68,→,right,→,0.4684337000362575,True,33,0
162K27S2,1111,experiment,92,←,no_key,no_letter,-1.0,False,33,1
162K27S2,1112,training,63,↓,down,↓,0.7019891999661922,True,33,0
162K27S2,1113,training,104,←,left,←,0.3839915999560617,True,33,1
162K27S2,1114,experiment,87,↓,down,↓,0.5780247999937274,True,33,0
162K27S2,1115,experiment,86,↑,up,↑,0.3590015000081621,True,33,1
162K27S2,1116,experiment,97,↓,down,↓,0.425807400024496,True,33,0
162K27S2,1117,experiment,79,↑,up,↑,0.38413399999262765,True,33,0
162K27S2,1118,experiment,74,↓,no_key,no_letter,-1.0,False,33,0
162K27S2,1119,experiment,85,→,right,→,0.6239672000519931,True,33,1
162K27S2,1120,experiment,56,↓,down,↓,0.53994780004723,True,33,1
162K27S2,1121,experiment,66,↑,down,↓,0.5279983999789692,False,33,1
162K27S2,1122,experiment,68,↑,up,↑,0.5641178999794647,True,33,1
162K27S2,1123,experiment,55,→,right,→,0.5468332999735139,True,33,1
162K27S2,1124,experiment,94,↑,no_key,no_letter,-1.0,False,33,1
162K27S2,1125,experiment,82,↓,down,↓,0.5158343999646604,True,33,1
162K27S2,1126,experiment,69,↓,down,↓,0.4484645999618806,True,33,1
162K27S2,1127,experiment,58,↓,down,↓,0.4745419999817386,True,33,0
162K27S2,1128,experiment,91,↑,up,↑,0.6088817000272684,True,33,1
162K27S2,1129,experiment,92,↑,up,↑,0.44989749998785555,True,33,1
162K27S2,1130,experiment,107,→,right,→,0.40918999997666106,True,33,1
162K27S2,1131,experiment,75,→,right,→,0.5054948999895714,True,33,0
162K27S2,1132,experiment,60,↑,up,↑,0.4018549000029452,True,33,1
162K27S2,1133,experiment,65,↑,up,↑,0.3673642000067048,True,33,0
162K27S2,1134,experiment,59,←,left,←,0.3842999000335112,True,33,0
162K27S2,1135,experiment,108,←,no_key,no_letter,-1.0,False,33,0
162K27S2,1136,experiment,72,↓,down,↓,0.5974661000072956,True,33,1
162K27S2,1137,experiment,48,→,no_key,no_letter,-1.0,False,33,1
162K27S2,1138,experiment,99,↑,no_key,no_letter,-1.0,False,33,1
162K27S2,1139,experiment,67,↑,up,↑,0.5135466000065207,True,33,1
162K27S2,1140,experiment,105,←,no_key,no_letter,-1.0,False,33,1
162K27S2,1141,experiment,76,←,right,→,0.450933400017675,False,33,1
162K27S2,1142,experiment,57,←,left,←,0.3756639999919571,True,33,1
162K27S2,1143,experiment,71,←,left,←,0.4007001999998465,True,33,0
162K27S2,1144,experiment,63,←,left,←,0.7600170000223443,True,33,0
162K27S2,1145,experiment,88,↑,left,←,0.4004332000040449,False,33,1
162K27S2,1146,experiment,77,↓,down,↓,0.5146276999730617,True,33,0
162K27S2,1147,experiment,78,↓,down,↓,0.6109758999664336,True,33,1
162K27S2,1148,experiment,64,←,left,←,0.4929246000247076,True,33,1
162K27S2,1149,experiment,51,→,right,→,0.46421109995571896,True,33,1
162K27S2,1150,experiment,93,→,down,↓,0.4784644999890588,False,33,1
162K27S2,1151,experiment,84,↓,down,↓,0.6068422000389546,True,33,1
162K27S2,1152,experiment,104,↑,up,↑,0.3757624000427313,True,33,1
162K27S2,1153,experiment,95,↓,down,↓,0.6843078000238165,True,33,0
162K27S2,1154,experiment,80,→,right,→,0.7261281000101008,True,33,1
162K27S2,1155,experiment,106,←,right,→,0.525381000014022,False,33,1
162K27S2,1156,experiment,103,←,left,←,0.4936821000301279,True,33,1
162K27S2,1157,experiment,90,←,left,←,0.42597709997789934,True,33,1
162K27S2,1158,experiment,54,→,right,→,0.4803171999519691,True,33,0
162K27S2,1159,experiment,83,←,left,←,0.4574654999887571,True,33,1
162K27S2,1160,experiment,49,↑,up,↑,0.46230160002596676,True,33,1
162K27S2,1161,experiment,61,↑,up,↑,0.7111756000085734,True,33,1
162K27S2,1162,experiment,100,↑,up,↑,0.4732592000509612,True,33,1
162K27S2,1163,experiment,98,↓,down,↓,0.5173042000387795,True,33,1
162K27S2,1164,experiment,50,→,right,→,0.4797598000150174,True,33,1
162K27S2,1165,experiment,89,↑,up,↑,0.5665273000486195,True,33,1
162K27S2,1166,experiment,73,↓,down,↓,0.5512618999928236,True,33,1
162K27S2,1167,experiment,70,←,left,←,0.5136632000212558,True,33,1
162K27S2,1168,experiment,53,→,right,→,0.48305470001650974,True,33,1
162K27S2,1169,experiment,62,←,left,←,0.642763499985449,True,33,1
162K27S2,1170,experiment,52,←,left,←,0.5115912000183016,True,33,1
162K27S2,1171,experiment,101,↑,up,↑,0.5292641999549232,True,33,1
162K27S2,1172,experiment,96,↑,up,↑,0.47602349997032434,True,33,1
162K27S2,1173,experiment,81,↓,down,↓,0.5896973999915645,True,33,1
162K27S2,1174,experiment,102,↓,down,↓,0.5397697999724187,True,33,1
162K27S2,1175,training,64,→,right,→,0.47993019997375086,True,33,0
162K27S2,1176,training,72,↓,down,↓,0.417334400000982,True,33,1
162K27S2,1177,experiment,102,→,right,→,0.5449556999956258,True,33,0
162K27S2,1178,experiment,85,↓,down,↓,0.3921284000389278,True,33,1
162K27S2,1179,experiment,82,↑,no_key,no_letter,-1.0,False,33,0
162K27S2,1180,experiment,62,↓,down,↓,0.5523900000262074,True,33,1
162K27S2,1181,experiment,99,→,right,→,0.4014475999865681,True,33,1
162K27S2,1182,experiment,58,↑,up,↑,0.6607256000279449,True,33,0
162K27S2,1183,experiment,106,←,left,←,0.42559880000771955,True,33,1
162K27S2,1184,experiment,51,←,right,→,0.4604348000138998,False,33,0
162K27S2,1185,experiment,83,↑,no_key,no_letter,-1.0,False,33,1
162K27S2,1186,experiment,86,←,left,←,0.40917140000965446,True,33,1
162K27S2,1187,experiment,75,←,left,←,0.4180791999679059,True,33,0
162K27S2,1188,experiment,108,↑,up,↑,0.5152873999904841,True,33,0
162K27S2,1189,experiment,68,←,left,←,0.38338209997164086,True,33,1
162K27S2,1190,experiment,61,→,right,→,0.6114327000104822,True,33,0
162K27S2,1191,experiment,67,↓,up,↑,0.5245852999505587,False,33,1
162K27S2,1192,experiment,92,↑,up,↑,0.456605400016997,True,33,1
162K27S2,1193,experiment,70,↓,down,↓,0.526789000025019,True,33,1
162K27S2,1194,experiment,72,↑,up,↑,0.3924030000343919,True,33,1
162K27S2,1195,experiment,78,↓,down,↓,0.487114500021562,True,33,0
162K27S2,1196,experiment,48,→,right,→,0.4996137000271119,True,33,1
162K27S2,1197,experiment,54,↓,down,↓,0.8293664999655448,True,33,1
162K27S2,1198,experiment,71,↓,down,↓,0.5565636000246741,True,33,1
162K27S2,1199,experiment,90,↓,down,↓,0.6797840999788605,True,33,1
162K27S2,1200,experiment,63,←,left,←,0.6072726999991573,True,33,1
162K27S2,1201,experiment,96,←,left,←,0.42575499997474253,True,33,1
162K27S2,1202,experiment,93,→,right,→,0.40901830000802875,True,33,0
162K27S2,1203,experiment,79,←,left,←,0.384262400039006,True,33,0
162K27S2,1204,experiment,69,←,right,→,0.49186390003887936,False,33,0
162K27S2,1205,experiment,88,↓,down,↓,0.5625520999892615,True,33,1
162K27S2,1206,experiment,94,↓,down,↓,0.5646081999875605,True,33,1
162K27S2,1207,experiment,56,↑,up,↑,0.48333769995952025,True,33,1
162K27S2,1208,experiment,87,→,right,→,0.6344349000137299,True,33,1
162K27S2,1209,experiment,104,↓,down,↓,0.47815919999266043,True,33,1
162K27S2,1210,experiment,52,↑,up,↑,0.5376137000275776,True,33,1
162K27S2,1211,experiment,105,←,left,←,0.5446912999614142,True,33,1
162K27S2,1212,experiment,97,→,right,→,0.4432057000230998,True,33,1
162K27S2,1213,experiment,100,↓,no_key,no_letter,-1.0,False,33,0
162K27S2,1214,experiment,98,←,left,←,0.4718681999947876,True,33,1
162K27S2,1215,experiment,55,→,left,←,0.45876660000067204,False,33,1
162K27S2,1216,experiment,73,↓,down,↓,0.5753751000156626,True,33,1
162K27S2,1217,experiment,81,↑,up,↑,0.4456425000098534,True,33,1
162K27S2,1218,experiment,101,→,right,→,0.6251616000081412,True,33,1
162K27S2,1219,experiment,65,↑,up,↑,0.7142267999588512,True,33,1
162K27S2,1220,experiment,50,→,no_key,no_letter,-1.0,False,33,1
162K27S2,1221,experiment,53,↓,down,↓,0.5729961000033654,True,33,1
162K27S2,1222,experiment,64,→,no_key,no_letter,-1.0,False,33,1
162K27S2,1223,experiment,76,←,left,←,0.6409364999854006,True,33,1
162K27S2,1224,experiment,74,↓,down,↓,0.7822186999837868,True,33,1
162K27S2,1225,experiment,49,←,left,←,0.5502754999906756,True,33,1
162K27S2,1226,experiment,77,↑,up,↑,0.5903443999704905,True,33,1
162K27S2,1227,experiment,107,↓,no_key,no_letter,-1.0,False,33,1
162K27S2,1228,experiment,80,←,left,←,0.4091836999868974,True,33,1
162K27S2,1229,experiment,91,←,right,→,0.5546815999550745,False,33,0
162K27S2,1230,experiment,60,←,no_key,no_letter,-1.0,False,33,1
162K27S2,1231,experiment,89,↑,up,↑,0.5086211999878287,True,33,1
162K27S2,1232,experiment,57,→,right,→,0.49298099998850375,True,33,1
162K27S2,1233,experiment,66,↓,down,↓,0.4832765000173822,True,33,1
162K27S2,1234,experiment,103,↓,down,↓,0.6052902000374161,True,33,1
162K27S2,1235,experiment,84,←,left,←,0.3673755999770947,True,33,1
162K27S2,1236,experiment,95,↑,right,→,0.48160790000110865,False,33,0
162K27S2,1237,experiment,59,↓,down,↓,0.44285380002111197,True,33,1
162K27S2,1238,training,83,↑,up,↑,0.5838034999906085,True,33,0
162K27S2,1239,training,52,↓,no_key,no_letter,-1.0,False,33,1
162K27S2,1240,experiment,92,→,left,←,0.4425735000404529,False,33,1
162K27S2,1241,experiment,100,↑,up,↑,0.4866873999708332,True,33,0
162K27S2,1242,experiment,101,↑,up,↑,0.5930480000097305,True,33,1
162K27S2,1243,experiment,68,↓,down,↓,0.7784417000366375,True,33,1
162K27S2,1244,experiment,78,↑,up,↑,0.6015265999594703,True,33,1
162K27S2,1245,experiment,84,↑,up,↑,0.41738490003626794,True,33,1
162K27S2,1246,experiment,106,↑,up,↑,0.5043471000390127,True,33,0
162K27S2,1247,experiment,58,→,down,↓,0.4884893999551423,False,33,1
162K27S2,1248,experiment,60,↓,no_key,no_letter,-1.0,False,33,1
162K27S2,1249,experiment,66,→,right,→,0.4764329000026919,True,33,1
162K27S2,1250,experiment,48,→,right,→,0.3833432999672368,True,33,1
162K27S2,1251,experiment,59,↑,up,↑,0.6055211999919266,True,33,0
162K27S2,1252,experiment,54,↓,no_key,no_letter,-1.0,False,33,1
162K27S2,1253,experiment,99,→,right,→,0.4839802000205964,True,33,1
162K27S2,1254,experiment,88,→,right,→,0.5788863999769092,True,33,1
162K27S2,1255,experiment,56,→,right,→,0.4889341000234708,True,33,1
162K27S2,1256,experiment,76,↓,down,↓,0.45231590000912547,True,33,1
162K27S2,1257,experiment,65,↑,up,↑,0.45974459999706596,True,33,1
162K27S2,1258,experiment,72,→,right,→,0.49693379999371246,True,33,1
162K27S2,1259,experiment,79,→,right,→,0.4429136000107974,True,33,1
162K27S2,1260,experiment,74,→,left,←,0.4008437999873422,False,33,0
162K27S2,1261,experiment,81,→,right,→,0.42581730004167184,True,33,0
162K27S2,1262,experiment,71,↓,down,↓,0.698617700021714,True,33,0
162K27S2,1263,experiment,94,→,right,→,0.45486040000105277,True,33,1
162K27S2,1264,experiment,85,→,right,→,0.5283326000208035,True,33,1
162K27S2,1265,experiment,91,↑,up,↑,0.6367251999909058,True,33,1
162K27S2,1266,experiment,69,→,right,→,0.4445914999814704,True,33,1
162K27S2,1267,experiment,103,↑,up,↑,0.5915045000147074,True,33,1
162K27S2,1268,experiment,83,↓,no_key,no_letter,-1.0,False,33,1
162K27S2,1269,experiment,89,←,no_key,no_letter,-1.0,False,33,1
162K27S2,1270,experiment,80,←,left,←,0.6316256000427529,True,33,1
162K27S2,1271,experiment,67,→,right,→,0.46362799999769777,True,33,1
162K27S2,1272,experiment,61,↑,up,↑,0.448638400004711,True,33,1
162K27S2,1273,experiment,82,←,left,←,0.4257420999929309,True,33,1
162K27S2,1274,experiment,55,←,left,←,0.4472193000256084,True,33,0
162K27S2,1275,experiment,98,↑,up,↑,0.4678103000042029,True,33,1
162K27S2,1276,experiment,97,↓,down,↓,0.6644577000406571,True,33,1
162K27S2,1277,experiment,77,↓,down,↓,0.45226330001605675,True,33,1
162K27S2,1278,experiment,49,↓,down,↓,0.6652302999864332,True,33,1
162K27S2,1279,experiment,50,↓,down,↓,0.477644499973394,True,33,1
162K27S2,1280,experiment,86,→,right,→,0.5339228000375442,True,33,1
162K27S2,1281,experiment,57,↓,down,↓,0.7092335000052117,True,33,1
162K27S2,1282,experiment,105,←,left,←,0.3591287999879569,True,33,1
162K27S2,1283,experiment,62,↑,up,↑,0.5620315000414848,True,33,0
162K27S2,1284,experiment,104,↑,up,↑,0.6326688000117429,True,33,1
162K27S2,1285,experiment,93,↑,up,↑,0.42556090001016855,True,33,1
162K27S2,1286,experiment,108,↑,up,↑,0.5224052999983542,True,33,0
162K27S2,1287,experiment,73,↑,up,↑,0.5728286000085063,True,33,1
162K27S2,1288,experiment,70,←,left,←,0.46236600005067885,True,33,1
162K27S2,1289,experiment,96,→,right,→,0.46732739999424666,True,33,1
162K27S2,1290,experiment,75,↑,up,↑,0.5113575999857858,True,33,1
162K27S2,1291,experiment,107,↑,up,↑,0.49504779995186254,True,33,1
162K27S2,1292,experiment,87,↑,up,↑,0.5984856000286527,True,33,1
162K27S2,1293,experiment,53,←,left,←,0.49216530000558123,True,33,1
162K27S2,1294,experiment,102,↓,down,↓,0.44693430000916123,True,33,1
162K27S2,1295,experiment,63,←,left,←,0.48698420001892373,True,33,1
162K27S2,1296,experiment,51,→,right,→,0.49836760002654046,True,33,1
162K27S2,1297,experiment,64,↓,down,↓,0.7288289999705739,True,33,1
162K27S2,1298,experiment,90,↓,down,↓,0.5656351000070572,True,33,1
162K27S2,1299,experiment,52,→,right,→,0.6373080000048503,True,33,1
162K27S2,1300,experiment,95,←,left,←,0.4174589999602176,True,33,1
162K27S2,1301,training,83,↑,up,↑,0.546911799989175,True,33,0
162K27S2,1302,training,74,←,no_key,no_letter,-1.0,False,33,1
162K27S2,1303,experiment,50,↑,left,←,0.6371936000068672,False,33,1
162K27S2,1304,experiment,107,↑,up,↑,0.5440529999905266,True,33,1
162K27S2,1305,experiment,83,→,right,→,0.45462810003664345,True,33,1
162K27S2,1306,experiment,69,↑,no_key,no_letter,-1.0,False,33,1
162K27S2,1307,experiment,90,↓,up,↑,0.5445314000244252,False,33,1
162K27S2,1308,experiment,74,↑,down,↓,0.3924284999957308,False,33,1
162K27S2,1309,experiment,48,←,left,←,0.40906530001666397,True,33,0
162K27S2,1310,experiment,72,←,left,←,0.4177907999837771,True,33,0
162K27S2,1311,experiment,55,↓,down,↓,0.46929680003086105,True,33,0
162K27S2,1312,experiment,68,→,no_key,no_letter,-1.0,False,33,1
162K27S2,1313,experiment,102,↓,down,↓,0.6595708000240847,True,33,1
162K27S2,1314,experiment,85,↓,down,↓,0.35887080000247806,True,33,1
162K27S2,1315,experiment,76,←,left,←,0.4174666000180878,True,33,0
162K27S2,1316,experiment,87,↓,down,↓,0.5500194000196643,True,33,0
162K27S2,1317,experiment,59,↑,no_key,no_letter,-1.0,False,33,1
162K27S2,1318,experiment,89,←,left,←,0.6723843999789096,True,33,1
162K27S2,1319,experiment,57,↑,up,↑,0.4991412000381388,True,33,1
162K27S2,1320,experiment,96,→,left,←,0.4858094000373967,False,33,1
162K27S2,1321,experiment,61,←,left,←,0.3923163000144996,True,33,1
162K27S2,1322,experiment,99,→,right,→,0.42581179999979213,True,33,0
162K27S2,1323,experiment,81,↑,no_key,no_letter,-1.0,False,33,0
162K27S2,1324,experiment,52,↑,down,↓,0.6888143999967724,False,33,1
162K27S2,1325,experiment,106,↑,up,↑,0.3674056999734603,True,33,1
162K27S2,1326,experiment,66,↑,up,↑,0.4259376999689266,True,33,0
162K27S2,1327,experiment,86,→,right,→,0.4092882000259124,True,33,0
162K27S2,1328,experiment,54,←,left,←,0.6029102000175044,True,33,0
162K27S2,1329,experiment,108,↓,no_key,no_letter,-1.0,False,33,1
162K27S2,1330,experiment,51,→,right,→,0.815572300052736,True,33,1
162K27S2,1331,experiment,78,→,right,→,0.5485301000298932,True,33,1
162K27S2,1332,experiment,70,→,right,→,0.542864200018812,True,33,1
162K27S2,1333,experiment,56,←,left,←,0.5424094999907538,True,33,1
162K27S2,1334,experiment,98,↑,up,↑,0.5196790000190958,True,33,1
162K27S2,1335,experiment,49,←,no_key,no_letter,-1.0,False,33,1
162K27S2,1336,experiment,82,→,right,→,0.47313699999358505,True,33,1
162K27S2,1337,experiment,93,←,left,←,0.5426650000154041,True,33,1
162K27S2,1338,experiment,91,↓,no_key,no_letter,-1.0,False,33,1
162K27S2,1339,experiment,73,↑,up,↑,0.44454839994432405,True,33,1
162K27S2,1340,experiment,77,↑,right,→,0.40925199998309836,False,33,0
162K27S2,1341,experiment,79,←,left,←,0.31815419998019934,True,33,0
162K27S2,1342,experiment,105,↑,up,↑,0.37576480000279844,True,33,0
162K27S2,1343,experiment,62,↑,up,↑,0.5203236000379547,True,33,0
162K27S2,1344,experiment,75,↓,down,↓,0.6340369000099599,True,33,1
162K27S2,1345,experiment,101,↑,up,↑,0.46289940003771335,True,33,1
162K27S2,1346,experiment,95,↓,down,↓,0.5883571000304073,True,33,1
162K27S2,1347,experiment,100,←,no_key,no_letter,-1.0,False,33,1
162K27S2,1348,experiment,58,→,right,→,0.6734427000046708,True,33,1
162K27S2,1349,experiment,60,←,left,←,0.3757074999739416,True,33,1
162K27S2,1350,experiment,104,↑,up,↑,0.4174852999858558,True,33,0
162K27S2,1351,experiment,63,↑,up,↑,0.4090474999975413,True,33,0
162K27S2,1352,experiment,71,↓,down,↓,0.4731675999937579,True,33,0
162K27S2,1353,experiment,94,↑,up,↑,0.6064356000279076,True,33,1
162K27S2,1354,experiment,97,→,right,→,0.5334638000349514,True,33,1
162K27S2,1355,experiment,88,←,left,←,0.37571870000101626,True,33,1
162K27S2,1356,experiment,67,↑,up,↑,0.6206691000261344,True,33,0
162K27S2,1357,experiment,80,←,left,←,0.6171098999911919,True,33,1
162K27S2,1358,experiment,64,↑,up,↑,0.4007576000294648,True,33,1
162K27S2,1359,experiment,84,→,right,→,0.48610480001661927,True,33,0
162K27S2,1360,experiment,103,↓,down,↓,0.6083272999967448,True,33,1
162K27S2,1361,experiment,65,→,left,←,0.3341847999836318,False,33,1
162K27S2,1362,experiment,53,→,no_key,no_letter,-1.0,False,33,0
162K27S2,1363,experiment,92,↓,down,↓,0.4620347000309266,True,33,1
