PART_ID,Trial_no,Trial_type,CSI,Stim_letter,Key_pressed,letter_choose,Rt,Corr,Stimulus Time,nDropped
163K34S4,1,training,120,↓,down,↓,0.8122769999317825,True,60,0
163K34S4,2,training,120,→,right,→,0.584228599909693,True,60,0
163K34S4,3,training,120,↑,up,↑,0.5841651000082493,True,60,0
163K34S4,4,training,120,↓,down,↓,0.6343832002021372,True,60,0
163K34S4,5,training,120,→,right,→,0.5757963000796735,True,60,0
163K34S4,6,training,120,←,left,←,0.4099416001699865,True,60,0
163K34S4,7,training,120,←,left,←,0.44352540001273155,True,60,0
163K34S4,8,training,120,↑,up,↑,0.6418012999929488,True,60,0
163K34S4,9,training,120,↑,up,↑,0.4435119000263512,True,60,0
163K34S4,10,training,120,←,left,←,0.452127099968493,True,60,0
163K34S4,11,training,120,↓,down,↓,0.6891055000014603,True,60,0
163K34S4,12,training,120,↓,down,↓,0.5507553997449577,True,60,0
163K34S4,13,training,120,↓,down,↓,0.4691902999766171,True,60,0
163K34S4,14,training,120,→,right,→,0.6729922001250088,True,60,0
163K34S4,15,training,120,↓,down,↓,0.5673581999726593,True,60,0
163K34S4,16,training,120,↑,up,↑,0.7404967001639307,True,60,0
163K34S4,17,training,120,↑,up,↑,0.4434870001859963,True,60,0
163K34S4,18,training,120,→,right,→,0.41045100009068847,True,60,0
163K34S4,19,training,120,→,right,→,0.4768796996213496,True,60,0
163K34S4,20,training,120,↑,up,↑,0.6010245997458696,True,60,0
163K34S4,21,no_adaptation,120,←,left,←,0.48535999981686473,True,36,0
163K34S4,22,no_adaptation,120,↑,up,↑,0.5685407998971641,True,36,0
163K34S4,23,no_adaptation,120,↑,up,↑,0.49674109974876046,True,36,0
163K34S4,24,no_adaptation,120,→,left,←,0.5720468000508845,False,36,0
163K34S4,25,no_adaptation,120,↓,down,↓,0.5481333001516759,True,36,0
163K34S4,26,no_adaptation,120,←,left,←,1.5013131997548044,True,36,0
163K34S4,27,no_adaptation,120,↑,up,↑,0.6969786998815835,True,36,0
163K34S4,28,no_adaptation,120,→,right,→,0.6115709999576211,True,36,0
163K34S4,29,no_adaptation,120,↑,up,↑,0.42583080008625984,True,36,0
163K34S4,30,no_adaptation,120,←,left,←,0.472047199960798,True,36,0
163K34S4,31,no_adaptation,120,→,right,→,0.4424901003949344,True,36,0
163K34S4,32,no_adaptation,120,→,right,→,0.5773853003047407,True,36,0
163K34S4,33,no_adaptation,120,↑,up,↑,0.5296669001691043,True,36,0
163K34S4,34,no_adaptation,120,↑,up,↑,0.5471632000990212,True,36,0
163K34S4,35,no_adaptation,120,→,right,→,1.108177900314331,True,36,0
163K34S4,36,no_adaptation,120,←,left,←,0.7190980999730527,True,36,0
163K34S4,37,no_adaptation,120,←,left,←,0.5852902000769973,True,36,0
163K34S4,38,no_adaptation,120,←,left,←,0.4018132002092898,True,36,0
163K34S4,39,no_adaptation,120,↓,down,↓,0.6553507000207901,True,36,0
163K34S4,40,no_adaptation,120,↓,down,↓,0.524152500089258,True,36,0
163K34S4,41,training,94,←,left,←,0.6046141004189849,True,36,0
163K34S4,42,training,90,↓,down,↓,0.5340638998895884,True,36,1
163K34S4,43,experiment,63,↓,down,↓,0.491529599763453,True,36,1
163K34S4,44,experiment,107,←,left,←,0.4761019996367395,True,36,1
163K34S4,45,experiment,74,↓,down,↓,0.5438637998886406,True,36,1
163K34S4,46,experiment,60,←,left,←,0.5897299000062048,True,36,1
163K34S4,47,experiment,106,↑,up,↑,0.570605100132525,True,36,1
163K34S4,48,experiment,81,→,right,→,0.42583160009235144,True,36,1
163K34S4,49,experiment,72,→,left,←,0.4796952996402979,False,36,0
163K34S4,50,experiment,108,←,right,→,0.5271888999268413,False,36,1
163K34S4,51,experiment,56,→,right,→,0.45079889986664057,True,36,1
163K34S4,52,experiment,89,↓,down,↓,0.44239640003070235,True,36,0
163K34S4,53,experiment,96,↑,up,↑,0.5327329002320766,True,36,0
163K34S4,54,experiment,101,↑,up,↑,0.43418919993564487,True,36,1
163K34S4,55,experiment,92,→,right,→,0.524891100358218,True,36,0
163K34S4,56,experiment,90,↓,down,↓,0.4507663003169,True,36,1
163K34S4,57,experiment,94,→,right,→,0.5996234999038279,True,36,0
163K34S4,58,experiment,79,←,left,←,0.44246690021827817,True,36,1
163K34S4,59,experiment,86,↓,no_key,no_letter,-1.0,False,36,0
163K34S4,60,experiment,51,←,left,←,0.4940488003194332,True,36,1
163K34S4,61,experiment,76,↑,down,↓,0.5206379001028836,False,36,1
163K34S4,62,experiment,65,→,right,→,0.6221198998391628,True,36,1
163K34S4,63,experiment,83,↑,up,↑,0.40907290019094944,True,36,1
163K34S4,64,experiment,84,→,right,→,0.5563478004187346,True,36,0
163K34S4,65,experiment,67,→,right,→,0.5036156997084618,True,36,1
163K34S4,66,experiment,61,↓,down,↓,0.67078150017187,True,36,1
163K34S4,67,experiment,95,↑,up,↑,0.5161493001505733,True,36,1
163K34S4,68,experiment,85,↑,up,↑,0.5709675997495651,True,36,1
163K34S4,69,experiment,102,↑,up,↑,0.40910839987918735,True,36,1
163K34S4,70,experiment,62,↓,down,↓,0.620407999958843,True,36,0
163K34S4,71,experiment,75,↑,up,↑,0.5544342999346554,True,36,1
163K34S4,72,experiment,80,←,left,←,0.5452241003513336,True,36,1
163K34S4,73,experiment,59,→,right,→,0.49571900023147464,True,36,1
163K34S4,74,experiment,87,↑,no_key,no_letter,-1.0,False,36,1
163K34S4,75,experiment,54,→,right,→,0.5252592000178993,True,36,1
163K34S4,76,experiment,57,↑,up,↑,0.442374300211668,True,36,1
163K34S4,77,experiment,100,←,left,←,0.5455251997336745,True,36,0
163K34S4,78,experiment,55,←,left,←,0.5371118001639843,True,36,1
163K34S4,79,experiment,97,→,right,→,0.4338583997450769,True,36,1
163K34S4,80,experiment,88,↓,down,↓,0.468299999833107,True,36,0
163K34S4,81,experiment,68,↑,up,↑,0.39147270005196333,True,36,0
163K34S4,82,experiment,50,↓,down,↓,0.7211303003132343,True,36,0
163K34S4,83,experiment,52,↑,up,↑,0.40075339982286096,True,36,1
163K34S4,84,experiment,48,←,left,←,0.553923700004816,True,36,0
163K34S4,85,experiment,77,↑,up,↑,0.37555629992857575,True,36,1
163K34S4,86,experiment,73,↓,down,↓,0.6497470997273922,True,36,0
163K34S4,87,experiment,53,↑,up,↑,0.5020294999703765,True,36,1
163K34S4,88,experiment,98,←,left,←,0.5689622000791132,True,36,1
163K34S4,89,experiment,69,↓,down,↓,0.42575749987736344,True,36,1
163K34S4,90,experiment,49,↑,up,↑,0.45076029980555177,True,36,0
163K34S4,91,experiment,78,←,left,←,0.45074939960613847,True,36,0
163K34S4,92,experiment,99,↑,up,↑,0.5056499997153878,True,36,0
163K34S4,93,experiment,70,↑,up,↑,0.42569749988615513,True,36,1
163K34S4,94,experiment,58,↓,down,↓,0.7364762998186052,True,36,0
163K34S4,95,experiment,82,→,right,→,0.5914193000644445,True,36,1
163K34S4,96,experiment,104,→,right,→,0.5408276999369264,True,36,1
163K34S4,97,experiment,93,↑,up,↑,0.5041411998681724,True,36,1
163K34S4,98,experiment,66,→,right,→,0.4172907001338899,True,36,1
163K34S4,99,experiment,64,→,right,→,0.4256906001828611,True,36,0
163K34S4,100,experiment,91,↓,down,↓,0.5427655000239611,True,36,0
163K34S4,101,experiment,103,→,right,→,0.44234490022063255,True,36,1
163K34S4,102,experiment,105,↑,up,↑,0.7212014999240637,True,36,0
163K34S4,103,experiment,71,→,right,→,0.5803640997037292,True,36,1
163K34S4,104,training,106,←,left,←,0.6099380999803543,True,35,0
163K34S4,105,training,83,←,no_key,no_letter,-1.0,False,35,1
163K34S4,106,experiment,88,←,left,←,0.40080170007422566,True,35,1
163K34S4,107,experiment,51,←,left,←,0.4799334001727402,True,35,0
163K34S4,108,experiment,48,↓,down,↓,0.4765608003363013,True,35,1
163K34S4,109,experiment,80,↑,up,↑,0.4090045001357794,True,35,1
163K34S4,110,experiment,56,←,left,←,0.4673413001000881,True,35,0
163K34S4,111,experiment,91,→,right,→,0.6172344000078738,True,35,1
163K34S4,112,experiment,69,↑,up,↑,0.609201000072062,True,35,1
163K34S4,113,experiment,107,←,left,←,0.5330186001956463,True,35,1
163K34S4,114,experiment,65,↑,down,↓,0.6577408998273313,False,35,1
163K34S4,115,experiment,84,→,right,→,0.6111256000585854,True,35,1
163K34S4,116,experiment,62,→,right,→,0.40071329986676574,True,35,1
163K34S4,117,experiment,50,←,left,←,0.5165543998591602,True,35,0
163K34S4,118,experiment,49,→,right,→,0.5593195003457367,True,35,1
163K34S4,119,experiment,93,→,right,→,0.4267104002647102,True,35,1
163K34S4,120,experiment,60,→,right,→,0.5158398998901248,True,35,0
163K34S4,121,experiment,100,→,right,→,0.42566030006855726,True,35,1
163K34S4,122,experiment,97,↓,down,↓,0.5317033999599516,True,35,0
163K34S4,123,experiment,108,→,right,→,0.43496809992939234,True,35,1
163K34S4,124,experiment,76,→,right,→,0.6383970999158919,True,35,0
163K34S4,125,experiment,70,←,left,←,0.4774353997781873,True,35,1
163K34S4,126,experiment,72,↑,up,↑,0.5457110996358097,True,35,1
163K34S4,127,experiment,106,→,no_key,no_letter,-1.0,False,35,1
163K34S4,128,experiment,66,→,right,→,0.4837281000800431,True,35,1
163K34S4,129,experiment,102,←,left,←,0.5018619997426867,True,35,1
163K34S4,130,experiment,86,←,left,←,0.4006905001588166,True,35,1
163K34S4,131,experiment,58,↑,up,↑,0.5530589995905757,True,35,0
163K34S4,132,experiment,104,→,right,→,0.5522568002343178,True,35,1
163K34S4,133,experiment,68,←,left,←,0.4754261001944542,True,35,1
163K34S4,134,experiment,57,←,left,←,0.6208843998610973,True,35,1
163K34S4,135,experiment,103,→,right,→,0.4102605995722115,True,35,1
163K34S4,136,experiment,99,←,left,←,0.35980059998109937,True,35,0
163K34S4,137,experiment,71,↓,down,↓,0.46481590019539,True,35,0
163K34S4,138,experiment,52,→,left,←,0.6679043001495302,False,35,1
163K34S4,139,experiment,89,↓,down,↓,0.7392957997508347,True,35,1
163K34S4,140,experiment,77,↑,up,↑,0.6036350997164845,True,35,1
163K34S4,141,experiment,54,↓,down,↓,0.6094034002162516,True,35,1
163K34S4,142,experiment,90,→,right,→,0.4672143002972007,True,35,1
163K34S4,143,experiment,59,↓,down,↓,0.5718355001881719,True,35,1
163K34S4,144,experiment,101,↑,up,↑,0.610895300284028,True,35,1
163K34S4,145,experiment,64,→,right,→,0.4424195997416973,True,35,1
163K34S4,146,experiment,85,↑,no_key,no_letter,-1.0,False,35,0
163K34S4,147,experiment,79,↓,down,↓,0.6213247999548912,True,35,1
163K34S4,148,experiment,53,→,right,→,0.6342551996931434,True,35,1
163K34S4,149,experiment,94,↑,up,↑,0.5933295995928347,True,35,1
163K34S4,150,experiment,75,↑,up,↑,0.5524271000176668,True,35,1
163K34S4,151,experiment,73,←,left,←,0.40066300006583333,True,35,1
163K34S4,152,experiment,96,←,left,←,0.47370880004018545,True,35,0
163K34S4,153,experiment,81,↓,up,↑,0.634992300067097,False,35,1
163K34S4,154,experiment,74,↑,left,←,0.5446809995919466,False,35,1
163K34S4,155,experiment,55,→,right,→,0.5364850000478327,True,35,1
163K34S4,156,experiment,95,↑,up,↑,0.39217070024460554,True,35,1
163K34S4,157,experiment,92,→,right,→,0.4340552003122866,True,35,0
163K34S4,158,experiment,83,→,right,→,0.37569120014086366,True,35,0
163K34S4,159,experiment,67,↓,down,↓,0.6968630999326706,True,35,0
163K34S4,160,experiment,63,↓,down,↓,0.44234059983864427,True,35,1
163K34S4,161,experiment,105,↓,down,↓,0.49818800017237663,True,35,0
163K34S4,162,experiment,82,→,no_key,no_letter,-1.0,False,35,1
163K34S4,163,experiment,98,↓,down,↓,0.4256799998693168,True,35,1
163K34S4,164,experiment,61,↑,up,↑,0.7812101002782583,True,35,0
163K34S4,165,experiment,78,↓,down,↓,0.5235124002210796,True,35,1
163K34S4,166,experiment,87,↑,up,↑,0.4091062000952661,True,35,1
163K34S4,167,training,94,↓,down,↓,0.5722582000307739,True,35,0
163K34S4,168,training,98,←,no_key,no_letter,-1.0,False,35,1
163K34S4,169,experiment,85,←,left,←,0.425095799844712,True,35,1
163K34S4,170,experiment,61,↓,down,↓,1.0271340003237128,True,35,0
163K34S4,171,experiment,56,→,right,→,0.6311914999969304,True,35,1
163K34S4,172,experiment,89,→,right,→,0.4249764997512102,True,35,1
163K34S4,173,experiment,98,↑,up,↑,0.425683599896729,True,35,0
163K34S4,174,experiment,58,↓,down,↓,0.44238509982824326,True,35,0
163K34S4,175,experiment,51,←,left,←,0.4006814998574555,True,35,0
163K34S4,176,experiment,60,←,left,←,0.4098873999901116,True,35,0
163K34S4,177,experiment,103,↑,up,↑,0.3924275003373623,True,35,0
163K34S4,178,experiment,64,↓,down,↓,0.6398152997717261,True,35,0
163K34S4,179,experiment,66,←,left,←,0.5840787002816796,True,35,1
163K34S4,180,experiment,70,↑,up,↑,0.49692439986392856,True,35,1
163K34S4,181,experiment,76,↓,down,↓,0.4597776001319289,True,35,1
163K34S4,182,experiment,65,→,right,→,0.6428616996854544,True,35,0
163K34S4,183,experiment,81,→,no_key,no_letter,-1.0,False,35,1
163K34S4,184,experiment,104,←,left,←,0.3925498998723924,True,35,1
163K34S4,185,experiment,94,↓,down,↓,0.5086813000962138,True,35,0
163K34S4,186,experiment,87,↑,up,↑,0.6510597998276353,True,35,1
163K34S4,187,experiment,57,→,right,→,0.5178493000566959,True,35,1
163K34S4,188,experiment,49,↓,down,↓,0.5444972002878785,True,35,1
163K34S4,189,experiment,86,↓,down,↓,0.44245530012995005,True,35,1
163K34S4,190,experiment,95,↓,down,↓,0.5721319001168013,True,35,0
163K34S4,191,experiment,67,←,left,←,0.4258527997881174,True,35,1
163K34S4,192,experiment,55,←,left,←,0.4425194999203086,True,35,0
163K34S4,193,experiment,78,↓,down,↓,0.5423547001555562,True,35,0
163K34S4,194,experiment,97,↓,down,↓,0.5441120998002589,True,35,1
163K34S4,195,experiment,54,↓,down,↓,0.6321527999825776,True,35,1
163K34S4,196,experiment,108,←,left,←,0.3424210003577173,True,35,1
163K34S4,197,experiment,84,↑,up,↑,0.6641901000402868,True,35,0
163K34S4,198,experiment,53,→,right,→,0.4759084000252187,True,35,1
163K34S4,199,experiment,101,→,right,→,0.48677639989182353,True,35,1
163K34S4,200,experiment,102,←,left,←,0.4095391998998821,True,35,1
163K34S4,201,experiment,100,←,left,←,0.3838896998204291,True,35,0
163K34S4,202,experiment,106,→,right,→,0.4988498999737203,True,35,0
163K34S4,203,experiment,92,←,left,←,0.37564409989863634,True,35,1
163K34S4,204,experiment,74,↑,up,↑,0.42540600011125207,True,35,0
163K34S4,205,experiment,80,↓,no_key,no_letter,-1.0,False,35,0
163K34S4,206,experiment,88,←,left,←,0.4637437998317182,True,35,1
163K34S4,207,experiment,71,↓,down,↓,0.5408089002594352,True,35,1
163K34S4,208,experiment,52,→,right,→,0.41736460011452436,True,35,1
163K34S4,209,experiment,82,→,right,→,0.4733869000338018,True,35,0
163K34S4,210,experiment,59,→,right,→,0.4173512998968363,True,35,1
163K34S4,211,experiment,77,↑,up,↑,0.40886270022019744,True,35,0
163K34S4,212,experiment,69,→,right,→,0.42583120008930564,True,35,0
163K34S4,213,experiment,107,↑,up,↑,0.5858383998274803,True,35,0
163K34S4,214,experiment,73,→,right,→,0.5540661001577973,True,35,1
163K34S4,215,experiment,75,←,left,←,0.5466801002621651,True,35,1
163K34S4,216,experiment,90,→,right,→,0.42570760007947683,True,35,1
163K34S4,217,experiment,93,→,right,→,0.4425822999328375,True,35,0
163K34S4,218,experiment,68,↓,down,↓,0.47730709984898567,True,35,0
163K34S4,219,experiment,99,↓,down,↓,0.5206299996934831,True,35,1
163K34S4,220,experiment,62,↓,down,↓,0.442580200266093,True,35,1
163K34S4,221,experiment,96,→,right,→,0.46919719967991114,True,35,0
163K34S4,222,experiment,105,→,right,→,0.47904250025749207,True,35,1
163K34S4,223,experiment,91,→,no_key,no_letter,-1.0,False,35,1
163K34S4,224,experiment,72,→,no_key,no_letter,-1.0,False,35,1
163K34S4,225,experiment,79,↓,down,↓,0.5092577999457717,True,35,1
163K34S4,226,experiment,63,→,right,→,0.3590143001638353,True,35,1
163K34S4,227,experiment,48,↓,down,↓,0.42579529993236065,True,35,0
163K34S4,228,experiment,50,←,left,←,0.43404769990593195,True,35,0
163K34S4,229,experiment,83,→,right,→,0.4851096998900175,True,35,0
163K34S4,230,training,60,→,right,→,0.5810136003419757,True,34,0
163K34S4,231,training,102,↑,up,↑,0.6594504998065531,True,34,1
163K34S4,232,experiment,106,→,right,→,0.4006751999258995,True,34,1
163K34S4,233,experiment,93,←,left,←,0.4088238002732396,True,34,0
163K34S4,234,experiment,58,→,right,→,0.38405789993703365,True,34,0
163K34S4,235,experiment,51,↓,down,↓,0.6087556001730263,True,34,0
163K34S4,236,experiment,62,↑,up,↑,0.4173924997448921,True,34,1
163K34S4,237,experiment,71,→,right,→,0.5152790998108685,True,34,0
163K34S4,238,experiment,49,↑,up,↑,0.4340167003683746,True,34,1
163K34S4,239,experiment,70,↑,no_key,no_letter,-1.0,False,34,0
163K34S4,240,experiment,80,→,right,→,0.5469694999046624,True,34,1
163K34S4,241,experiment,86,↓,down,↓,0.45649849995970726,True,34,1
163K34S4,242,experiment,97,↓,down,↓,0.5410800999961793,True,34,0
163K34S4,243,experiment,91,↑,down,↓,0.8408059002831578,False,34,1
163K34S4,244,experiment,68,←,left,←,0.6400935999117792,True,34,1
163K34S4,245,experiment,54,→,right,→,0.4527257001027465,True,34,1
163K34S4,246,experiment,89,↑,up,↑,0.40886159986257553,True,34,0
163K34S4,247,experiment,92,↓,down,↓,0.7884729001671076,True,34,0
163K34S4,248,experiment,63,↑,up,↑,0.5673584002070129,True,34,1
163K34S4,249,experiment,103,↑,up,↑,0.662340700160712,True,34,1
163K34S4,250,experiment,48,←,left,←,0.6514901998452842,True,34,1
163K34S4,251,experiment,95,↓,down,↓,0.41828089999035,True,34,1
163K34S4,252,experiment,90,←,no_key,no_letter,-1.0,False,34,0
163K34S4,253,experiment,72,↓,down,↓,0.4341505002230406,True,34,1
163K34S4,254,experiment,77,→,right,→,0.503832200076431,True,34,0
163K34S4,255,experiment,87,←,left,←,0.3515742998570204,True,34,1
163K34S4,256,experiment,85,→,right,→,0.4992508003488183,True,34,0
163K34S4,257,experiment,74,←,left,←,0.5344783999025822,True,34,1
163K34S4,258,experiment,52,→,left,←,0.6155766001902521,False,34,1
163K34S4,259,experiment,101,→,left,←,0.7728316998109221,False,34,1
163K34S4,260,experiment,65,→,right,→,0.4566122000105679,True,34,1
163K34S4,261,experiment,75,→,left,←,0.39254279993474483,False,34,0
163K34S4,262,experiment,55,→,right,→,0.46604140009731054,True,34,0
163K34S4,263,experiment,104,↑,no_key,no_letter,-1.0,False,34,1
163K34S4,264,experiment,73,↓,down,↓,0.6854054997675121,True,34,1
163K34S4,265,experiment,64,↓,down,↓,0.6044454998336732,True,34,1
163K34S4,266,experiment,76,→,no_key,no_letter,-1.0,False,34,1
163K34S4,267,experiment,105,→,right,→,0.5851247999817133,True,34,1
163K34S4,268,experiment,83,↓,down,↓,0.5417128000408411,True,34,1
163K34S4,269,experiment,59,→,right,→,0.684165199752897,True,34,1
163K34S4,270,experiment,79,→,right,→,0.6461956002749503,True,34,1
163K34S4,271,experiment,57,↑,up,↑,0.4259612001478672,True,34,1
163K34S4,272,experiment,88,↓,down,↓,0.4586209002882242,True,34,0
163K34S4,273,experiment,84,↑,up,↑,0.6431075995787978,True,34,1
163K34S4,274,experiment,78,↓,down,↓,0.5670929001644254,True,34,1
163K34S4,275,experiment,99,←,left,←,0.6473626000806689,True,34,1
163K34S4,276,experiment,107,↑,up,↑,0.4260053001344204,True,34,1
163K34S4,277,experiment,67,→,right,→,0.6733542997390032,True,34,0
163K34S4,278,experiment,96,↓,down,↓,0.5899468995630741,True,34,1
163K34S4,279,experiment,50,→,left,←,0.6938709001988173,False,34,1
163K34S4,280,experiment,66,↑,up,↑,0.523475700058043,True,34,1
163K34S4,281,experiment,108,→,right,→,0.610121600329876,True,34,1
163K34S4,282,experiment,56,←,left,←,0.4554909998551011,True,34,1
163K34S4,283,experiment,94,↓,down,↓,0.4692094996571541,True,34,1
163K34S4,284,experiment,82,↑,up,↑,0.6223484999500215,True,34,1
163K34S4,285,experiment,53,→,right,→,0.45207929983735085,True,34,1
163K34S4,286,experiment,61,→,no_key,no_letter,-1.0,False,34,0
163K34S4,287,experiment,81,↑,up,↑,0.5470994999632239,True,34,1
163K34S4,288,experiment,100,←,left,←,0.4174143001437187,True,34,1
163K34S4,289,experiment,102,↓,down,↓,0.544208399951458,True,34,0
163K34S4,290,experiment,60,↓,down,↓,0.5342707000672817,True,34,1
163K34S4,291,experiment,98,←,left,←,0.6480112997815013,True,34,1
163K34S4,292,experiment,69,→,right,→,0.6067538000643253,True,34,1
163K34S4,293,training,65,↑,up,↑,0.41766460007056594,True,34,0
163K34S4,294,training,61,→,right,→,0.5369494999758899,True,34,0
163K34S4,295,experiment,89,↑,up,↑,0.5494205001741648,True,34,1
163K34S4,296,experiment,67,↑,up,↑,0.5929477997124195,True,34,1
163K34S4,297,experiment,75,→,right,→,0.5359353995881975,True,34,1
163K34S4,298,experiment,96,↑,up,↑,0.5384974000044167,True,34,1
163K34S4,299,experiment,66,←,left,←,0.4866010001860559,True,34,1
163K34S4,300,experiment,63,↑,up,↑,0.4173037000000477,True,34,1
163K34S4,301,experiment,85,↑,up,↑,0.4007429997436702,True,34,0
163K34S4,302,experiment,86,↑,up,↑,0.4172396003268659,True,34,0
163K34S4,303,experiment,58,↓,down,↓,0.598074100445956,True,34,0
163K34S4,304,experiment,48,↑,up,↑,0.4340705000795424,True,34,1
163K34S4,305,experiment,69,←,left,←,0.4258248000405729,True,34,0
163K34S4,306,experiment,52,↑,up,↑,0.6020310996100307,True,34,0
163K34S4,307,experiment,55,↑,up,↑,0.5754050998948514,True,34,1
163K34S4,308,experiment,101,←,left,←,0.5185499996878207,True,34,1
163K34S4,309,experiment,103,←,left,←,0.607243100181222,True,34,1
163K34S4,310,experiment,79,←,left,←,0.59626379981637,True,34,1
163K34S4,311,experiment,78,↓,down,↓,0.7301047998480499,True,34,1
163K34S4,312,experiment,92,→,right,→,0.5097042000852525,True,34,1
163K34S4,313,experiment,54,↓,down,↓,0.5191142000257969,True,34,1
163K34S4,314,experiment,53,←,left,←,0.43417489994317293,True,34,1
163K34S4,315,experiment,90,↓,down,↓,0.47272370010614395,True,34,0
163K34S4,316,experiment,70,→,left,←,0.5420115003362298,False,34,1
163K34S4,317,experiment,64,↑,up,↑,0.43378400010988116,True,34,1
163K34S4,318,experiment,95,↓,down,↓,0.7212382000871003,True,34,0
163K34S4,319,experiment,81,↑,up,↑,0.4354904997162521,True,34,1
163K34S4,320,experiment,56,→,right,→,0.4527919995598495,True,34,0
163K34S4,321,experiment,61,←,left,←,0.37540230015292764,True,34,0
163K34S4,322,experiment,91,↑,up,↑,0.559466699603945,True,34,0
163K34S4,323,experiment,108,↑,up,↑,0.41744419978931546,True,34,1
163K34S4,324,experiment,57,↓,down,↓,0.6086009000428021,True,34,0
163K34S4,325,experiment,104,→,right,→,0.5333750997669995,True,34,1
163K34S4,326,experiment,82,↓,down,↓,0.540398099925369,True,34,1
163K34S4,327,experiment,51,←,left,←,0.5895218001678586,True,34,1
163K34S4,328,experiment,94,↑,up,↑,0.41733969980850816,True,34,1
163K34S4,329,experiment,73,↑,up,↑,0.5246239001862705,True,34,0
163K34S4,330,experiment,77,↑,up,↑,0.5100128999911249,True,34,1
163K34S4,331,experiment,97,↓,down,↓,0.616697299759835,True,34,1
163K34S4,332,experiment,102,→,right,→,0.6137609998695552,True,34,1
163K34S4,333,experiment,93,↓,no_key,no_letter,-1.0,False,34,1
163K34S4,334,experiment,72,↓,down,↓,0.551492600236088,True,34,1
163K34S4,335,experiment,106,↓,down,↓,0.5657999999821186,True,34,1
163K34S4,336,experiment,84,←,left,←,0.6427453001961112,True,34,1
163K34S4,337,experiment,50,→,right,→,0.6003919001668692,True,34,1
163K34S4,338,experiment,100,←,left,←,0.3515874999575317,True,34,1
163K34S4,339,experiment,74,↓,down,↓,0.455591999925673,True,34,0
163K34S4,340,experiment,105,→,right,→,0.4264932996593416,True,34,1
163K34S4,341,experiment,107,↑,no_key,no_letter,-1.0,False,34,0
163K34S4,342,experiment,59,←,left,←,0.3757728999480605,True,34,1
163K34S4,343,experiment,65,→,right,→,0.43402229994535446,True,34,0
163K34S4,344,experiment,60,↓,down,↓,0.5825506998226047,True,34,0
163K34S4,345,experiment,62,→,right,→,0.47454600036144257,True,34,1
163K34S4,346,experiment,98,←,left,←,0.6383128999732435,True,34,1
163K34S4,347,experiment,83,→,right,→,0.40984390024095774,True,34,1
163K34S4,348,experiment,71,↑,up,↑,0.41745080007240176,True,34,0
163K34S4,349,experiment,68,→,right,→,0.4799151001498103,True,34,0
163K34S4,350,experiment,88,↑,up,↑,0.727014800067991,True,34,1
163K34S4,351,experiment,87,↓,down,↓,0.5566142001189291,True,34,1
163K34S4,352,experiment,76,←,left,←,0.4092380995862186,True,34,1
163K34S4,353,experiment,49,←,left,←,0.5634027998894453,True,34,0
163K34S4,354,experiment,99,↑,no_key,no_letter,-1.0,False,34,1
163K34S4,355,experiment,80,←,left,←,0.4340920001268387,True,34,1
163K34S4,356,training,78,↓,down,↓,0.4784103003330529,True,33,0
163K34S4,357,training,67,↑,up,↑,0.6127844997681677,True,33,1
163K34S4,358,experiment,88,←,left,←,0.3759186998941004,True,33,1
163K34S4,359,experiment,99,←,left,←,0.6378910997882485,True,33,0
163K34S4,360,experiment,54,→,right,→,0.553935400210321,True,33,1
163K34S4,361,experiment,103,→,right,→,0.6333853998221457,True,33,1
163K34S4,362,experiment,69,↑,up,↑,0.640792100224644,True,33,1
163K34S4,363,experiment,108,→,right,→,0.5066975997760892,True,33,1
163K34S4,364,experiment,101,←,left,←,0.5164940999820828,True,33,1
163K34S4,365,experiment,55,→,right,→,0.453430799767375,True,33,1
163K34S4,366,experiment,100,↑,no_key,no_letter,-1.0,False,33,1
163K34S4,367,experiment,62,↓,down,↓,0.55845159990713,True,33,1
163K34S4,368,experiment,51,→,right,→,0.6709695998579264,True,33,1
163K34S4,369,experiment,56,↓,down,↓,0.5049743000417948,True,33,1
163K34S4,370,experiment,104,←,left,←,0.5617940002121031,True,33,1
163K34S4,371,experiment,92,←,left,←,0.45287720020860434,True,33,1
163K34S4,372,experiment,90,←,no_key,no_letter,-1.0,False,33,1
163K34S4,373,experiment,60,↑,left,←,0.5863457000814378,False,33,1
163K34S4,374,experiment,59,↓,down,↓,0.5426656999625266,True,33,1
163K34S4,375,experiment,105,↓,down,↓,0.5818596999160945,True,33,1
163K34S4,376,experiment,107,←,left,←,0.3674182998947799,True,33,1
163K34S4,377,experiment,91,↓,down,↓,0.44534080009907484,True,33,0
163K34S4,378,experiment,80,↑,up,↑,0.6399489999748766,True,33,1
163K34S4,379,experiment,78,→,right,→,0.4761646999977529,True,33,1
163K34S4,380,experiment,75,↑,no_key,no_letter,-1.0,False,33,1
163K34S4,381,experiment,84,→,right,→,0.6056548003107309,True,33,1
163K34S4,382,experiment,74,→,right,→,0.57237029960379,True,33,1
163K34S4,383,experiment,86,↑,up,↑,0.6483626998960972,True,33,1
163K34S4,384,experiment,94,↓,down,↓,0.5588301001116633,True,33,1
163K34S4,385,experiment,48,↓,up,↑,0.5761907999403775,False,33,1
163K34S4,386,experiment,83,↓,no_key,no_letter,-1.0,False,33,1
163K34S4,387,experiment,66,↑,up,↑,0.7052774000912905,True,33,1
163K34S4,388,experiment,71,↑,up,↑,0.700945199932903,True,33,1
163K34S4,389,experiment,57,→,no_key,no_letter,-1.0,False,33,1
163K34S4,390,experiment,102,↑,up,↑,0.6614002999849617,True,33,1
163K34S4,391,experiment,50,↑,no_key,no_letter,-1.0,False,33,1
163K34S4,392,experiment,97,↓,down,↓,0.5877080000936985,True,33,1
163K34S4,393,experiment,52,→,right,→,0.6346247000619769,True,33,1
163K34S4,394,experiment,98,←,left,←,0.6720996000804007,True,33,1
163K34S4,395,experiment,72,↑,down,↓,0.6207798002287745,False,33,1
163K34S4,396,experiment,73,↓,down,↓,0.5073598003946245,True,33,1
163K34S4,397,experiment,58,→,right,→,0.4258882002905011,True,33,1
163K34S4,398,experiment,65,↑,up,↑,0.48405899992212653,True,33,0
163K34S4,399,experiment,63,←,left,←,0.4007075000554323,True,33,1
163K34S4,400,experiment,79,←,left,←,0.457165100146085,True,33,0
163K34S4,401,experiment,87,←,left,←,0.45740019995719194,True,33,1
163K34S4,402,experiment,68,→,right,→,0.5038389000110328,True,33,1
163K34S4,403,experiment,70,←,left,←,0.6442303000949323,True,33,1
163K34S4,404,experiment,96,↓,down,↓,0.5062466999515891,True,33,1
163K34S4,405,experiment,85,↓,down,↓,0.48928619967773557,True,33,1
163K34S4,406,experiment,67,↑,up,↑,0.6871145996265113,True,33,1
163K34S4,407,experiment,95,↓,down,↓,0.5477370996959507,True,33,1
163K34S4,408,experiment,89,←,left,←,0.6158435000106692,True,33,1
163K34S4,409,experiment,64,←,left,←,0.4500929000787437,True,33,1
163K34S4,410,experiment,82,→,no_key,no_letter,-1.0,False,33,1
163K34S4,411,experiment,76,↓,down,↓,0.5085334000177681,True,33,1
163K34S4,412,experiment,106,↓,down,↓,0.484156500082463,True,33,1
163K34S4,413,experiment,53,←,left,←,0.6469066003337502,True,33,1
163K34S4,414,experiment,61,→,right,→,0.4258402003906667,True,33,1
163K34S4,415,experiment,81,→,right,→,0.6517910999245942,True,33,0
163K34S4,416,experiment,77,←,left,←,0.4957602000795305,True,33,1
163K34S4,417,experiment,93,→,right,→,0.5645197001285851,True,33,1
163K34S4,418,experiment,49,↑,up,↑,0.6534843998961151,True,33,1
163K34S4,419,training,91,←,left,←,0.42572479974478483,True,33,0
163K34S4,420,training,78,↑,up,↑,0.5452653001993895,True,33,0
163K34S4,421,experiment,99,↑,up,↑,0.530292899813503,True,33,1
163K34S4,422,experiment,88,→,right,→,0.6074665002524853,True,33,1
163K34S4,423,experiment,54,↑,up,↑,0.5326914000324905,True,33,1
163K34S4,424,experiment,65,→,right,→,0.6094963001087308,True,33,1
163K34S4,425,experiment,96,→,left,←,0.5128572997637093,False,33,1
163K34S4,426,experiment,95,←,left,←,0.39213640009984374,True,33,1
163K34S4,427,experiment,86,↓,down,↓,0.4792745001614094,True,33,0
163K34S4,428,experiment,57,↑,up,↑,0.4256929000839591,True,33,1
163K34S4,429,experiment,76,→,right,→,0.36734260013327,True,33,0
163K34S4,430,experiment,108,↓,down,↓,0.40911970008164644,True,33,0
163K34S4,431,experiment,82,↓,down,↓,0.670227499678731,True,33,0
163K34S4,432,experiment,52,←,left,←,0.633977500256151,True,33,1
163K34S4,433,experiment,87,→,right,→,0.4176604002714157,True,33,1
163K34S4,434,experiment,104,→,right,→,0.5514197000302374,True,33,0
163K34S4,435,experiment,83,←,left,←,0.48582320008426905,True,33,1
163K34S4,436,experiment,97,↓,down,↓,0.7375573003664613,True,33,1
163K34S4,437,experiment,59,→,right,→,0.4175466001033783,True,33,1
163K34S4,438,experiment,89,↓,down,↓,0.5373496999964118,True,33,0
163K34S4,439,experiment,75,↑,up,↑,0.3842429001815617,True,33,1
163K34S4,440,experiment,72,→,right,→,0.4173380001448095,True,33,0
163K34S4,441,experiment,107,→,right,→,0.35940399998798966,True,33,0
163K34S4,442,experiment,93,↑,up,↑,0.3925102995708585,True,33,0
163K34S4,443,experiment,91,↑,up,↑,0.6010127002373338,True,33,0
163K34S4,444,experiment,102,↓,down,↓,0.408761499915272,True,33,1
163K34S4,445,experiment,78,→,right,→,0.8837753003463149,True,33,0
163K34S4,446,experiment,73,↑,up,↑,0.42540600011125207,True,33,1
163K34S4,447,experiment,66,→,right,→,0.7602915000170469,True,33,0
163K34S4,448,experiment,74,↓,down,↓,0.6809617001563311,True,33,1
163K34S4,449,experiment,94,↑,up,↑,0.6861649001948535,True,33,1
163K34S4,450,experiment,64,↓,no_key,no_letter,-1.0,False,33,1
163K34S4,451,experiment,53,↓,down,↓,0.45393409999087453,True,33,1
163K34S4,452,experiment,51,↓,no_key,no_letter,-1.0,False,33,1
163K34S4,453,experiment,77,↓,down,↓,0.5621949997730553,True,33,1
163K34S4,454,experiment,50,↑,up,↑,0.45907949982210994,True,33,1
163K34S4,455,experiment,81,↑,up,↑,0.42581290006637573,True,33,1
163K34S4,456,experiment,60,→,right,→,0.6315410998649895,True,33,0
163K34S4,457,experiment,63,←,left,←,0.40848940005525947,True,33,1
163K34S4,458,experiment,62,←,left,←,0.6274212999269366,True,33,0
163K34S4,459,experiment,90,→,right,→,0.6920763999223709,True,33,1
163K34S4,460,experiment,79,↓,down,↓,0.4619944002479315,True,33,1
163K34S4,461,experiment,105,→,right,→,0.6239999001845717,True,33,1
163K34S4,462,experiment,106,↓,down,↓,0.4595373999327421,True,33,1
163K34S4,463,experiment,48,↓,down,↓,0.7528021996840835,True,33,1
163K34S4,464,experiment,55,←,left,←,0.45645949989557266,True,33,1
163K34S4,465,experiment,103,↓,down,↓,0.47522149980068207,True,33,1
163K34S4,466,experiment,56,↓,down,↓,0.6772348000667989,True,33,1
163K34S4,467,experiment,61,→,right,→,0.454086999874562,True,33,1
163K34S4,468,experiment,49,↑,no_key,no_letter,-1.0,False,33,1
163K34S4,469,experiment,67,←,left,←,0.40901200007647276,True,33,1
163K34S4,470,experiment,85,↑,up,↑,0.5209931000135839,True,33,0
163K34S4,471,experiment,80,→,right,→,0.5531558003276587,True,33,1
163K34S4,472,experiment,70,→,right,→,0.8515925998799503,True,33,1
163K34S4,473,experiment,58,↑,up,↑,0.7805233998224139,True,33,1
163K34S4,474,experiment,68,←,left,←,0.4546731999143958,True,33,1
163K34S4,475,experiment,100,↓,down,↓,0.48240459989756346,True,33,1
163K34S4,476,experiment,69,→,right,→,0.5837726001627743,True,33,1
163K34S4,477,experiment,98,↑,up,↑,0.6474123997613788,True,33,1
163K34S4,478,experiment,84,←,left,←,0.5532065997831523,True,33,1
163K34S4,479,experiment,101,↓,down,↓,0.6012091999873519,True,33,1
163K34S4,480,experiment,92,→,right,→,0.44281450007110834,True,33,1
163K34S4,481,experiment,71,→,right,→,0.5123279001563787,True,33,0
163K34S4,482,training,100,→,right,→,0.4006467000581324,True,32,0
163K34S4,483,training,48,→,right,→,0.41737330006435513,True,32,0
163K34S4,484,experiment,55,↑,down,↓,0.7994605000130832,False,32,0
163K34S4,485,experiment,50,↓,down,↓,0.6465370999649167,True,32,1
163K34S4,486,experiment,58,→,right,→,0.3674067002721131,True,32,1
163K34S4,487,experiment,97,↑,down,↓,0.673384000081569,False,32,0
163K34S4,488,experiment,73,↓,down,↓,0.45392420003190637,True,32,1
163K34S4,489,experiment,79,↑,up,↑,0.5848236000165343,True,32,1
163K34S4,490,experiment,54,←,left,←,0.5352888000197709,True,32,1
163K34S4,491,experiment,77,↑,up,↑,0.45608479995280504,True,32,1
163K34S4,492,experiment,82,↑,up,↑,0.6340196998789907,True,32,1
163K34S4,493,experiment,78,→,right,→,0.45465190010145307,True,32,1
163K34S4,494,experiment,106,→,right,→,0.3840526998974383,True,32,1
163K34S4,495,experiment,105,↓,down,↓,0.5895263999700546,True,32,0
163K34S4,496,experiment,70,↓,down,↓,0.6062545999884605,True,32,1
163K34S4,497,experiment,72,↑,up,↑,0.446159899700433,True,32,1
163K34S4,498,experiment,51,↑,up,↑,0.5544309997931123,True,32,1
163K34S4,499,experiment,88,↓,no_key,no_letter,-1.0,False,32,1
163K34S4,500,experiment,80,↑,up,↑,0.7020535999909043,True,32,1
163K34S4,501,experiment,89,↓,no_key,no_letter,-1.0,False,32,1
163K34S4,502,experiment,91,↓,down,↓,0.5438721003010869,True,32,1
163K34S4,503,experiment,48,↑,down,↓,0.6660442999564111,False,32,1
163K34S4,504,experiment,62,←,left,←,0.7143939002417028,True,32,1
163K34S4,505,experiment,57,↓,down,↓,0.5145243001170456,True,32,1
163K34S4,506,experiment,95,←,left,←,0.4620075998827815,True,32,1
163K34S4,507,experiment,102,↓,down,↓,0.6088827000930905,True,32,1
163K34S4,508,experiment,66,→,right,→,0.5471977000124753,True,32,1
163K34S4,509,experiment,94,↓,down,↓,0.5646790000610054,True,32,1
163K34S4,510,experiment,63,↑,up,↑,0.6808154997415841,True,32,1
163K34S4,511,experiment,75,↓,no_key,no_letter,-1.0,False,32,1
163K34S4,512,experiment,65,↑,no_key,no_letter,-1.0,False,32,1
163K34S4,513,experiment,84,↓,down,↓,0.606953099835664,True,32,1
163K34S4,514,experiment,49,↑,down,↓,0.6380146001465619,False,32,1
163K34S4,515,experiment,100,↓,down,↓,0.4906643000431359,True,32,1
163K34S4,516,experiment,96,↑,no_key,no_letter,-1.0,False,32,1
163K34S4,517,experiment,98,↓,down,↓,0.5761604998260736,True,32,1
163K34S4,518,experiment,59,↓,up,↑,0.5893012001179159,False,32,1
163K34S4,519,experiment,99,↑,up,↑,0.4369185999967158,True,32,1
163K34S4,520,experiment,71,↑,up,↑,0.5628085001371801,True,32,0
163K34S4,521,experiment,81,↑,no_key,no_letter,-1.0,False,32,1
163K34S4,522,experiment,67,→,right,→,0.46124920016154647,True,32,1
163K34S4,523,experiment,60,↓,down,↓,0.710540700238198,True,32,1
163K34S4,524,experiment,68,→,right,→,0.5472500999458134,True,32,1
163K34S4,525,experiment,61,↑,up,↑,0.63295659981668,True,32,1
163K34S4,526,experiment,69,↑,up,↑,0.5200502998195589,True,32,1
163K34S4,527,experiment,64,←,left,←,0.4938857997767627,True,32,1
163K34S4,528,experiment,87,↑,no_key,no_letter,-1.0,False,32,1
163K34S4,529,experiment,83,←,left,←,0.6677578999660909,True,32,1
163K34S4,530,experiment,103,↑,no_key,no_letter,-1.0,False,32,1
163K34S4,531,experiment,90,↑,up,↑,0.4427968002855778,True,32,1
163K34S4,532,experiment,92,↓,down,↓,0.7375563001260161,True,32,1
163K34S4,533,experiment,86,↓,up,↑,0.542996000032872,False,32,1
163K34S4,534,experiment,107,→,right,→,0.5574215999804437,True,32,1
163K34S4,535,experiment,76,↓,down,↓,0.6294057001359761,True,32,1
163K34S4,536,experiment,56,→,right,→,0.6812194995582104,True,32,1
163K34S4,537,experiment,85,↓,down,↓,0.6012030998244882,True,32,1
163K34S4,538,experiment,104,←,left,←,0.8222288000397384,True,32,1
163K34S4,539,experiment,101,←,right,→,0.5872776000760496,False,32,1
163K34S4,540,experiment,52,→,right,→,0.47428630013018847,True,32,1
163K34S4,541,experiment,53,↓,down,↓,0.6054698997177184,True,32,1
163K34S4,542,experiment,108,↑,down,↓,0.6488454998470843,False,32,1
163K34S4,543,experiment,93,↓,down,↓,0.4716674000956118,True,32,1
163K34S4,544,experiment,74,→,no_key,no_letter,-1.0,False,32,1
163K34S4,545,training,50,→,right,→,0.4509890000335872,True,32,0
163K34S4,546,training,82,←,left,←,0.4090531999245286,True,32,1
163K34S4,547,experiment,59,↓,down,↓,0.5605671000666916,True,32,0
163K34S4,548,experiment,62,↓,down,↓,0.6132894000038505,True,32,1
163K34S4,549,experiment,65,→,right,→,0.36747709987685084,True,32,1
163K34S4,550,experiment,105,↓,down,↓,0.5164006999693811,True,32,0
163K34S4,551,experiment,66,←,left,←,0.5218074996955693,True,32,1
163K34S4,552,experiment,71,←,no_key,no_letter,-1.0,False,32,1
163K34S4,553,experiment,84,←,left,←,0.4008078002370894,True,32,1
163K34S4,554,experiment,91,→,right,→,0.556228700093925,True,32,0
163K34S4,555,experiment,55,→,right,→,0.4436777997761965,True,32,1
163K34S4,556,experiment,77,↓,down,↓,0.6553913000971079,True,32,1
163K34S4,557,experiment,104,↓,down,↓,0.48198459995910525,True,32,1
163K34S4,558,experiment,95,↓,down,↓,0.5267248000018299,True,32,1
163K34S4,559,experiment,49,←,left,←,0.5132756000384688,True,32,1
163K34S4,560,experiment,48,↓,down,↓,0.4842719999141991,True,32,1
163K34S4,561,experiment,98,↓,down,↓,0.6319663999602199,True,32,1
163K34S4,562,experiment,96,↑,up,↑,0.7425285996869206,True,32,1
163K34S4,563,experiment,87,→,no_key,no_letter,-1.0,False,32,1
163K34S4,564,experiment,80,↑,up,↑,0.451150200329721,True,32,1
163K34S4,565,experiment,52,↓,down,↓,0.6315077999606729,True,32,1
163K34S4,566,experiment,103,←,left,←,0.6594444997608662,True,32,1
163K34S4,567,experiment,81,↓,down,↓,0.7098562000319362,True,32,1
163K34S4,568,experiment,51,←,left,←,0.4484831001609564,True,32,1
163K34S4,569,experiment,97,→,right,→,0.5976395001634955,True,32,1
163K34S4,570,experiment,108,↑,up,↑,0.5933309998363256,True,32,1
163K34S4,571,experiment,89,←,no_key,no_letter,-1.0,False,32,1
163K34S4,572,experiment,75,←,left,←,0.4609714997932315,True,32,1
163K34S4,573,experiment,54,→,right,→,0.4645199002698064,True,32,1
163K34S4,574,experiment,70,↑,up,↑,0.5180779001675546,True,32,1
163K34S4,575,experiment,86,↑,up,↑,0.5003605000674725,True,32,1
163K34S4,576,experiment,73,↑,up,↑,0.40917509980499744,True,32,1
163K34S4,577,experiment,94,↓,down,↓,0.5275301001966,True,32,0
163K34S4,578,experiment,106,←,left,←,0.4172600996680558,True,32,1
163K34S4,579,experiment,93,↓,down,↓,0.5347070000134408,True,32,0
163K34S4,580,experiment,102,→,right,→,0.5111897001042962,True,32,1
163K34S4,581,experiment,58,↑,up,↑,0.4871143000200391,True,32,1
163K34S4,582,experiment,61,↑,up,↑,0.4713000003248453,True,32,1
163K34S4,583,experiment,82,↓,down,↓,0.4571867003105581,True,32,1
163K34S4,584,experiment,78,↓,down,↓,0.6681385999545455,True,32,1
163K34S4,585,experiment,79,→,right,→,0.4549064999446273,True,32,1
163K34S4,586,experiment,56,↑,no_key,no_letter,-1.0,False,32,1
163K34S4,587,experiment,63,←,left,←,0.6469763000495732,True,32,1
163K34S4,588,experiment,68,↓,down,↓,0.4540070998482406,True,32,1
163K34S4,589,experiment,69,↓,down,↓,0.6606946997344494,True,32,1
163K34S4,590,experiment,53,↑,up,↑,0.4012126997113228,True,32,1
163K34S4,591,experiment,92,↓,down,↓,0.5847577000968158,True,32,0
163K34S4,592,experiment,85,↑,up,↑,0.4529932998120785,True,32,1
163K34S4,593,experiment,90,←,left,←,0.4682359001599252,True,32,1
163K34S4,594,experiment,76,←,left,←,0.6400444000028074,True,32,1
163K34S4,595,experiment,107,↑,up,↑,0.4008277002722025,True,32,1
163K34S4,596,experiment,99,↓,down,↓,0.6409301999956369,True,32,0
163K34S4,597,experiment,67,↓,down,↓,0.6084353001788259,True,32,1
163K34S4,598,experiment,72,↑,up,↑,0.44035220006480813,True,32,1
163K34S4,599,experiment,100,←,left,←,0.44522800017148256,True,32,1
163K34S4,600,experiment,74,↑,up,↑,0.7297185999341309,True,32,1
163K34S4,601,experiment,50,→,right,→,0.4674128000624478,True,32,1
163K34S4,602,experiment,64,←,left,←,0.627168099861592,True,32,1
163K34S4,603,experiment,60,↑,down,↓,0.7819700003601611,False,32,1
163K34S4,604,experiment,83,↓,down,↓,0.5785342999733984,True,32,1
163K34S4,605,experiment,57,↑,no_key,no_letter,-1.0,False,32,1
163K34S4,606,experiment,101,←,left,←,0.6091912002302706,True,32,1
163K34S4,607,experiment,88,↓,down,↓,0.46681230003014207,True,32,1
163K34S4,608,training,74,→,right,→,0.40073359990492463,True,31,0
163K34S4,609,training,104,↑,up,↑,0.45254029985517263,True,31,0
163K34S4,610,experiment,61,↑,down,↓,0.6380032002925873,False,31,1
163K34S4,611,experiment,60,→,right,→,0.6242982996627688,True,31,1
163K34S4,612,experiment,75,←,left,←,0.43840770004317164,True,31,1
163K34S4,613,experiment,66,←,left,←,0.6779157998971641,True,31,1
163K34S4,614,experiment,80,↑,up,↑,0.40074760001152754,True,31,1
163K34S4,615,experiment,104,←,left,←,0.5326212998479605,True,31,0
163K34S4,616,experiment,108,↓,no_key,no_letter,-1.0,False,31,1
163K34S4,617,experiment,51,↑,no_key,no_letter,-1.0,False,31,1
163K34S4,618,experiment,99,→,right,→,0.45409630006179214,True,31,1
163K34S4,619,experiment,57,↓,down,↓,0.5207688002847135,True,31,1
163K34S4,620,experiment,90,←,left,←,0.7895720000378788,True,31,1
163K34S4,621,experiment,70,→,right,→,0.6142208999954164,True,31,1
163K34S4,622,experiment,92,→,no_key,no_letter,-1.0,False,31,1
163K34S4,623,experiment,79,↑,up,↑,0.694838700350374,True,31,1
163K34S4,624,experiment,87,→,right,→,0.6538864998146892,True,31,1
163K34S4,625,experiment,86,→,left,←,0.7429904001764953,False,31,1
163K34S4,626,experiment,84,↓,down,↓,0.5809296001680195,True,31,1
163K34S4,627,experiment,62,↑,up,↑,0.6006423998624086,True,31,1
163K34S4,628,experiment,93,↑,up,↑,0.44154119957238436,True,31,1
163K34S4,629,experiment,101,→,left,←,0.5417850003577769,False,31,1
163K34S4,630,experiment,82,→,right,→,0.5645111002959311,True,31,1
163K34S4,631,experiment,65,←,right,→,0.5838280003517866,False,31,1
163K34S4,632,experiment,52,↑,no_key,no_letter,-1.0,False,31,1
163K34S4,633,experiment,53,←,left,←,0.6160069000907242,True,31,1
163K34S4,634,experiment,89,←,left,←,0.4337378996424377,True,31,1
163K34S4,635,experiment,102,←,left,←,0.6776552000083029,True,31,1
163K34S4,636,experiment,59,→,no_key,no_letter,-1.0,False,31,1
163K34S4,637,experiment,76,↓,down,↓,0.6319277998991311,True,31,1
163K34S4,638,experiment,85,↑,up,↑,0.45032350020483136,True,31,1
163K34S4,639,experiment,63,↓,down,↓,0.5149709000252187,True,31,1
163K34S4,640,experiment,94,↓,down,↓,0.6064478000625968,True,31,1
163K34S4,641,experiment,68,↓,down,↓,0.5592235000804067,True,31,1
163K34S4,642,experiment,95,→,right,→,0.6489050001837313,True,31,1
163K34S4,643,experiment,55,←,left,←,0.6045634001493454,True,31,1
163K34S4,644,experiment,72,↓,down,↓,0.4363561999052763,True,31,1
163K34S4,645,experiment,64,↓,down,↓,0.49291779985651374,True,31,1
163K34S4,646,experiment,103,↑,down,↓,0.69466059980914,False,31,1
163K34S4,647,experiment,98,→,right,→,0.5778422998264432,True,31,1
163K34S4,648,experiment,83,→,left,←,0.9989521000534296,False,31,1
163K34S4,649,experiment,97,→,right,→,0.6228825999423862,True,31,1
163K34S4,650,experiment,67,→,right,→,0.4706698004156351,True,31,1
163K34S4,651,experiment,107,↑,up,↑,0.7356467000208795,True,31,1
163K34S4,652,experiment,74,←,left,←,0.6094778999686241,True,31,1
163K34S4,653,experiment,58,↑,down,↓,0.6536615998484194,False,31,1
163K34S4,654,experiment,56,↓,down,↓,0.640593699645251,True,31,1
163K34S4,655,experiment,100,←,left,←,0.46129100024700165,True,31,1
163K34S4,656,experiment,88,→,right,→,0.39217270025983453,True,31,1
163K34S4,657,experiment,78,↓,down,↓,0.49107980029657483,True,31,0
163K34S4,658,experiment,106,↑,up,↑,0.4363266001455486,True,31,1
163K34S4,659,experiment,105,→,right,→,0.9028141000308096,True,31,1
163K34S4,660,experiment,54,↓,down,↓,0.48047269973903894,True,31,1
163K34S4,661,experiment,49,←,left,←,0.45282329991459846,True,31,1
163K34S4,662,experiment,77,↑,down,↓,0.7527283001691103,False,31,1
163K34S4,663,experiment,71,↓,down,↓,0.49883370008319616,True,31,1
163K34S4,664,experiment,50,→,left,←,0.5658819996751845,False,31,1
163K34S4,665,experiment,91,↑,no_key,no_letter,-1.0,False,31,1
163K34S4,666,experiment,69,→,left,←,0.7404482001438737,False,31,1
163K34S4,667,experiment,48,↓,down,↓,0.5902522001415491,True,31,1
163K34S4,668,experiment,73,↑,up,↑,0.6619309997186065,True,31,1
163K34S4,669,experiment,81,↑,up,↑,0.6163752996362746,True,31,1
163K34S4,670,experiment,96,←,left,←,0.4793309001252055,True,31,1
163K34S4,671,training,60,→,right,→,0.4275350999087095,True,31,0
163K34S4,672,training,81,→,right,→,0.4005944998934865,True,31,0
163K34S4,673,experiment,97,↓,down,↓,0.6294809998944402,True,31,0
163K34S4,674,experiment,91,→,right,→,0.6054587000980973,True,31,1
163K34S4,675,experiment,78,↑,down,↓,0.8428393001668155,False,31,1
163K34S4,676,experiment,86,↓,down,↓,0.5882226997055113,True,31,1
163K34S4,677,experiment,89,←,left,←,0.5985243003815413,True,31,1
163K34S4,678,experiment,90,←,left,←,0.6242782999761403,True,31,1
163K34S4,679,experiment,95,→,left,←,0.5993547001853585,False,31,1
163K34S4,680,experiment,108,↓,down,↓,0.4274980998598039,True,31,1
163K34S4,681,experiment,88,↓,down,↓,0.6200711000710726,True,31,0
163K34S4,682,experiment,100,←,left,←,0.44993519969284534,True,31,1
163K34S4,683,experiment,101,→,right,→,0.49380799988284707,True,31,1
163K34S4,684,experiment,59,→,right,→,0.7260821000672877,True,31,1
163K34S4,685,experiment,62,←,left,←,0.5402950998395681,True,31,1
163K34S4,686,experiment,68,↑,up,↑,0.5837142998352647,True,31,1
163K34S4,687,experiment,70,↓,down,↓,0.4488456998951733,True,31,1
163K34S4,688,experiment,61,↓,down,↓,0.5302601000294089,True,31,1
163K34S4,689,experiment,79,←,left,←,0.7223308999091387,True,31,1
163K34S4,690,experiment,50,↑,up,↑,0.46830879990011454,True,31,1
163K34S4,691,experiment,53,→,right,→,0.5758505002595484,True,31,1
163K34S4,692,experiment,83,→,left,←,0.8128662998788059,False,31,1
163K34S4,693,experiment,65,←,left,←,0.46289470000192523,True,31,1
163K34S4,694,experiment,99,↓,down,↓,0.514580300077796,True,31,1
163K34S4,695,experiment,75,←,left,←,0.4763452997431159,True,31,1
163K34S4,696,experiment,93,→,right,→,0.4091125996783376,True,31,1
163K34S4,697,experiment,98,↑,left,←,0.8086268999613822,False,31,0
163K34S4,698,experiment,67,↓,down,↓,0.8254729998297989,True,31,1
163K34S4,699,experiment,58,↑,up,↑,0.43745809979736805,True,31,1
163K34S4,700,experiment,80,→,right,→,0.40044880006462336,True,31,1
163K34S4,701,experiment,81,→,right,→,0.6044065998867154,True,31,0
163K34S4,702,experiment,96,→,right,→,0.6041617002338171,True,31,1
163K34S4,703,experiment,76,↑,up,↑,0.5385168003849685,True,31,1
163K34S4,704,experiment,103,→,right,→,0.5781942997127771,True,31,1
163K34S4,705,experiment,106,↓,down,↓,0.48754760017618537,True,31,1
163K34S4,706,experiment,104,→,right,→,0.43357979971915483,True,31,1
163K34S4,707,experiment,56,→,right,→,0.5726952999830246,True,31,1
163K34S4,708,experiment,57,→,right,→,0.49069330003112555,True,31,1
163K34S4,709,experiment,74,↓,down,↓,0.4777740999124944,True,31,1
163K34S4,710,experiment,77,→,right,→,0.600940499920398,True,31,1
163K34S4,711,experiment,94,→,right,→,0.3919746996834874,True,31,1
163K34S4,712,experiment,107,↓,down,↓,0.6214136998169124,True,31,0
163K34S4,713,experiment,63,↑,up,↑,0.43163370015099645,True,31,1
163K34S4,714,experiment,60,→,right,→,0.617591000162065,True,31,1
163K34S4,715,experiment,66,←,left,←,0.4090660000219941,True,31,1
163K34S4,716,experiment,52,↑,up,↑,0.5763916000723839,True,31,0
163K34S4,717,experiment,64,↓,down,↓,0.659877700265497,True,31,1
163K34S4,718,experiment,102,←,left,←,0.3841929999180138,True,31,1
163K34S4,719,experiment,84,↑,up,↑,0.5473124999552965,True,31,0
163K34S4,720,experiment,55,↓,down,↓,0.4353024996817112,True,31,1
163K34S4,721,experiment,51,↓,down,↓,0.50438839988783,True,31,1
163K34S4,722,experiment,48,↓,down,↓,0.7478882996365428,True,31,1
163K34S4,723,experiment,71,↑,up,↑,0.40972500015050173,True,31,1
163K34S4,724,experiment,85,↓,down,↓,0.504759999923408,True,31,0
163K34S4,725,experiment,92,←,left,←,0.375405500177294,True,31,1
163K34S4,726,experiment,72,↑,down,↓,0.5898873000405729,False,31,0
163K34S4,727,experiment,105,↑,up,↑,0.3676001001149416,True,31,1
163K34S4,728,experiment,49,←,no_key,no_letter,-1.0,False,31,0
163K34S4,729,experiment,73,↑,up,↑,0.6376806003972888,True,31,1
163K34S4,730,experiment,87,↑,up,↑,0.4870374999009073,True,31,1
163K34S4,731,experiment,54,↑,up,↑,0.6573951002210379,True,31,1
163K34S4,732,experiment,82,↑,up,↑,0.43587670009583235,True,31,1
163K34S4,733,experiment,69,↑,up,↑,0.4006873997859657,True,31,1
163K34S4,734,training,78,←,left,←,0.6440460998564959,True,30,0
163K34S4,735,training,88,↑,up,↑,0.6767107998020947,True,30,1
163K34S4,736,experiment,74,→,right,→,0.43279380025342107,True,30,1
163K34S4,737,experiment,61,→,right,→,0.6828736001625657,True,30,1
163K34S4,738,experiment,85,←,left,←,0.6348923998884857,True,30,1
163K34S4,739,experiment,99,↓,down,↓,0.6802702001295984,True,30,1
163K34S4,740,experiment,64,→,right,→,0.5674286000430584,True,30,1
163K34S4,741,experiment,83,↓,down,↓,0.4767442001029849,True,30,1
163K34S4,742,experiment,94,↑,up,↑,0.4267496997490525,True,30,1
163K34S4,743,experiment,106,↓,down,↓,0.52546720020473,True,30,1
163K34S4,744,experiment,103,←,left,←,0.5735527002252638,True,30,1
163K34S4,745,experiment,69,↓,down,↓,0.5433563999831676,True,30,1
163K34S4,746,experiment,52,→,right,→,0.38504769979044795,True,30,1
163K34S4,747,experiment,65,↑,up,↑,0.3924103998579085,True,30,0
163K34S4,748,experiment,54,←,no_key,no_letter,-1.0,False,30,0
163K34S4,749,experiment,101,←,left,←,0.5291233998723328,True,30,1
163K34S4,750,experiment,53,→,left,←,0.5138949998654425,False,30,1
163K34S4,751,experiment,79,→,right,→,0.6746738003566861,True,30,1
163K34S4,752,experiment,107,↑,up,↑,0.6756560001522303,True,30,1
163K34S4,753,experiment,70,↑,no_key,no_letter,-1.0,False,30,1
163K34S4,754,experiment,55,←,left,←,0.5216347998939455,True,30,1
163K34S4,755,experiment,97,→,right,→,0.5159535999409854,True,30,1
163K34S4,756,experiment,100,→,left,←,0.6457152999937534,False,30,1
163K34S4,757,experiment,105,←,left,←,0.5446596997790039,True,30,1
163K34S4,758,experiment,56,←,left,←,0.44827889977023005,True,30,1
163K34S4,759,experiment,102,↓,down,↓,0.5878695002757013,True,30,1
163K34S4,760,experiment,57,←,left,←,0.4489135001786053,True,30,1
163K34S4,761,experiment,76,→,right,→,0.5012640999630094,True,30,1
163K34S4,762,experiment,84,←,left,←,0.5970251001417637,True,30,1
163K34S4,763,experiment,60,↓,down,↓,0.5928064002655447,True,30,1
163K34S4,764,experiment,48,→,left,←,0.5529867000877857,False,30,1
163K34S4,765,experiment,51,↑,up,↑,0.5856910003349185,True,30,1
163K34S4,766,experiment,80,↑,up,↑,0.4713666997849941,True,30,1
163K34S4,767,experiment,92,↓,down,↓,0.6695833001285791,True,30,1
163K34S4,768,experiment,58,→,right,→,0.4631928000599146,True,30,1
163K34S4,769,experiment,77,←,left,←,0.6667066998779774,True,30,1
163K34S4,770,experiment,68,→,no_key,no_letter,-1.0,False,30,1
163K34S4,771,experiment,87,←,left,←,0.622966299764812,True,30,1
163K34S4,772,experiment,88,↓,down,↓,0.49623059993609786,True,30,1
163K34S4,773,experiment,86,↓,down,↓,0.6556244003586471,True,30,1
163K34S4,774,experiment,71,↑,no_key,no_letter,-1.0,False,30,1
163K34S4,775,experiment,49,←,left,←,0.7119601997546852,True,30,1
163K34S4,776,experiment,82,↑,down,↓,0.767926000058651,False,30,1
163K34S4,777,experiment,67,↓,down,↓,0.4907844001427293,True,30,1
163K34S4,778,experiment,63,↑,no_key,no_letter,-1.0,False,30,1
163K34S4,779,experiment,73,←,left,←,0.5643996000289917,True,30,1
163K34S4,780,experiment,90,↓,down,↓,0.495437900070101,True,30,1
163K34S4,781,experiment,78,↑,no_key,no_letter,-1.0,False,30,1
163K34S4,782,experiment,108,↓,down,↓,0.6882927003316581,True,30,1
163K34S4,783,experiment,62,↑,up,↑,0.5518644000403583,True,30,1
163K34S4,784,experiment,59,↓,down,↓,0.4941549999639392,True,30,1
163K34S4,785,experiment,93,↑,up,↑,0.5868923999369144,True,30,1
163K34S4,786,experiment,96,←,left,←,0.42798419995233417,True,30,1
163K34S4,787,experiment,66,→,left,←,0.5556995999068022,False,30,1
163K34S4,788,experiment,81,←,left,←,0.4419321999885142,True,30,1
163K34S4,789,experiment,50,→,no_key,no_letter,-1.0,False,30,1
163K34S4,790,experiment,104,↓,down,↓,0.575656000059098,True,30,1
163K34S4,791,experiment,89,↑,down,↓,0.7946327002719045,False,30,1
163K34S4,792,experiment,98,↓,down,↓,0.6339541999623179,True,30,1
163K34S4,793,experiment,72,→,right,→,0.6724934997037053,True,30,1
163K34S4,794,experiment,91,←,no_key,no_letter,-1.0,False,30,1
163K34S4,795,experiment,95,←,left,←,0.49004560010507703,True,30,1
163K34S4,796,experiment,75,←,left,←,0.5411300999112427,True,30,1
163K34S4,797,training,54,↑,up,↑,0.4442904000170529,True,30,0
163K34S4,798,training,54,←,left,←,0.3590906001627445,True,30,1
163K34S4,799,experiment,96,↓,down,↓,0.5212293001823127,True,30,0
163K34S4,800,experiment,92,←,left,←,0.7092500003054738,True,30,1
163K34S4,801,experiment,84,←,left,←,0.6606648997403681,True,30,1
163K34S4,802,experiment,102,↓,down,↓,0.4401358999311924,True,30,1
163K34S4,803,experiment,69,←,left,←,0.4236058001406491,True,30,1
163K34S4,804,experiment,60,→,right,→,0.6337930001318455,True,30,1
163K34S4,805,experiment,68,↑,up,↑,0.6495822998695076,True,30,1
163K34S4,806,experiment,81,←,left,←,0.5324368001893163,True,30,1
163K34S4,807,experiment,88,↑,up,↑,0.38413270004093647,True,30,1
163K34S4,808,experiment,48,↑,up,↑,0.4734435002319515,True,30,0
163K34S4,809,experiment,97,↓,down,↓,0.4618742996826768,True,30,1
163K34S4,810,experiment,101,→,right,→,0.433865699917078,True,30,1
163K34S4,811,experiment,61,←,left,←,0.6516587999649346,True,30,1
163K34S4,812,experiment,106,→,right,→,0.43827670020982623,True,30,1
163K34S4,813,experiment,49,→,left,←,0.7557785999961197,False,30,1
163K34S4,814,experiment,59,↑,up,↑,0.45747860008850694,True,30,1
163K34S4,815,experiment,72,→,right,→,0.4235573997721076,True,30,1
163K34S4,816,experiment,55,↑,no_key,no_letter,-1.0,False,30,1
163K34S4,817,experiment,104,→,right,→,0.4916480998508632,True,30,1
163K34S4,818,experiment,108,↑,up,↑,0.5877787000499666,True,30,1
163K34S4,819,experiment,82,←,left,←,0.5843794997781515,True,30,1
163K34S4,820,experiment,87,→,right,→,0.4756660000421107,True,30,1
163K34S4,821,experiment,57,←,left,←,0.4694189000874758,True,30,1
163K34S4,822,experiment,56,←,left,←,0.4639149000868201,True,30,1
163K34S4,823,experiment,75,↓,down,↓,0.5080120996572077,True,30,1
163K34S4,824,experiment,67,↑,no_key,no_letter,-1.0,False,30,1
163K34S4,825,experiment,79,→,right,→,0.5695969997905195,True,30,1
163K34S4,826,experiment,89,→,right,→,0.4454189999960363,True,30,1
163K34S4,827,experiment,95,↓,down,↓,0.6350294998846948,True,30,1
163K34S4,828,experiment,58,←,left,←,0.36765839997678995,True,30,1
163K34S4,829,experiment,51,←,right,→,0.5499730003066361,False,30,0
163K34S4,830,experiment,64,←,left,←,0.562332000117749,True,30,1
163K34S4,831,experiment,107,↑,up,↑,0.479865700006485,True,30,1
163K34S4,832,experiment,53,←,left,←,0.4270501001738012,True,30,1
163K34S4,833,experiment,66,↑,no_key,no_letter,-1.0,False,30,1
163K34S4,834,experiment,70,←,left,←,0.6065048999153078,True,30,1
163K34S4,835,experiment,91,→,left,←,0.5594907999038696,False,30,1
163K34S4,836,experiment,63,→,right,→,0.643835199996829,True,30,1
163K34S4,837,experiment,50,↓,down,↓,0.665432299952954,True,30,1
163K34S4,838,experiment,74,↓,down,↓,0.6137899998575449,True,30,1
163K34S4,839,experiment,105,↑,up,↑,0.5857073999941349,True,30,1
163K34S4,840,experiment,94,↑,up,↑,0.498758299741894,True,30,1
163K34S4,841,experiment,98,↓,down,↓,0.653770299628377,True,30,1
163K34S4,842,experiment,80,↓,down,↓,0.6009161998517811,True,30,1
163K34S4,843,experiment,62,←,left,←,0.5322901997715235,True,30,1
163K34S4,844,experiment,93,↓,down,↓,0.5833827001042664,True,30,1
163K34S4,845,experiment,99,←,left,←,0.5587212997488678,True,30,1
163K34S4,846,experiment,52,→,left,←,0.5187812000513077,False,30,1
163K34S4,847,experiment,54,↓,down,↓,0.4638233999721706,True,30,1
163K34S4,848,experiment,78,→,right,→,0.499070200137794,True,30,1
163K34S4,849,experiment,71,↑,up,↑,0.4473112002015114,True,30,1
163K34S4,850,experiment,90,→,right,→,0.4787755999714136,True,30,1
163K34S4,851,experiment,77,→,left,←,0.8979810997843742,False,30,1
163K34S4,852,experiment,73,↓,down,↓,0.7414437998086214,True,30,1
163K34S4,853,experiment,83,↓,down,↓,0.43552919989451766,True,30,1
163K34S4,854,experiment,86,↓,down,↓,0.5173772000707686,True,30,1
163K34S4,855,experiment,103,↓,down,↓,0.5660401000641286,True,30,1
163K34S4,856,experiment,85,→,no_key,no_letter,-1.0,False,30,1
163K34S4,857,experiment,65,↑,up,↑,0.4800138003192842,True,30,1
163K34S4,858,experiment,100,↑,down,↓,0.6993617000989616,False,30,1
163K34S4,859,experiment,76,↑,up,↑,0.44591359980404377,True,30,1
163K34S4,860,training,72,↓,down,↓,0.6093776002526283,True,30,0
163K34S4,861,training,80,↑,up,↑,0.4621206996962428,True,30,1
163K34S4,862,experiment,81,←,left,←,0.7045478001236916,True,30,1
163K34S4,863,experiment,93,←,left,←,0.4851923999376595,True,30,1
163K34S4,864,experiment,52,↓,down,↓,0.8244225000962615,True,30,1
163K34S4,865,experiment,72,→,left,←,0.6069192001596093,False,30,1
163K34S4,866,experiment,58,→,right,→,0.6830345001071692,True,30,1
163K34S4,867,experiment,99,↓,no_key,no_letter,-1.0,False,30,1
163K34S4,868,experiment,63,↓,down,↓,0.6763408998958766,True,30,1
163K34S4,869,experiment,70,←,no_key,no_letter,-1.0,False,30,1
163K34S4,870,experiment,59,→,right,→,0.48099509999156,True,30,1
163K34S4,871,experiment,65,←,left,←,0.6477382997982204,True,30,1
163K34S4,872,experiment,62,↑,down,↓,0.816835300065577,False,30,1
163K34S4,873,experiment,103,↑,up,↑,0.4455492002889514,True,30,1
163K34S4,874,experiment,86,→,left,←,0.5185110000893474,False,30,1
163K34S4,875,experiment,53,←,left,←,0.47179820016026497,True,30,1
163K34S4,876,experiment,76,→,left,←,0.7716439999639988,False,30,1
163K34S4,877,experiment,71,↓,down,↓,0.4603345999494195,True,30,1
163K34S4,878,experiment,83,↓,down,↓,0.6141164000146091,True,30,1
163K34S4,879,experiment,102,←,left,←,0.4007411999627948,True,30,1
163K34S4,880,experiment,101,↑,up,↑,0.44093210017308593,True,30,0
163K34S4,881,experiment,67,←,left,←,0.7926513003185391,True,30,1
163K34S4,882,experiment,89,↑,down,↓,0.6509445002302527,False,30,1
163K34S4,883,experiment,96,→,left,←,0.7366566997952759,False,30,1
163K34S4,884,experiment,77,↓,down,↓,0.48142189998179674,True,30,1
163K34S4,885,experiment,80,→,left,←,0.5791070996783674,False,30,1
163K34S4,886,experiment,98,←,left,←,0.3924532001838088,True,30,1
163K34S4,887,experiment,92,←,left,←,0.6039233999326825,True,30,0
163K34S4,888,experiment,106,←,left,←,0.5522726001217961,True,30,1
163K34S4,889,experiment,79,→,no_key,no_letter,-1.0,False,30,1
163K34S4,890,experiment,84,→,right,→,0.4466364998370409,True,30,1
163K34S4,891,experiment,85,→,right,→,0.5919276997447014,True,30,1
163K34S4,892,experiment,105,↑,up,↑,0.46096220007166266,True,30,1
163K34S4,893,experiment,95,→,right,→,0.5947432997636497,True,30,1
163K34S4,894,experiment,108,→,left,←,0.6145823998376727,False,30,1
163K34S4,895,experiment,61,→,left,←,0.5934498999267817,False,30,1
163K34S4,896,experiment,78,↓,down,↓,0.535396299790591,True,30,1
163K34S4,897,experiment,66,↑,up,↑,0.4840068002231419,True,30,1
163K34S4,898,experiment,68,↓,down,↓,0.4656058996915817,True,30,1
163K34S4,899,experiment,69,↓,down,↓,0.6477703996933997,True,30,1
163K34S4,900,experiment,57,←,left,←,0.5544957998208702,True,30,1
163K34S4,901,experiment,107,→,right,→,0.6483954000286758,True,30,1
163K34S4,902,experiment,48,↑,up,↑,0.4381411001086235,True,30,1
163K34S4,903,experiment,88,↑,up,↑,0.4705937998369336,True,30,1
163K34S4,904,experiment,56,→,left,←,0.793119200039655,False,30,1
163K34S4,905,experiment,97,↓,down,↓,0.49680749978870153,True,30,1
163K34S4,906,experiment,49,→,left,←,0.7642074003815651,False,30,1
163K34S4,907,experiment,90,↑,no_key,no_letter,-1.0,False,30,1
163K34S4,908,experiment,64,←,left,←,0.43719179974868894,True,30,1
163K34S4,909,experiment,94,↑,up,↑,0.6036864998750389,True,30,1
163K34S4,910,experiment,104,←,left,←,0.4806065000593662,True,30,1
163K34S4,911,experiment,91,→,left,←,0.566637999843806,False,30,1
163K34S4,912,experiment,74,↓,down,↓,0.511075200047344,True,30,1
163K34S4,913,experiment,54,→,no_key,no_letter,-1.0,False,30,1
163K34S4,914,experiment,51,←,left,←,0.5066050002351403,True,30,1
163K34S4,915,experiment,75,←,left,←,0.42930350033566356,True,30,1
163K34S4,916,experiment,60,→,right,→,0.6073659001849592,True,30,1
163K34S4,917,experiment,87,↓,left,←,0.3340897001326084,False,30,1
163K34S4,918,experiment,100,→,no_key,no_letter,-1.0,False,30,0
163K34S4,919,experiment,50,↓,down,↓,0.6845648000016809,True,30,1
163K34S4,920,experiment,55,←,left,←,0.44665660010650754,True,30,1
163K34S4,921,experiment,73,→,no_key,no_letter,-1.0,False,30,1
163K34S4,922,experiment,82,↑,up,↑,0.459528099745512,True,30,1
163K34S4,923,training,106,↓,down,↓,0.5485073998570442,True,30,0
163K34S4,924,training,70,↑,down,↓,0.6468466999940574,False,30,1
163K34S4,925,experiment,73,↑,up,↑,0.4444927000440657,True,30,1
163K34S4,926,experiment,96,→,right,→,0.42709469981491566,True,30,1
163K34S4,927,experiment,74,↓,down,↓,0.5361428000032902,True,30,1
163K34S4,928,experiment,57,←,left,←,0.47973519982770085,True,30,1
163K34S4,929,experiment,49,→,right,→,0.5715982001274824,True,30,1
163K34S4,930,experiment,86,←,left,←,0.559646800160408,True,30,1
163K34S4,931,experiment,98,←,left,←,0.5443413998000324,True,30,1
163K34S4,932,experiment,55,→,no_key,no_letter,-1.0,False,30,1
163K34S4,933,experiment,87,→,left,←,0.6139831002801657,False,30,1
163K34S4,934,experiment,72,↑,up,↑,0.48513259971514344,True,30,1
163K34S4,935,experiment,107,→,right,→,0.581799500156194,True,30,1
163K34S4,936,experiment,62,→,right,→,0.48958140006288886,True,30,1
163K34S4,937,experiment,93,↑,up,↑,0.5346099999733269,True,30,1
163K34S4,938,experiment,95,→,right,→,0.4652487002313137,True,30,1
163K34S4,939,experiment,106,↑,up,↑,0.5390591002069414,True,30,1
163K34S4,940,experiment,84,↓,down,↓,0.6093508997000754,True,30,1
163K34S4,941,experiment,48,↑,up,↑,0.4724302003160119,True,30,1
163K34S4,942,experiment,102,←,left,←,0.4993155002593994,True,30,1
163K34S4,943,experiment,69,→,right,→,0.4799283002503216,True,30,1
163K34S4,944,experiment,89,→,no_key,no_letter,-1.0,False,30,1
163K34S4,945,experiment,90,→,left,←,0.6995576000772417,False,30,1
163K34S4,946,experiment,99,→,right,→,0.7182005001232028,True,30,1
163K34S4,947,experiment,82,←,left,←,0.3837581998668611,True,30,1
163K34S4,948,experiment,75,←,no_key,no_letter,-1.0,False,30,0
163K34S4,949,experiment,65,↑,up,↑,0.5143413003534079,True,30,1
163K34S4,950,experiment,91,↑,down,↓,0.8469153996556997,False,30,1
163K34S4,951,experiment,70,↓,down,↓,0.6612626002170146,True,30,1
163K34S4,952,experiment,54,↑,no_key,no_letter,-1.0,False,30,1
163K34S4,953,experiment,81,←,no_key,no_letter,-1.0,False,30,1
163K34S4,954,experiment,103,↑,down,↓,1.0333555000834167,False,30,1
163K34S4,955,experiment,83,↑,up,↑,0.5716165001504123,True,30,1
163K34S4,956,experiment,59,↓,up,↑,0.5368332001380622,False,30,1
163K34S4,957,experiment,79,→,left,←,0.5529025001451373,False,30,1
163K34S4,958,experiment,56,→,right,→,0.824051100295037,True,30,1
163K34S4,959,experiment,85,→,right,→,0.4903970998711884,True,30,1
163K34S4,960,experiment,71,←,left,←,0.5747592998668551,True,30,1
163K34S4,961,experiment,58,←,left,←,0.44423600006848574,True,30,1
163K34S4,962,experiment,88,→,right,→,0.4609222998842597,True,30,1
163K34S4,963,experiment,101,↓,down,↓,0.6405861000530422,True,30,1
163K34S4,964,experiment,80,→,left,←,0.8599870000034571,False,30,1
163K34S4,965,experiment,104,↑,up,↑,0.5187198999337852,True,30,1
163K34S4,966,experiment,63,↑,no_key,no_letter,-1.0,False,30,1
163K34S4,967,experiment,92,↑,left,←,0.6090172999538481,False,30,1
163K34S4,968,experiment,105,↑,up,↑,0.4375776997767389,True,30,1
163K34S4,969,experiment,108,→,right,→,0.47957600001245737,True,30,1
163K34S4,970,experiment,97,→,right,→,0.4360504997894168,True,30,1
163K34S4,971,experiment,52,←,left,←,0.5685355998575687,True,30,1
163K34S4,972,experiment,60,→,right,→,0.621658000163734,True,30,1
163K34S4,973,experiment,67,↑,up,↑,0.5499715004116297,True,30,1
163K34S4,974,experiment,100,↑,up,↑,0.5504735000431538,True,30,1
163K34S4,975,experiment,68,←,left,←,0.45738500030711293,True,30,1
163K34S4,976,experiment,51,→,right,→,0.5978867001831532,True,30,1
163K34S4,977,experiment,76,↓,down,↓,0.8283869996666908,True,30,1
163K34S4,978,experiment,77,↓,down,↓,0.6574829001910985,True,30,1
163K34S4,979,experiment,94,↑,down,↓,0.7113284002989531,False,30,1
163K34S4,980,experiment,64,↓,no_key,no_letter,-1.0,False,30,1
163K34S4,981,experiment,50,↑,no_key,no_letter,-1.0,False,30,1
163K34S4,982,experiment,66,↑,no_key,no_letter,-1.0,False,30,1
163K34S4,983,experiment,78,←,left,←,0.5494163003750145,True,30,1
163K34S4,984,experiment,61,↑,up,↑,0.45885480009019375,True,30,1
163K34S4,985,experiment,53,→,right,→,0.4705845997668803,True,30,1
163K34S4,986,training,57,→,right,→,0.5036989003419876,True,30,0
163K34S4,987,training,50,→,no_key,no_letter,-1.0,False,30,1
163K34S4,988,experiment,62,←,left,←,0.8809523000381887,True,30,1
163K34S4,989,experiment,75,↑,up,↑,0.6202628999017179,True,30,1
163K34S4,990,experiment,64,←,left,←,0.430139500182122,True,30,1
163K34S4,991,experiment,89,←,left,←,0.3425465999171138,True,30,1
163K34S4,992,experiment,82,↓,down,↓,0.7171783000230789,True,30,0
163K34S4,993,experiment,102,←,left,←,0.37550489977002144,True,30,1
163K34S4,994,experiment,96,↑,up,↑,0.5106116998940706,True,30,0
163K34S4,995,experiment,92,←,left,←,0.571281099691987,True,30,1
163K34S4,996,experiment,58,↑,up,↑,0.433071699924767,True,30,1
163K34S4,997,experiment,100,↑,down,↓,0.7098000999540091,False,30,1
163K34S4,998,experiment,76,↑,up,↑,0.43182680010795593,True,30,1
163K34S4,999,experiment,59,→,right,→,0.4426929000765085,True,30,1
163K34S4,1000,experiment,86,←,left,←,0.6279183998703957,True,30,1
163K34S4,1001,experiment,78,↓,down,↓,0.4648231999017298,True,30,1
163K34S4,1002,experiment,85,↓,down,↓,0.5934858000837266,True,30,1
163K34S4,1003,experiment,51,↑,no_key,no_letter,-1.0,False,30,1
163K34S4,1004,experiment,93,→,right,→,0.5644463999196887,True,30,1
163K34S4,1005,experiment,66,↓,down,↓,0.5835281000472605,True,30,1
163K34S4,1006,experiment,60,↓,down,↓,0.6758873001672328,True,30,1
163K34S4,1007,experiment,61,↑,up,↑,0.4603034001775086,True,30,1
163K34S4,1009,experiment,91,↑,up,↑,0.5359388999640942,True,30,1
163K34S4,1010,experiment,70,←,left,←,0.4991343002766371,True,30,1
163K34S4,1011,experiment,105,←,left,←,0.7318687001243234,True,30,1
163K34S4,1012,experiment,99,→,right,→,0.4689780999906361,True,30,1
163K34S4,1013,experiment,94,→,right,→,0.45083990041166544,True,30,1
163K34S4,1014,experiment,52,→,left,←,0.6312104999087751,False,30,1
163K34S4,1015,experiment,56,←,left,←,0.6990554998628795,True,30,1
163K34S4,1016,experiment,48,↑,down,↓,0.6547570000402629,False,30,1
163K34S4,1017,experiment,101,→,right,→,0.6423780000768602,True,30,1
163K34S4,1018,experiment,79,←,left,←,0.5981767997145653,True,30,1
163K34S4,1019,experiment,95,←,left,←,0.4304865999147296,True,30,1
163K34S4,1020,experiment,71,↑,left,←,0.6849000998772681,False,30,1
163K34S4,1021,experiment,72,↓,down,↓,0.44942470034584403,True,30,1
163K34S4,1022,experiment,107,←,left,←,0.6513090999796987,True,30,1
163K34S4,1023,experiment,57,→,right,→,0.4861181997694075,True,30,1
163K34S4,1024,experiment,88,←,left,←,0.4451977997086942,True,30,1
163K34S4,1025,experiment,84,→,right,→,0.6148958001285791,True,30,1
163K34S4,1026,experiment,50,→,left,←,0.5494130998849869,False,30,1
163K34S4,1027,experiment,90,↑,up,↑,0.4650479000993073,True,30,1
163K34S4,1028,experiment,104,→,right,→,0.46744539961218834,True,30,1
163K34S4,1029,experiment,81,←,left,←,0.461483399849385,True,30,1
163K34S4,1030,experiment,63,→,left,←,0.5499676996842027,False,30,1
163K34S4,1031,experiment,80,↑,up,↑,0.637709700036794,True,30,1
163K34S4,1032,experiment,68,↓,down,↓,0.44496369967237115,True,30,1
163K34S4,1033,experiment,55,←,left,←,0.44830930000171065,True,30,1
163K34S4,1034,experiment,77,↑,up,↑,0.46035040030255914,True,30,1
163K34S4,1035,experiment,73,↑,down,↓,0.7452809996902943,False,30,1
163K34S4,1036,experiment,98,←,no_key,no_letter,-1.0,False,30,1
163K34S4,1037,experiment,53,↓,down,↓,0.5319981002248824,True,30,1
163K34S4,1038,experiment,108,←,left,←,0.6662483997642994,True,30,1
163K34S4,1039,experiment,74,←,left,←,0.45462779980152845,True,30,1
163K34S4,1040,experiment,65,→,right,→,0.4944295999594033,True,30,1
163K34S4,1041,experiment,103,↓,down,↓,0.512094299774617,True,30,1
163K34S4,1042,experiment,97,←,left,←,0.475144200026989,True,30,1
163K34S4,1043,experiment,87,←,down,↓,0.8190159001387656,False,30,1
163K34S4,1044,experiment,54,←,left,←,0.5759797999635339,True,30,1
163K34S4,1045,experiment,49,→,right,→,0.43274520011618733,True,30,1
163K34S4,1046,experiment,106,←,left,←,0.3923651999793947,True,30,1
163K34S4,1047,experiment,69,←,left,←,0.5564113999716938,True,30,0
163K34S4,1048,experiment,83,↓,down,↓,0.5300535000860691,True,30,1
163K34S4,1049,training,100,↓,down,↓,0.5486328001134098,True,30,0
163K34S4,1050,training,63,→,right,→,0.46527739986777306,True,30,1
163K34S4,1051,experiment,107,↓,down,↓,0.6826702998951077,True,30,1
163K34S4,1052,experiment,86,↑,up,↑,0.46628120029345155,True,30,1
163K34S4,1053,experiment,95,↓,down,↓,0.4637172999791801,True,30,1
163K34S4,1054,experiment,54,↑,down,↓,0.6108924997970462,False,30,1
163K34S4,1055,experiment,89,→,right,→,0.42906640004366636,True,30,1
163K34S4,1056,experiment,51,→,left,←,0.7619842998683453,False,30,1
163K34S4,1057,experiment,67,↑,down,↓,0.6211045999079943,False,30,1
163K34S4,1058,experiment,55,→,left,←,0.8894702000543475,False,30,1
163K34S4,1059,experiment,52,→,right,→,0.46021359972655773,True,30,1
163K34S4,1060,experiment,84,↑,down,↓,0.629653800278902,False,30,1
163K34S4,1061,experiment,99,←,left,←,0.434950000140816,True,30,1
163K34S4,1062,experiment,90,→,down,↓,0.803369200322777,False,30,1
163K34S4,1063,experiment,73,↓,left,←,0.35075340000912547,False,30,1
163K34S4,1064,experiment,58,→,right,→,0.5688693001866341,True,30,0
163K34S4,1065,experiment,53,→,right,→,0.44031979981809855,True,30,1
163K34S4,1066,experiment,72,→,down,↓,0.654371399898082,False,30,1
163K34S4,1067,experiment,61,→,right,→,0.5438198000192642,True,30,1
163K34S4,1068,experiment,81,→,right,→,0.42339769983664155,True,30,1
163K34S4,1069,experiment,97,↓,down,↓,0.5739887999370694,True,30,1
163K34S4,1070,experiment,85,↑,up,↑,0.4496932001784444,True,30,1
163K34S4,1071,experiment,70,←,left,←,0.6482145003974438,True,30,1
163K34S4,1072,experiment,80,↓,down,↓,0.6990185999311507,True,30,1
163K34S4,1073,experiment,76,↓,down,↓,0.5015095002017915,True,30,1
163K34S4,1074,experiment,101,↓,down,↓,0.4794713999144733,True,30,1
163K34S4,1075,experiment,87,↓,down,↓,0.4552719001658261,True,30,1
163K34S4,1076,experiment,82,↓,down,↓,0.6093297000043094,True,30,1
163K34S4,1077,experiment,104,↑,down,↓,0.5900634997524321,False,30,1
163K34S4,1078,experiment,92,↓,down,↓,0.575357099995017,True,30,1
163K34S4,1079,experiment,60,←,left,←,0.5802054996602237,True,30,1
163K34S4,1080,experiment,68,↑,up,↑,0.4223483996465802,True,30,1
163K34S4,1081,experiment,105,↑,down,↓,0.6817989000119269,False,30,0
163K34S4,1082,experiment,79,↓,down,↓,0.5237139998935163,True,30,1
163K34S4,1083,experiment,74,↓,down,↓,0.5018206997774541,True,30,1
163K34S4,1084,experiment,57,↑,no_key,no_letter,-1.0,False,30,1
163K34S4,1085,experiment,69,↓,down,↓,0.6343368999660015,True,30,1
163K34S4,1086,experiment,83,→,right,→,0.493026299867779,True,30,1
163K34S4,1087,experiment,62,↑,down,↓,0.5884624999016523,False,30,1
163K34S4,1088,experiment,63,→,no_key,no_letter,-1.0,False,30,1
163K34S4,1089,experiment,88,↓,down,↓,0.477104099933058,True,30,1
163K34S4,1090,experiment,108,↑,down,↓,0.5897834999486804,False,30,1
163K34S4,1091,experiment,66,↓,down,↓,0.4877753001637757,True,30,1
163K34S4,1092,experiment,96,←,left,←,0.5242049000225961,True,30,1
163K34S4,1093,experiment,75,→,left,←,0.5097335004247725,False,30,1
163K34S4,1094,experiment,65,↓,down,↓,0.6354481000453234,True,30,1
163K34S4,1095,experiment,64,→,left,←,0.6047732997685671,False,30,1
163K34S4,1096,experiment,106,↓,down,↓,0.48851880012080073,True,30,1
163K34S4,1097,experiment,103,↑,down,↓,0.5462862001731992,False,30,1
163K34S4,1098,experiment,78,←,left,←,0.626000499818474,True,30,1
163K34S4,1099,experiment,100,↓,no_key,no_letter,-1.0,False,30,1
163K34S4,1100,experiment,48,↑,up,↑,0.49028540030121803,True,30,1
163K34S4,1101,experiment,77,↑,up,↑,0.47674249997362494,True,30,1
163K34S4,1102,experiment,49,→,right,→,0.46505000023171306,True,30,1
163K34S4,1103,experiment,93,↑,up,↑,0.39235590025782585,True,30,1
163K34S4,1104,experiment,94,→,left,←,0.5276012998074293,False,30,0
163K34S4,1105,experiment,91,↑,no_key,no_letter,-1.0,False,30,1
163K34S4,1106,experiment,59,↑,left,←,0.5071918996982276,False,30,1
163K34S4,1107,experiment,102,↓,down,↓,0.4445321997627616,True,30,1
163K34S4,1108,experiment,71,↑,up,↑,0.392376699950546,True,30,1
163K34S4,1109,experiment,50,↓,down,↓,0.754145999904722,True,30,0
163K34S4,1110,experiment,98,←,left,←,0.39239459997043014,True,30,1
163K34S4,1111,experiment,56,←,left,←,0.46389920031651855,True,30,0
163K34S4,1112,training,95,↓,down,↓,0.5047621997073293,True,30,0
163K34S4,1113,training,89,→,right,→,0.47856609988957644,True,30,1
163K34S4,1114,experiment,90,→,left,←,0.32593779964372516,False,30,1
163K34S4,1115,experiment,48,→,right,→,0.5517015000805259,True,30,0
163K34S4,1116,experiment,80,←,left,←,0.4234644998796284,True,30,1
163K34S4,1117,experiment,81,↑,up,↑,0.41894220001995564,True,30,1
163K34S4,1118,experiment,57,↑,up,↑,0.4004103997722268,True,30,0
163K34S4,1119,experiment,93,↓,down,↓,0.502664600033313,True,30,0
163K34S4,1120,experiment,71,→,right,→,0.43506819987669587,True,30,1
163K34S4,1121,experiment,96,↑,left,←,0.7212628000415862,False,30,1
163K34S4,1122,experiment,65,↑,up,↑,0.4310477999970317,True,30,1
163K34S4,1123,experiment,58,↓,down,↓,0.4817090001888573,True,30,1
163K34S4,1124,experiment,86,→,left,←,0.6654036999680102,False,30,1
163K34S4,1125,experiment,73,→,right,→,0.622235500253737,True,30,1
163K34S4,1126,experiment,103,→,no_key,no_letter,-1.0,False,30,1
163K34S4,1127,experiment,49,→,no_key,no_letter,-1.0,False,30,1
163K34S4,1128,experiment,54,←,left,←,0.5579873002134264,True,30,1
163K34S4,1129,experiment,97,↓,down,↓,0.5832318002358079,True,30,1
163K34S4,1130,experiment,53,→,right,→,0.4457426997832954,True,30,1
163K34S4,1131,experiment,102,←,left,←,0.35068799974396825,True,30,1
163K34S4,1132,experiment,89,↑,up,↑,0.42192240012809634,True,30,0
163K34S4,1133,experiment,98,→,right,→,0.48349530017003417,True,30,1
163K34S4,1134,experiment,75,↓,down,↓,0.6546689998358488,True,30,1
163K34S4,1135,experiment,77,←,left,←,0.610480799805373,True,30,1
163K34S4,1136,experiment,84,→,right,→,0.8697530999779701,True,30,1
163K34S4,1137,experiment,66,↓,down,↓,0.5328800999559462,True,30,1
163K34S4,1138,experiment,101,←,left,←,0.7017372995615005,True,30,1
163K34S4,1139,experiment,106,←,left,←,0.4778452003374696,True,30,1
163K34S4,1140,experiment,63,←,no_key,no_letter,-1.0,False,30,1
163K34S4,1141,experiment,78,→,no_key,no_letter,-1.0,False,30,1
163K34S4,1142,experiment,76,↑,up,↑,0.4481575000099838,True,30,1
163K34S4,1143,experiment,107,↓,down,↓,0.6663457001559436,True,30,1
163K34S4,1144,experiment,51,↑,up,↑,0.46213100012391806,True,30,1
163K34S4,1145,experiment,85,←,left,←,0.6312094000168145,True,30,1
163K34S4,1146,experiment,87,→,left,←,0.6407572003081441,False,30,1
163K34S4,1147,experiment,56,↑,up,↑,0.42861409997567534,True,30,1
163K34S4,1148,experiment,100,↑,no_key,no_letter,-1.0,False,30,1
163K34S4,1149,experiment,69,↓,down,↓,0.7972133001312613,True,30,1
163K34S4,1150,experiment,70,→,right,→,0.4853035002015531,True,30,1
163K34S4,1151,experiment,91,←,left,←,0.5393658997491002,True,30,1
163K34S4,1152,experiment,60,↑,up,↑,0.3841220000758767,True,30,1
163K34S4,1153,experiment,64,←,left,←,0.5483582001179457,True,30,0
163K34S4,1154,experiment,108,←,left,←,0.4659187998622656,True,30,1
163K34S4,1155,experiment,104,↑,up,↑,0.42101059993728995,True,30,1
163K34S4,1156,experiment,99,↓,down,↓,0.6900404999032617,True,30,0
163K34S4,1157,experiment,67,↓,down,↓,0.591820599976927,True,30,1
163K34S4,1158,experiment,68,←,left,←,0.5852934001013637,True,30,1
163K34S4,1159,experiment,92,←,left,←,0.4429520000703633,True,30,1
163K34S4,1160,experiment,79,←,left,←,0.5586598003283143,True,30,1
163K34S4,1161,experiment,95,→,right,→,0.440484999679029,True,30,1
163K34S4,1162,experiment,74,↓,down,↓,0.709797500167042,True,30,1
163K34S4,1163,experiment,59,↓,down,↓,0.5975065003149211,True,30,1
163K34S4,1164,experiment,83,→,down,↓,0.5858435002155602,False,30,1
163K34S4,1165,experiment,61,↓,down,↓,0.5895905001088977,True,30,1
163K34S4,1166,experiment,94,↓,down,↓,0.5503722000867128,True,30,1
163K34S4,1167,experiment,72,→,left,←,0.6560913003049791,False,30,1
163K34S4,1168,experiment,105,↑,up,↑,0.5145157999359071,True,30,1
163K34S4,1169,experiment,62,→,right,→,0.48906309995800257,True,30,1
163K34S4,1170,experiment,88,↑,down,↓,0.6236005998216569,False,30,1
163K34S4,1171,experiment,55,→,no_key,no_letter,-1.0,False,30,1
163K34S4,1172,experiment,82,→,left,←,0.8436055998317897,False,30,1
163K34S4,1173,experiment,50,↓,down,↓,0.4410632997751236,True,30,1
163K34S4,1174,experiment,52,↓,down,↓,0.42257639998570085,True,30,1
163K34S4,1175,training,82,←,left,←,0.425919400062412,True,30,0
163K34S4,1176,training,80,←,left,←,0.5892229997552931,True,30,1
163K34S4,1177,experiment,55,←,left,←,0.4428946999832988,True,30,1
163K34S4,1178,experiment,99,→,left,←,0.6798725998960435,False,30,1
163K34S4,1179,experiment,77,↑,up,↑,0.46664030011743307,True,30,1
163K34S4,1180,experiment,103,↓,down,↓,0.6133340001106262,True,30,1
163K34S4,1181,experiment,65,←,left,←,0.43892740039154887,True,30,1
163K34S4,1182,experiment,53,←,right,→,0.6591656999662519,False,30,1
163K34S4,1183,experiment,100,↓,down,↓,0.5911872000433505,True,30,1
163K34S4,1184,experiment,76,↓,down,↓,0.533971400000155,True,30,1
163K34S4,1185,experiment,60,←,left,←,0.7963783997111022,True,30,1
163K34S4,1186,experiment,85,←,left,←,0.4960351996123791,True,30,1
163K34S4,1187,experiment,73,↓,down,↓,0.48359439987689257,True,30,1
163K34S4,1188,experiment,97,↓,down,↓,0.6154960002750158,True,30,1
163K34S4,1189,experiment,50,→,right,→,0.46986400010064244,True,30,1
163K34S4,1190,experiment,95,↑,down,↓,0.6195197999477386,False,30,1
163K34S4,1191,experiment,88,←,left,←,0.5250347000546753,True,30,1
163K34S4,1192,experiment,71,↓,down,↓,0.6320982999168336,True,30,1
163K34S4,1193,experiment,58,←,left,←,0.4198019001632929,True,30,1
163K34S4,1194,experiment,54,←,left,←,0.6159370001405478,True,30,0
163K34S4,1195,experiment,82,→,left,←,0.4916980001144111,False,30,1
163K34S4,1196,experiment,79,→,right,→,0.4693626998923719,True,30,1
163K34S4,1197,experiment,101,↑,down,↓,0.61680330010131,False,30,1
163K34S4,1198,experiment,72,←,no_key,no_letter,-1.0,False,30,1
163K34S4,1199,experiment,70,→,right,→,0.4515423998236656,True,30,1
163K34S4,1200,experiment,90,↓,down,↓,0.5151806999929249,True,30,1
163K34S4,1201,experiment,94,←,left,←,0.3757203002460301,True,30,1
163K34S4,1202,experiment,83,↑,up,↑,0.4282932002097368,True,30,0
163K34S4,1203,experiment,102,↑,up,↑,0.44018870033323765,True,30,1
163K34S4,1204,experiment,61,↓,down,↓,0.5058102002367377,True,30,1
163K34S4,1205,experiment,67,←,down,↓,0.6871716002933681,False,30,1
163K34S4,1206,experiment,96,←,left,←,0.35080190002918243,True,30,1
163K34S4,1207,experiment,81,→,right,→,0.49021119996905327,True,30,0
163K34S4,1208,experiment,98,↓,down,↓,0.4530306998640299,True,30,1
163K34S4,1209,experiment,86,←,left,←,0.5580957001075149,True,30,1
163K34S4,1210,experiment,84,↓,down,↓,0.6114827999845147,True,30,1
163K34S4,1211,experiment,92,↑,up,↑,0.4364563999697566,True,30,1
163K34S4,1212,experiment,63,↑,up,↑,0.47771359980106354,True,30,1
163K34S4,1213,experiment,74,↓,down,↓,0.6176733998581767,True,30,1
163K34S4,1214,experiment,57,→,right,→,0.4538597003556788,True,30,1
163K34S4,1215,experiment,75,↓,down,↓,0.5944548998959363,True,30,1
163K34S4,1216,experiment,48,→,no_key,no_letter,-1.0,False,30,1
163K34S4,1217,experiment,52,↑,down,↓,0.748163899872452,False,30,1
163K34S4,1218,experiment,56,←,left,←,0.514988100156188,True,30,1
163K34S4,1219,experiment,107,↓,down,↓,0.6823318996466696,True,30,1
163K34S4,1220,experiment,64,←,left,←,0.5617340002208948,True,30,1
163K34S4,1221,experiment,106,←,left,←,0.42396940011531115,True,30,1
163K34S4,1222,experiment,87,↑,down,↓,0.5848417999222875,False,30,1
163K34S4,1223,experiment,80,↑,down,↓,0.5425812997855246,False,30,1
163K34S4,1224,experiment,62,←,left,←,0.4839975000359118,True,30,1
163K34S4,1225,experiment,108,→,left,←,0.5563318999484181,False,30,1
163K34S4,1226,experiment,59,↓,down,↓,0.5141315003857017,True,30,1
163K34S4,1227,experiment,78,←,left,←,0.48327580001205206,True,30,1
163K34S4,1228,experiment,91,←,left,←,0.45714549999684095,True,30,1
163K34S4,1229,experiment,49,↓,down,↓,0.48632859997451305,True,30,1
163K34S4,1230,experiment,69,↓,down,↓,0.4437876003794372,True,30,1
163K34S4,1231,experiment,89,→,right,→,0.45220760023221374,True,30,1
163K34S4,1232,experiment,105,←,left,←,0.35171200009062886,True,30,1
163K34S4,1233,experiment,66,←,left,←,0.6499863998033106,True,30,0
163K34S4,1234,experiment,68,←,left,←,0.4254979998804629,True,30,1
163K34S4,1235,experiment,93,→,left,←,0.5124389999546111,False,30,1
163K34S4,1236,experiment,51,↑,up,↑,0.4505756003782153,True,30,1
163K34S4,1237,experiment,104,→,left,←,0.7416089000180364,False,30,1
163K34S4,1238,training,83,←,left,←,0.5077265002764761,True,30,0
163K34S4,1239,training,90,←,left,←,0.6251205001026392,True,30,1
163K34S4,1240,experiment,50,←,left,←,0.5994134000502527,True,30,1
163K34S4,1241,experiment,97,←,no_key,no_letter,-1.0,False,30,1
163K34S4,1242,experiment,70,↑,right,→,0.6421165000647306,False,30,1
163K34S4,1243,experiment,56,←,left,←,0.47753410041332245,True,30,1
163K34S4,1244,experiment,84,↑,up,↑,0.42274280032142997,True,30,1
163K34S4,1245,experiment,48,←,left,←,0.4295607996173203,True,30,1
163K34S4,1246,experiment,87,↓,down,↓,0.49446009984239936,True,30,1
163K34S4,1247,experiment,89,←,left,←,0.5167956002987921,True,30,1
163K34S4,1248,experiment,64,↓,down,↓,0.4745673001743853,True,30,1
163K34S4,1249,experiment,66,↓,down,↓,0.5294225998222828,True,30,1
163K34S4,1250,experiment,77,↓,down,↓,0.578500600066036,True,30,1
163K34S4,1251,experiment,108,→,right,→,0.5750778997316957,True,30,1
163K34S4,1252,experiment,85,←,left,←,0.46764220017939806,True,30,1
163K34S4,1253,experiment,94,↑,down,↓,0.49734060000628233,False,30,1
163K34S4,1254,experiment,52,←,down,↓,0.5877246996387839,False,30,1
163K34S4,1255,experiment,55,↑,up,↑,0.3673307001590729,True,30,1
163K34S4,1256,experiment,59,→,left,←,0.4465880999341607,False,30,0
163K34S4,1257,experiment,60,↓,down,↓,0.5363790998235345,True,30,1
163K34S4,1258,experiment,54,→,right,→,0.464699599891901,True,30,1
163K34S4,1259,experiment,71,→,left,←,0.6461386000737548,False,30,1
163K34S4,1260,experiment,73,→,right,→,0.57985720038414,True,30,1
163K34S4,1261,experiment,53,↑,no_key,no_letter,-1.0,False,30,1
163K34S4,1262,experiment,93,←,left,←,0.4231521999463439,True,30,1
163K34S4,1263,experiment,83,↑,up,↑,0.4655272997915745,True,30,1
163K34S4,1264,experiment,75,→,left,←,0.581842599902302,False,30,1
163K34S4,1265,experiment,74,↓,down,↓,0.5175328999757767,True,30,1
163K34S4,1266,experiment,92,→,no_key,no_letter,-1.0,False,30,1
163K34S4,1267,experiment,82,→,right,→,0.48137659998610616,True,30,1
163K34S4,1268,experiment,57,→,left,←,0.49877170007675886,False,30,1
163K34S4,1269,experiment,104,→,left,←,0.5557685997337103,False,30,1
163K34S4,1270,experiment,91,↓,down,↓,0.6387903997674584,True,30,1
163K34S4,1271,experiment,51,↑,up,↑,0.44399680010974407,True,30,1
163K34S4,1272,experiment,99,↓,down,↓,0.4570256997831166,True,30,1
163K34S4,1273,experiment,106,↓,down,↓,0.6589669003151357,True,30,1
163K34S4,1274,experiment,90,↓,down,↓,0.45856350008398294,True,30,1
163K34S4,1275,experiment,80,→,left,←,0.565205099992454,False,30,1
163K34S4,1276,experiment,68,↓,down,↓,0.687619199976325,True,30,1
163K34S4,1277,experiment,69,↓,down,↓,0.45297629991546273,True,30,1
163K34S4,1278,experiment,58,→,left,←,1.2313419999554753,False,30,1
163K34S4,1279,experiment,101,↓,down,↓,0.532033700030297,True,30,1
163K34S4,1280,experiment,67,↑,up,↑,0.45602629985660315,True,30,1
163K34S4,1281,experiment,95,↓,down,↓,0.4937809002585709,True,30,1
163K34S4,1282,experiment,102,←,left,←,0.5038994997739792,True,30,1
163K34S4,1283,experiment,63,←,down,↓,0.6226190999150276,False,30,1
163K34S4,1284,experiment,107,←,left,←,0.48956430004909635,True,30,1
163K34S4,1285,experiment,100,→,right,→,0.44447429990395904,True,30,1
163K34S4,1286,experiment,98,↑,up,↑,0.4340825998224318,True,30,1
163K34S4,1287,experiment,105,→,right,→,0.4371914998628199,True,30,1
163K34S4,1288,experiment,79,↑,up,↑,0.6091316998936236,True,30,1
163K34S4,1289,experiment,72,←,left,←,0.5521670999005437,True,30,1
163K34S4,1290,experiment,96,↑,up,↑,0.40005970001220703,True,30,1
163K34S4,1291,experiment,49,↓,down,↓,0.569157600402832,True,30,0
163K34S4,1292,experiment,65,↓,down,↓,0.4851872003637254,True,30,1
163K34S4,1293,experiment,86,↑,down,↓,0.7001889999955893,False,30,1
163K34S4,1294,experiment,78,→,right,→,0.49395120004191995,True,30,1
163K34S4,1295,experiment,61,↑,down,↓,0.6136628999374807,False,30,1
163K34S4,1296,experiment,76,←,left,←,0.7634570999071002,True,30,1
163K34S4,1297,experiment,103,→,left,←,0.698104000184685,False,30,1
163K34S4,1298,experiment,62,→,right,→,0.4331509000621736,True,30,1
163K34S4,1299,experiment,81,↑,up,↑,0.44468839978799224,True,30,1
163K34S4,1300,experiment,88,↑,down,↓,0.6212833002209663,False,30,1
163K34S4,1301,training,87,←,left,←,0.47078320011496544,True,30,0
163K34S4,1302,training,80,→,left,←,0.5373336002230644,False,30,1
163K34S4,1303,experiment,56,↑,no_key,no_letter,-1.0,False,30,1
163K34S4,1304,experiment,82,↓,down,↓,0.4644333999603987,True,30,1
163K34S4,1305,experiment,65,↓,down,↓,0.4322387999854982,True,30,1
163K34S4,1306,experiment,68,↓,down,↓,0.5274330000393093,True,30,1
163K34S4,1307,experiment,78,→,left,←,0.8001310001127422,False,30,1
163K34S4,1308,experiment,87,↑,up,↑,0.44298169994726777,True,30,1
163K34S4,1309,experiment,79,→,no_key,no_letter,-1.0,False,30,1
163K34S4,1310,experiment,55,←,left,←,0.4952142001129687,True,30,1
163K34S4,1311,experiment,53,←,no_key,no_letter,-1.0,False,30,1
163K34S4,1312,experiment,83,→,right,→,0.49682140024378896,True,30,1
163K34S4,1313,experiment,49,→,right,→,0.4764884999021888,True,30,1
163K34S4,1314,experiment,62,←,left,←,0.4844146999530494,True,30,1
163K34S4,1315,experiment,93,→,left,←,0.7137322002090514,False,30,1
163K34S4,1316,experiment,61,←,left,←,0.6327603999525309,True,30,1
163K34S4,1317,experiment,84,←,left,←,0.7309618997387588,True,30,1
163K34S4,1318,experiment,107,↑,up,↑,0.47355090035125613,True,30,1
163K34S4,1319,experiment,92,↑,up,↑,0.9835228002630174,True,30,1
163K34S4,1320,experiment,91,↑,up,↑,0.6017505996860564,True,30,1
163K34S4,1321,experiment,69,↓,down,↓,0.46619159961119294,True,30,1
163K34S4,1322,experiment,80,↑,up,↑,0.421185000333935,True,30,1
163K34S4,1323,experiment,63,→,right,→,0.4391967002302408,True,30,0
163K34S4,1324,experiment,59,↓,down,↓,0.5289969998411834,True,30,1
163K34S4,1325,experiment,71,→,right,→,0.4599219998344779,True,30,1
163K34S4,1326,experiment,50,→,no_key,no_letter,-1.0,False,30,1
163K34S4,1327,experiment,89,→,right,→,0.46203749999403954,True,30,1
163K34S4,1328,experiment,98,←,left,←,0.6507997997105122,True,30,1
163K34S4,1329,experiment,106,→,right,→,0.5650122999213636,True,30,1
163K34S4,1330,experiment,96,↑,up,↑,0.9900087998248637,True,30,1
163K34S4,1331,experiment,74,→,right,→,0.4002948999404907,True,30,1
163K34S4,1332,experiment,51,↓,down,↓,0.5958130997605622,True,30,0
163K34S4,1333,experiment,73,←,left,←,0.8191555002704263,True,30,1
163K34S4,1334,experiment,48,↓,no_key,no_letter,-1.0,False,30,1
163K34S4,1335,experiment,67,↓,down,↓,0.5429830001667142,True,30,1
163K34S4,1336,experiment,81,←,left,←,0.47040600003674626,True,30,1
163K34S4,1337,experiment,103,↑,up,↑,0.6567024001851678,True,30,1
163K34S4,1338,experiment,97,↓,right,→,0.7336691003292799,False,30,1
163K34S4,1339,experiment,77,→,right,→,0.4623203999362886,True,30,1
163K34S4,1340,experiment,54,←,left,←,0.4975057002156973,True,30,1
163K34S4,1341,experiment,66,↑,no_key,no_letter,-1.0,False,30,1
163K34S4,1342,experiment,108,↑,up,↑,0.4383189999498427,True,30,1
163K34S4,1343,experiment,101,↑,no_key,no_letter,-1.0,False,30,1
163K34S4,1344,experiment,60,→,right,→,0.6177115999162197,True,30,1
163K34S4,1345,experiment,76,→,right,→,0.4390869000926614,True,30,1
163K34S4,1346,experiment,72,↓,left,←,0.5652026999741793,False,30,1
163K34S4,1347,experiment,94,→,left,←,0.7189380000345409,False,30,1
163K34S4,1348,experiment,105,↓,down,↓,0.7109093996696174,True,30,1
163K34S4,1349,experiment,64,↓,down,↓,0.48490909999236465,True,30,1
163K34S4,1350,experiment,100,←,left,←,0.6559956995770335,True,30,1
163K34S4,1351,experiment,75,↓,down,↓,0.4923746003769338,True,30,1
163K34S4,1352,experiment,95,↑,up,↑,0.43313400028273463,True,30,1
163K34S4,1353,experiment,57,↓,down,↓,0.5323957996442914,True,30,1
163K34S4,1354,experiment,88,↑,up,↑,0.8172802999615669,True,30,1
163K34S4,1355,experiment,70,←,left,←,0.6249400996603072,True,30,1
163K34S4,1356,experiment,90,↑,down,↓,0.6415756000205874,False,30,1
163K34S4,1357,experiment,104,↑,up,↑,0.804975800216198,True,30,1
163K34S4,1358,experiment,99,↓,down,↓,0.42745310021564364,True,30,1
163K34S4,1359,experiment,86,→,right,→,0.48551540030166507,True,30,1
163K34S4,1360,experiment,85,→,right,→,0.48548199981451035,True,30,1
163K34S4,1361,experiment,102,↑,down,↓,0.6238529002293944,False,30,1
163K34S4,1362,experiment,52,←,left,←,0.5414654999040067,True,30,1
163K34S4,1363,experiment,58,→,left,←,0.7480366001836956,False,30,1
163K34S4,1364,training,61,↑,up,↑,0.4417937998659909,True,30,0
163K34S4,1365,training,76,↑,up,↑,0.750466899946332,True,30,1
163K34S4,1366,experiment,79,↓,down,↓,0.4538534004241228,True,30,1
163K34S4,1367,experiment,52,←,left,←,0.44987789960578084,True,30,1
163K34S4,1368,experiment,82,↑,up,↑,0.43650070019066334,True,30,1
163K34S4,1369,experiment,95,↓,down,↓,0.6348086004145443,True,30,1
163K34S4,1370,experiment,108,↑,down,↓,0.7729794001206756,False,30,1
163K34S4,1371,experiment,61,←,no_key,no_letter,-1.0,False,30,1
163K34S4,1372,experiment,87,↓,down,↓,0.6153499996289611,True,30,1
163K34S4,1373,experiment,72,←,left,←,0.44633950013667345,True,30,1
163K34S4,1374,experiment,49,←,left,←,0.6363849001936615,True,30,1
163K34S4,1375,experiment,76,↑,up,↑,0.4412823999300599,True,30,1
163K34S4,1376,experiment,50,→,right,→,0.4786788998171687,True,30,1
163K34S4,1377,experiment,93,←,left,←,0.3505859998986125,True,30,1
163K34S4,1378,experiment,56,→,right,→,0.4991033002734184,True,30,0
163K34S4,1379,experiment,66,↓,down,↓,0.6809491002932191,True,30,1
163K34S4,1380,experiment,58,↓,down,↓,0.729982899967581,True,30,1
163K34S4,1381,experiment,84,←,left,←,0.43267850019037724,True,30,1
163K34S4,1382,experiment,83,←,left,←,0.45904830005019903,True,30,1
163K34S4,1383,experiment,65,↓,down,↓,0.4908479996956885,True,30,1
163K34S4,1384,experiment,55,←,no_key,no_letter,-1.0,False,30,1
163K34S4,1385,experiment,48,→,left,←,0.7597222998738289,False,30,1
163K34S4,1386,experiment,75,←,left,←,0.4558239998295903,True,30,1
163K34S4,1387,experiment,92,←,left,←,0.400424599647522,True,30,1
163K34S4,1388,experiment,107,↓,down,↓,0.5383601998910308,True,30,0
163K34S4,1389,experiment,54,↓,down,↓,0.6508120000362396,True,30,1
163K34S4,1390,experiment,78,←,left,←,0.34219919983297586,True,30,1
163K34S4,1391,experiment,63,←,no_key,no_letter,-1.0,False,30,0
163K34S4,1392,experiment,53,→,no_key,no_letter,-1.0,False,30,1
163K34S4,1393,experiment,85,↑,up,↑,0.4512952999211848,True,30,1
163K34S4,1394,experiment,68,↓,down,↓,0.6180660002864897,True,30,1
163K34S4,1395,experiment,100,←,left,←,0.38486040011048317,True,30,1
163K34S4,1396,experiment,51,→,right,→,0.5025825998745859,True,30,0
163K34S4,1397,experiment,90,↓,down,↓,0.46824009995907545,True,30,1
163K34S4,1398,experiment,98,↑,down,↓,0.608716499991715,False,30,1
163K34S4,1399,experiment,57,↓,down,↓,0.5412273001857102,True,30,1
163K34S4,1400,experiment,88,↑,up,↑,0.48180449986830354,True,30,1
163K34S4,1401,experiment,105,←,left,←,0.4356939997524023,True,30,1
163K34S4,1402,experiment,74,←,no_key,no_letter,-1.0,False,30,1
163K34S4,1403,experiment,81,↑,down,↓,0.5689160004258156,False,30,1
163K34S4,1404,experiment,91,←,left,←,0.5555863003246486,True,30,1
163K34S4,1405,experiment,80,↑,up,↑,0.6742884996347129,True,30,1
163K34S4,1406,experiment,60,↑,up,↑,0.4511064002290368,True,30,1
163K34S4,1407,experiment,86,↓,down,↓,0.5241741999052465,True,30,1
163K34S4,1408,experiment,96,←,down,↓,0.6628037998452783,False,30,1
163K34S4,1409,experiment,62,→,right,→,0.50318400003016,True,30,1
163K34S4,1410,experiment,104,→,right,→,0.5362796997651458,True,30,1
163K34S4,1411,experiment,101,↑,up,↑,0.46490770019590855,True,30,1
163K34S4,1412,experiment,70,↓,up,↑,0.6227425001561642,False,30,1
163K34S4,1413,experiment,77,↓,up,↑,0.5718471999280155,False,30,1
163K34S4,1414,experiment,67,→,right,→,0.5664181001484394,True,30,1
163K34S4,1415,experiment,71,→,no_key,no_letter,-1.0,False,30,1
163K34S4,1416,experiment,99,→,no_key,no_letter,-1.0,False,30,1
163K34S4,1417,experiment,89,↑,down,↓,0.7989544998854399,False,30,1
163K34S4,1418,experiment,94,→,right,→,0.4708774001337588,True,30,1
163K34S4,1419,experiment,102,↑,up,↑,0.6897367998026311,True,30,1
163K34S4,1420,experiment,97,←,left,←,0.5013687000609934,True,30,1
163K34S4,1421,experiment,73,↑,up,↑,0.45676020020619035,True,30,1
163K34S4,1422,experiment,59,←,left,←,0.5225001997314394,True,30,1
163K34S4,1423,experiment,103,↑,up,↑,0.6188384997658432,True,30,1
163K34S4,1424,experiment,64,↑,up,↑,0.5726955002173781,True,30,1
163K34S4,1425,experiment,69,→,left,←,0.5503210001625121,False,30,1
163K34S4,1426,experiment,106,↓,down,↓,0.6687096999958158,True,30,1
163K34S4,1427,training,102,←,left,←,0.4218969000503421,True,30,0
163K34S4,1428,training,101,↑,down,↓,0.6024103001691401,False,30,1
163K34S4,1429,experiment,93,←,left,←,0.5391242001205683,True,30,1
163K34S4,1430,experiment,86,↑,up,↑,0.4644122999161482,True,30,1
163K34S4,1431,experiment,70,↓,down,↓,0.8941691997461021,True,30,1
163K34S4,1432,experiment,52,↑,up,↑,0.472828000318259,True,30,1
163K34S4,1433,experiment,102,↓,down,↓,0.6277316999621689,True,30,1
163K34S4,1434,experiment,99,→,right,→,0.44963099993765354,True,30,1
163K34S4,1435,experiment,61,↑,up,↑,0.4351102998480201,True,30,1
163K34S4,1436,experiment,104,←,down,↓,1.2461085002869368,False,30,1
163K34S4,1437,experiment,107,←,left,←,0.4249327997677028,True,30,1
163K34S4,1438,experiment,55,→,right,→,0.4926586002111435,True,30,1
163K34S4,1439,experiment,54,↑,up,↑,0.4546298999339342,True,30,1
163K34S4,1440,experiment,89,→,down,↓,0.7423112997785211,False,30,1
163K34S4,1441,experiment,83,↓,down,↓,0.5246985997073352,True,30,1
163K34S4,1442,experiment,78,↓,down,↓,0.6056817998178303,True,30,1
163K34S4,1443,experiment,63,←,left,←,0.40017359983175993,True,30,1
163K34S4,1444,experiment,88,←,left,←,0.43446070002391934,True,30,0
163K34S4,1445,experiment,106,↑,up,↑,0.509084100369364,True,30,1
163K34S4,1446,experiment,74,↑,down,↓,0.7357136998325586,False,30,1
163K34S4,1447,experiment,105,↓,down,↓,0.5911161000840366,True,30,1
163K34S4,1448,experiment,95,↑,up,↑,0.4318600003607571,True,30,1
163K34S4,1449,experiment,91,→,down,↓,0.7114444999024272,False,30,1
163K34S4,1450,experiment,98,→,right,→,0.48226610012352467,True,30,1
163K34S4,1451,experiment,59,↓,down,↓,0.6110325995832682,True,30,1
163K34S4,1452,experiment,69,↑,down,↓,0.619510100223124,False,30,1
163K34S4,1453,experiment,57,←,left,←,0.9275358999148011,True,30,1
163K34S4,1454,experiment,94,←,left,←,0.482668399810791,True,30,1
163K34S4,1455,experiment,72,→,right,→,0.45518549997359514,True,30,1
163K34S4,1456,experiment,92,↑,up,↑,0.4859223999083042,True,30,1
163K34S4,1457,experiment,75,↓,down,↓,0.5137120001018047,True,30,1
163K34S4,1458,experiment,51,↓,down,↓,0.5954486997798085,True,30,1
163K34S4,1459,experiment,71,→,left,←,0.6198948002420366,False,30,1
163K34S4,1460,experiment,85,←,left,←,0.4390337998047471,True,30,1
163K34S4,1461,experiment,62,←,left,←,0.7439524997025728,True,30,1
163K34S4,1462,experiment,64,→,no_key,no_letter,-1.0,False,30,1
163K34S4,1463,experiment,80,→,left,←,0.5171761997044086,False,30,1
163K34S4,1464,experiment,87,↑,up,↑,0.46694550011307,True,30,1
163K34S4,1465,experiment,49,→,right,→,0.6320338002406061,True,30,1
163K34S4,1466,experiment,76,↑,left,←,0.6527939001098275,False,30,1
163K34S4,1467,experiment,108,↓,down,↓,0.6785230999812484,True,30,1
163K34S4,1468,experiment,67,→,down,↓,0.7088071000762284,False,30,1
163K34S4,1469,experiment,82,↑,left,←,0.7248992999084294,False,30,1
163K34S4,1470,experiment,100,↓,down,↓,0.5982448998838663,True,30,1
163K34S4,1471,experiment,58,↑,up,↑,0.46663299994543195,True,30,1
163K34S4,1472,experiment,60,↓,down,↓,0.5238707000389695,True,30,1
163K34S4,1473,experiment,77,→,left,←,0.9089270997792482,False,30,1
163K34S4,1474,experiment,84,←,left,←,0.5243066004477441,True,30,1
163K34S4,1475,experiment,96,←,left,←,0.5349615002050996,True,30,1
163K34S4,1476,experiment,103,↓,down,↓,0.46287780022248626,True,30,1
163K34S4,1477,experiment,53,→,right,→,0.48244559997692704,True,30,1
163K34S4,1478,experiment,79,→,left,←,0.5566782001405954,False,30,1
163K34S4,1479,experiment,56,→,left,←,0.45920499972999096,False,30,1
163K34S4,1480,experiment,65,→,right,→,0.4355645999312401,True,30,1
163K34S4,1481,experiment,48,↓,down,↓,0.6174749997444451,True,30,1
163K34S4,1482,experiment,50,→,left,←,0.4796071001328528,False,30,1
163K34S4,1483,experiment,81,←,left,←,0.5689473999664187,True,30,1
163K34S4,1484,experiment,90,↑,down,↓,0.5640494003891945,False,30,1
163K34S4,1485,experiment,68,↓,down,↓,0.48619060032069683,True,30,1
163K34S4,1486,experiment,73,↑,down,↓,0.6905304002575576,False,30,1
163K34S4,1487,experiment,97,→,right,→,0.46214390033856034,True,30,1
163K34S4,1488,experiment,101,←,left,←,0.4818905000574887,True,30,1
