PART_ID,Trial_no,Trial_type,CSI,Stim_letter,Key_pressed,letter_choose,Rt,Corr,Stimulus Time
100M32,1,training,60,←,no_key,no_letter,-1.0,False,30
100M32,2,training,60,←,left,←,1.9913737999740988,True,30
100M32,3,training,60,↓,down,↓,0.7765129001345485,True,30
100M32,4,training,60,↓,down,↓,0.6169845999684185,True,30
100M32,5,training,60,↑,up,↑,0.5837777000851929,True,30
100M32,6,training,60,→,right,→,0.87472949991934,True,30
100M32,7,training,60,→,no_key,no_letter,-1.0,False,30
100M32,8,training,60,↓,down,↓,0.6760251000523567,True,30
100M32,9,training,60,↓,down,↓,0.5836509999353439,True,30
100M32,10,training,60,→,right,→,0.5670924999285489,True,30
100M32,11,training,60,↑,up,↑,0.5668874001130462,True,30
100M32,12,training,60,→,right,→,0.5837264999281615,True,30
100M32,13,training,60,↑,up,↑,0.5503231999464333,True,30
100M32,14,training,60,→,right,→,0.5004706000909209,True,30
100M32,15,training,60,↑,up,↑,0.566974300192669,True,30
100M32,16,training,60,←,left,←,0.5676991001237184,True,30
100M32,17,training,60,→,right,→,0.5669964000117034,True,30
100M32,18,training,60,→,right,→,0.6170158002059907,True,30
100M32,19,training,60,←,right,→,0.46840859996154904,False,30
100M32,20,training,60,→,right,→,0.6001174999400973,True,30
100M32,21,training,60,→,right,→,0.5759446998126805,True,18
100M32,22,training,60,←,right,→,0.38383569987490773,False,18
100M32,23,training,60,↑,right,→,0.47439590003341436,False,18
100M32,24,training,60,↓,up,↑,0.503893000073731,False,18
100M32,25,training,60,←,left,←,0.5407704000826925,True,18
100M32,26,training,60,→,right,→,0.6002986999228597,True,18
100M32,27,training,60,↓,down,↓,0.5610911000985652,True,18
100M32,28,training,60,←,left,←,0.5713867000304163,True,18
100M32,29,training,60,↓,right,→,0.9575988999567926,False,18
100M32,30,training,60,↑,up,↑,0.5047465998213738,True,18
100M32,31,training,60,↓,down,↓,0.47751919995062053,True,18
100M32,32,training,60,→,right,→,0.5871090001892298,True,18
100M32,33,training,60,←,no_key,no_letter,-1.0,False,18
100M32,34,training,60,↓,down,↓,0.8476983001455665,True,18
100M32,35,training,60,→,right,→,0.5264940001070499,True,18
100M32,36,training,60,←,left,←,1.34602089994587,True,18
100M32,37,training,60,→,right,→,0.5657472999300808,True,18
100M32,38,training,60,↑,up,↑,0.5197612000629306,True,18
100M32,39,training,60,→,right,→,1.164084300165996,True,18
100M32,40,training,60,→,right,→,0.3839786001481116,True,18
100M32,41,training,29,↓,down,↓,0.5517128999345005,True,18
100M32,42,training,25,←,left,←,0.6019421999808401,True,18
100M32,43,experiment,56,↓,down,↓,0.973497899947688,True,18
100M32,44,experiment,37,→,right,→,0.49549280013889074,True,18
100M32,45,experiment,36,↑,up,↑,0.40039049996994436,True,18
100M32,46,experiment,42,←,left,←,0.40050329989753664,True,18
100M32,47,experiment,25,→,left,←,0.7682083998806775,False,18
100M32,48,experiment,46,←,left,←,0.5479993999470025,True,18
100M32,49,experiment,14,→,left,←,1.6053197998553514,False,18
100M32,50,experiment,55,→,right,→,0.5544080999679863,True,18
100M32,51,experiment,18,←,left,←,0.8968146999832243,True,18
100M32,52,experiment,38,↑,right,→,0.5645550000481308,False,18
100M32,53,experiment,21,↓,down,↓,0.5686539001762867,True,18
100M32,54,experiment,28,↑,up,↑,1.9120565000921488,True,18
100M32,55,experiment,30,←,left,←,0.6412601000629365,True,18
100M32,56,experiment,45,↑,up,↑,0.5945445999968797,True,18
100M32,57,experiment,35,←,left,←,0.5727858000900596,True,18
100M32,58,experiment,54,→,right,→,0.5869783998932689,True,18
100M32,59,experiment,43,→,right,→,0.5280232999939471,True,18
100M32,60,experiment,33,↑,up,↑,0.5181718999519944,True,18
100M32,61,experiment,23,↑,up,↑,0.4828184999059886,True,18
100M32,62,experiment,47,↓,up,↑,0.48905880004167557,False,18
100M32,63,experiment,51,↓,down,↓,0.9166639000177383,True,18
100M32,64,experiment,50,↑,up,↑,0.48811210016719997,True,18
100M32,65,experiment,26,↓,no_key,no_letter,-1.0,False,18
100M32,66,experiment,40,←,left,←,0.6601716000586748,True,18
100M32,67,experiment,59,↑,down,↓,0.8599374999757856,False,18
100M32,68,experiment,17,→,down,↓,0.5274359001778066,False,18
100M32,69,experiment,48,←,left,←,0.5240718999411911,True,18
100M32,70,experiment,53,←,left,←,0.6766572000924498,True,18
100M32,71,experiment,29,←,left,←,0.5598245998844504,True,18
100M32,72,experiment,41,↓,down,↓,0.5670553999952972,True,18
100M32,73,experiment,13,←,left,←,0.41749939997680485,True,18
100M32,74,experiment,52,↑,up,↑,0.5246502000372857,True,18
100M32,75,experiment,15,→,right,→,0.6229439000599086,True,18
100M32,76,experiment,32,↑,up,↑,0.47345590009354055,True,18
100M32,77,experiment,20,↑,up,↑,1.4974655997939408,True,18
100M32,78,experiment,22,↓,down,↓,0.6322222000453621,True,18
100M32,79,experiment,24,↓,down,↓,0.6235911000985652,True,18
100M32,80,experiment,19,→,right,→,0.5230064999777824,True,18
100M32,81,experiment,44,↑,up,↑,0.47390290000475943,True,18
100M32,82,experiment,31,←,left,←,0.43368010013364255,True,18
100M32,83,experiment,27,↓,left,←,0.3504931000061333,False,18
100M32,84,experiment,16,→,left,←,0.6949454999994487,False,18
100M32,85,experiment,49,←,left,←,0.5399726999457926,True,18
100M32,86,experiment,39,↓,down,↓,0.5412377999164164,True,18
100M32,87,experiment,34,→,right,→,0.6099837999790907,True,18
100M32,88,experiment,60,←,left,←,0.6350612998940051,True,18
100M32,89,experiment,58,→,right,→,0.620120600098744,True,18
100M32,90,experiment,57,↓,down,↓,0.5186069998890162,True,18
100M32,91,training,38,←,left,←,0.5095831998623908,True,18
100M32,92,training,44,↓,left,←,0.8131095999851823,False,18
100M32,93,experiment,56,↑,up,↑,0.4341973999980837,True,18
100M32,94,experiment,36,↑,up,↑,0.4165800998453051,True,18
100M32,95,experiment,47,→,right,→,0.5832576998509467,True,18
100M32,96,experiment,34,←,left,←,0.6421282000374049,True,18
100M32,97,experiment,25,←,left,←,1.1771243999246508,True,18
100M32,98,experiment,22,←,left,←,0.5007202001288533,True,18
100M32,99,experiment,43,↑,up,↑,0.5570362000726163,True,18
100M32,100,experiment,50,→,right,→,0.5504729000385851,True,18
100M32,101,experiment,53,↑,up,↑,0.4170165001414716,True,18
100M32,102,experiment,16,←,right,→,0.5387154000345618,False,18
100M32,103,experiment,39,↑,up,↑,0.4006708001252264,True,18
100M32,104,experiment,60,↓,down,↓,1.8206893000751734,True,18
100M32,105,experiment,26,→,right,→,0.6120201000012457,True,18
100M32,106,experiment,58,←,left,←,0.4782114999834448,True,18
100M32,107,experiment,18,→,right,→,0.49591449997387826,True,18
100M32,108,experiment,54,→,right,→,0.48132049990817904,True,18
100M32,109,experiment,21,→,right,→,0.8006819998845458,True,18
100M32,110,experiment,20,↓,no_key,no_letter,-1.0,False,18
100M32,111,experiment,42,↑,up,↑,0.5631216999609023,True,18
100M32,112,experiment,14,←,left,←,0.6997497000265867,True,18
100M32,113,experiment,29,←,left,←,0.6052756998687983,True,18
100M32,114,experiment,46,←,left,←,0.5195581000298262,True,18
100M32,115,experiment,30,↑,no_key,no_letter,-1.0,False,18
100M32,116,experiment,37,↓,up,↑,0.5380061001051217,False,18
100M32,117,experiment,41,→,right,→,0.5464924001134932,True,18
100M32,118,experiment,13,↓,down,↓,0.5084840999916196,True,18
100M32,119,experiment,35,↓,down,↓,0.48181870020926,True,18
100M32,120,experiment,55,↑,up,↑,0.5866225000936538,True,18
100M32,121,experiment,24,→,left,←,1.012024899944663,False,18
100M32,122,experiment,52,→,right,→,0.7065831001382321,True,18
100M32,123,experiment,19,→,right,→,0.5226817999500781,True,18
100M32,124,experiment,38,←,left,←,0.6934976999182254,True,18
100M32,125,experiment,33,↑,up,↑,0.4851137001533061,True,18
100M32,126,experiment,45,→,right,→,0.5567438001744449,True,18
100M32,127,experiment,27,←,left,←,0.7175900000147521,True,18
100M32,128,experiment,32,↑,up,↑,0.5405496000312269,True,18
100M32,129,experiment,31,↑,up,↑,0.47508400003425777,True,18
100M32,130,experiment,44,↓,down,↓,0.6193513001780957,True,18
100M32,131,experiment,23,↑,up,↑,0.43303410010412335,True,18
100M32,132,experiment,57,↑,up,↑,1.2451362998690456,True,18
100M32,133,experiment,28,→,right,→,0.4742022000718862,True,18
100M32,134,experiment,40,→,right,→,0.5891050000209361,True,18
100M32,135,experiment,48,↓,down,↓,0.6632909998297691,True,18
100M32,136,experiment,17,→,right,→,0.7774145998992026,True,18
100M32,137,experiment,15,←,left,←,0.6898937001824379,True,18
100M32,138,experiment,51,→,right,→,0.5577180001419038,True,18
100M32,139,experiment,59,↑,up,↑,0.6573880999349058,True,18
100M32,140,experiment,49,←,left,←,0.4792961999773979,True,18
100M32,141,training,49,←,left,←,0.5574946999549866,True,18
100M32,142,training,36,↑,up,↑,0.656371199991554,True,18
100M32,143,experiment,40,↓,down,↓,0.5806289999745786,True,18
100M32,144,experiment,58,←,left,←,0.5116290999576449,True,18
100M32,145,experiment,39,←,left,←,1.2183385000098497,True,18
100M32,146,experiment,34,↓,down,↓,0.6442950000055134,True,18
100M32,147,experiment,50,↑,down,↓,0.5467650000937283,False,18
100M32,148,experiment,26,↓,down,↓,0.48419420002028346,True,18
100M32,149,experiment,55,↓,down,↓,0.4933726000599563,True,18
100M32,150,experiment,60,→,right,→,0.47499169991351664,True,18
100M32,151,experiment,24,↓,down,↓,0.8641194000374526,True,18
100M32,152,experiment,31,←,left,←,0.657759000081569,True,18
100M32,153,experiment,49,↑,up,↑,0.5842073999810964,True,18
100M32,154,experiment,47,↓,down,↓,1.562701900023967,True,18
100M32,155,experiment,17,←,left,←,0.6016211998648942,True,18
100M32,156,experiment,35,←,left,←,0.48334369994699955,True,18
100M32,157,experiment,33,↑,up,↑,0.46668700012378395,True,18
100M32,158,experiment,53,↑,up,↑,0.6128237000666559,True,18
100M32,159,experiment,16,←,left,←,0.49888269999064505,True,18
100M32,160,experiment,20,←,left,←,0.5536690999288112,True,18
100M32,161,experiment,52,↑,up,↑,0.7139600999653339,True,18
100M32,162,experiment,42,←,left,←,0.5301999999210238,True,18
100M32,163,experiment,14,←,left,←,0.6761968999635428,True,18
100M32,164,experiment,56,↓,down,↓,0.6693915000651032,True,18
100M32,165,experiment,22,↑,up,↑,0.6691405000165105,True,18
100M32,166,experiment,57,↑,up,↑,0.6854088001418859,True,18
100M32,167,experiment,44,→,right,→,1.2937684999778867,True,18
100M32,168,experiment,29,→,right,→,0.41713950014673173,True,18
100M32,169,experiment,37,→,left,←,0.5188037999905646,False,18
100M32,170,experiment,23,↑,right,→,0.9715125001966953,False,18
100M32,171,experiment,19,↑,up,↑,0.4339376001153141,True,18
100M32,172,experiment,51,→,left,←,0.8139826999977231,False,18
100M32,173,experiment,54,↑,up,↑,1.5146699999459088,True,18
100M32,174,experiment,32,↑,no_key,no_letter,-1.0,False,18
100M32,175,experiment,48,←,left,←,0.6126612001098692,True,18
100M32,176,experiment,41,←,left,←,0.5622794001828879,True,18
100M32,177,experiment,27,↑,up,↑,0.810376700013876,True,18
100M32,178,experiment,59,→,right,→,0.7563165999017656,True,18
100M32,179,experiment,46,←,left,←,0.5446779001504183,True,18
100M32,180,experiment,25,↑,up,↑,0.6676874000113457,True,18
100M32,181,experiment,45,↓,down,↓,0.6196548999287188,True,18
100M32,182,experiment,15,↓,down,↓,0.8338442998938262,True,18
100M32,183,experiment,28,↓,down,↓,0.4946783999912441,True,18
100M32,184,experiment,43,←,left,←,0.6314517999999225,True,18
100M32,185,experiment,38,→,right,→,0.4170224000699818,True,18
100M32,186,experiment,18,↑,up,↑,0.4889470001216978,True,18
100M32,187,experiment,13,↓,down,↓,0.4937787000089884,True,18
100M32,188,experiment,30,↓,down,↓,0.6551799001172185,True,18
100M32,189,experiment,36,→,right,→,0.6862459999974817,True,18
100M32,190,experiment,21,↑,up,↑,0.4336852999404073,True,18
100M32,191,training,47,→,right,→,0.7426360000390559,True,18
100M32,192,training,29,↓,down,↓,0.5029113998170942,True,18
100M32,193,experiment,37,↑,up,↑,0.5948483999818563,True,18
100M32,194,experiment,16,↓,down,↓,0.5615040000993758,True,18
100M32,195,experiment,56,↓,down,↓,0.5912840999662876,True,18
100M32,196,experiment,21,→,left,←,0.6666425000876188,False,18
100M32,197,experiment,25,→,right,→,0.8001184000167996,True,18
100M32,198,experiment,49,↑,up,↑,0.49672779999673367,True,18
100M32,199,experiment,50,↑,up,↑,0.43381100008264184,True,18
100M32,200,experiment,17,→,right,→,1.1599969998933375,True,18
100M32,201,experiment,34,←,left,←,0.5805137001443654,True,18
100M32,202,experiment,59,↑,up,↑,0.5188701001461595,True,18
100M32,203,experiment,14,←,left,←,0.43366730003617704,True,18
100M32,204,experiment,22,←,left,←,0.6335469000041485,True,18
100M32,205,experiment,27,←,left,←,0.48696400015614927,True,18
100M32,206,experiment,57,←,left,←,0.5267227999866009,True,18
100M32,207,experiment,44,↑,up,↑,1.2055624001659453,True,18
100M32,208,experiment,18,↑,up,↑,0.5625785999000072,True,18
100M32,209,experiment,35,↑,up,↑,0.5421176999807358,True,18
100M32,210,experiment,29,←,left,←,1.0062446999363601,True,18
100M32,211,experiment,60,→,right,→,0.5435493998229504,True,18
100M32,212,experiment,24,←,left,←,0.5869928000029176,True,18
100M32,213,experiment,52,↓,down,↓,0.5060311001725495,True,18
100M32,214,experiment,39,↑,up,↑,0.5488514001481235,True,18
100M32,215,experiment,13,→,right,→,0.5521078000310808,True,18
100M32,216,experiment,30,↑,up,↑,0.6138704000040889,True,18
100M32,217,experiment,40,→,left,←,0.5951553999911994,False,18
100M32,218,experiment,41,→,right,→,0.6253843999002129,True,18
100M32,219,experiment,19,↓,down,↓,1.0933550000190735,True,18
100M32,220,experiment,46,↓,down,↓,0.899989000055939,True,18
100M32,221,experiment,53,→,right,→,0.5018895000685006,True,18
100M32,222,experiment,43,↓,down,↓,0.6145677999593318,True,18
100M32,223,experiment,45,↑,down,↓,0.6563879000023007,False,18
100M32,224,experiment,36,↓,down,↓,0.5515429000370204,True,18
100M32,225,experiment,32,↓,down,↓,0.5567398001439869,True,18
100M32,226,experiment,58,→,right,→,0.48106749984435737,True,18
100M32,227,experiment,55,↑,up,↑,0.49019429995678365,True,18
100M32,228,experiment,54,→,left,←,0.5797039999160916,False,18
100M32,229,experiment,28,↓,down,↓,0.5150342998094857,True,18
100M32,230,experiment,47,→,right,→,0.47156059998087585,True,18
100M32,231,experiment,42,↓,down,↓,1.0568901000078768,True,18
100M32,232,experiment,38,↑,up,↑,0.5106848999857903,True,18
100M32,233,experiment,31,↑,up,↑,0.6308198000770062,True,18
100M32,234,experiment,51,↓,down,↓,0.47667560004629195,True,18
100M32,235,experiment,26,→,right,→,0.4175773998722434,True,18
100M32,236,experiment,15,↓,down,↓,1.0618890000041574,True,18
100M32,237,experiment,33,←,left,←,1.0148205999284983,True,18
100M32,238,experiment,23,→,right,→,0.4170369999483228,True,18
100M32,239,experiment,20,↑,up,↑,0.6341936001554132,True,18
100M32,240,experiment,48,←,left,←,0.6096548999194056,True,18
100M32,241,training,27,↑,up,↑,0.5869526001624763,True,17
100M32,242,training,32,←,left,←,0.4792799998540431,True,17
100M32,243,experiment,59,←,left,←,0.686121900100261,True,17
100M32,244,experiment,60,↑,up,↑,0.5479900001082569,True,17
100M32,245,experiment,54,→,right,→,0.9628900000825524,True,17
100M32,246,experiment,24,↓,down,↓,1.1015292999800295,True,17
100M32,247,experiment,55,↑,up,↑,0.4617568999528885,True,17
100M32,248,experiment,47,↑,up,↑,0.5007388000376523,True,17
100M32,249,experiment,16,←,left,←,0.49468280002474785,True,17
100M32,250,experiment,25,↓,down,↓,0.6596182999201119,True,17
100M32,251,experiment,20,↑,up,↑,0.660743199987337,True,17
100M32,252,experiment,45,↑,up,↑,0.5098535001743585,True,17
100M32,253,experiment,40,↓,down,↓,0.4723758001346141,True,17
100M32,254,experiment,44,→,up,↑,1.040909199975431,False,17
100M32,255,experiment,50,↑,up,↑,0.5280106000136584,True,17
100M32,256,experiment,14,←,left,←,0.4741372000426054,True,17
100M32,257,experiment,58,↓,down,↓,0.6178065999411047,True,17
100M32,258,experiment,35,↓,down,↓,0.4990449999459088,True,17
100M32,259,experiment,34,←,left,←,1.2248567999340594,True,17
100M32,260,experiment,31,↑,up,↑,0.4604695001617074,True,17
100M32,261,experiment,53,→,right,→,0.6396051000338048,True,17
100M32,262,experiment,36,→,right,→,1.1031216999981552,True,17
100M32,263,experiment,13,←,left,←,0.57133309985511,True,17
100M32,264,experiment,43,↓,down,↓,0.7052367001306266,True,17
100M32,265,experiment,57,↓,down,↓,0.48839509999379516,True,17
100M32,266,experiment,30,←,left,←,0.4734464001376182,True,17
100M32,267,experiment,26,↓,down,↓,0.5665389001369476,True,17
100M32,268,experiment,17,↓,down,↓,1.2049227999523282,True,17
100M32,269,experiment,48,↑,up,↑,0.46268849982880056,True,17
100M32,270,experiment,51,↓,down,↓,0.5304322999436408,True,17
100M32,271,experiment,15,→,right,→,0.636105400044471,True,17
100M32,272,experiment,23,→,right,→,1.0600143999326974,True,17
100M32,273,experiment,38,←,left,←,0.4978883001022041,True,17
100M32,274,experiment,19,←,left,←,0.6018970999866724,True,17
100M32,275,experiment,33,←,left,←,0.49247749987989664,True,17
100M32,276,experiment,46,↑,up,↑,0.5394558999687433,True,17
100M32,277,experiment,41,↓,down,↓,0.5399448000825942,True,17
100M32,278,experiment,27,↓,down,↓,0.6291157000232488,True,17
100M32,279,experiment,37,↓,down,↓,0.5407404999714345,True,17
100M32,280,experiment,42,←,left,←,0.6045146998949349,True,17
100M32,281,experiment,49,↓,down,↓,0.46063390001654625,True,17
100M32,282,experiment,21,↓,down,↓,0.572593400022015,True,17
100M32,283,experiment,52,←,left,←,0.5322229000739753,True,17
100M32,284,experiment,18,→,left,←,0.5235325000248849,False,17
100M32,285,experiment,22,←,left,←,0.5852956001181155,True,17
100M32,286,experiment,28,←,right,→,0.8798962999135256,False,17
100M32,287,experiment,29,←,left,←,0.6586726999375969,True,17
100M32,288,experiment,39,↓,down,↓,1.031526600010693,True,17
100M32,289,experiment,32,←,left,←,0.5459439000114799,True,17
100M32,290,experiment,56,→,right,→,0.6156768000219017,True,17
100M32,291,training,55,↓,down,↓,0.5786818999331445,True,16
100M32,292,training,23,←,right,→,0.4934143000282347,False,16
100M32,293,experiment,13,←,left,←,0.4421709000598639,True,16
100M32,294,experiment,27,↓,down,↓,0.5507643001619726,True,16
100M32,295,experiment,35,↑,up,↑,0.6902284999378026,True,16
100M32,296,experiment,37,↑,up,↑,0.51126529998146,True,16
100M32,297,experiment,32,↑,up,↑,0.5826269001699984,True,16
100M32,298,experiment,56,↓,down,↓,0.6030617000069469,True,16
100M32,299,experiment,52,↑,up,↑,0.5612802999094129,True,16
100M32,300,experiment,29,→,right,→,0.5209757001139224,True,16
100M32,301,experiment,36,↑,up,↑,0.5491293999366462,True,16
100M32,302,experiment,30,↑,up,↑,0.707803700119257,True,16
100M32,303,experiment,24,→,right,→,0.6165769998915493,True,16
100M32,304,experiment,50,→,right,→,0.7515896002296358,True,16
100M32,305,experiment,39,→,right,→,0.4566483001690358,True,16
100M32,306,experiment,22,↑,down,↓,0.8725314999464899,False,16
100M32,307,experiment,45,←,left,←,0.6169454001355916,True,16
100M32,308,experiment,51,↑,up,↑,0.6153863999061286,True,16
100M32,309,experiment,34,↑,up,↑,0.5612019000109285,True,16
100M32,310,experiment,57,→,right,→,0.4621880000922829,True,16
100M32,311,experiment,40,←,left,←,0.5301097999326885,True,16
100M32,312,experiment,14,↑,up,↑,0.57232840009965,True,16
100M32,313,experiment,59,↑,up,↑,0.5430674001108855,True,16
100M32,314,experiment,41,←,left,←,0.7278846001718193,True,16
100M32,315,experiment,16,→,right,→,0.440736300079152,True,16
100M32,316,experiment,26,↓,down,↓,0.4861250000540167,True,16
100M32,317,experiment,17,↓,down,↓,0.5044682000298053,True,16
100M32,318,experiment,60,↑,up,↑,0.4613946001045406,True,16
100M32,319,experiment,55,←,left,←,0.59149120002985,True,16
100M32,320,experiment,54,←,left,←,0.43762900005094707,True,16
100M32,321,experiment,46,↓,up,↑,0.5653854000847787,False,16
100M32,322,experiment,53,↑,up,↑,0.46828210004605353,True,16
100M32,323,experiment,31,←,left,←,0.40070679993368685,True,16
100M32,324,experiment,18,←,left,←,0.5218064999207854,True,16
100M32,325,experiment,49,←,left,←,0.47753999987617135,True,16
100M32,326,experiment,23,↑,up,↑,1.1640667000319809,True,16
100M32,327,experiment,43,→,right,→,0.4424306000582874,True,16
100M32,328,experiment,28,→,left,←,0.5660446998663247,False,16
100M32,329,experiment,25,↓,down,↓,0.5914145999122411,True,16
100M32,330,experiment,42,↑,up,↑,0.6289516999386251,True,16
100M32,331,experiment,58,↓,down,↓,0.6460909999441355,True,16
100M32,332,experiment,19,→,right,→,0.9685855999123305,True,16
100M32,333,experiment,20,↓,down,↓,0.47713640006259084,True,16
100M32,334,experiment,48,←,left,←,0.6274230000562966,True,16
100M32,335,experiment,38,↓,down,↓,0.5862124001141638,True,16
100M32,336,experiment,33,↑,up,↑,0.4007391999475658,True,16
100M32,337,experiment,47,→,right,→,0.5347256998065859,True,16
100M32,338,experiment,15,↓,down,↓,0.46418490004725754,True,16
100M32,339,experiment,21,↓,down,↓,0.5599774001166224,True,16
100M32,340,experiment,44,→,right,→,1.061552899889648,True,16
100M32,341,training,54,→,right,→,0.568483600160107,True,15
100M32,342,training,55,→,right,→,0.35039039980620146,True,15
100M32,343,experiment,56,→,right,→,0.907035400159657,True,15
100M32,344,experiment,55,↑,up,↑,0.4435310000553727,True,15
100M32,345,experiment,27,↓,down,↓,0.5849119999911636,True,15
100M32,346,experiment,39,↑,up,↑,0.4248154000379145,True,15
100M32,347,experiment,45,↑,up,↑,0.5860032001510262,True,15
100M32,348,experiment,48,↓,down,↓,0.5876523000188172,True,15
100M32,349,experiment,17,↓,down,↓,0.42593690007925034,True,15
100M32,350,experiment,43,←,left,←,0.6045129001140594,True,15
100M32,351,experiment,14,→,left,←,0.8280090000480413,False,15
100M32,352,experiment,47,↑,up,↑,0.5493324000854045,True,15
100M32,353,experiment,20,←,left,←,0.514368100091815,True,15
100M32,354,experiment,50,←,left,←,0.5573184997774661,True,15
100M32,355,experiment,36,↑,up,↑,0.5924070000182837,True,15
100M32,356,experiment,37,←,left,←,0.48104919982142746,True,15
100M32,357,experiment,28,←,left,←,0.9556979001499712,True,15
100M32,358,experiment,52,→,right,→,0.46839479985646904,True,15
100M32,359,experiment,24,→,right,→,0.4904244998469949,True,15
100M32,360,experiment,51,←,left,←,0.7422663001343608,True,15
100M32,361,experiment,57,↑,up,↑,0.44395820004865527,True,15
100M32,362,experiment,60,←,left,←,0.5794361000880599,True,15
100M32,363,experiment,42,↑,up,↑,0.5689179000910372,True,15
100M32,364,experiment,25,←,left,←,0.5467196002136916,True,15
100M32,365,experiment,34,←,left,←,1.0792178998235613,True,15
100M32,366,experiment,15,←,left,←,0.9154701998922974,True,15
100M32,367,experiment,35,←,left,←,0.6244312999770045,True,15
100M32,368,experiment,16,←,left,←,0.8379788999445736,True,15
100M32,369,experiment,32,→,left,←,0.4722311000805348,False,15
100M32,370,experiment,21,↑,right,→,0.4881972000002861,False,15
100M32,371,experiment,38,→,right,→,0.4522945999633521,True,15
100M32,372,experiment,29,←,right,→,0.5443495998624712,False,15
100M32,373,experiment,58,←,left,←,0.5248601001221687,True,15
100M32,374,experiment,19,↓,down,↓,0.5324071999639273,True,15
100M32,375,experiment,31,↑,up,↑,0.5392999001778662,True,15
100M32,376,experiment,49,←,left,←,0.5102317000273615,True,15
100M32,377,experiment,44,↑,right,→,0.38313090009614825,False,15
100M32,378,experiment,30,↑,up,↑,0.3503880000207573,True,15
100M32,379,experiment,26,↓,up,↑,0.46694319997914135,False,15
100M32,380,experiment,18,↑,up,↑,0.45292000006884336,True,15
100M32,381,experiment,41,↓,down,↓,0.5524242001120001,True,15
100M32,382,experiment,46,↓,down,↓,0.4766458999365568,True,15
100M32,383,experiment,13,↑,up,↑,0.4579408001154661,True,15
100M32,384,experiment,59,→,right,→,0.425618999870494,True,15
100M32,385,experiment,23,↑,up,↑,0.6096465000882745,True,15
100M32,386,experiment,54,→,right,→,0.5986667000688612,True,15
100M32,387,experiment,40,→,right,→,0.5569947001058608,True,15
100M32,388,experiment,22,→,right,→,0.5369245000183582,True,15
100M32,389,experiment,33,→,right,→,0.4384667999111116,True,15
100M32,390,experiment,53,↓,right,→,0.5388185000047088,False,15
100M32,391,training,30,←,left,←,0.5771508999168873,True,15
100M32,392,training,14,↓,down,↓,0.6657279999926686,True,15
100M32,393,experiment,56,→,right,→,1.2585757998749614,True,15
100M32,394,experiment,18,→,left,←,0.5736401998437941,False,15
100M32,395,experiment,39,↓,down,↓,0.46205520001240075,True,15
100M32,396,experiment,24,↓,down,↓,0.9325687000527978,True,15
100M32,397,experiment,19,←,left,←,1.0115012000314891,True,15
100M32,398,experiment,54,→,right,→,1.4006298000458628,True,15
100M32,399,experiment,36,↓,down,↓,0.5301514000166208,True,15
100M32,400,experiment,14,↑,up,↑,0.4999547000043094,True,15
100M32,401,experiment,44,↓,down,↓,0.4204768999479711,True,15
100M32,402,experiment,50,←,left,←,1.0016647998709232,True,15
100M32,403,experiment,38,↓,down,↓,0.9697782997973263,True,15
100M32,404,experiment,29,↓,down,↓,0.5205060001462698,True,15
100M32,405,experiment,60,↑,up,↑,0.5009311998728663,True,15
100M32,406,experiment,22,←,left,←,0.57901980006136,True,15
100M32,407,experiment,25,←,left,←,0.43638530001044273,True,15
100M32,408,experiment,52,↑,up,↑,0.4494882000144571,True,15
100M32,409,experiment,15,↓,down,↓,0.5340670999139547,True,15
100M32,410,experiment,32,↑,up,↑,0.540082799969241,True,15
100M32,411,experiment,47,↓,down,↓,0.5605770000256598,True,15
100M32,412,experiment,21,←,left,←,0.5170281000901014,True,15
100M32,413,experiment,40,↑,up,↑,0.5346033999230713,True,15
100M32,414,experiment,30,←,left,←,0.5100432999897748,True,15
100M32,415,experiment,13,↓,down,↓,0.47404460003599524,True,15
100M32,416,experiment,48,←,left,←,0.5603540001902729,True,15
100M32,417,experiment,35,↑,up,↑,0.5798184999730438,True,15
100M32,418,experiment,55,↓,down,↓,0.5847905999980867,True,15
100M32,419,experiment,45,↑,up,↑,0.4208323999773711,True,15
100M32,420,experiment,42,←,left,←,0.4398813999723643,True,15
100M32,421,experiment,34,↓,down,↓,0.5367556000128388,True,15
100M32,422,experiment,16,↑,down,↓,0.569366900017485,False,15
100M32,423,experiment,17,→,right,→,0.4560385998338461,True,15
100M32,424,experiment,57,↑,up,↑,0.5291389999911189,True,15
100M32,425,experiment,53,↑,up,↑,0.43436479987576604,True,15
100M32,426,experiment,31,←,left,←,0.46869949996471405,True,15
100M32,427,experiment,37,↑,up,↑,0.48227460007183254,True,15
100M32,428,experiment,59,↑,up,↑,0.4889450001064688,True,15
100M32,429,experiment,26,←,left,←,0.46882289997301996,True,15
100M32,430,experiment,20,↑,up,↑,0.7092908001504838,True,15
100M32,431,experiment,33,→,right,→,1.7562691001221538,True,15
100M32,432,experiment,23,←,left,←,0.5522763000335544,True,15
100M32,433,experiment,41,→,right,→,0.543868999928236,True,15
100M32,434,experiment,49,→,up,↑,0.6347870999015868,False,15
100M32,435,experiment,58,→,right,→,0.48382589989341795,True,15
100M32,436,experiment,27,↑,up,↑,0.4312106999568641,True,15
100M32,437,experiment,51,↓,down,↓,0.5091601999010891,True,15
100M32,438,experiment,28,→,right,→,1.6628615001682192,True,15
100M32,439,experiment,46,←,left,←,0.5510495000053197,True,15
100M32,440,experiment,43,↓,down,↓,0.5895515000447631,True,15
100M32,441,training,32,←,left,←,0.4896354000084102,True,15
100M32,442,training,27,→,left,←,0.429014699999243,False,15
100M32,443,experiment,30,↑,down,↓,0.7284462999086827,False,15
100M32,444,experiment,25,↑,up,↑,0.42787520005367696,True,15
100M32,445,experiment,20,↑,up,↑,1.0219705998897552,True,15
100M32,446,experiment,46,→,right,→,1.0237457999028265,True,15
100M32,447,experiment,36,↓,down,↓,0.46443989989347756,True,15
100M32,448,experiment,24,↓,down,↓,0.47826260002329946,True,15
100M32,449,experiment,45,←,left,←,0.5184657999780029,True,15
100M32,450,experiment,14,↓,down,↓,0.41785450000315905,True,15
100M32,451,experiment,26,←,left,←,0.543321399949491,True,15
100M32,452,experiment,23,→,right,→,1.0592342999298126,True,15
100M32,453,experiment,29,←,left,←,0.5108974000904709,True,15
100M32,454,experiment,44,↓,down,↓,0.4467754000797868,True,15
100M32,455,experiment,32,↑,up,↑,0.5758705998305231,True,15
100M32,456,experiment,53,→,right,→,0.6229716001544148,True,15
100M32,457,experiment,22,→,right,→,1.3043598998337984,True,15
100M32,458,experiment,17,→,right,→,1.4503663999494165,True,15
100M32,459,experiment,59,→,left,←,1.0262625000905246,False,15
100M32,460,experiment,57,↑,up,↑,0.4769347000401467,True,15
100M32,461,experiment,13,→,right,→,0.4661671998910606,True,15
100M32,462,experiment,49,←,left,←,0.4797735000029206,True,15
100M32,463,experiment,42,→,right,→,1.313374700024724,True,15
100M32,464,experiment,52,←,left,←,0.5713386998977512,True,15
100M32,465,experiment,28,↓,left,←,0.7627546999137849,False,15
100M32,466,experiment,41,←,left,←,0.5059805000200868,True,15
100M32,467,experiment,35,→,right,→,0.9271752000786364,True,15
100M32,468,experiment,39,→,right,→,0.7456080999691039,True,15
100M32,469,experiment,37,←,left,←,0.5718495999462903,True,15
100M32,470,experiment,58,↓,down,↓,0.4955724000465125,True,15
100M32,471,experiment,51,↑,up,↑,1.29068490001373,True,15
100M32,472,experiment,27,↓,down,↓,0.9902636001352221,True,15
100M32,473,experiment,15,→,right,→,0.4859364000149071,True,15
100M32,474,experiment,21,↓,down,↓,0.5812093999702483,True,15
100M32,475,experiment,18,↑,up,↑,0.5226582998875529,True,15
100M32,476,experiment,34,←,left,←,0.5441874000243843,True,15
100M32,477,experiment,54,↑,up,↑,0.4478020998649299,True,15
100M32,478,experiment,43,↓,down,↓,0.4185894001275301,True,15
100M32,479,experiment,47,←,down,↓,0.47454369999468327,False,15
100M32,480,experiment,48,←,left,←,0.4724289998412132,True,15
100M32,481,experiment,19,↓,down,↓,0.5700163000728935,True,15
100M32,482,experiment,56,←,left,←,0.49510010005906224,True,15
100M32,483,experiment,60,↓,down,↓,0.5884539000689983,True,15
100M32,484,experiment,33,↑,down,↓,0.5759584000334144,False,15
100M32,485,experiment,50,↓,down,↓,0.48904929985292256,True,15
100M32,486,experiment,40,↓,down,↓,0.5317512000910938,True,15
100M32,487,experiment,31,↑,up,↑,0.5226992000825703,True,15
100M32,488,experiment,55,↑,up,↑,0.4742843001149595,True,15
100M32,489,experiment,38,↑,up,↑,0.4550575001630932,True,15
100M32,490,experiment,16,←,left,←,0.5151238001417369,True,15
100M32,491,training,24,→,right,→,0.586838599992916,True,15
100M32,492,training,20,↓,down,↓,0.4628983000293374,True,15
100M32,493,experiment,22,↓,down,↓,0.5508828999008983,True,15
100M32,494,experiment,55,↑,up,↑,0.48553010006435215,True,15
100M32,495,experiment,30,←,left,←,0.5667412001639605,True,15
100M32,496,experiment,25,↑,up,↑,0.5524628998246044,True,15
100M32,497,experiment,23,←,left,←,0.4838249001186341,True,15
100M32,498,experiment,29,↑,up,↑,0.5256337998434901,True,15
100M32,499,experiment,33,↓,up,↑,1.851697999984026,False,15
100M32,500,experiment,49,←,left,←,0.5786061999388039,True,15
100M32,501,experiment,39,↓,down,↓,0.5628516001161188,True,15
100M32,502,experiment,44,↓,down,↓,0.5124883002135903,True,15
100M32,503,experiment,26,↑,down,↓,0.3330951000098139,False,15
100M32,504,experiment,52,→,right,→,0.4674502999987453,True,15
100M32,505,experiment,54,→,left,←,0.4537879000417888,False,15
100M32,506,experiment,48,↓,down,↓,0.5570409998763353,True,15
100M32,507,experiment,34,←,right,→,0.5047647000756115,False,15
100M32,508,experiment,46,←,left,←,0.7430011001415551,True,15
100M32,509,experiment,38,↑,up,↑,0.6253407001495361,True,15
100M32,510,experiment,58,←,left,←,0.42706100014038384,True,15
100M32,511,experiment,42,↑,up,↑,0.48685159999877214,True,15
100M32,512,experiment,19,→,right,→,0.5832429998554289,True,15
100M32,513,experiment,15,↓,down,↓,0.7106546000577509,True,15
100M32,514,experiment,51,←,left,←,0.6336787000764161,True,15
100M32,515,experiment,37,↓,down,↓,0.5125392000190914,True,15
100M32,516,experiment,32,↓,down,↓,0.6003759000450373,True,15
100M32,517,experiment,35,↓,down,↓,0.577599200187251,True,15
100M32,518,experiment,16,←,left,←,0.425135700032115,True,15
100M32,519,experiment,21,→,left,←,0.4341026998590678,False,15
100M32,520,experiment,17,↑,up,↑,0.6625591998454183,True,15
100M32,521,experiment,36,←,left,←,0.7483324999921024,True,15
100M32,522,experiment,53,←,left,←,0.5721958000212908,True,15
100M32,523,experiment,50,↓,down,↓,0.45319310016930103,True,15
100M32,524,experiment,57,←,right,→,0.5022002998739481,False,15
100M32,525,experiment,27,←,left,←,0.7688545999117196,True,15
100M32,526,experiment,18,←,left,←,0.599128499859944,True,15
100M32,527,experiment,41,→,right,→,0.6450644999276847,True,15
100M32,528,experiment,24,→,right,→,0.6280881001148373,True,15
100M32,529,experiment,59,←,left,←,0.45310580008663237,True,15
100M32,530,experiment,45,↓,down,↓,0.5260338999796659,True,15
100M32,531,experiment,13,←,left,←,0.7613403000868857,True,15
100M32,532,experiment,31,↑,up,↑,0.519669899949804,True,15
100M32,533,experiment,47,→,right,→,0.5084779998287559,True,15
100M32,534,experiment,40,←,left,←,0.6147674000822008,True,15
100M32,535,experiment,20,→,right,→,0.48950319993309677,True,15
100M32,536,experiment,14,↑,up,↑,0.7494246999267489,True,15
100M32,537,experiment,28,←,no_key,no_letter,-1.0,False,15
100M32,538,experiment,60,←,left,←,0.4666284001432359,True,15
100M32,539,experiment,43,↓,down,↓,0.532255400205031,True,15
100M32,540,experiment,56,→,right,→,0.45857989997603,True,15
100M32,541,training,60,↑,up,↑,0.4524568000342697,True,15
100M32,542,training,40,↑,up,↑,0.48839750001206994,True,15
100M32,543,experiment,13,↓,down,↓,0.573300999822095,True,15
100M32,544,experiment,48,←,left,←,0.5433794998098165,True,15
100M32,545,experiment,32,↓,down,↓,0.5500169000588357,True,15
100M32,546,experiment,53,↑,up,↑,0.5256386999972165,True,15
100M32,547,experiment,58,↓,down,↓,0.4752474999986589,True,15
100M32,548,experiment,36,↑,up,↑,0.46494679991155863,True,15
100M32,549,experiment,49,←,left,←,0.5665875999256968,True,15
100M32,550,experiment,46,←,left,←,0.4581581999082118,True,15
100M32,551,experiment,31,↓,down,↓,1.4681927999481559,True,15
100M32,552,experiment,41,↓,down,↓,0.471715500112623,True,15
100M32,553,experiment,27,↑,down,↓,0.5876156999729574,False,15
100M32,554,experiment,54,↑,up,↑,0.6253241000231355,True,15
100M32,555,experiment,23,←,left,←,0.4981903999578208,True,15
100M32,556,experiment,51,→,right,→,1.0852274999488145,True,15
100M32,557,experiment,33,↓,down,↓,0.6931242998689413,True,15
100M32,558,experiment,29,→,right,→,0.4229761001188308,True,15
100M32,559,experiment,15,↓,right,→,0.8524909999687225,False,15
100M32,560,experiment,20,←,left,←,0.517887300113216,True,15
100M32,561,experiment,22,←,left,←,0.4198875001166016,True,15
100M32,562,experiment,56,↑,up,↑,0.5656405000481755,True,15
100M32,563,experiment,42,↓,down,↓,0.4997316000517458,True,15
100M32,564,experiment,43,↓,down,↓,0.596101599978283,True,15
100M32,565,experiment,39,→,right,→,0.4508501999080181,True,15
100M32,566,experiment,24,←,left,←,0.505470700096339,True,15
100M32,567,experiment,38,↓,down,↓,0.5170801000203937,True,15
100M32,568,experiment,28,→,down,↓,0.646623200038448,False,15
100M32,569,experiment,17,↑,up,↑,0.585993500193581,True,15
100M32,570,experiment,34,↑,up,↑,0.5094039998948574,True,15
100M32,571,experiment,47,←,left,←,1.2424073999281973,True,15
100M32,572,experiment,26,↓,down,↓,0.4330970000009984,True,15
100M32,573,experiment,55,↓,down,↓,0.4996981001459062,True,15
100M32,574,experiment,37,↑,up,↑,0.6320154999848455,True,15
100M32,575,experiment,60,→,right,→,0.503755799960345,True,15
100M32,576,experiment,44,↓,down,↓,0.45547679997980595,True,15
100M32,577,experiment,18,↓,down,↓,1.209851099876687,True,15
100M32,578,experiment,19,→,right,→,0.5342898000963032,True,15
100M32,579,experiment,21,→,right,→,0.49967520008794963,True,15
100M32,580,experiment,59,↓,down,↓,0.6253412000369281,True,15
100M32,581,experiment,57,↓,down,↓,0.43591750017367303,True,15
100M32,582,experiment,30,↑,up,↑,0.6631765000056475,True,15
100M32,583,experiment,50,↓,down,↓,0.5001809000968933,True,15
100M32,584,experiment,25,→,right,→,0.5762102999724448,True,15
100M32,585,experiment,52,←,left,←,0.6238738000392914,True,15
100M32,586,experiment,16,→,right,→,0.477268299786374,True,15
100M32,587,experiment,14,→,right,→,0.6499610000755638,True,15
100M32,588,experiment,35,←,left,←,0.6815559999085963,True,15
100M32,589,experiment,40,→,right,→,0.42842469993047416,True,15
100M32,590,experiment,45,↓,down,↓,0.6859134000260383,True,15
