PART_ID,Trial_no,Trial_type,CSI,Stim_letter,Key_pressed,letter_choose,Rt,Corr,Stimulus Time
101M20,1,training,60,→,no_key,no_letter,-1.0,False,30
101M20,2,training,60,↑,up,↑,1.5785653998609632,True,30
101M20,3,training,60,→,right,→,1.428451499901712,True,30
101M20,4,training,60,↓,down,↓,1.532413500128314,True,30
101M20,5,training,60,←,left,←,1.0726008000783622,True,30
101M20,6,training,60,↑,up,↑,1.5033507000189275,True,30
101M20,7,training,60,↓,down,↓,1.1401466000825167,True,30
101M20,8,training,60,→,right,→,1.2481692999135703,True,30
101M20,9,training,60,←,left,←,1.031150999944657,True,30
101M20,10,training,60,↑,up,↑,1.0551607001107186,True,30
101M20,11,training,60,→,right,→,1.2063385997898877,True,30
101M20,12,training,60,→,right,→,1.2234554002061486,True,30
101M20,13,training,60,→,right,→,0.9198986000847071,True,30
101M20,14,training,60,↓,down,↓,1.0124097999650985,True,30
101M20,15,training,60,↓,down,↓,0.8848280000966042,True,30
101M20,16,training,60,↓,down,↓,0.9546248998958617,True,30
101M20,17,training,60,↓,down,↓,1.0054073999635875,True,30
101M20,18,training,60,←,left,←,0.8705284001771361,True,30
101M20,19,training,60,→,right,→,0.9730557000730187,True,30
101M20,20,training,60,↑,up,↑,0.9592619999311864,True,30
101M20,21,training,60,→,right,→,1.135683299973607,True,18
101M20,22,training,60,→,right,→,0.9635767000727355,True,18
101M20,23,training,60,↑,down,↓,1.1817880000453442,False,18
101M20,24,training,60,↓,down,↓,0.8795799999497831,True,18
101M20,25,training,60,←,left,←,0.7572472000028938,True,18
101M20,26,training,60,↑,up,↑,0.9921792999375612,True,18
101M20,27,training,60,←,left,←,0.7698123999871314,True,18
101M20,28,training,60,↓,down,↓,1.1478653000667691,True,18
101M20,29,training,60,→,right,→,0.6147900000214577,True,18
101M20,30,training,60,→,left,←,1.487312400015071,False,18
101M20,31,training,60,←,left,←,0.9173284999560565,True,18
101M20,32,training,60,←,left,←,0.9054660000838339,True,18
101M20,33,training,60,←,left,←,0.7264022999443114,True,18
101M20,34,training,60,←,left,←,0.6500289000105113,True,18
101M20,35,training,60,→,right,→,0.769031000090763,True,18
101M20,36,training,60,←,left,←,1.3072484999429435,True,18
101M20,37,training,60,↓,down,↓,1.2327254998963326,True,18
101M20,38,training,60,↓,down,↓,0.8807970001362264,True,18
101M20,39,training,60,↓,down,↓,0.7502049999311566,True,18
101M20,40,training,60,↓,down,↓,0.8493635000195354,True,18
101M20,41,training,30,↓,down,↓,0.5558170001022518,True,18
101M20,42,training,26,←,left,←,0.8693170000333339,True,18
101M20,43,experiment,53,→,right,→,1.0086187000852078,True,18
101M20,44,experiment,29,↑,up,↑,1.0701142998877913,True,18
101M20,45,experiment,42,←,left,←,0.8325854002032429,True,18
101M20,46,experiment,46,→,right,→,0.5217132000252604,True,18
101M20,47,experiment,13,→,left,←,1.1488626999780536,False,18
101M20,48,experiment,32,←,left,←,1.018718499923125,True,18
101M20,49,experiment,43,↓,down,↓,1.1905393998604268,True,18
101M20,50,experiment,23,→,right,→,0.7771703999023885,True,18
101M20,51,experiment,33,←,left,←,0.9971708999946713,True,18
101M20,52,experiment,19,↓,down,↓,0.9297608998604119,True,18
101M20,53,experiment,51,←,no_key,no_letter,-1.0,False,18
101M20,54,experiment,18,←,right,→,1.3622119999490678,False,18
101M20,55,experiment,22,↓,down,↓,1.1265375998336822,True,18
101M20,56,experiment,38,↑,up,↑,0.7622199000325054,True,18
101M20,57,experiment,40,←,up,↑,1.2659157998859882,False,18
101M20,58,experiment,56,↓,up,↑,1.3075589998625219,False,18
101M20,59,experiment,60,→,right,→,1.2248631999827921,True,18
101M20,60,experiment,34,↑,up,↑,0.6747805001214147,True,18
101M20,61,experiment,36,↓,down,↓,0.6889138999395072,True,18
101M20,62,experiment,16,↓,down,↓,1.9154688999988139,True,18
101M20,63,experiment,58,↓,down,↓,0.7138395998626947,True,18
101M20,64,experiment,14,→,down,↓,1.1888588999863714,False,18
101M20,65,experiment,57,←,left,←,0.656925099901855,True,18
101M20,66,experiment,20,↓,down,↓,0.6180233999621123,True,18
101M20,67,experiment,54,↑,up,↑,0.5505959999281913,True,18
101M20,68,experiment,37,→,right,→,0.9212630998808891,True,18
101M20,69,experiment,48,↑,up,↑,1.6290462999604642,True,18
101M20,70,experiment,47,→,right,→,0.9744036998599768,True,18
101M20,71,experiment,25,↑,up,↑,0.6074807001277804,True,18
101M20,72,experiment,59,←,left,←,0.8812249000184238,True,18
101M20,73,experiment,44,→,right,→,0.5778489001095295,True,18
101M20,74,experiment,27,↑,up,↑,1.0977380000986159,True,18
101M20,75,experiment,24,↑,up,↑,0.5987416999414563,True,18
101M20,76,experiment,28,↑,up,↑,0.5172807001508772,True,18
101M20,77,experiment,35,←,right,→,0.889936099993065,False,18
101M20,78,experiment,17,→,right,→,0.5879397999960929,True,18
101M20,79,experiment,30,→,right,→,0.5215056999586523,True,18
101M20,80,experiment,26,↑,up,↑,0.5401325998827815,True,18
101M20,81,experiment,45,↓,right,→,1.2178115001879632,False,18
101M20,82,experiment,55,→,right,→,0.5499566001817584,True,18
101M20,83,experiment,31,←,right,→,0.9161678000818938,False,18
101M20,84,experiment,49,↑,up,↑,0.663713299902156,True,18
101M20,85,experiment,21,↑,up,↑,0.6240798998624086,True,18
101M20,86,experiment,50,→,right,→,0.543115799780935,True,18
101M20,87,experiment,52,↓,down,↓,0.6477882999461144,True,18
101M20,88,experiment,39,↑,up,↑,0.5009691000450402,True,18
101M20,89,experiment,41,→,right,→,0.48636460001580417,True,18
101M20,90,experiment,15,↑,no_key,no_letter,-1.0,False,18
101M20,91,training,31,←,left,←,0.6187565000727773,True,18
101M20,92,training,37,←,no_key,no_letter,-1.0,False,18
101M20,93,experiment,33,←,left,←,0.5272714998573065,True,18
101M20,94,experiment,60,↑,no_key,no_letter,-1.0,False,18
101M20,95,experiment,31,→,left,←,1.105972700053826,False,18
101M20,96,experiment,49,↓,down,↓,1.5100837000645697,True,18
101M20,97,experiment,38,↓,down,↓,0.6503020999953151,True,18
101M20,98,experiment,15,←,left,←,0.5990077999886125,True,18
101M20,99,experiment,43,↑,up,↑,0.9309674999676645,True,18
101M20,100,experiment,14,↓,down,↓,1.0294872999656945,True,18
101M20,101,experiment,37,←,left,←,0.8765034000389278,True,18
101M20,102,experiment,54,↓,down,↓,0.5990901999175549,True,18
101M20,103,experiment,20,←,left,←,0.8743561999872327,True,18
101M20,104,experiment,19,↑,up,↑,0.5237870002165437,True,18
101M20,105,experiment,51,↑,up,↑,0.7181820999830961,True,18
101M20,106,experiment,34,↑,up,↑,0.5398526999633759,True,18
101M20,107,experiment,57,→,right,→,0.5215386999770999,True,18
101M20,108,experiment,55,↓,left,←,0.9530168999917805,False,18
101M20,109,experiment,36,↓,left,←,0.9481549998745322,False,18
101M20,110,experiment,25,↑,up,↑,0.5986639000475407,True,18
101M20,111,experiment,29,↓,down,↓,0.6278418998699635,True,18
101M20,112,experiment,28,↑,up,↑,1.865360900061205,True,18
101M20,113,experiment,46,↑,up,↑,1.0335585998836905,True,18
101M20,114,experiment,26,↓,down,↓,0.5758849999401718,True,18
101M20,115,experiment,47,←,left,←,0.8107895001303405,True,18
101M20,116,experiment,52,↑,up,↑,0.6094750000629574,True,18
101M20,117,experiment,24,→,right,→,1.529995599994436,True,18
101M20,118,experiment,42,↓,down,↓,0.6664254001807421,True,18
101M20,119,experiment,17,↓,down,↓,0.6769083000253886,True,18
101M20,120,experiment,41,↑,down,↓,0.9358488998841494,False,18
101M20,121,experiment,48,↑,up,↑,0.6998042999766767,True,18
101M20,122,experiment,53,↓,down,↓,0.8774356001522392,True,18
101M20,123,experiment,27,↑,up,↑,0.5216564999427646,True,18
101M20,124,experiment,50,↓,down,↓,0.684521900024265,True,18
101M20,125,experiment,58,←,left,←,0.7239729999564588,True,18
101M20,126,experiment,56,↑,up,↑,0.5628295999485999,True,18
101M20,127,experiment,59,→,right,→,0.9818227000068873,True,18
101M20,128,experiment,22,↑,right,→,0.8567119999788702,False,18
101M20,129,experiment,35,→,right,→,0.9444609999191016,True,18
101M20,130,experiment,23,↑,up,↑,0.5165385000873357,True,18
101M20,131,experiment,44,↑,up,↑,0.8837533998303115,True,18
101M20,132,experiment,39,↓,down,↓,0.5514105998445302,True,18
101M20,133,experiment,21,↑,up,↑,0.4999776999466121,True,18
101M20,134,experiment,16,←,right,→,0.9419356998987496,False,18
101M20,135,experiment,32,→,right,→,0.6445855000056326,True,18
101M20,136,experiment,40,↑,no_key,no_letter,-1.0,False,18
101M20,137,experiment,45,↑,up,↑,1.4702667999081314,True,18
101M20,138,experiment,30,↓,no_key,no_letter,-1.0,False,18
101M20,139,experiment,18,↑,up,↑,0.4718619000632316,True,18
101M20,140,experiment,13,↓,right,→,0.6120994000229985,False,18
101M20,141,training,15,↑,up,↑,0.46835470013320446,True,18
101M20,142,training,31,→,right,→,0.5086394001264125,True,18
101M20,143,experiment,46,←,left,←,0.81884970003739,True,18
101M20,144,experiment,49,→,left,←,1.0906427002046257,False,18
101M20,145,experiment,50,←,right,→,1.1593665999826044,False,18
101M20,146,experiment,53,→,right,→,1.295299099991098,True,18
101M20,147,experiment,20,←,left,←,0.5355384999420494,True,18
101M20,148,experiment,42,↑,up,↑,0.9190374000463635,True,18
101M20,149,experiment,60,→,right,→,1.1876562999095768,True,18
101M20,150,experiment,56,→,right,→,0.5682711999397725,True,18
101M20,151,experiment,38,←,left,←,1.2734180998522788,True,18
101M20,152,experiment,57,↑,up,↑,0.5777861000970006,True,18
101M20,153,experiment,58,↑,up,↑,0.693824099842459,True,18
101M20,154,experiment,54,←,right,→,1.0796113999094814,False,18
101M20,155,experiment,24,↓,down,↓,0.9011387000791728,True,18
101M20,156,experiment,26,→,down,↓,0.97653210000135,False,18
101M20,157,experiment,18,→,right,→,0.5350053999572992,True,18
101M20,158,experiment,47,↑,up,↑,1.3790235999040306,True,18
101M20,159,experiment,37,←,left,←,0.49225120013579726,True,18
101M20,160,experiment,28,←,down,↓,1.1993558001704514,False,18
101M20,161,experiment,33,←,left,←,0.4745344000402838,True,18
101M20,162,experiment,21,←,left,←,0.9296218999661505,True,18
101M20,163,experiment,40,↑,down,↓,0.8266877001151443,False,18
101M20,164,experiment,19,→,right,→,1.2461792998947203,True,18
101M20,165,experiment,43,↑,down,↓,1.176729700062424,False,18
101M20,166,experiment,52,↓,down,↓,0.9768425999209285,True,18
101M20,167,experiment,13,←,left,←,0.6823833000380546,True,18
101M20,168,experiment,15,←,left,←,0.8536521999631077,True,18
101M20,169,experiment,29,←,left,←,0.4973645000718534,True,18
101M20,170,experiment,45,↑,up,↑,0.8403567001223564,True,18
101M20,171,experiment,48,←,left,←,0.7441054000519216,True,18
101M20,172,experiment,34,←,left,←,0.6448478999081999,True,18
101M20,173,experiment,27,↑,down,↓,1.0425547999329865,False,18
101M20,174,experiment,36,→,left,←,0.7063025999814272,False,18
101M20,175,experiment,59,→,right,→,1.1200347999110818,True,18
101M20,176,experiment,39,→,right,→,0.7945446998346597,True,18
101M20,177,experiment,41,↓,down,↓,1.0327318999916315,True,18
101M20,178,experiment,55,→,right,→,0.5638592999894172,True,18
101M20,179,experiment,16,↓,down,↓,0.7954987001139671,True,18
101M20,180,experiment,30,→,no_key,no_letter,-1.0,False,18
101M20,181,experiment,23,←,left,←,0.6924835999961942,True,18
101M20,182,experiment,51,←,down,↓,0.9923174998257309,False,18
101M20,183,experiment,14,↓,down,↓,0.7843812999781221,True,18
101M20,184,experiment,32,↑,up,↑,0.5725957001559436,True,18
101M20,185,experiment,22,→,right,→,0.6643878000322729,True,18
101M20,186,experiment,17,↑,up,↑,0.9627584000118077,True,18
101M20,187,experiment,44,↑,up,↑,0.5285348000470549,True,18
101M20,188,experiment,35,↓,down,↓,0.7972198999486864,True,18
101M20,189,experiment,25,↓,down,↓,0.8054933999665082,True,18
101M20,190,experiment,31,↓,down,↓,0.7139727000612766,True,18
101M20,191,training,25,↑,down,↓,0.9890314000658691,False,18
101M20,192,training,56,↑,up,↑,0.8016413999721408,True,18
101M20,193,experiment,56,→,right,→,0.9735516000073403,True,18
101M20,194,experiment,17,←,left,←,0.4922919999808073,True,18
101M20,195,experiment,48,↑,down,↓,1.2337593999691308,False,18
101M20,196,experiment,49,→,right,→,0.7771236998960376,True,18
101M20,197,experiment,53,→,left,←,1.0403299999888986,False,18
101M20,198,experiment,15,↓,down,↓,0.8377718001138419,True,18
101M20,199,experiment,28,↓,down,↓,0.7389586998615414,True,18
101M20,200,experiment,16,↑,up,↑,0.9237734000198543,True,18
101M20,201,experiment,41,↑,up,↑,0.6368798001203686,True,18
101M20,202,experiment,25,↑,down,↓,0.8516422000247985,False,18
101M20,203,experiment,26,←,left,←,0.561144300037995,True,18
101M20,204,experiment,40,←,left,←,0.6814447001088411,True,18
101M20,205,experiment,39,↑,up,↑,0.8690688000060618,True,18
101M20,206,experiment,50,→,right,→,0.8178993000183254,True,18
101M20,207,experiment,24,↑,up,↑,0.7221454998943955,True,18
101M20,208,experiment,59,←,left,←,0.7835195001680404,True,18
101M20,209,experiment,27,→,left,←,1.1990751000121236,False,18
101M20,210,experiment,58,↓,down,↓,0.6095258998684585,True,18
101M20,211,experiment,14,↑,up,↑,0.5770550000015646,True,18
101M20,212,experiment,35,←,left,←,0.41709790006279945,True,18
101M20,213,experiment,20,←,left,←,0.6616258001886308,True,18
101M20,214,experiment,38,↑,up,↑,0.8512985999695957,True,18
101M20,215,experiment,36,↓,down,↓,0.7622756999917328,True,18
101M20,216,experiment,42,←,left,←,0.5052511000540107,True,18
101M20,217,experiment,23,↑,down,↓,0.7426251999568194,False,18
101M20,218,experiment,34,→,right,→,1.091794400010258,True,18
101M20,219,experiment,47,↓,down,↓,0.7303859000094235,True,18
101M20,220,experiment,57,↑,up,↑,1.1523945000953972,True,18
101M20,221,experiment,30,←,left,←,0.6229571001604199,True,18
101M20,222,experiment,19,↑,up,↑,0.5943640000186861,True,18
101M20,223,experiment,18,←,down,↓,1.0959248000290245,False,18
101M20,224,experiment,46,→,right,→,0.7103073000907898,True,18
101M20,225,experiment,55,↑,down,↓,0.8948093999642879,False,18
101M20,226,experiment,32,↑,up,↑,1.1991543001495302,True,18
101M20,227,experiment,29,↓,down,↓,0.6770309000276029,True,18
101M20,228,experiment,22,↓,down,↓,0.5323234999086708,True,18
101M20,229,experiment,31,→,right,→,0.6831422001123428,True,18
101M20,230,experiment,13,↓,down,↓,0.6001760000362992,True,18
101M20,231,experiment,37,→,right,→,0.848214500118047,True,18
101M20,232,experiment,21,↓,down,↓,0.9049786999821663,True,18
101M20,233,experiment,54,↑,up,↑,0.6823378999251872,True,18
101M20,234,experiment,60,←,left,←,0.6958300999831408,True,18
101M20,235,experiment,43,↑,up,↑,0.5763745999429375,True,18
101M20,236,experiment,44,↓,down,↓,0.637014500098303,True,18
101M20,237,experiment,52,←,left,←,0.6822631999384612,True,18
101M20,238,experiment,33,→,right,→,0.5858505999203771,True,18
101M20,239,experiment,45,↓,down,↓,0.6295136997941881,True,18
101M20,240,experiment,51,→,right,→,0.7711606998927891,True,18
101M20,241,training,28,→,no_key,no_letter,-1.0,False,18
101M20,242,training,15,↑,up,↑,0.47896770015358925,True,18
101M20,243,experiment,22,↑,up,↑,0.7497964999638498,True,18
101M20,244,experiment,33,↓,down,↓,0.5627409999724478,True,18
101M20,245,experiment,45,←,left,←,0.560011199908331,True,18
101M20,246,experiment,48,↓,down,↓,0.5143699999898672,True,18
101M20,247,experiment,32,↑,down,↓,0.7373030001763254,False,18
101M20,248,experiment,23,→,right,→,0.5814165000338107,True,18
101M20,249,experiment,25,↑,up,↑,0.8941246001049876,True,18
101M20,250,experiment,46,↑,up,↑,0.5894157001748681,True,18
101M20,251,experiment,56,↓,down,↓,0.5858493000268936,True,18
101M20,252,experiment,17,↑,down,↓,0.7838797001168132,False,18
101M20,253,experiment,41,↑,up,↑,0.6621789000928402,True,18
101M20,254,experiment,27,←,left,←,0.5149629998486489,True,18
101M20,255,experiment,52,↑,up,↑,1.484348800033331,True,18
101M20,256,experiment,49,←,left,←,1.6342986000236124,True,18
101M20,257,experiment,43,↑,up,↑,0.7015917000826448,True,18
101M20,258,experiment,18,↑,left,←,0.5659942999482155,False,18
101M20,259,experiment,58,→,right,→,0.6819720000494272,True,18
101M20,260,experiment,13,←,right,→,0.7905294999945909,False,18
101M20,261,experiment,21,←,right,→,1.6024282001890242,False,18
101M20,262,experiment,53,↓,down,↓,0.5843851000536233,True,18
101M20,263,experiment,19,←,down,↓,0.9651372998487204,False,18
101M20,264,experiment,20,↑,left,←,1.7377708000130951,False,18
101M20,265,experiment,26,→,right,→,0.5565033000893891,True,18
101M20,266,experiment,50,↓,down,↓,0.9900591999758035,True,18
101M20,267,experiment,14,←,left,←,0.6941974998917431,True,18
101M20,268,experiment,57,←,left,←,0.822270599892363,True,18
101M20,269,experiment,59,↓,down,↓,0.7992642000317574,True,18
101M20,270,experiment,60,↑,up,↑,1.048563600052148,True,18
101M20,271,experiment,51,↑,up,↑,0.7416228000074625,True,18
101M20,272,experiment,24,←,left,←,0.5852005998604,True,18
101M20,273,experiment,28,←,left,←,0.7439212999306619,True,18
101M20,274,experiment,16,↓,down,↓,0.8489679999183863,True,18
101M20,275,experiment,47,↑,down,↓,0.9603942998219281,False,18
101M20,276,experiment,15,↓,down,↓,0.8177022999152541,True,18
101M20,277,experiment,36,↑,up,↑,0.5136664998717606,True,18
101M20,278,experiment,44,↓,down,↓,0.7768321000039577,True,18
101M20,279,experiment,34,←,down,↓,0.8841669999528676,False,18
101M20,280,experiment,29,↑,up,↑,0.8223478000145406,True,18
101M20,281,experiment,37,↑,up,↑,0.5422886998858303,True,18
101M20,282,experiment,40,↓,down,↓,0.5512846999336034,True,18
101M20,283,experiment,35,→,right,→,0.6104633000213653,True,18
101M20,284,experiment,39,↑,down,↓,0.7133615999482572,False,18
101M20,285,experiment,42,↑,up,↑,0.8582270999904722,True,18
101M20,286,experiment,31,←,left,←,0.8687456001061946,True,18
101M20,287,experiment,54,←,left,←,0.5271075000055134,True,18
101M20,288,experiment,55,←,left,←,0.5509399999864399,True,18
101M20,289,experiment,30,↑,up,↑,0.7738711999263614,True,18
101M20,290,experiment,38,←,no_key,no_letter,-1.0,False,18
101M20,291,training,32,↑,up,↑,0.8059485000558197,True,18
101M20,292,training,26,←,left,←,0.5973465000279248,True,18
101M20,293,experiment,36,↓,down,↓,0.9181584001053125,True,18
101M20,294,experiment,29,↑,up,↑,1.198985799914226,True,18
101M20,295,experiment,16,←,left,←,0.5253103999421,True,18
101M20,296,experiment,32,↓,down,↓,0.8439774999860674,True,18
101M20,297,experiment,53,↑,up,↑,0.5603321001399308,True,18
101M20,298,experiment,14,←,left,←,0.5540253999643028,True,18
101M20,299,experiment,57,↓,down,↓,1.1590062000323087,True,18
101M20,300,experiment,41,↓,down,↓,1.0306744000408798,True,18
101M20,301,experiment,56,←,no_key,no_letter,-1.0,False,18
101M20,302,experiment,38,←,left,←,0.6189556999597698,True,18
101M20,303,experiment,60,←,right,→,0.7314371999818832,False,18
101M20,304,experiment,39,↑,up,↑,0.8211134998127818,True,18
101M20,305,experiment,22,→,no_key,no_letter,-1.0,False,18
101M20,306,experiment,18,←,left,←,0.6693470999598503,True,18
101M20,307,experiment,37,←,right,→,0.5147261000238359,False,18
101M20,308,experiment,44,↑,down,↓,0.8017933000810444,False,18
101M20,309,experiment,46,↑,no_key,no_letter,-1.0,False,18
101M20,310,experiment,48,↑,no_key,no_letter,-1.0,False,18
101M20,311,experiment,27,→,no_key,no_letter,-1.0,False,18
101M20,312,experiment,47,↑,up,↑,1.0997474000323564,True,18
101M20,313,experiment,30,←,left,←,1.0126054000575095,True,18
101M20,314,experiment,51,↑,right,→,0.563570800004527,False,18
101M20,315,experiment,58,↑,down,↓,0.9195188998710364,False,18
101M20,316,experiment,50,→,right,→,0.5709090998861939,True,18
101M20,317,experiment,28,↓,down,↓,0.5219090001191944,True,18
101M20,318,experiment,59,↓,down,↓,0.5833368999883533,True,18
101M20,319,experiment,15,←,left,←,0.49442670005373657,True,18
101M20,320,experiment,23,←,left,←,1.468396000098437,True,18
101M20,321,experiment,45,←,right,→,1.1011169000994414,False,18
101M20,322,experiment,13,←,left,←,1.1934971001464874,True,18
101M20,323,experiment,54,←,left,←,1.1275796999689192,True,18
101M20,324,experiment,52,→,right,→,0.5534948999993503,True,18
101M20,325,experiment,42,→,right,→,0.5760369999334216,True,18
101M20,326,experiment,33,↑,up,↑,0.5483097999822348,True,18
101M20,327,experiment,34,↓,down,↓,0.48875939985737205,True,18
101M20,328,experiment,20,→,right,→,0.6005277000367641,True,18
101M20,329,experiment,25,→,right,→,0.664763499982655,True,18
101M20,330,experiment,24,←,right,→,0.646889400202781,False,18
101M20,331,experiment,40,←,left,←,0.4338477998971939,True,18
101M20,332,experiment,31,↓,down,↓,0.6378786999266595,True,18
101M20,333,experiment,43,↓,down,↓,0.8247142999898642,True,18
101M20,334,experiment,35,↑,down,↓,0.8177236998453736,False,18
101M20,335,experiment,17,↓,down,↓,0.6627926998771727,True,18
101M20,336,experiment,21,←,down,↓,1.1269084000959992,False,18
101M20,337,experiment,55,↓,down,↓,0.8387811998836696,True,18
101M20,338,experiment,49,←,down,↓,0.9096659000497311,False,18
101M20,339,experiment,19,↑,down,↓,0.8138623000122607,False,18
101M20,340,experiment,26,←,left,←,0.508939899969846,True,18
101M20,341,training,53,←,left,←,0.6504641999490559,True,18
101M20,342,training,34,←,left,←,0.7707144001033157,True,18
101M20,343,experiment,60,↓,down,↓,0.7334724999964237,True,18
101M20,344,experiment,23,↓,no_key,no_letter,-1.0,False,18
101M20,345,experiment,19,↓,down,↓,0.40033359988592565,True,18
101M20,346,experiment,27,←,right,→,0.5574982999823987,False,18
101M20,347,experiment,59,↓,down,↓,0.6413636999204755,True,18
101M20,348,experiment,45,↑,up,↑,0.4670184999704361,True,18
101M20,349,experiment,17,↓,down,↓,0.3997798999771476,True,18
101M20,350,experiment,24,↑,up,↑,0.41652059997431934,True,18
101M20,351,experiment,57,←,left,←,0.5904743999708444,True,18
101M20,352,experiment,13,↓,down,↓,1.4313793999608606,True,18
101M20,353,experiment,28,→,left,←,0.8283512000925839,False,18
101M20,354,experiment,30,→,left,←,0.7846924001350999,False,18
101M20,355,experiment,47,↓,down,↓,0.6192571001593024,True,18
101M20,356,experiment,46,→,right,→,0.7491668998263776,True,18
101M20,357,experiment,50,←,left,←,0.814431200036779,True,18
101M20,358,experiment,36,↓,down,↓,0.751077099936083,True,18
101M20,359,experiment,31,←,left,←,0.7171790001448244,True,18
101M20,360,experiment,55,→,left,←,0.5730540999211371,False,18
101M20,361,experiment,41,→,left,←,1.067930300021544,False,18
101M20,362,experiment,54,←,left,←,0.5181223000399768,True,18
101M20,363,experiment,48,→,right,→,0.8183979000896215,True,18
101M20,364,experiment,51,→,right,→,1.2169361000414938,True,18
101M20,365,experiment,14,↓,down,↓,0.5043138999026269,True,18
101M20,366,experiment,53,↓,down,↓,0.7537795000243932,True,18
101M20,367,experiment,26,↑,up,↑,0.7233332002069801,True,18
101M20,368,experiment,43,↓,down,↓,0.6348907998763025,True,18
101M20,369,experiment,16,←,left,←,0.6714019000064582,True,18
101M20,370,experiment,15,→,right,→,0.5157646001316607,True,18
101M20,371,experiment,34,↑,down,↓,0.6810685000382364,False,18
101M20,372,experiment,20,→,right,→,0.7453173000831157,True,18
101M20,373,experiment,29,←,left,←,0.5215630999300629,True,18
101M20,374,experiment,52,←,left,←,0.47515719989314675,True,18
101M20,375,experiment,58,→,down,↓,0.8259326000697911,False,18
101M20,376,experiment,35,←,left,←,0.4173990001436323,True,18
101M20,377,experiment,44,↓,down,↓,0.5171606000512838,True,18
101M20,378,experiment,40,←,left,←,0.4946256000548601,True,18
101M20,379,experiment,18,→,right,→,0.8322838000021875,True,18
101M20,380,experiment,37,↑,up,↑,0.5429581999778748,True,18
101M20,381,experiment,21,→,up,↑,0.732439500046894,False,18
101M20,382,experiment,39,→,right,→,0.7100553000345826,True,18
101M20,383,experiment,49,↓,down,↓,0.778511700220406,True,18
101M20,384,experiment,22,←,left,←,0.5418723002076149,True,18
101M20,385,experiment,32,←,left,←,0.4923086001072079,True,18
101M20,386,experiment,25,→,right,→,0.5448456997983158,True,18
101M20,387,experiment,56,←,left,←,0.879117000149563,True,18
101M20,388,experiment,42,←,left,←,0.5135525998193771,True,18
101M20,389,experiment,38,→,right,→,0.7806776999495924,True,18
101M20,390,experiment,33,←,left,←,0.7759744999930263,True,18
101M20,391,training,56,→,right,→,0.4860257999971509,True,18
101M20,392,training,33,↓,down,↓,0.5650372998788953,True,18
101M20,393,experiment,46,←,left,←,0.6169514998327941,True,18
101M20,394,experiment,13,↑,up,↑,1.4720727000385523,True,18
101M20,395,experiment,56,→,left,←,0.7615638999268413,False,18
101M20,396,experiment,25,←,left,←,0.7237756000831723,True,18
101M20,397,experiment,43,↓,down,↓,0.6753911001142114,True,18
101M20,398,experiment,41,↓,down,↓,0.7746156000066549,True,18
101M20,399,experiment,30,→,right,→,0.9005156999919564,True,18
101M20,400,experiment,33,↓,down,↓,0.7876010998152196,True,18
101M20,401,experiment,53,↓,down,↓,0.7939716000109911,True,18
101M20,402,experiment,17,→,left,←,0.5043059999588877,False,18
101M20,403,experiment,55,↓,down,↓,0.6964505000505596,True,18
101M20,404,experiment,20,↓,down,↓,0.7365031000226736,True,18
101M20,405,experiment,45,↓,down,↓,0.8784147000405937,True,18
101M20,406,experiment,23,→,right,→,0.7171281001064926,True,18
101M20,407,experiment,39,←,left,←,0.855376600055024,True,18
101M20,408,experiment,50,↑,up,↑,1.0371884999331087,True,18
101M20,409,experiment,26,↑,up,↑,0.49182070000097156,True,18
101M20,410,experiment,57,↑,up,↑,0.771417299984023,True,18
101M20,411,experiment,51,→,right,→,0.6037952001206577,True,18
101M20,412,experiment,44,↓,down,↓,0.8232442999724299,True,18
101M20,413,experiment,40,↑,up,↑,0.7728790999390185,True,18
101M20,414,experiment,15,↓,down,↓,0.9809876000508666,True,18
101M20,415,experiment,24,←,left,←,0.5189957001712173,True,18
101M20,416,experiment,59,↑,up,↑,0.5796495999675244,True,18
101M20,417,experiment,34,↓,down,↓,0.5823738998733461,True,18
101M20,418,experiment,48,↓,down,↓,0.568704699864611,True,18
101M20,419,experiment,32,→,right,→,0.6692165001295507,True,18
101M20,420,experiment,36,↓,down,↓,0.5312342999968678,True,18
101M20,421,experiment,60,↑,up,↑,0.4715656000189483,True,18
101M20,422,experiment,27,↓,right,→,0.7305906000547111,False,18
101M20,423,experiment,21,↑,up,↑,1.1678124000318348,True,18
101M20,424,experiment,35,↓,down,↓,0.7312382000964135,True,18
101M20,425,experiment,37,↓,down,↓,0.7740998999215662,True,18
101M20,426,experiment,47,↑,up,↑,0.8092658000532538,True,18
101M20,427,experiment,29,←,left,←,0.6785083999857306,True,18
101M20,428,experiment,31,←,left,←,0.6400629000272602,True,18
101M20,429,experiment,42,→,right,→,0.5876628998667002,True,18
101M20,430,experiment,58,→,left,←,0.9188902999740094,False,18
101M20,431,experiment,18,←,left,←,0.5834327999036759,True,18
101M20,432,experiment,49,↑,up,↑,0.7600068000610918,True,18
101M20,433,experiment,16,→,right,→,0.6080765000078827,True,18
101M20,434,experiment,28,↓,down,↓,0.55073789996095,True,18
101M20,435,experiment,38,←,left,←,0.5917511000297964,True,18
101M20,436,experiment,54,←,left,←,0.6054499999154359,True,18
101M20,437,experiment,22,↓,down,↓,0.7277477998286486,True,18
101M20,438,experiment,14,←,left,←,0.41674549994058907,True,18
101M20,439,experiment,52,↓,down,↓,0.6391980999615043,True,18
101M20,440,experiment,19,←,left,←,0.5941723000723869,True,18
101M20,441,training,54,←,left,←,0.3999157000798732,True,17
101M20,442,training,36,↑,up,↑,0.6228008999023587,True,17
101M20,443,experiment,38,↓,left,←,0.5818263001274318,False,17
101M20,444,experiment,50,←,left,←,1.5340118000749499,True,17
101M20,446,experiment,51,←,left,←,0.6189651000313461,True,17
101M20,447,experiment,24,←,left,←,0.5312955998815596,True,17
101M20,448,experiment,34,↑,down,↓,0.8877648001071066,False,17
101M20,449,experiment,39,↑,up,↑,0.5314845000393689,True,17
101M20,450,experiment,35,←,left,←,0.6319907000288367,True,17
101M20,451,experiment,44,→,right,→,0.4743896999862045,True,17
101M20,452,experiment,30,→,right,→,1.7401201999746263,True,17
101M20,453,experiment,41,↑,down,↓,0.7809325999114662,False,17
101M20,454,experiment,13,←,left,←,0.36726339999586344,True,17
101M20,455,experiment,36,↓,down,↓,0.5594306001439691,True,17
101M20,456,experiment,33,→,right,→,0.4606806000228971,True,17
101M20,457,experiment,42,←,left,←,1.2944273999892175,True,17
101M20,458,experiment,20,←,no_key,no_letter,-1.0,False,17
101M20,459,experiment,19,↓,down,↓,0.9255015999078751,True,17
101M20,460,experiment,45,↓,down,↓,0.5480112999211997,True,17
101M20,461,experiment,22,→,down,↓,0.7117985000368208,False,17
101M20,462,experiment,40,↓,down,↓,0.49003429990261793,True,17
101M20,463,experiment,58,←,right,→,0.6973329000174999,False,17
101M20,464,experiment,49,→,right,→,0.45359340007416904,True,17
101M20,465,experiment,37,←,left,←,0.6269982999656349,True,17
101M20,466,experiment,32,↑,up,↑,0.5820265000220388,True,17
101M20,467,experiment,59,↓,down,↓,0.6722042001783848,True,17
101M20,468,experiment,31,→,right,→,0.4656941001303494,True,17
101M20,469,experiment,54,→,right,→,1.3959804000332952,True,17
101M20,470,experiment,18,→,right,→,1.274128400022164,True,17
101M20,471,experiment,14,←,left,←,0.5587799001950771,True,17
101M20,472,experiment,21,→,left,←,0.7555104000493884,False,17
101M20,473,experiment,48,↑,up,↑,1.326486799865961,True,17
101M20,474,experiment,28,↓,down,↓,0.5445418001618236,True,17
101M20,475,experiment,52,→,left,←,0.5776823000051081,False,17
101M20,476,experiment,55,↑,down,↓,0.6953522998373955,False,17
101M20,477,experiment,27,↓,down,↓,0.5626029002014548,True,17
101M20,478,experiment,16,↓,down,↓,0.5311469999141991,True,17
101M20,479,experiment,60,↓,down,↓,0.4865218000486493,True,17
101M20,480,experiment,56,↑,up,↑,0.4786017001606524,True,17
101M20,481,experiment,17,→,left,←,0.8095297000836581,False,17
101M20,482,experiment,46,↑,up,↑,0.41756669990718365,True,17
101M20,483,experiment,47,↓,down,↓,1.100087100174278,True,17
101M20,484,experiment,15,↓,down,↓,0.7108231000602245,True,17
101M20,485,experiment,53,↑,up,↑,1.9207804999314249,True,17
101M20,486,experiment,26,↑,no_key,no_letter,-1.0,False,17
101M20,487,experiment,57,↓,down,↓,0.7299919000361115,True,17
101M20,488,experiment,43,↓,down,↓,0.7612741000484675,True,17
101M20,489,experiment,23,→,down,↓,0.589072700124234,False,17
101M20,490,experiment,25,→,left,←,0.9901799999643117,False,17
101M20,491,training,28,←,left,←,0.5280907999258488,True,17
101M20,492,training,44,←,left,←,0.7271699998527765,True,17
101M20,493,experiment,56,↓,down,↓,0.486033100169152,True,17
101M20,494,experiment,32,↓,down,↓,0.6059102998115122,True,17
101M20,495,experiment,37,←,down,↓,0.6940834999550134,False,17
101M20,496,experiment,23,↑,up,↑,0.9483463999349624,True,17
101M20,497,experiment,50,↓,down,↓,0.8541884000878781,True,17
101M20,498,experiment,35,↓,down,↓,0.5098592001013458,True,17
101M20,499,experiment,36,↓,down,↓,0.7306846999563277,True,17
101M20,500,experiment,46,↑,up,↑,0.7356833999510854,True,17
101M20,501,experiment,13,↓,up,↑,1.0106565000023693,False,17
101M20,502,experiment,24,←,left,←,0.6036054999567568,True,17
101M20,503,experiment,48,←,left,←,0.5966358999721706,True,17
101M20,504,experiment,54,↓,down,↓,0.5216284000780433,True,17
101M20,505,experiment,19,←,left,←,0.8008156002033502,True,17
101M20,506,experiment,38,↓,left,←,0.5203801000025123,False,17
101M20,507,experiment,31,↓,no_key,no_letter,-1.0,False,17
101M20,508,experiment,47,→,right,→,0.5004612000193447,True,17
101M20,509,experiment,22,↑,up,↑,0.7864605002105236,True,17
101M20,510,experiment,28,→,right,→,0.4812998999841511,True,17
101M20,511,experiment,40,↑,no_key,no_letter,-1.0,False,17
101M20,512,experiment,18,↓,no_key,no_letter,-1.0,False,17
101M20,513,experiment,20,→,left,←,0.8736808998510242,False,17
101M20,514,experiment,44,←,left,←,0.48248600005172193,True,17
101M20,515,experiment,45,↑,up,↑,0.8103612998966128,True,17
101M20,516,experiment,27,→,up,↑,0.6892877998761833,False,17
101M20,517,experiment,60,↑,no_key,no_letter,-1.0,False,17
101M20,518,experiment,39,↓,down,↓,0.8963156999088824,True,17
101M20,519,experiment,25,↑,up,↑,0.7805735999718308,True,17
101M20,520,experiment,33,←,left,←,0.6726847998797894,True,17
101M20,521,experiment,16,←,left,←,0.6437391999643296,True,17
101M20,522,experiment,43,↑,left,←,0.8865584000013769,False,17
101M20,523,experiment,30,↓,up,↑,0.6082975000608712,False,17
101M20,524,experiment,41,→,right,→,0.4170012001413852,True,17
101M20,525,experiment,42,↓,left,←,0.60947209992446,False,17
101M20,526,experiment,15,→,right,→,0.4798990001436323,True,17
101M20,527,experiment,34,→,right,→,0.47958649997599423,True,17
101M20,528,experiment,51,↑,up,↑,0.48295950004830956,True,17
101M20,529,experiment,49,→,right,→,0.4007910001091659,True,17
101M20,530,experiment,59,→,right,→,0.497137000085786,True,17
101M20,531,experiment,14,→,right,→,0.4849315998144448,True,17
101M20,532,experiment,52,→,right,→,0.41726260003633797,True,17
101M20,533,experiment,57,↓,down,↓,0.553772599902004,True,17
101M20,534,experiment,29,→,right,→,0.6329061000142246,True,17
101M20,535,experiment,55,↓,down,↓,0.5002154000103474,True,17
101M20,536,experiment,58,↑,up,↑,0.4985547000542283,True,17
101M20,537,experiment,21,↓,right,→,1.033028099918738,False,17
101M20,538,experiment,26,↓,down,↓,1.511406300123781,True,17
101M20,539,experiment,17,←,left,←,0.3506016000173986,True,17
101M20,540,experiment,53,↓,left,←,0.8642770999576896,False,17
101M20,541,training,47,↓,left,←,0.907842299900949,False,17
101M20,542,training,33,↑,up,↑,0.5625890998635441,True,17
101M20,543,experiment,28,→,left,←,0.4983314999844879,False,17
101M20,544,experiment,52,→,right,→,0.5006331000477076,True,17
101M20,545,experiment,44,↑,left,←,0.38410950009711087,False,17
101M20,546,experiment,56,↑,up,↑,1.055900099920109,True,17
101M20,547,experiment,40,↑,up,↑,0.4681610001716763,True,17
101M20,548,experiment,25,↑,up,↑,1.0975235998630524,True,17
101M20,549,experiment,42,→,right,→,1.1387748999986798,True,17
101M20,550,experiment,49,↓,down,↓,0.7177331999409944,True,17
101M20,551,experiment,39,↓,down,↓,0.512248600134626,True,17
101M20,552,experiment,45,↑,down,↓,0.8471599000040442,False,17
101M20,553,experiment,58,↑,up,↑,0.4635130998212844,True,17
101M20,554,experiment,14,←,left,←,1.0200537000782788,True,17
101M20,555,experiment,36,↓,down,↓,0.7327089000027627,True,17
101M20,556,experiment,60,↓,left,←,0.38367430004291236,False,17
101M20,557,experiment,32,↑,up,↑,0.5158678998705,True,17
101M20,558,experiment,43,←,left,←,0.4007180000189692,True,17
101M20,559,experiment,20,←,left,←,0.36733820009976625,True,17
101M20,560,experiment,46,→,down,↓,0.8807083000428975,False,17
101M20,561,experiment,34,→,right,→,0.4717779001221061,True,17
101M20,562,experiment,21,↑,down,↓,0.9600755001883954,False,17
101M20,563,experiment,37,↓,down,↓,0.5623010001145303,True,17
101M20,564,experiment,38,→,right,→,0.7077776999212801,True,17
101M20,565,experiment,19,↑,down,↓,1.1079492999706417,False,17
101M20,566,experiment,59,→,right,→,0.4805841001216322,True,17
101M20,567,experiment,26,→,right,→,1.0927949999459088,True,17
101M20,568,experiment,17,↑,up,↑,0.4948189998976886,True,17
101M20,569,experiment,22,↑,down,↓,0.8698307999875396,False,17
101M20,570,experiment,13,↑,down,↓,0.667289299890399,False,17
101M20,571,experiment,35,←,left,←,0.690021000104025,True,17
101M20,572,experiment,41,↓,down,↓,0.49225140013732016,True,17
101M20,573,experiment,57,←,right,→,0.5721141998656094,False,17
101M20,574,experiment,33,↓,down,↓,0.7281392998993397,True,17
101M20,575,experiment,31,←,left,←,0.384735899977386,True,17
101M20,576,experiment,30,←,left,←,0.39988779998384416,True,17
101M20,577,experiment,55,↑,down,↓,1.0072949000168592,False,17
101M20,578,experiment,29,←,left,←,0.4692762999329716,True,17
101M20,579,experiment,54,↓,down,↓,0.5914392000995576,True,17
101M20,580,experiment,48,↓,down,↓,0.6967915999703109,True,17
101M20,581,experiment,47,←,left,←,0.45515789999626577,True,17
101M20,582,experiment,18,←,left,←,0.5845560000743717,True,17
101M20,583,experiment,27,←,left,←,0.38453379995189607,True,17
101M20,584,experiment,16,←,left,←,0.52536840015091,True,17
101M20,585,experiment,50,←,left,←,0.5043245998676866,True,17
101M20,586,experiment,24,→,right,→,0.6692659000400454,True,17
101M20,587,experiment,23,↑,up,↑,0.4760286998935044,True,17
101M20,588,experiment,51,→,left,←,0.4966542001347989,False,17
101M20,589,experiment,53,↓,right,→,0.4000872001051903,False,17
101M20,590,experiment,15,→,right,→,0.5279536000452936,True,17
