PART_ID,Trial_no,Trial_type,CSI,Stim_letter,Key_pressed,letter_choose,Rt,Corr,Stimulus Time
103K19,1,training,60,←,no_key,no_letter,-1.0,False,30
103K19,2,training,60,↓,down,↓,0.6000381999183446,True,30
103K19,3,training,60,↑,up,↑,0.6336890999227762,True,30
103K19,4,training,60,↑,up,↑,0.9424407000187784,True,30
103K19,5,training,60,←,left,←,0.6884529998060316,True,30
103K19,6,training,60,←,left,←,0.5166658000089228,True,30
103K19,7,training,60,↓,right,→,0.5342975000385195,False,30
103K19,8,training,60,↑,up,↑,0.5172397999558598,True,30
103K19,9,training,60,→,right,→,1.7218182999640703,True,30
103K19,10,training,60,→,right,→,0.9643213001545519,True,30
103K19,11,training,60,↑,up,↑,0.6851395000703633,True,30
103K19,12,training,60,→,right,→,0.6002544001676142,True,30
103K19,13,training,60,↑,up,↑,1.4397032000124454,True,30
103K19,14,training,60,↓,down,↓,0.6857447000220418,True,30
103K19,15,training,60,↑,up,↑,0.745704400120303,True,30
103K19,16,training,60,↓,down,↓,1.9551367999520153,True,30
103K19,17,training,60,↑,up,↑,1.1883079998660833,True,30
103K19,18,training,60,↑,up,↑,0.7886576999444515,True,30
103K19,19,training,60,←,left,←,0.5173243000172079,True,30
103K19,20,training,60,↑,up,↑,0.6945674000307918,True,30
103K19,21,training,60,→,up,↑,1.0524764999281615,False,18
103K19,22,training,60,←,left,←,0.33370640012435615,True,18
103K19,23,training,60,→,right,→,0.3334815001580864,True,18
103K19,24,training,60,↓,up,↑,0.5249410001561046,False,18
103K19,25,training,60,↓,down,↓,0.9430730999447405,True,18
103K19,26,training,60,→,right,→,1.136915799928829,True,18
103K19,27,training,60,↓,down,↓,0.7309616000857204,True,18
103K19,28,training,60,←,left,←,0.9178982998710126,True,18
103K19,29,training,60,←,left,←,0.4878275999799371,True,18
103K19,30,training,60,→,right,→,0.7795289000496268,True,18
103K19,31,training,60,←,left,←,0.6434966998640448,True,18
103K19,32,training,60,→,right,→,0.6728933998383582,True,18
103K19,33,training,60,→,right,→,0.5257884999737144,True,18
103K19,34,training,60,←,left,←,0.5843909999821335,True,18
103K19,35,training,60,←,left,←,0.4884045000653714,True,18
103K19,36,training,60,→,right,→,0.6842189999297261,True,18
103K19,37,training,60,↓,down,↓,0.6483014998957515,True,18
103K19,38,training,60,↓,down,↓,0.629717200063169,True,18
103K19,39,training,60,↑,up,↑,0.7478033998049796,True,18
103K19,40,training,60,←,left,←,0.6768299001269042,True,18
103K19,41,training,19,↓,down,↓,0.6989696999080479,True,18
103K19,42,training,57,→,right,→,0.6890823999419808,True,18
103K19,43,experiment,39,→,right,→,0.6917099000420421,True,18
103K19,44,experiment,43,↑,up,↑,0.7317693000659347,True,18
103K19,45,experiment,49,↓,down,↓,0.5575595998670906,True,18
103K19,46,experiment,55,↑,up,↑,0.7228542999364436,True,18
103K19,47,experiment,15,↑,up,↑,0.7241736999712884,True,18
103K19,48,experiment,27,↓,down,↓,0.5414962000213563,True,18
103K19,49,experiment,40,→,right,→,0.6776918000541627,True,18
103K19,50,experiment,57,←,right,→,0.5731918001547456,False,18
103K19,51,experiment,38,↓,down,↓,0.5729010999202728,True,18
103K19,52,experiment,21,↑,down,↓,0.7923733999487013,False,18
103K19,53,experiment,44,↓,down,↓,0.4682744999881834,True,18
103K19,54,experiment,59,→,left,←,0.6651178998872638,False,18
103K19,55,experiment,51,←,left,←,0.4923997998703271,True,18
103K19,56,experiment,19,←,right,→,0.6921364001464099,False,18
103K19,57,experiment,58,↓,left,←,0.3333691000007093,False,18
103K19,58,experiment,41,←,left,←,1.6090449001640081,True,18
103K19,59,experiment,56,→,right,→,0.6197214999701828,True,18
103K19,60,experiment,50,↓,down,↓,0.5216751999687403,True,18
103K19,61,experiment,14,↓,down,↓,0.5314277000725269,True,18
103K19,62,experiment,53,↓,down,↓,0.6590485000051558,True,18
103K19,63,experiment,22,↓,no_key,no_letter,-1.0,False,18
103K19,64,experiment,45,←,left,←,1.581749599892646,True,18
103K19,65,experiment,18,↑,up,↑,0.6902642999775708,True,18
103K19,66,experiment,33,↓,down,↓,0.721031199907884,True,18
103K19,67,experiment,46,→,right,→,0.8134381999261677,True,18
103K19,68,experiment,26,↓,down,↓,0.5956005998887122,True,18
103K19,69,experiment,35,↓,down,↓,0.6288198998663574,True,18
103K19,70,experiment,34,→,right,→,0.5337326999288052,True,18
103K19,71,experiment,30,↑,up,↑,0.5560841001570225,True,18
103K19,72,experiment,52,↑,down,↓,0.7795231000054628,False,18
103K19,73,experiment,25,↑,left,←,1.1241772000212222,False,18
103K19,74,experiment,23,↓,down,↓,0.640265200054273,True,18
103K19,75,experiment,29,←,left,←,0.4842349998652935,True,18
103K19,76,experiment,47,↓,down,↓,0.7689193000551313,True,18
103K19,77,experiment,28,↓,down,↓,0.6315806999336928,True,18
103K19,78,experiment,13,↓,down,↓,0.5576335999649018,True,18
103K19,79,experiment,36,→,right,→,0.5034044000785798,True,18
103K19,80,experiment,24,←,left,←,0.6756519998889416,True,18
103K19,81,experiment,17,↑,down,↓,0.7576694001909345,False,18
103K19,82,experiment,42,←,left,←,0.7554212000686675,True,18
103K19,83,experiment,48,↑,up,↑,0.7494215997867286,True,18
103K19,84,experiment,54,←,left,←,0.5394045999273658,True,18
103K19,85,experiment,37,↑,up,↑,0.5816638001706451,True,18
103K19,86,experiment,16,↑,up,↑,1.459648499963805,True,18
103K19,87,experiment,31,↓,up,↑,0.6367899000179023,False,18
103K19,88,experiment,32,←,left,←,0.4172114001121372,True,18
103K19,89,experiment,60,↑,up,↑,0.620975200086832,True,18
103K19,90,experiment,20,→,right,→,0.6068100999109447,True,18
103K19,91,training,18,↑,up,↑,0.543541599996388,True,18
103K19,92,training,17,↑,left,←,1.3666671998798847,False,18
103K19,93,experiment,52,↓,down,↓,0.7816916999872774,True,18
103K19,94,experiment,43,→,right,→,0.6493969999719411,True,18
103K19,95,experiment,59,←,left,←,0.6320458999834955,True,18
103K19,96,experiment,60,→,right,→,0.6629600999876857,True,18
103K19,97,experiment,26,←,left,←,0.6274482000153512,True,18
103K19,98,experiment,18,←,right,→,0.6709497000556439,False,18
103K19,99,experiment,37,←,left,←,0.4834647001698613,True,18
103K19,100,experiment,46,←,left,←,0.8896168998908252,True,18
103K19,101,experiment,51,↑,up,↑,0.6840233001857996,True,18
103K19,102,experiment,58,←,left,←,0.6182719999924302,True,18
103K19,103,experiment,17,↑,up,↑,0.7102627002168447,True,18
103K19,104,experiment,24,→,right,→,1.2981404999736696,True,18
103K19,105,experiment,44,→,right,→,0.6016530999913812,True,18
103K19,106,experiment,33,←,left,←,0.7468071000184864,True,18
103K19,107,experiment,34,←,left,←,0.5989040997810662,True,18
103K19,108,experiment,56,↑,up,↑,0.6415715999901295,True,18
103K19,109,experiment,49,↓,down,↓,0.6552843998651952,True,18
103K19,110,experiment,22,→,right,→,0.8948023000266403,True,18
103K19,111,experiment,39,→,left,←,0.48136379988864064,False,18
103K19,112,experiment,15,↑,left,←,1.4918754000682384,False,18
103K19,113,experiment,19,↓,down,↓,0.5161365000531077,True,18
103K19,114,experiment,21,←,left,←,0.5533509999513626,True,18
103K19,115,experiment,31,→,left,←,0.4865478998981416,False,18
103K19,116,experiment,27,→,right,→,0.5216261998284608,True,18
103K19,117,experiment,38,←,left,←,0.4008054002188146,True,18
103K19,118,experiment,13,←,no_key,no_letter,-1.0,False,18
103K19,119,experiment,20,↓,left,←,1.726279699942097,False,18
103K19,120,experiment,55,→,right,→,0.5329585000872612,True,18
103K19,121,experiment,32,←,left,←,0.5859464998356998,True,18
103K19,122,experiment,45,→,right,→,0.6367894001305103,True,18
103K19,123,experiment,54,↓,up,↑,0.72734469990246,False,18
103K19,124,experiment,28,↑,up,↑,0.9044359000399709,True,18
103K19,125,experiment,42,↓,down,↓,1.000111100031063,True,18
103K19,126,experiment,25,↓,down,↓,0.7995497998781502,True,18
103K19,127,experiment,57,↑,left,←,0.793301799800247,False,18
103K19,128,experiment,23,→,down,↓,1.2189829999115318,False,18
103K19,129,experiment,40,→,right,→,0.5114561999216676,True,18
103K19,130,experiment,48,←,left,←,0.5635182000696659,True,18
103K19,131,experiment,50,→,right,→,0.7395275000017136,True,18
103K19,132,experiment,53,↓,up,↑,0.8992129999678582,False,18
103K19,133,experiment,16,↓,down,↓,0.8440008000470698,True,18
103K19,134,experiment,47,→,right,→,0.6035070000216365,True,18
103K19,135,experiment,35,↓,right,→,1.0200313001405448,False,18
103K19,136,experiment,14,↓,up,↑,0.8900583998765796,False,18
103K19,137,experiment,41,←,right,→,0.7074319000821561,False,18
103K19,138,experiment,30,↓,left,←,0.515259200008586,False,18
103K19,139,experiment,36,↓,down,↓,0.49468100001104176,True,18
103K19,140,experiment,29,→,right,→,0.43394010001793504,True,18
103K19,141,training,41,↓,down,↓,0.6055018999613822,True,18
103K19,142,training,28,↓,down,↓,0.9465826000086963,True,18
103K19,143,experiment,26,↑,down,↓,0.7152531000319868,False,18
103K19,144,experiment,44,↑,up,↑,0.6491756998002529,True,18
103K19,145,experiment,42,←,right,→,0.5235543998423964,False,18
103K19,146,experiment,60,←,left,←,0.7665442998986691,True,18
103K19,147,experiment,55,→,right,→,0.555224800016731,True,18
103K19,148,experiment,23,↑,up,↑,0.5900479999836534,True,18
103K19,149,experiment,29,→,right,→,0.7874596000183374,True,18
103K19,150,experiment,40,↑,up,↑,0.9454733999446034,True,18
103K19,151,experiment,19,↓,down,↓,1.4152915000449866,True,18
103K19,152,experiment,54,→,right,→,0.6670897000003606,True,18
103K19,153,experiment,35,↑,up,↑,1.0165109001100063,True,18
103K19,154,experiment,34,↑,up,↑,1.137372799916193,True,18
103K19,155,experiment,50,→,right,→,0.8025583000853658,True,18
103K19,156,experiment,30,→,right,→,0.7748180001508445,True,18
103K19,157,experiment,36,↑,up,↑,0.8798333001323044,True,18
103K19,158,experiment,47,←,left,←,0.7495304998010397,True,18
103K19,159,experiment,14,↑,up,↑,1.6623420000541955,True,18
103K19,160,experiment,59,↓,down,↓,1.2205914000514895,True,18
103K19,161,experiment,18,↓,down,↓,1.1039722000714391,True,18
103K19,162,experiment,39,→,right,→,1.201868599979207,True,18
103K19,163,experiment,58,←,left,←,1.0191977999638766,True,18
103K19,164,experiment,53,↑,up,↑,1.0232122000306845,True,18
103K19,165,experiment,52,↑,up,↑,1.163795999949798,True,18
103K19,166,experiment,17,↑,up,↑,1.6737917999271303,True,18
103K19,167,experiment,21,←,right,→,1.1453275999519974,False,18
103K19,168,experiment,22,→,right,→,1.35744579997845,True,18
103K19,169,experiment,31,←,left,←,1.1305247000418603,True,18
103K19,170,experiment,38,→,up,↑,1.227858800208196,False,18
103K19,171,experiment,57,←,left,←,0.9574325000867248,True,18
103K19,172,experiment,46,↑,up,↑,1.0805216000881046,True,18
103K19,173,experiment,49,←,left,←,1.1326783997938037,True,18
103K19,174,experiment,32,→,right,→,1.474095200188458,True,18
103K19,175,experiment,25,↑,up,↑,1.3587154999841005,True,18
103K19,176,experiment,56,↓,no_key,no_letter,-1.0,False,18
103K19,177,experiment,27,↓,up,↑,1.450815699994564,False,18
103K19,178,experiment,51,↓,up,↑,0.9745664999354631,False,18
103K19,179,experiment,24,↓,down,↓,1.4078041000757366,True,18
103K19,180,experiment,33,→,right,→,1.241744700120762,True,18
103K19,181,experiment,20,→,up,↑,1.4831310999579728,False,18
103K19,182,experiment,15,↓,no_key,no_letter,-1.0,False,18
103K19,183,experiment,43,←,left,←,0.8266862998716533,True,18
103K19,184,experiment,28,↓,left,←,1.6714265001937747,False,18
103K19,185,experiment,45,←,left,←,0.9345980999059975,True,18
103K19,186,experiment,37,←,left,←,1.1525798998773098,True,18
103K19,187,experiment,41,←,right,→,0.975485400063917,False,18
103K19,188,experiment,48,↓,down,↓,1.208419900154695,True,18
103K19,189,experiment,16,←,right,→,1.1018521001096815,False,18
103K19,190,experiment,13,→,right,→,1.3211622999515384,True,18
103K19,191,training,20,→,right,→,0.9931830998975784,True,18
103K19,192,training,43,→,right,→,1.1091740999836475,True,18
103K19,193,experiment,33,↓,right,→,1.0991428000852466,False,18
103K19,194,experiment,55,↑,up,↑,1.0910221000667661,True,18
103K19,195,experiment,32,→,right,→,1.0978358001448214,True,18
103K19,196,experiment,45,↓,down,↓,1.0002140998840332,True,18
103K19,197,experiment,14,←,left,←,1.0625918000005186,True,18
103K19,198,experiment,35,↓,down,↓,0.9575539000798017,True,18
103K19,199,experiment,23,←,left,←,0.9680246999487281,True,18
103K19,200,experiment,37,→,right,→,0.9046527000609785,True,18
103K19,201,experiment,57,↑,up,↑,0.9744034998584539,True,18
103K19,202,experiment,25,↑,up,↑,0.9512048000469804,True,18
103K19,203,experiment,26,←,left,←,0.847936499863863,True,18
103K19,204,experiment,58,↓,down,↓,0.8791165000293404,True,18
103K19,205,experiment,17,↑,down,↓,1.1372825999278575,False,18
103K19,206,experiment,56,↓,down,↓,0.886677399976179,True,18
103K19,207,experiment,40,→,right,→,0.8886889000423253,True,18
103K19,208,experiment,46,←,left,←,0.7743808999657631,True,18
103K19,209,experiment,20,←,left,←,1.0903684999793768,True,18
103K19,210,experiment,38,→,right,→,0.9819269001018256,True,18
103K19,211,experiment,51,←,left,←,0.9003987000323832,True,18
103K19,212,experiment,42,↑,up,↑,0.9246890000067651,True,18
103K19,213,experiment,47,→,right,→,0.864538999972865,True,18
103K19,214,experiment,36,→,right,→,0.9019634001888335,True,18
103K19,215,experiment,13,↓,down,↓,1.009093599859625,True,18
103K19,216,experiment,24,↑,up,↑,0.6572203000541776,True,18
103K19,217,experiment,43,↓,left,←,1.0426086001098156,False,18
103K19,218,experiment,34,↑,down,↓,0.9865687999408692,False,18
103K19,219,experiment,27,↓,down,↓,1.4010145999491215,True,18
103K19,220,experiment,30,↑,up,↑,1.1012728000059724,True,18
103K19,221,experiment,28,↑,right,→,0.9186152999754995,False,18
103K19,222,experiment,48,↑,up,↑,1.0577777000144124,True,18
103K19,223,experiment,50,→,right,→,0.9825883999001235,True,18
103K19,224,experiment,29,↑,up,↑,0.9478565999306738,True,18
103K19,225,experiment,39,←,up,↑,1.1077495999634266,False,18
103K19,226,experiment,44,←,left,←,0.7944018000271171,True,18
103K19,227,experiment,54,←,left,←,1.3112772000022233,True,18
103K19,228,experiment,49,→,right,→,1.138541900087148,True,18
103K19,229,experiment,52,↑,up,↑,1.018425100017339,True,18
103K19,230,experiment,59,←,left,←,0.794620799832046,True,18
103K19,231,experiment,31,←,left,←,0.974592899903655,True,18
103K19,232,experiment,41,←,right,→,0.9243836998939514,False,18
103K19,233,experiment,16,→,right,→,1.2451797998510301,True,18
103K19,234,experiment,18,↓,down,↓,0.8476469002198428,True,18
103K19,235,experiment,22,←,left,←,0.9111581000033766,True,18
103K19,236,experiment,21,→,left,←,0.9810053999535739,False,18
103K19,237,experiment,15,↓,down,↓,0.851867999881506,True,18
103K19,238,experiment,60,→,right,→,0.8899565001484007,True,18
103K19,239,experiment,53,↑,up,↑,1.0189462001435459,True,18
103K19,240,experiment,19,→,down,↓,1.0056559001095593,False,18
103K19,241,training,57,↑,up,↑,0.5476448000408709,True,18
103K19,242,training,43,↑,up,↑,0.5929360000882298,True,18
103K19,243,experiment,57,→,right,→,0.7316433000378311,True,18
103K19,244,experiment,52,→,right,→,0.8759150998666883,True,18
103K19,245,experiment,59,↓,down,↓,0.8902004999108613,True,18
103K19,246,experiment,17,→,up,↑,0.8910300000570714,False,18
103K19,247,experiment,58,↑,up,↑,0.7211473998613656,True,18
103K19,248,experiment,19,→,right,→,0.6876532998867333,True,18
103K19,249,experiment,14,→,left,←,0.8429248000029474,False,18
103K19,250,experiment,24,←,left,←,0.6177829001098871,True,18
103K19,251,experiment,54,←,left,←,0.8369394999463111,True,18
103K19,252,experiment,44,↑,up,↑,0.9905050001107156,True,18
103K19,253,experiment,43,→,up,↑,1.6423257000278682,False,18
103K19,254,experiment,34,↓,down,↓,1.002517299959436,True,18
103K19,255,experiment,28,→,right,→,1.0157554999459535,True,18
103K19,256,experiment,53,→,right,→,1.0438077000435442,True,18
103K19,257,experiment,49,↓,down,↓,1.0182233999948949,True,18
103K19,258,experiment,31,→,right,→,1.0924132999498397,True,18
103K19,259,experiment,23,→,right,→,1.3455377998761833,True,18
103K19,260,experiment,45,←,left,←,1.0465569000225514,True,18
103K19,261,experiment,36,↓,down,↓,1.1326084001921117,True,18
103K19,262,experiment,30,→,right,→,0.8909376000519842,True,18
103K19,263,experiment,51,←,left,←,0.7736096000298858,True,18
103K19,264,experiment,56,→,right,→,0.8895738001447171,True,18
103K19,265,experiment,16,↓,down,↓,0.9636054998263717,True,18
103K19,266,experiment,39,→,left,←,0.7949432998429984,False,18
103K19,267,experiment,22,→,right,→,0.6127928998321295,True,18
103K19,268,experiment,50,→,no_key,no_letter,-1.0,False,18
103K19,269,experiment,25,←,left,←,0.620230000000447,True,18
103K19,270,experiment,27,↓,right,→,0.6175500000827014,False,18
103K19,271,experiment,26,↑,down,↓,0.48760719993151724,False,18
103K19,272,experiment,18,↑,right,→,1.4084789999760687,False,18
103K19,273,experiment,38,↓,up,↑,0.8791000000201166,False,18
103K19,274,experiment,20,↑,up,↑,0.8631225998979062,True,18
103K19,275,experiment,40,↓,down,↓,0.8815836000721902,True,18
103K19,276,experiment,46,↓,down,↓,0.8475182999391109,True,18
103K19,277,experiment,15,→,right,→,0.9637156999669969,True,18
103K19,278,experiment,35,→,left,←,0.5502212999854237,False,18
103K19,279,experiment,47,↓,down,↓,0.7048597000539303,True,18
103K19,280,experiment,42,↓,down,↓,1.1209410999435931,True,18
103K19,281,experiment,60,↓,up,↑,0.8521547000855207,False,18
103K19,282,experiment,21,↑,up,↑,0.6922646001912653,True,18
103K19,283,experiment,33,↑,right,→,1.0989898000843823,False,18
103K19,284,experiment,37,←,down,↓,0.7741116001270711,False,18
103K19,285,experiment,55,↑,up,↑,0.8591048000380397,True,18
103K19,286,experiment,29,←,left,←,0.9255571002140641,True,18
103K19,287,experiment,13,→,right,→,0.9204879000317305,True,18
103K19,288,experiment,41,←,left,←,1.4804487999062985,True,18
103K19,289,experiment,32,↑,up,↑,0.8955276000779122,True,18
103K19,290,experiment,48,→,right,→,0.9243957998696715,True,18
103K19,291,training,28,↓,down,↓,0.8097250000573695,True,18
103K19,292,training,27,↓,down,↓,0.6954793999902904,True,18
103K19,293,experiment,22,→,right,→,0.8457939999643713,True,18
103K19,294,experiment,53,↑,up,↑,0.7128354001324624,True,18
103K19,295,experiment,18,←,left,←,0.896938000107184,True,18
103K19,296,experiment,28,↑,up,↑,0.7540618998464197,True,18
103K19,297,experiment,34,→,right,→,0.8377121998928487,True,18
103K19,298,experiment,42,↑,up,↑,0.6562450998462737,True,18
103K19,299,experiment,60,↑,up,↑,0.8461585000623018,True,18
103K19,300,experiment,16,↑,up,↑,0.8184044999070466,True,18
103K19,301,experiment,46,←,left,←,0.6590657001361251,True,18
103K19,302,experiment,26,↑,up,↑,0.7115191000048071,True,18
103K19,303,experiment,39,→,right,→,0.593590100063011,True,18
103K19,304,experiment,24,→,right,→,0.7060888998676091,True,18
103K19,305,experiment,59,↓,down,↓,0.7188407999929041,True,18
103K19,306,experiment,48,↑,down,↓,0.9303306001238525,False,18
103K19,307,experiment,19,→,right,→,0.7441660999320447,True,18
103K19,308,experiment,58,→,right,→,1.08408880000934,True,18
103K19,309,experiment,44,↓,up,↑,0.8033504001796246,False,18
103K19,310,experiment,13,↑,up,↑,1.443107900209725,True,18
103K19,311,experiment,40,↑,up,↑,1.1667918001767248,True,18
103K19,312,experiment,52,←,left,←,0.8774319998919964,True,18
103K19,313,experiment,49,←,left,←,0.8743036000523716,True,18
103K19,314,experiment,43,→,left,←,0.8509844001382589,False,18
103K19,315,experiment,47,←,left,←,0.9777136000338942,True,18
103K19,316,experiment,54,→,right,→,0.9510218999348581,True,18
103K19,317,experiment,31,←,left,←,1.3000879001338035,True,18
103K19,318,experiment,51,→,right,→,0.7823204000014812,True,18
103K19,319,experiment,17,↑,up,↑,0.7794558999594301,True,18
103K19,320,experiment,45,↓,down,↓,0.8150329999625683,True,18
103K19,321,experiment,14,↑,up,↑,1.356884199893102,True,18
103K19,322,experiment,38,←,left,←,0.6696242999751121,True,18
103K19,323,experiment,41,↑,up,↑,0.7834659998770803,True,18
103K19,324,experiment,27,↓,down,↓,0.8622139999642968,True,18
103K19,325,experiment,33,↑,up,↑,0.8866967000067234,True,18
103K19,326,experiment,21,↓,down,↓,1.5007255000527948,True,18
103K19,327,experiment,36,→,right,→,0.6488568999338895,True,18
103K19,328,experiment,55,←,left,←,0.6021918000187725,True,18
103K19,329,experiment,25,←,left,←,0.8417257000692189,True,18
103K19,330,experiment,57,→,right,→,0.57008620002307,True,18
103K19,331,experiment,30,↓,down,↓,0.7594337000045925,True,18
103K19,332,experiment,37,↑,up,↑,0.7047061999328434,True,18
103K19,333,experiment,35,→,right,→,0.5253773999866098,True,18
103K19,334,experiment,23,←,left,←,0.5613782000727952,True,18
103K19,335,experiment,15,→,right,→,0.5536080000456423,True,18
103K19,336,experiment,29,→,right,→,0.5120953000150621,True,18
103K19,337,experiment,20,→,right,→,0.5030209000688046,True,18
103K19,338,experiment,32,←,left,←,0.7894399999640882,True,18
103K19,339,experiment,56,←,left,←,0.6167351000476629,True,18
103K19,340,experiment,50,←,left,←,0.5346567998640239,True,18
103K19,341,training,40,→,right,→,0.7090088999830186,True,17
103K19,342,training,40,↓,down,↓,0.6623219000175595,True,17
103K19,343,experiment,39,→,down,↓,0.7703880998305976,False,17
103K19,344,experiment,49,↑,up,↑,0.6989638998638839,True,17
103K19,345,experiment,44,↓,down,↓,0.713332099840045,True,17
103K19,346,experiment,25,←,left,←,0.6041123999748379,True,17
103K19,347,experiment,16,↑,up,↑,0.6413467000238597,True,17
103K19,348,experiment,23,↓,right,→,0.6729369000531733,False,17
103K19,349,experiment,38,↑,up,↑,0.6368774999864399,True,17
103K19,350,experiment,15,↓,down,↓,0.6413483000360429,True,17
103K19,351,experiment,33,↓,down,↓,0.6500574999954551,True,17
103K19,352,experiment,46,←,left,←,0.6576302000321448,True,17
103K19,353,experiment,42,→,right,→,0.6993752999696881,True,17
103K19,354,experiment,52,↓,down,↓,0.6769576999358833,True,17
103K19,355,experiment,48,←,left,←,1.610265700146556,True,17
103K19,356,experiment,29,↓,down,↓,0.5667864000424743,True,17
103K19,357,experiment,55,←,left,←,0.6033269001636654,True,17
103K19,358,experiment,27,→,right,→,0.6415201998315752,True,17
103K19,359,experiment,51,←,no_key,no_letter,-1.0,False,17
103K19,360,experiment,56,←,right,→,0.9789855999406427,False,17
103K19,361,experiment,19,→,right,→,0.983439699979499,True,17
103K19,362,experiment,47,←,left,←,0.776956900022924,True,17
103K19,363,experiment,34,←,left,←,0.827614099951461,True,17
103K19,364,experiment,18,↓,down,↓,0.7908123000524938,True,17
103K19,365,experiment,24,↑,down,↓,0.8718564999289811,False,17
103K19,366,experiment,36,→,right,→,0.7885831999592483,True,17
103K19,367,experiment,37,←,left,←,0.8528873000759631,True,17
103K19,368,experiment,26,↓,down,↓,0.8495954000391066,True,17
103K19,369,experiment,31,↓,up,↑,0.8586167001631111,False,17
103K19,370,experiment,20,→,right,→,0.539454200072214,True,17
103K19,371,experiment,21,↑,up,↑,0.8802910000085831,True,17
103K19,372,experiment,58,→,right,→,0.685952499974519,True,17
103K19,373,experiment,57,↓,down,↓,0.7807008000090718,True,17
103K19,374,experiment,13,↓,down,↓,0.8288738999981433,True,17
103K19,375,experiment,41,→,right,→,0.7126278998330235,True,17
103K19,376,experiment,54,←,left,←,0.45657209982164204,True,17
103K19,377,experiment,53,↓,down,↓,0.8508467001374811,True,17
103K19,378,experiment,28,↓,down,↓,0.7103518999647349,True,17
103K19,379,experiment,17,←,right,→,0.5588438999839127,False,17
103K19,380,experiment,14,↓,down,↓,0.8394727001432329,True,17
103K19,381,experiment,32,→,right,→,0.6325852000154555,True,17
103K19,382,experiment,59,↓,down,↓,0.7045823000371456,True,17
103K19,383,experiment,60,↓,down,↓,0.7719099998939782,True,17
103K19,384,experiment,35,→,right,→,0.8699272000230849,True,17
103K19,385,experiment,30,↑,up,↑,0.8794521000236273,True,17
103K19,386,experiment,43,↑,up,↑,0.8002969999797642,True,17
103K19,387,experiment,45,←,left,←,0.7860208998899907,True,17
103K19,388,experiment,50,←,left,←,0.7852665998507291,True,17
103K19,389,experiment,22,←,left,←,0.8113253000192344,True,17
103K19,390,experiment,40,←,left,←,0.7765587999019772,True,17
103K19,391,training,16,→,right,→,0.6315558000933379,True,17
103K19,392,training,24,←,left,←,0.7019541000481695,True,17
103K19,393,experiment,31,←,left,←,0.701338600134477,True,17
103K19,394,experiment,40,←,left,←,0.7346066001337022,True,17
103K19,395,experiment,54,↑,up,↑,0.8211506998632103,True,17
103K19,396,experiment,27,→,right,→,0.7628585000056773,True,17
103K19,397,experiment,57,←,left,←,0.575494300108403,True,17
103K19,398,experiment,17,←,left,←,0.6531388000585139,True,17
103K19,399,experiment,29,↑,up,↑,0.4632217998150736,True,17
103K19,400,experiment,26,↓,down,↓,0.7232031000312418,True,17
103K19,401,experiment,60,→,right,→,0.4168207999318838,True,17
103K19,402,experiment,18,↑,left,←,0.7933924999088049,False,17
103K19,403,experiment,50,←,left,←,0.6247604000382125,True,17
103K19,404,experiment,49,←,left,←,0.41714939987286925,True,17
103K19,405,experiment,47,→,left,←,0.5028301000129431,False,17
103K19,406,experiment,20,↓,down,↓,0.6935441000387073,True,17
103K19,407,experiment,59,←,no_key,no_letter,-1.0,False,17
103K19,408,experiment,53,←,left,←,0.5373924998566508,True,17
103K19,409,experiment,56,←,left,←,0.5908058998174965,True,17
103K19,410,experiment,22,↑,up,↑,0.7850005000364035,True,17
103K19,411,experiment,44,↑,up,↑,0.7321061999537051,True,17
103K19,412,experiment,41,←,left,←,0.7392871000338346,True,17
103K19,413,experiment,33,←,left,←,0.5838131001219153,True,17
103K19,414,experiment,32,←,left,←,0.6354454001411796,True,17
103K19,415,experiment,23,↑,up,↑,0.5708169999998063,True,17
103K19,416,experiment,34,↓,down,↓,0.5730533001478761,True,17
103K19,417,experiment,55,←,left,←,0.5218607001006603,True,17
103K19,418,experiment,25,↑,up,↑,0.7169067000504583,True,17
103K19,419,experiment,21,→,right,→,0.49789190012961626,True,17
103K19,420,experiment,24,←,left,←,0.5981066999956965,True,17
103K19,421,experiment,58,←,left,←,0.7354741001036018,True,17
103K19,422,experiment,13,↑,up,↑,0.5531405000947416,True,17
103K19,423,experiment,16,→,right,→,0.6645617999602109,True,17
103K19,424,experiment,38,↓,down,↓,0.7005622999276966,True,17
103K19,425,experiment,39,→,right,→,0.6306807999499142,True,17
103K19,426,experiment,46,↓,down,↓,0.6703937000129372,True,17
103K19,427,experiment,52,↓,down,↓,0.6334106998983771,True,17
103K19,428,experiment,42,↑,up,↑,0.6679384000599384,True,17
103K19,429,experiment,36,→,right,→,0.4573673000559211,True,17
103K19,430,experiment,30,→,right,→,0.4673260999843478,True,17
103K19,431,experiment,43,→,no_key,no_letter,-1.0,False,17
103K19,432,experiment,14,←,left,←,0.6202493999153376,True,17
103K19,433,experiment,19,→,left,←,0.6785138000268489,False,17
103K19,434,experiment,45,↓,down,↓,0.6699369000270963,True,17
103K19,435,experiment,37,←,left,←,0.7305272000376135,True,17
103K19,436,experiment,15,↓,down,↓,1.1631688999477774,True,17
103K19,437,experiment,51,↓,down,↓,0.6272052000276744,True,17
103K19,438,experiment,48,→,right,→,0.778563299914822,True,17
103K19,439,experiment,28,↓,left,←,1.0091773001477122,False,17
103K19,440,experiment,35,→,right,→,0.562169199809432,True,17
103K19,441,training,52,↓,down,↓,0.5599831000436097,True,17
103K19,442,training,45,←,left,←,0.5638753999955952,True,17
103K19,443,experiment,37,↑,up,↑,0.8284144999925047,True,17
103K19,444,experiment,24,↓,down,↓,0.7479852999094874,True,17
103K19,445,experiment,13,→,right,→,0.6852979001123458,True,17
103K19,446,experiment,50,→,right,→,0.6724707002285868,True,17
103K19,447,experiment,30,→,right,→,0.7939917999319732,True,17
103K19,448,experiment,60,↑,up,↑,0.6025825999677181,True,17
103K19,449,experiment,20,←,left,←,0.5975015999283642,True,17
103K19,450,experiment,33,←,right,→,0.455137699842453,False,17
103K19,451,experiment,25,→,right,→,0.5000704999547452,True,17
103K19,452,experiment,52,←,left,←,0.661341599887237,True,17
103K19,453,experiment,58,←,left,←,0.8285894000437111,True,17
103K19,454,experiment,45,→,right,→,0.5820069001056254,True,17
103K19,455,experiment,27,→,right,→,0.7246766001917422,True,17
103K19,456,experiment,49,↑,up,↑,0.7670805000234395,True,17
103K19,457,experiment,57,←,left,←,0.6743775999639183,True,17
103K19,458,experiment,32,→,right,→,0.6343535000924021,True,17
103K19,459,experiment,56,←,left,←,0.3339585999492556,True,17
103K19,460,experiment,48,→,right,→,0.3503010000567883,True,17
103K19,461,experiment,22,↑,up,↑,1.592412400059402,True,17
103K19,462,experiment,17,→,left,←,0.8218463999219239,False,17
103K19,463,experiment,19,→,right,→,0.8886649999767542,True,17
103K19,464,experiment,28,↓,down,↓,1.1946076001040637,True,17
103K19,465,experiment,42,→,up,↑,1.0633700999896973,False,17
103K19,466,experiment,36,→,right,→,0.8370843001175672,True,17
103K19,467,experiment,34,→,right,→,0.909403300145641,True,17
103K19,468,experiment,40,↑,up,↑,0.8303961001802236,True,17
103K19,469,experiment,21,↑,up,↑,0.9757551997900009,True,17
103K19,470,experiment,35,↓,down,↓,0.8018809999339283,True,17
103K19,471,experiment,43,←,left,←,0.4612665001768619,True,17
103K19,472,experiment,23,↓,up,↑,1.2353230000007898,False,17
103K19,473,experiment,29,↑,up,↑,0.870605600066483,True,17
103K19,474,experiment,51,↑,up,↑,0.8099124000873417,True,17
103K19,475,experiment,44,→,right,→,0.756638899911195,True,17
103K19,476,experiment,46,↑,up,↑,1.5601824999321252,True,17
103K19,477,experiment,26,←,left,←,0.7924057000782341,True,17
103K19,478,experiment,53,→,right,→,0.7978396001271904,True,17
103K19,479,experiment,47,↓,up,↑,1.5584668000228703,False,17
103K19,480,experiment,38,→,right,→,0.7992116000968963,True,17
103K19,481,experiment,54,→,right,→,0.8192368999589235,True,17
103K19,482,experiment,31,←,left,←,0.8777079998981208,True,17
103K19,483,experiment,39,↓,down,↓,0.7609565001912415,True,17
103K19,484,experiment,41,↑,right,→,1.7598828000482172,False,17
103K19,485,experiment,14,→,right,→,0.7843620998319238,True,17
103K19,486,experiment,16,↑,up,↑,0.7906311000697315,True,17
103K19,487,experiment,15,↑,up,↑,0.7970288000069559,True,17
103K19,488,experiment,55,↑,up,↑,0.7371425000019372,True,17
103K19,489,experiment,59,→,right,→,0.5965476999990642,True,17
103K19,490,experiment,18,↓,down,↓,0.7364528998732567,True,17
103K19,491,training,58,→,right,→,0.82836510008201,True,17
103K19,492,training,18,→,right,→,0.6638848001603037,True,17
103K19,493,experiment,34,←,left,←,0.6867130000609905,True,17
103K19,494,experiment,29,←,left,←,0.7839144999161363,True,17
103K19,495,experiment,46,←,left,←,0.8259322000667453,True,17
103K19,496,experiment,41,←,left,←,0.7816371000371873,True,17
103K19,497,experiment,20,↑,up,↑,0.8410513999406248,True,17
103K19,498,experiment,30,↑,up,↑,0.7238528998568654,True,17
103K19,499,experiment,58,→,right,→,0.7442900000605732,True,17
103K19,500,experiment,54,→,right,→,0.7833265999797732,True,17
103K19,501,experiment,23,↑,up,↑,0.8564834999851882,True,17
103K19,502,experiment,48,←,up,↑,0.8385660001076758,False,17
103K19,503,experiment,31,↑,up,↑,0.7205676999874413,True,17
103K19,504,experiment,44,←,left,←,0.6786295999772847,True,17
103K19,505,experiment,14,←,left,←,1.1062852998729795,True,17
103K19,506,experiment,13,↓,up,↑,0.8456256999634206,False,17
103K19,507,experiment,40,→,right,→,1.1776354999747127,True,17
103K19,508,experiment,35,↓,down,↓,0.8518993998877704,True,17
103K19,509,experiment,56,↓,down,↓,0.8922961000353098,True,17
103K19,510,experiment,60,↓,down,↓,0.9131082999520004,True,17
103K19,511,experiment,52,↑,up,↑,0.8339366998989135,True,17
103K19,512,experiment,49,↑,up,↑,0.8396165000740439,True,17
103K19,513,experiment,26,↑,up,↑,1.3649348001927137,True,17
103K19,514,experiment,42,←,left,←,0.8263630999717861,True,17
103K19,515,experiment,21,↓,down,↓,0.9557062999811023,True,17
103K19,516,experiment,51,↑,down,↓,1.4999768000561744,False,17
103K19,517,experiment,28,↑,up,↑,1.005073299864307,True,17
103K19,518,experiment,24,→,right,→,1.0531597998924553,True,17
103K19,519,experiment,18,→,right,→,1.198979299981147,True,17
103K19,520,experiment,37,↓,left,←,1.2865704998839647,False,17
103K19,521,experiment,32,↓,down,↓,0.8297876000870019,True,17
103K19,522,experiment,19,→,right,→,0.8397905000019819,True,17
103K19,523,experiment,22,→,right,→,0.8797160000540316,True,17
103K19,524,experiment,43,↓,down,↓,0.8078495999798179,True,17
103K19,525,experiment,36,↓,down,↓,0.5196215000469238,True,17
103K19,526,experiment,50,→,right,→,0.7775799999944866,True,17
103K19,527,experiment,16,←,left,←,0.8328213000204414,True,17
103K19,528,experiment,55,→,right,→,0.9302475000731647,True,17
103K19,529,experiment,38,←,left,←,0.6037502998951823,True,17
103K19,530,experiment,33,↑,down,↓,1.8860736000351608,False,17
103K19,531,experiment,27,→,left,←,1.4326651999726892,False,17
103K19,532,experiment,45,↑,up,↑,0.7688890001736581,True,17
103K19,533,experiment,57,←,left,←,0.7565681000705808,True,17
103K19,534,experiment,25,↓,down,↓,0.9737949999980628,True,17
103K19,535,experiment,59,↓,down,↓,0.7438092001248151,True,17
103K19,536,experiment,47,↓,up,↑,0.8671089000999928,False,17
103K19,537,experiment,17,→,right,→,0.5570984999649227,True,17
103K19,538,experiment,53,→,no_key,no_letter,-1.0,False,17
103K19,539,experiment,15,↓,down,↓,0.5875711000990123,True,17
103K19,540,experiment,39,↓,down,↓,0.7383864999283105,True,17
103K19,541,training,54,→,right,→,0.4959019999951124,True,17
103K19,542,training,55,←,right,→,0.46374909998849034,False,17
103K19,543,experiment,53,←,left,←,0.47369150002487004,True,17
103K19,544,experiment,59,↑,up,↑,0.7037395001389086,True,17
103K19,545,experiment,39,↑,up,↑,0.6254694999661297,True,17
103K19,546,experiment,17,←,left,←,0.6055881001520902,True,17
103K19,547,experiment,27,←,left,←,0.6834821999073029,True,17
103K19,548,experiment,40,↓,down,↓,0.8213877999223769,True,17
103K19,549,experiment,52,←,left,←,0.7942792000249028,True,17
103K19,550,experiment,32,→,right,→,0.8536771999206394,True,17
103K19,551,experiment,18,↓,down,↓,0.7917235000059009,True,17
103K19,552,experiment,45,↑,up,↑,0.7542051000054926,True,17
103K19,553,experiment,43,→,right,→,0.6000902999658138,True,17
103K19,554,experiment,44,↓,down,↓,0.6262538000009954,True,17
103K19,555,experiment,58,↑,down,↓,0.9469568999484181,False,17
103K19,556,experiment,23,↑,down,↓,0.8384048999287188,False,17
103K19,557,experiment,50,←,left,←,0.5795281000901014,True,17
103K19,558,experiment,13,↑,up,↑,0.9477727999910712,True,17
103K19,559,experiment,49,→,right,→,0.7331264000386,True,17
103K19,560,experiment,38,↑,up,↑,0.9103541998192668,True,17
103K19,561,experiment,41,↓,down,↓,0.6468493998982012,True,17
103K19,562,experiment,29,↓,down,↓,0.7534381998702884,True,17
103K19,563,experiment,56,→,right,→,0.7582906999159604,True,17
103K19,564,experiment,42,→,left,←,0.5644157999195158,False,17
103K19,565,experiment,22,←,right,→,0.5434200998861343,False,17
103K19,566,experiment,21,←,left,←,0.6115007000043988,True,17
103K19,567,experiment,24,→,right,→,0.6437845998443663,True,17
103K19,568,experiment,19,↓,up,↑,0.8534760000184178,False,17
103K19,569,experiment,28,↑,up,↑,0.79146259999834,True,17
103K19,570,experiment,51,↑,up,↑,0.8301282997708768,True,17
103K19,571,experiment,48,→,right,→,0.8288126001134515,True,17
103K19,572,experiment,47,→,right,→,0.7088512000627816,True,17
103K19,573,experiment,14,↓,left,←,1.4075392000377178,False,17
103K19,574,experiment,46,→,right,→,0.6568954000249505,True,17
103K19,575,experiment,16,→,right,→,0.8123985000420362,True,17
103K19,576,experiment,35,←,right,→,0.7327679998707026,False,17
103K19,577,experiment,34,→,right,→,0.8010541999246925,True,17
103K19,578,experiment,55,→,right,→,0.8843869001138955,True,17
103K19,579,experiment,15,←,right,→,0.8150541000068188,False,17
103K19,580,experiment,26,→,right,→,0.7728156000375748,True,17
103K19,581,experiment,20,←,left,←,0.6728406001348048,True,17
103K19,582,experiment,37,↓,down,↓,0.6775911999866366,True,17
103K19,583,experiment,57,→,right,→,0.733076199889183,True,17
103K19,584,experiment,25,↓,down,↓,0.7747555999085307,True,17
103K19,585,experiment,33,←,left,←,0.7061713000293821,True,17
103K19,586,experiment,60,←,left,←,0.8381503999698907,True,17
103K19,587,experiment,54,←,left,←,0.7610190999694169,True,17
103K19,588,experiment,30,↓,down,↓,0.7110141001176089,True,17
103K19,589,experiment,36,↓,down,↓,0.6349156000651419,True,17
103K19,590,experiment,31,←,left,←,0.7090379002038389,True,17
