PART_ID,Trial_no,Trial_type,CSI,Stim_letter,Key_pressed,letter_choose,Rt,Corr,Stimulus Time
105K20,1,training,60,↓,no_key,no_letter,-1.0,False,30
105K20,2,training,60,→,right,→,0.8316893000155687,True,30
105K20,3,training,60,↓,down,↓,1.1096490998752415,True,30
105K20,4,training,60,↓,down,↓,0.9449877999722958,True,30
105K20,5,training,60,→,right,→,1.5304653998464346,True,30
105K20,6,training,60,←,left,←,0.500125499907881,True,30
105K20,7,training,60,←,left,←,0.5338793999981135,True,30
105K20,8,training,60,↑,up,↑,0.6166857001371682,True,30
105K20,9,training,60,←,left,←,0.5671388001646847,True,30
105K20,10,training,60,↑,up,↑,0.5504883998073637,True,30
105K20,11,training,60,↓,left,←,0.41731239994987845,False,30
105K20,12,training,60,↑,up,↑,0.6004043999128044,True,30
105K20,13,training,60,↑,up,↑,0.583547999849543,True,30
105K20,14,training,60,→,right,→,0.5005572999361902,True,30
105K20,15,training,60,↓,down,↓,0.6679239000659436,True,30
105K20,16,training,60,↑,up,↑,0.7107889000326395,True,30
105K20,17,training,60,↑,up,↑,0.6815156999509782,True,30
105K20,18,training,60,→,right,→,0.5499615999870002,True,30
105K20,19,training,60,→,right,→,0.5001638999674469,True,30
105K20,20,training,60,↓,down,↓,0.8168718998786062,True,30
105K20,21,training,60,↓,down,↓,0.6502861001063138,True,18
105K20,22,training,60,↓,down,↓,0.9914208999834955,True,18
105K20,23,training,60,←,left,←,0.7030712000560015,True,18
105K20,24,training,60,↑,up,↑,0.6344016999937594,True,18
105K20,25,training,60,↑,up,↑,0.6483714999631047,True,18
105K20,26,training,60,→,right,→,0.597493400098756,True,18
105K20,27,training,60,↓,down,↓,0.6848814999684691,True,18
105K20,28,training,60,↑,up,↑,0.5614567000884563,True,18
105K20,29,training,60,→,right,→,0.48952289996668696,True,18
105K20,30,training,60,↑,up,↑,0.6374862999655306,True,18
105K20,31,training,60,→,right,→,0.5313977999612689,True,18
105K20,32,training,60,↓,down,↓,0.5734614001121372,True,18
105K20,33,training,60,→,right,→,1.0382791999727488,True,18
105K20,34,training,60,↓,down,↓,0.6440781999845058,True,18
105K20,35,training,60,↑,up,↑,0.8176543998997658,True,18
105K20,36,training,60,→,right,→,0.5841627998743206,True,18
105K20,37,training,60,↓,down,↓,0.5840477999299765,True,18
105K20,38,training,60,←,left,←,0.5201195999979973,True,18
105K20,39,training,60,↓,up,↑,1.0668513998389244,False,18
105K20,40,training,60,↓,down,↓,0.5514192001428455,True,18
105K20,41,training,55,↑,up,↑,0.4175996999256313,True,18
105K20,42,training,58,↑,down,↓,0.20010839984752238,False,18
105K20,43,experiment,41,↓,up,↑,0.679677200037986,False,18
105K20,44,experiment,40,↓,down,↓,1.0979953000787646,True,18
105K20,45,experiment,14,←,left,←,0.516740299994126,True,18
105K20,46,experiment,47,→,right,→,1.0646788999438286,True,18
105K20,47,experiment,13,→,left,←,0.5257548000663519,False,18
105K20,48,experiment,42,←,left,←,0.40095110004767776,True,18
105K20,49,experiment,29,←,left,←,0.40091289998963475,True,18
105K20,50,experiment,16,←,left,←,0.5015630000270903,True,18
105K20,51,experiment,28,↓,down,↓,0.47869650018401444,True,18
105K20,52,experiment,36,→,no_key,no_letter,-1.0,False,18
105K20,53,experiment,39,←,left,←,0.6267649999354035,True,18
105K20,54,experiment,24,↑,up,↑,0.7142598000355065,True,18
105K20,55,experiment,17,↑,up,↑,0.7940626000054181,True,18
105K20,56,experiment,44,←,left,←,0.4934281997848302,True,18
105K20,57,experiment,22,↑,up,↑,1.1555529001634568,True,18
105K20,58,experiment,32,→,right,→,1.2482843999750912,True,18
105K20,59,experiment,23,←,left,←,0.43353889998979867,True,18
105K20,60,experiment,35,→,right,→,1.0453446998726577,True,18
105K20,61,experiment,57,←,left,←,0.350784600013867,True,18
105K20,62,experiment,50,↑,up,↑,0.5183840000536293,True,18
105K20,63,experiment,19,←,right,→,0.6209861000534147,False,18
105K20,64,experiment,49,↑,up,↑,0.6914559998549521,True,18
105K20,65,experiment,26,↓,down,↓,1.1508291999343783,True,18
105K20,66,experiment,18,↓,down,↓,0.5572271000128239,True,18
105K20,67,experiment,38,↓,down,↓,0.5336406999267638,True,18
105K20,68,experiment,60,↑,up,↑,0.6319424000103027,True,18
105K20,69,experiment,34,←,left,←,0.43325120001100004,True,18
105K20,70,experiment,54,→,right,→,0.4739777999930084,True,18
105K20,71,experiment,15,↑,up,↑,0.43381959991529584,True,18
105K20,72,experiment,31,↑,up,↑,0.5180605999194086,True,18
105K20,73,experiment,43,↓,down,↓,0.6208967000711709,True,18
105K20,74,experiment,56,→,left,←,0.3837758000008762,False,18
105K20,75,experiment,27,←,left,←,0.8128324998542666,True,18
105K20,76,experiment,33,←,left,←,0.5187974001746625,True,18
105K20,77,experiment,51,←,left,←,0.3839355001691729,True,18
105K20,78,experiment,25,→,right,→,0.575525299878791,True,18
105K20,79,experiment,20,←,left,←,0.5873251999728382,True,18
105K20,80,experiment,52,↑,up,↑,0.5532815000042319,True,18
105K20,81,experiment,37,→,right,→,0.5069263000041246,True,18
105K20,82,experiment,46,↓,down,↓,0.5280023999512196,True,18
105K20,83,experiment,21,→,right,→,0.6376092999707907,True,18
105K20,84,experiment,58,↑,up,↑,0.5733475000597537,True,18
105K20,85,experiment,55,↑,up,↑,0.5220935998950154,True,18
105K20,86,experiment,30,→,right,→,0.5534157999791205,True,18
105K20,87,experiment,48,↓,down,↓,0.6273496998474002,True,18
105K20,88,experiment,59,↓,no_key,no_letter,-1.0,False,18
105K20,89,experiment,53,←,left,←,1.0334028000943363,True,18
105K20,90,experiment,45,←,left,←,0.4981825000140816,True,18
105K20,91,training,24,↑,up,↑,0.6426578999962658,True,18
105K20,92,training,20,↑,up,↑,0.4920395000372082,True,18
105K20,93,experiment,31,↑,up,↑,0.3498978998977691,True,18
105K20,94,experiment,53,↑,up,↑,0.3502304998692125,True,18
105K20,95,experiment,44,←,left,←,0.3165559999179095,True,18
105K20,96,experiment,22,←,right,→,0.40079479990527034,False,18
105K20,97,experiment,20,↓,down,↓,0.6918524999637157,True,18
105K20,98,experiment,29,↓,down,↓,1.5574443999212235,True,18
105K20,99,experiment,18,↓,down,↓,0.7794578999746591,True,18
105K20,100,experiment,55,↑,up,↑,0.5759351998567581,True,18
105K20,101,experiment,14,→,right,→,0.7041956998873502,True,18
105K20,102,experiment,56,←,left,←,0.41722330008633435,True,18
105K20,103,experiment,45,↑,up,↑,0.5675292999949306,True,18
105K20,104,experiment,30,→,right,→,0.7965506999753416,True,18
105K20,105,experiment,28,↑,up,↑,0.4738607001490891,True,18
105K20,106,experiment,50,↑,up,↑,0.48544740001671016,True,18
105K20,107,experiment,35,→,right,→,1.0586033000145108,True,18
105K20,108,experiment,16,→,right,→,0.9419563000556082,True,18
105K20,109,experiment,21,↑,up,↑,0.5066050000023097,True,18
105K20,110,experiment,25,↑,up,↑,0.47782250004820526,True,18
105K20,111,experiment,60,←,left,←,1.010513300076127,True,18
105K20,112,experiment,19,↓,down,↓,0.5978852000553161,True,18
105K20,113,experiment,23,↓,down,↓,0.7190940999425948,True,18
105K20,114,experiment,24,↓,down,↓,0.6179098999127746,True,18
105K20,115,experiment,36,←,left,←,0.6172030998859555,True,18
105K20,116,experiment,38,↑,up,↑,0.6075619000475854,True,18
105K20,117,experiment,57,←,left,←,0.5854370999149978,True,18
105K20,118,experiment,52,←,left,←,1.095450800145045,True,18
105K20,119,experiment,17,↓,down,↓,0.7605471999850124,True,18
105K20,120,experiment,34,↑,down,↓,0.9239521000999957,False,18
105K20,121,experiment,54,↑,up,↑,0.795513599878177,True,18
105K20,122,experiment,41,→,right,→,0.5047214000951499,True,18
105K20,123,experiment,33,↓,down,↓,1.1428032999392599,True,18
105K20,124,experiment,37,↑,up,↑,0.6805075998418033,True,18
105K20,125,experiment,49,↑,up,↑,0.6364768000785261,True,18
105K20,126,experiment,47,→,right,→,0.433528000023216,True,18
105K20,127,experiment,59,↓,left,←,0.2685669001657516,False,18
105K20,128,experiment,42,←,up,↑,0.6664972000289708,False,18
105K20,129,experiment,39,←,left,←,0.5339242001064122,True,18
105K20,130,experiment,48,↓,down,↓,0.4814838001038879,True,18
105K20,131,experiment,15,→,right,→,0.7794621998909861,True,18
105K20,132,experiment,58,→,up,↑,0.8458475000225008,False,18
105K20,133,experiment,13,→,right,→,0.8279126000124961,True,18
105K20,134,experiment,46,↑,up,↑,0.7244946998544037,True,18
105K20,135,experiment,43,↓,down,↓,0.6832320999819785,True,18
105K20,136,experiment,51,→,right,→,0.6859303000383079,True,18
105K20,137,experiment,32,→,left,←,0.7412447000388056,False,18
105K20,138,experiment,26,→,right,→,0.6387218001764268,True,18
105K20,139,experiment,40,←,left,←,0.6826913999393582,True,18
105K20,140,experiment,27,↓,down,↓,0.6851568000856787,True,18
105K20,141,training,14,↑,down,↓,0.7208253999706358,False,18
105K20,142,training,50,→,left,←,0.4002491000574082,False,18
105K20,143,experiment,40,→,left,←,0.7910704000387341,False,18
105K20,144,experiment,47,→,left,←,0.5045115000102669,False,18
105K20,145,experiment,24,←,left,←,0.8126457999460399,True,18
105K20,146,experiment,31,→,left,←,0.8960958002135158,False,18
105K20,147,experiment,38,↓,down,↓,0.6191909001208842,True,18
105K20,148,experiment,39,↑,up,↑,0.5444818001706153,True,18
105K20,149,experiment,34,↑,up,↑,0.48444540007039905,True,18
105K20,150,experiment,26,↑,up,↑,0.40059580001980066,True,18
105K20,151,experiment,23,←,no_key,no_letter,-1.0,False,18
105K20,152,experiment,36,↑,up,↑,1.2251410000026226,True,18
105K20,153,experiment,55,↑,up,↑,0.6119965000543743,True,18
105K20,154,experiment,33,↓,down,↓,0.9420328999403864,True,18
105K20,155,experiment,13,↓,down,↓,0.6080114999786019,True,18
105K20,156,experiment,44,→,right,→,0.5146323000080884,True,18
105K20,157,experiment,27,↑,up,↑,0.6277647998649627,True,18
105K20,158,experiment,28,→,right,→,0.5763363000005484,True,18
105K20,159,experiment,15,↑,up,↑,0.5762416999787092,True,18
105K20,160,experiment,46,↓,down,↓,0.7705261998344213,True,18
105K20,161,experiment,57,↑,up,↑,0.416850000154227,True,18
105K20,162,experiment,52,↓,down,↓,0.7220420001540333,True,18
105K20,163,experiment,43,↑,up,↑,0.7290057998616248,True,18
105K20,164,experiment,20,←,left,←,0.7186036000493914,True,18
105K20,165,experiment,30,←,left,←,0.757792399963364,True,18
105K20,166,experiment,54,←,left,←,0.8518363998737186,True,18
105K20,167,experiment,51,↑,up,↑,0.5597449999768287,True,18
105K20,168,experiment,22,↓,down,↓,0.8190810000523925,True,18
105K20,169,experiment,41,→,up,↑,0.8793688002042472,False,18
105K20,170,experiment,29,↑,up,↑,0.817304200027138,True,18
105K20,171,experiment,25,→,right,→,0.7839281000196934,True,18
105K20,172,experiment,35,→,left,←,0.7133438000455499,False,18
105K20,173,experiment,42,↓,down,↓,0.5210322998464108,True,18
105K20,174,experiment,48,→,right,→,1.0437423998955637,True,18
105K20,175,experiment,60,←,left,←,0.5946929999627173,True,18
105K20,176,experiment,32,→,right,→,1.1738300998695195,True,18
105K20,177,experiment,56,→,left,←,0.7136493001598865,False,18
105K20,178,experiment,14,←,left,←,0.6598064999561757,True,18
105K20,179,experiment,16,↓,down,↓,0.6711224000900984,True,18
105K20,180,experiment,18,↓,down,↓,0.872506899992004,True,18
105K20,181,experiment,50,↑,up,↑,0.7167008998803794,True,18
105K20,182,experiment,19,→,right,→,0.6593711997848004,True,18
105K20,183,experiment,53,→,right,→,0.41745080007240176,True,18
105K20,184,experiment,49,→,left,←,0.7399496000725776,False,18
105K20,185,experiment,59,↓,down,↓,0.7831610001157969,True,18
105K20,186,experiment,45,→,right,→,0.8097470998764038,True,18
105K20,187,experiment,37,↑,up,↑,0.49723390000872314,True,18
105K20,188,experiment,21,→,left,←,0.25074469996616244,False,18
105K20,189,experiment,58,→,down,↓,0.26863150019198656,False,18
105K20,190,experiment,17,←,right,→,0.7410352001897991,False,18
105K20,191,training,27,↑,up,↑,1.399249899899587,True,18
105K20,192,training,32,↑,up,↑,0.4979540000203997,True,18
105K20,193,experiment,42,←,left,←,0.7297211000695825,True,18
105K20,194,experiment,52,↑,up,↑,1.1218598999548703,True,18
105K20,195,experiment,54,→,left,←,0.4334883000701666,False,18
105K20,196,experiment,16,↑,up,↑,0.5323679000139236,True,18
105K20,197,experiment,47,↓,down,↓,0.9996895999647677,True,18
105K20,198,experiment,30,↓,up,↑,0.5163803000468761,False,18
105K20,199,experiment,13,←,left,←,0.2016502998303622,True,18
105K20,200,experiment,41,←,right,→,0.11856780014932156,False,18
105K20,201,experiment,37,←,up,↑,0.30031559988856316,False,18
105K20,202,experiment,35,←,down,↓,0.283575699897483,False,18
105K20,203,experiment,21,→,left,←,0.33436199999414384,False,18
105K20,204,experiment,48,↓,down,↓,1.1903550999704748,True,18
105K20,205,experiment,45,→,right,→,0.9133297000080347,True,18
105K20,206,experiment,40,↑,up,↑,0.6579466999974102,True,18
105K20,207,experiment,60,←,left,←,0.3676334999036044,True,18
105K20,208,experiment,57,←,right,→,0.4985795000102371,False,18
105K20,209,experiment,55,→,up,↑,1.0099266998004168,False,18
105K20,210,experiment,20,↓,up,↑,0.9802653999067843,False,18
105K20,211,experiment,49,←,left,←,0.5163316000252962,True,18
105K20,212,experiment,29,←,left,←,0.7565328001510352,True,18
105K20,213,experiment,56,↓,down,↓,0.7532296997960657,True,18
105K20,214,experiment,15,↑,left,←,1.3612459998112172,False,18
105K20,215,experiment,34,←,left,←,0.6925798999145627,True,18
105K20,216,experiment,18,↓,down,↓,0.8052738001570106,True,18
105K20,217,experiment,51,→,right,→,0.514978599967435,True,18
105K20,218,experiment,19,→,right,→,0.6263284999877214,True,18
105K20,219,experiment,23,↓,up,↑,1.0021822000853717,False,18
105K20,220,experiment,31,←,left,←,0.6610512000042945,True,18
105K20,221,experiment,50,↓,down,↓,0.5298469001427293,True,18
105K20,222,experiment,32,↑,up,↑,0.5189376999624074,True,18
105K20,223,experiment,53,←,left,←,0.591018500039354,True,18
105K20,224,experiment,39,←,left,←,0.637851299950853,True,18
105K20,225,experiment,43,→,left,←,0.791880700038746,False,18
105K20,226,experiment,33,↑,up,↑,0.5065703999716789,True,18
105K20,227,experiment,46,↓,right,→,1.151716500055045,False,18
105K20,228,experiment,28,←,left,←,0.7509721999522299,True,18
105K20,229,experiment,58,↑,down,↓,0.770459899911657,False,18
105K20,230,experiment,38,↓,down,↓,0.7063040998764336,True,18
105K20,231,experiment,24,←,left,←,0.43417509994469583,True,18
105K20,232,experiment,36,←,left,←,0.4169628000818193,True,18
105K20,233,experiment,44,↑,up,↑,0.6458967998623848,True,18
105K20,234,experiment,17,↓,down,↓,0.6811907000374049,True,18
105K20,235,experiment,59,→,left,←,0.4340244000777602,False,18
105K20,236,experiment,14,→,right,→,0.4165912999305874,True,18
105K20,237,experiment,22,←,left,←,0.3670667000114918,True,18
105K20,238,experiment,26,←,left,←,0.38420239998959005,True,18
105K20,239,experiment,25,←,left,←,0.6015331000089645,True,18
105K20,240,experiment,27,↑,down,↓,0.7037305000703782,False,18
105K20,241,training,37,↓,down,↓,1.2239047999028116,True,18
105K20,242,training,35,↓,down,↓,0.7358456999063492,True,18
105K20,243,experiment,55,←,left,←,0.6935641998425126,True,18
105K20,244,experiment,26,←,left,←,0.41682040016166866,True,18
105K20,245,experiment,20,↓,down,↓,0.5705279000103474,True,18
105K20,246,experiment,29,→,right,→,0.6242383001372218,True,18
105K20,247,experiment,30,↓,left,←,0.35042329994030297,False,18
105K20,248,experiment,31,←,left,←,0.5924639999866486,True,18
105K20,249,experiment,53,←,left,←,0.7334829999599606,True,18
105K20,250,experiment,25,→,right,→,0.43394030001945794,True,18
105K20,251,experiment,33,→,left,←,0.7035636000800878,False,18
105K20,252,experiment,15,←,left,←,0.7298111999407411,True,18
105K20,253,experiment,27,↓,down,↓,0.5142145999707282,True,18
105K20,254,experiment,56,←,left,←,0.6881981000769883,True,18
105K20,255,experiment,52,↓,down,↓,0.7144408000167459,True,18
105K20,256,experiment,54,↑,up,↑,0.657825700007379,True,18
105K20,257,experiment,23,↑,up,↑,0.6722120000049472,True,18
105K20,258,experiment,18,←,left,←,0.6255242000333965,True,18
105K20,259,experiment,58,↑,up,↑,0.8742153998464346,True,18
105K20,260,experiment,17,←,left,←,0.7163389001507312,True,18
105K20,261,experiment,34,↓,down,↓,0.6889250001404434,True,18
105K20,262,experiment,46,↑,up,↑,0.6069001001305878,True,18
105K20,263,experiment,48,↑,up,↑,1.007073599845171,True,18
105K20,264,experiment,40,↓,down,↓,0.6044115999247879,True,18
105K20,265,experiment,16,←,left,←,0.4979501999914646,True,18
105K20,266,experiment,57,←,left,←,0.9115450999233872,True,18
105K20,267,experiment,39,→,right,→,0.7136941999197006,True,18
105K20,268,experiment,38,↓,down,↓,0.5717213000170887,True,18
105K20,269,experiment,60,→,right,→,0.6130268999841064,True,18
105K20,270,experiment,35,↑,up,↑,0.7008938000071794,True,18
105K20,271,experiment,44,→,left,←,1.0598000998143107,False,18
105K20,272,experiment,41,←,left,←,0.6782376000192016,True,18
105K20,273,experiment,36,↓,down,↓,0.6678212999831885,True,18
105K20,274,experiment,37,→,right,→,0.6723587000742555,True,18
105K20,275,experiment,21,←,left,←,0.687633499968797,True,18
105K20,276,experiment,28,↑,up,↑,0.6334781998302788,True,18
105K20,277,experiment,59,↓,down,↓,0.6648379000835121,True,18
105K20,278,experiment,42,←,left,←,0.6423895999323577,True,18
105K20,279,experiment,51,↑,up,↑,0.687023000093177,True,18
105K20,280,experiment,49,↓,down,↓,0.8351390999741852,True,18
105K20,281,experiment,43,↓,down,↓,0.9172331998124719,True,18
105K20,282,experiment,50,↑,up,↑,0.7910506001207978,True,18
105K20,283,experiment,13,←,left,←,0.6628892999142408,True,18
105K20,284,experiment,22,←,left,←,0.6061761998571455,True,18
105K20,285,experiment,14,↓,down,↓,1.116963200038299,True,18
105K20,286,experiment,45,←,left,←,0.8103111998643726,True,18
105K20,287,experiment,19,→,right,→,0.6457769998814911,True,18
105K20,288,experiment,24,↑,up,↑,0.8522922000847757,True,18
105K20,289,experiment,47,←,left,←,0.6279917999636382,True,18
105K20,290,experiment,32,↓,down,↓,0.7893528998829424,True,18
105K20,291,training,35,↑,down,↓,0.7022562001366168,False,17
105K20,292,training,54,↑,up,↑,0.6463480999227613,True,17
105K20,293,experiment,57,←,left,←,1.0703593997750431,True,17
105K20,294,experiment,31,↑,up,↑,0.5669138999655843,True,17
105K20,295,experiment,22,↑,right,→,0.8574318999890238,False,17
105K20,296,experiment,26,↓,down,↓,0.6460500999819487,True,17
105K20,297,experiment,14,↑,up,↑,0.6437001000158489,True,17
105K20,298,experiment,54,↓,up,↑,0.7263204001355916,False,17
105K20,299,experiment,24,→,right,→,0.6014233999885619,True,17
105K20,300,experiment,13,↓,down,↓,0.6729811998084188,True,17
105K20,301,experiment,40,→,right,→,0.4517374001443386,True,17
105K20,302,experiment,60,←,left,←,0.5369438999332488,True,17
105K20,303,experiment,46,↓,down,↓,0.6689830999821424,True,17
105K20,304,experiment,48,←,left,←,0.6501760000828654,True,17
105K20,305,experiment,18,↓,down,↓,0.6203286999370903,True,17
105K20,306,experiment,35,↓,down,↓,0.6521119000390172,True,17
105K20,307,experiment,33,↑,up,↑,0.5643531999085099,True,17
105K20,308,experiment,41,↓,down,↓,0.6980969000142068,True,17
105K20,309,experiment,50,←,left,←,0.6050079001579434,True,17
105K20,310,experiment,37,←,left,←,0.5720742999110371,True,17
105K20,311,experiment,29,↑,up,↑,0.5863446001894772,True,17
105K20,312,experiment,27,↑,up,↑,0.5610583000816405,True,17
105K20,313,experiment,19,↓,down,↓,0.7901952001266181,True,17
105K20,314,experiment,43,↓,down,↓,0.6181563001591712,True,17
105K20,315,experiment,52,↓,down,↓,0.567112899851054,True,17
105K20,316,experiment,58,↑,up,↑,0.569657500134781,True,17
105K20,317,experiment,56,↑,up,↑,0.4855855000205338,True,17
105K20,318,experiment,34,↓,left,←,1.1794058999512345,False,17
105K20,319,experiment,38,←,left,←,0.7078608998563141,True,17
105K20,320,experiment,32,→,right,→,0.6501154000870883,True,17
105K20,321,experiment,23,→,left,←,0.752713899826631,False,17
105K20,322,experiment,21,→,right,→,0.549016600009054,True,17
105K20,323,experiment,49,←,left,←,0.622284600045532,True,17
105K20,324,experiment,15,↑,up,↑,0.5076750998850912,True,17
105K20,325,experiment,17,→,right,→,0.5399939999915659,True,17
105K20,326,experiment,25,→,right,→,0.9663249999284744,True,17
105K20,327,experiment,44,←,left,←,0.9146547000855207,True,17
105K20,328,experiment,47,→,right,→,0.7103376998566091,True,17
105K20,329,experiment,42,↑,up,↑,0.4622132000513375,True,17
105K20,330,experiment,36,→,right,→,0.7554456999059767,True,17
105K20,331,experiment,55,←,left,←,0.6008023999165744,True,17
105K20,332,experiment,16,↓,down,↓,0.7262446000240743,True,17
105K20,333,experiment,20,↓,down,↓,0.6120336998719722,True,17
105K20,334,experiment,39,←,left,←,0.6661666999571025,True,17
105K20,335,experiment,59,↓,down,↓,0.9121767000760883,True,17
105K20,336,experiment,30,←,left,←,1.1360176999587566,True,17
105K20,337,experiment,28,←,left,←,0.8642611000686884,True,17
105K20,338,experiment,45,↓,down,↓,0.7595077999867499,True,17
105K20,339,experiment,53,↓,up,↑,1.4382285000756383,False,17
105K20,340,experiment,51,←,left,←,0.7628347999416292,True,17
105K20,341,training,42,→,right,→,0.6438480000942945,True,17
105K20,342,training,60,←,left,←,0.6502970999572426,True,17
105K20,343,experiment,51,→,left,←,0.4002378999721259,False,17
105K20,344,experiment,45,↑,up,↑,0.8076951000839472,True,17
105K20,345,experiment,33,↑,up,↑,0.5613643999677151,True,17
105K20,346,experiment,24,←,left,←,0.6433148998767138,True,17
105K20,347,experiment,28,↑,left,←,0.4010252000298351,False,17
105K20,348,experiment,30,←,up,↑,0.21762190014123917,False,17
105K20,349,experiment,44,←,left,←,0.5619854000397027,True,17
105K20,350,experiment,36,↑,up,↑,0.47606590017676353,True,17
105K20,351,experiment,15,↑,up,↑,0.4556319999974221,True,17
105K20,352,experiment,26,→,up,↑,0.3004534998908639,False,17
105K20,353,experiment,20,←,right,→,0.3675200999714434,False,17
105K20,354,experiment,47,←,up,↑,0.3345326001290232,False,17
105K20,355,experiment,21,↑,up,↑,0.654797499999404,True,17
105K20,356,experiment,32,←,left,←,0.5753156000282615,True,17
105K20,357,experiment,54,↓,down,↓,0.9167182000819594,True,17
105K20,358,experiment,29,←,left,←,0.9086333001032472,True,17
105K20,359,experiment,50,←,right,→,0.759465399896726,False,17
105K20,360,experiment,37,→,left,←,0.4887230000458658,False,17
105K20,361,experiment,40,↓,down,↓,0.8106763001997024,True,17
105K20,362,experiment,35,↑,up,↑,0.7555305999703705,True,17
105K20,363,experiment,60,←,left,←,0.4532837001606822,True,17
105K20,364,experiment,48,←,left,←,0.4666134000290185,True,17
105K20,365,experiment,31,←,left,←,0.4835343000013381,True,17
105K20,366,experiment,22,↑,up,↑,0.537277199793607,True,17
105K20,367,experiment,23,→,left,←,0.7486358999740332,False,17
105K20,368,experiment,56,→,left,←,0.9133141001220793,False,17
105K20,369,experiment,27,↓,down,↓,0.7948635001666844,True,17
105K20,370,experiment,38,↓,down,↓,0.5300063998438418,True,17
105K20,371,experiment,39,←,left,←,0.7866839000489563,True,17
105K20,372,experiment,52,←,left,←,0.5687045999802649,True,17
105K20,373,experiment,42,→,right,→,0.6379386999178678,True,17
105K20,374,experiment,25,←,left,←,0.7561844000592828,True,17
105K20,375,experiment,13,←,left,←,0.5494946001563221,True,17
105K20,376,experiment,34,↑,up,↑,0.576884499983862,True,17
105K20,377,experiment,19,↑,up,↑,0.7093585000839084,True,17
105K20,378,experiment,41,↓,down,↓,0.5101022000890225,True,17
105K20,379,experiment,16,→,right,→,0.5594798000529408,True,17
105K20,380,experiment,59,↓,up,↑,0.6979451000224799,False,17
105K20,381,experiment,57,→,right,→,0.5121595999225974,True,17
105K20,382,experiment,17,→,right,→,0.4966313000768423,True,17
105K20,383,experiment,14,↑,up,↑,0.6995046001393348,True,17
105K20,384,experiment,46,↑,up,↑,0.5289495000615716,True,17
105K20,385,experiment,43,←,left,←,0.7433733998332173,True,17
105K20,386,experiment,53,↓,down,↓,0.8065982998814434,True,17
105K20,387,experiment,58,←,left,←,0.5039190000388771,True,17
105K20,388,experiment,49,↑,up,↑,1.0277599999681115,True,17
105K20,389,experiment,55,↑,up,↑,0.518148300005123,True,17
105K20,390,experiment,18,↓,up,↑,0.9572070001158863,False,17
105K20,391,training,42,↓,no_key,no_letter,-1.0,False,17
105K20,392,training,43,↓,down,↓,0.6206161000300199,True,17
105K20,393,experiment,42,↓,up,↑,0.8639019001275301,False,17
105K20,394,experiment,17,↑,up,↑,0.5778554000426084,True,17
105K20,395,experiment,30,↓,right,→,0.8312127999961376,False,17
105K20,396,experiment,43,↑,up,↑,0.5854195000138134,True,17
105K20,397,experiment,22,←,left,←,0.6351854999084026,True,17
105K20,398,experiment,37,←,left,←,0.3833308999892324,True,17
105K20,399,experiment,49,→,right,→,0.46448029996827245,True,17
105K20,400,experiment,21,↓,left,←,0.47198729985393584,False,17
105K20,401,experiment,20,←,left,←,0.5278257001191378,True,17
105K20,402,experiment,35,→,right,→,0.572173000080511,True,17
105K20,403,experiment,15,↓,down,↓,0.5394204000476748,True,17
105K20,404,experiment,40,←,left,←,0.9473413000814617,True,17
105K20,405,experiment,19,←,left,←,1.016885300166905,True,17
105K20,406,experiment,24,↓,down,↓,0.735994900111109,True,17
105K20,407,experiment,27,↓,down,↓,0.64052340015769,True,17
105K20,408,experiment,50,←,left,←,0.6140870000235736,True,17
105K20,409,experiment,58,←,left,←,0.7585585999768227,True,17
105K20,410,experiment,57,↓,right,→,0.7626459000166506,False,17
105K20,411,experiment,39,↓,down,↓,0.6505515999160707,True,17
105K20,412,experiment,31,↓,down,↓,0.580118800047785,True,17
105K20,413,experiment,38,→,left,←,0.4672662001103163,False,17
105K20,414,experiment,45,↓,down,↓,1.082686899928376,True,17
105K20,415,experiment,14,←,left,←,0.47792700002901256,True,17
105K20,416,experiment,16,↑,down,↓,1.1045236000791192,False,17
105K20,417,experiment,28,↓,down,↓,0.6024561000522226,True,17
105K20,418,experiment,55,←,left,←,0.400130300084129,True,17
105K20,419,experiment,46,↓,down,↓,0.6781272999942303,True,17
105K20,420,experiment,18,→,right,→,0.7034576998557895,True,17
105K20,421,experiment,33,↑,up,↑,0.597170100081712,True,17
105K20,422,experiment,13,←,left,←,0.9166278999764472,True,17
105K20,423,experiment,36,↓,down,↓,0.6960825999267399,True,17
105K20,424,experiment,52,←,left,←,0.7939647999592125,True,17
105K20,425,experiment,47,←,left,←,0.7071179000195116,True,17
105K20,426,experiment,23,←,left,←,0.5118665001355112,True,17
105K20,427,experiment,60,↓,up,↑,1.1161559999454767,False,17
105K20,428,experiment,26,←,left,←,0.478443400003016,True,17
105K20,429,experiment,41,←,right,→,1.543708800105378,False,17
105K20,430,experiment,34,→,left,←,1.0202202999498695,False,17
105K20,431,experiment,59,↓,right,→,0.5317003999371082,False,17
105K20,432,experiment,29,→,no_key,no_letter,-1.0,False,17
105K20,433,experiment,44,←,left,←,0.46376909990794957,True,17
105K20,434,experiment,56,↓,no_key,no_letter,-1.0,False,17
105K20,435,experiment,25,→,right,→,0.8651687998790294,True,17
105K20,436,experiment,53,↑,up,↑,0.8433628999628127,True,17
105K20,437,experiment,48,↓,down,↓,0.7698693000711501,True,17
105K20,438,experiment,51,→,right,→,0.4573478000238538,True,17
105K20,439,experiment,32,→,right,→,0.6653386999387294,True,17
105K20,440,experiment,54,→,right,→,0.7304831000510603,True,17
105K20,441,training,13,←,right,→,0.7580766000319272,False,17
105K20,442,training,47,↓,down,↓,1.4568024999462068,True,17
105K20,443,experiment,51,↑,down,↓,0.7243832000531256,False,17
105K20,444,experiment,42,←,left,←,0.8198066998738796,True,17
105K20,445,experiment,48,↑,up,↑,0.507214599987492,True,17
105K20,446,experiment,20,↓,up,↑,1.5058554999995977,False,17
105K20,447,experiment,35,↑,up,↑,0.47853849991224706,True,17
105K20,448,experiment,60,↓,down,↓,0.6197563000023365,True,17
105K20,449,experiment,47,→,right,→,0.7317913000006229,True,17
105K20,450,experiment,24,↓,down,↓,0.5666088000871241,True,17
105K20,451,experiment,43,→,right,→,0.6035387001466006,True,17
105K20,452,experiment,15,←,left,←,0.5211887999903411,True,17
105K20,453,experiment,31,→,right,→,0.5603415998630226,True,17
105K20,454,experiment,21,↑,up,↑,0.6919876001775265,True,17
105K20,455,experiment,40,↑,down,↓,0.7739540999755263,False,17
105K20,456,experiment,17,→,right,→,1.1318131000734866,True,17
105K20,457,experiment,59,↓,down,↓,0.6152900999877602,True,17
105K20,458,experiment,45,→,right,→,0.40149670001119375,True,17
105K20,459,experiment,28,↓,down,↓,0.5166019001044333,True,17
105K20,460,experiment,13,↓,left,←,1.1512664000038058,False,17
105K20,461,experiment,46,←,left,←,0.7063415998127311,True,17
105K20,462,experiment,29,↑,up,↑,0.5952427999582142,True,17
105K20,463,experiment,39,↓,down,↓,1.0177132999524474,True,17
105K20,464,experiment,25,↑,right,→,0.8723592997994274,False,17
105K20,465,experiment,44,←,left,←,0.864639800041914,True,17
105K20,466,experiment,38,↑,up,↑,0.45288869994692504,True,17
105K20,467,experiment,52,←,left,←,0.7110313000157475,True,17
105K20,468,experiment,16,↓,right,→,0.9524628000799567,False,17
105K20,469,experiment,19,→,right,→,0.5979979000985622,True,17
105K20,470,experiment,49,→,right,→,0.7730743999127299,True,17
105K20,471,experiment,14,→,right,→,0.5492511999327689,True,17
105K20,472,experiment,58,↓,down,↓,0.648576500127092,True,17
105K20,473,experiment,22,←,left,←,0.63967389985919,True,17
105K20,474,experiment,26,↑,right,→,0.2836502001155168,False,17
105K20,475,experiment,57,→,right,→,0.5713764000684023,True,17
105K20,476,experiment,27,↑,up,↑,0.866342999972403,True,17
105K20,477,experiment,32,↑,down,↓,0.802563700126484,False,17
105K20,478,experiment,18,←,left,←,0.6226254000794142,True,17
105K20,479,experiment,37,→,right,→,0.5812134998850524,True,17
105K20,480,experiment,33,←,right,→,0.5438278000801802,False,17
105K20,481,experiment,36,↓,down,↓,0.8423715999815613,True,17
105K20,482,experiment,55,→,right,→,0.6284328000620008,True,17
105K20,483,experiment,50,→,right,→,0.6583400000818074,True,17
105K20,484,experiment,34,↑,up,↑,0.8340622000396252,True,17
105K20,485,experiment,41,↑,up,↑,0.4534935997799039,True,17
105K20,486,experiment,56,↑,up,↑,0.6133719999343157,True,17
105K20,487,experiment,54,←,left,←,0.9285696998704225,True,17
105K20,488,experiment,30,←,left,←,0.4878873999696225,True,17
105K20,489,experiment,53,←,left,←,0.6491346000693738,True,17
105K20,490,experiment,23,↑,up,↑,0.5838876999914646,True,17
105K20,491,training,22,↑,up,↑,0.7443140998948365,True,17
105K20,492,training,43,↑,up,↑,0.40050639980472624,True,17
105K20,493,experiment,20,↓,down,↓,0.48845209996216,True,17
105K20,494,experiment,58,←,left,←,0.38389870012179017,True,17
105K20,495,experiment,24,←,right,→,1.6623017999809235,False,17
105K20,496,experiment,48,↑,up,↑,0.20171989989466965,True,17
105K20,497,experiment,32,←,left,←,0.10114710009656847,True,17
105K20,498,experiment,14,↓,right,→,0.40083609987050295,False,17
105K20,499,experiment,57,→,left,←,0.9845038999337703,False,17
105K20,500,experiment,34,↑,right,→,0.5702774999663234,False,17
105K20,501,experiment,18,←,up,↑,0.13524840003810823,False,17
105K20,502,experiment,37,↓,left,←,0.23505640006624162,False,17
105K20,503,experiment,29,↑,up,↑,0.509148399811238,True,17
105K20,504,experiment,51,←,right,→,0.5430097000207752,False,17
105K20,505,experiment,38,↑,up,↑,0.3831221000291407,True,17
105K20,506,experiment,36,→,right,→,1.376238500000909,True,17
105K20,507,experiment,17,↑,left,←,0.95829450013116,False,17
105K20,508,experiment,39,↓,down,↓,0.7983788000419736,True,17
105K20,509,experiment,16,→,right,→,0.6919501998927444,True,17
105K20,510,experiment,41,→,right,→,0.49284860002808273,True,17
105K20,511,experiment,30,→,right,→,0.4700150000862777,True,17
105K20,512,experiment,31,↓,down,↓,0.8063941998407245,True,17
105K20,513,experiment,55,↓,down,↓,0.9137157001532614,True,17
105K20,514,experiment,56,↓,down,↓,0.6325570999179035,True,17
105K20,515,experiment,60,↑,right,→,0.8390380998607725,False,17
105K20,516,experiment,46,←,right,→,0.5109518000390381,False,17
105K20,517,experiment,26,→,right,→,0.6178154000081122,True,17
105K20,518,experiment,44,↑,up,↑,0.6036805999465287,True,17
105K20,519,experiment,54,↑,up,↑,0.41740309982560575,True,17
105K20,520,experiment,13,←,left,←,0.509814899880439,True,17
105K20,521,experiment,53,↑,up,↑,0.646655400050804,True,17
105K20,522,experiment,15,↓,left,←,0.946430099895224,False,17
105K20,523,experiment,47,↑,up,↑,0.6931179999373853,True,17
105K20,524,experiment,40,↓,down,↓,1.5350021000485867,True,17
105K20,525,experiment,23,↓,down,↓,0.8425305001437664,True,17
105K20,526,experiment,49,→,right,→,0.6962260999716818,True,17
105K20,527,experiment,28,←,left,←,0.6575871999375522,True,17
105K20,528,experiment,27,↓,down,↓,0.7497847001068294,True,17
105K20,529,experiment,50,←,left,←,0.7184462000150234,True,17
105K20,530,experiment,25,→,right,→,0.5209665999282151,True,17
105K20,531,experiment,19,←,left,←,0.4636951999273151,True,17
105K20,532,experiment,52,→,left,←,0.6904831998981535,False,17
105K20,533,experiment,42,←,right,→,0.45090659987181425,False,17
105K20,534,experiment,22,↓,down,↓,0.9618455998133868,True,17
105K20,535,experiment,59,→,right,→,0.6922127001453191,True,17
105K20,536,experiment,45,←,left,←,0.587105100043118,True,17
105K20,537,experiment,35,←,left,←,0.6204899000003934,True,17
105K20,538,experiment,33,↑,up,↑,0.6775593999773264,True,17
105K20,539,experiment,21,←,left,←,0.572933099931106,True,17
105K20,540,experiment,43,↓,up,↑,0.801566099980846,False,17
105K20,541,training,21,←,no_key,no_letter,-1.0,False,17
105K20,542,training,29,←,no_key,no_letter,-1.0,False,17
105K20,543,experiment,13,↓,down,↓,0.5760025000199676,True,17
105K20,544,experiment,41,→,no_key,no_letter,-1.0,False,17
105K20,545,experiment,29,↑,up,↑,0.6044054999947548,True,17
105K20,546,experiment,38,←,left,←,0.5950509000103921,True,17
105K20,547,experiment,56,←,left,←,0.5422112001106143,True,17
105K20,548,experiment,30,↑,down,↓,1.4771484001539648,False,17
105K20,549,experiment,52,↓,down,↓,0.6881001000292599,True,17
105K20,550,experiment,57,←,left,←,0.4006451000459492,True,17
105K20,551,experiment,39,↑,up,↑,0.8918370001483709,True,17
105K20,552,experiment,47,↓,right,→,1.0090297998394817,False,17
105K20,553,experiment,37,→,left,←,0.30085489992052317,False,17
105K20,554,experiment,22,↓,up,↑,0.20196549990214407,False,17
105K20,555,experiment,23,↓,right,→,0.2183609998319298,False,17
105K20,556,experiment,27,←,down,↓,0.2170740000437945,False,17
105K20,557,experiment,58,↑,up,↑,0.8748688998166472,True,17
105K20,558,experiment,45,←,right,→,0.2504199999384582,False,17
105K20,559,experiment,49,→,up,↑,1.7264647998381406,False,17
105K20,560,experiment,24,↑,left,←,0.41647979989647865,False,17
105K20,561,experiment,14,→,left,←,0.36804890003986657,False,17
105K20,562,experiment,32,↑,left,←,0.15174370002932847,False,17
105K20,563,experiment,26,→,up,↑,0.11683820001780987,False,17
105K20,564,experiment,19,↓,up,↑,0.23340829997323453,False,17
105K20,565,experiment,59,↓,down,↓,0.28365260013379157,True,17
105K20,566,experiment,55,↓,up,↑,1.0497508998960257,False,17
105K20,567,experiment,48,←,left,←,0.5197735000401735,True,17
105K20,568,experiment,53,←,down,↓,0.38391259987838566,False,17
105K20,569,experiment,51,←,right,→,0.31716580013744533,False,17
105K20,570,experiment,15,↓,up,↑,0.4697133000008762,False,17
105K20,571,experiment,43,↓,left,←,0.23521930002607405,False,17
105K20,572,experiment,34,↓,up,↑,1.1161726000718772,False,17
105K20,573,experiment,54,↓,down,↓,0.883505400037393,True,17
105K20,574,experiment,20,↑,up,↑,0.5148074000608176,True,17
105K20,575,experiment,46,→,right,→,0.487522000214085,True,17
105K20,576,experiment,25,↓,down,↓,0.8436957001686096,True,17
105K20,577,experiment,42,←,left,←,0.9741205000318587,True,17
105K20,578,experiment,50,↑,up,↑,0.4702681000344455,True,17
105K20,579,experiment,60,↓,down,↓,0.5079477999825031,True,17
105K20,580,experiment,44,↓,down,↓,0.41722499998286366,True,17
105K20,581,experiment,36,↑,up,↑,0.40086350007914007,True,17
105K20,582,experiment,18,↑,up,↑,0.5160670999903232,True,17
105K20,583,experiment,21,↑,up,↑,0.5537817999720573,True,17
105K20,584,experiment,33,→,right,→,0.47750150016508996,True,17
105K20,585,experiment,35,←,right,→,0.41764170001260936,False,17
105K20,586,experiment,16,↑,up,↑,0.6076764001045376,True,17
105K20,587,experiment,17,↓,down,↓,0.5401260000653565,True,17
105K20,588,experiment,40,←,left,←,0.6763394998852164,True,17
105K20,589,experiment,31,←,left,←,0.525062499800697,True,17
105K20,590,experiment,28,↓,up,↑,0.45356199983507395,False,17
