PART_ID,Trial_no,Trial_type,CSI,Stim_letter,Key_pressed,letter_choose,Rt,Corr,Stimulus Time
106M23,1,training,60,←,no_key,no_letter,-1.0,False,30
106M23,2,training,60,↑,no_key,no_letter,-1.0,False,30
106M23,3,training,60,←,left,←,1.5226855999790132,True,30
106M23,4,training,60,→,no_key,no_letter,-1.0,False,30
106M23,5,training,60,↑,up,↑,1.0342025000136346,True,30
106M23,6,training,60,↑,up,↑,0.7461782998871058,True,30
106M23,7,training,60,↓,down,↓,1.1811474999412894,True,30
106M23,8,training,60,↑,up,↑,0.9826746999751776,True,30
106M23,9,training,60,→,left,←,0.5339590997900814,False,30
106M23,10,training,60,→,right,→,0.6339891999959946,True,30
106M23,11,training,60,→,right,→,0.7145211000461131,True,30
106M23,12,training,60,→,right,→,0.671022400027141,True,30
106M23,13,training,60,←,left,←,0.7001212001778185,True,30
106M23,14,training,60,←,left,←,0.4996672999113798,True,30
106M23,15,training,60,↓,up,↑,0.8692560999188572,False,30
106M23,16,training,60,↓,down,↓,0.7636105001438409,True,30
106M23,17,training,60,↑,up,↑,0.7022182000800967,True,30
106M23,18,training,60,←,left,←,1.5949067000765353,True,30
106M23,19,training,60,↑,up,↑,0.9725158999208361,True,30
106M23,20,training,60,←,left,←,0.5502460000570863,True,30
106M23,21,training,60,←,left,←,1.0781948000658303,True,18
106M23,22,training,60,→,right,→,0.7479714998044074,True,18
106M23,23,training,60,→,left,←,1.3910771999508142,False,18
106M23,24,training,60,←,left,←,0.7528780999127775,True,18
106M23,25,training,60,↑,up,↑,0.6198272998444736,True,18
106M23,26,training,60,↓,down,↓,1.2280397000722587,True,18
106M23,27,training,60,↓,up,↑,0.7238882998935878,False,18
106M23,28,training,60,↓,no_key,no_letter,-1.0,False,18
106M23,29,training,60,→,left,←,0.4837076000403613,False,18
106M23,30,training,60,→,right,→,0.6084783000405878,True,18
106M23,31,training,60,↑,up,↑,0.6649248998146504,True,18
106M23,32,training,60,←,left,←,0.6553380999248475,True,18
106M23,33,training,60,→,left,←,0.5340191000141203,False,18
106M23,34,training,60,→,left,←,0.43317940016277134,False,18
106M23,35,training,60,↑,up,↑,0.8885693999473006,True,18
106M23,36,training,60,↓,up,↑,0.8621225000824779,False,18
106M23,37,training,60,↓,down,↓,0.7164698999840766,True,18
106M23,38,training,60,↑,up,↑,0.6007646999787539,True,18
106M23,39,training,60,←,right,→,0.5056143999099731,False,18
106M23,40,training,60,↑,up,↑,0.5664367999415845,True,18
106M23,41,training,31,→,up,↑,0.6950425999239087,False,18
106M23,42,training,52,↑,no_key,no_letter,-1.0,False,18
106M23,43,experiment,32,←,left,←,0.535829400178045,True,18
106M23,44,experiment,56,↑,up,↑,0.7339333998970687,True,18
106M23,45,experiment,27,→,up,↑,0.7275493000634015,False,18
106M23,46,experiment,37,←,right,→,0.8590598998125643,False,18
106M23,47,experiment,34,↓,down,↓,0.7873402000404894,True,18
106M23,48,experiment,28,←,left,←,0.5944636000785977,True,18
106M23,49,experiment,29,←,left,←,1.0164677000138909,True,18
106M23,50,experiment,18,↑,up,↑,0.6206138001289219,True,18
106M23,51,experiment,53,→,right,→,0.6577003998681903,True,18
106M23,52,experiment,46,↓,down,↓,0.6820823999587446,True,18
106M23,53,experiment,25,→,down,↓,1.206836499972269,False,18
106M23,54,experiment,36,↑,up,↑,0.5120506000239402,True,18
106M23,55,experiment,16,↓,up,↑,0.9219523000065237,False,18
106M23,56,experiment,41,↓,up,↑,0.6029693000018597,False,18
106M23,57,experiment,39,↑,up,↑,0.6900142999365926,True,18
106M23,58,experiment,33,→,left,←,0.737757199909538,False,18
106M23,59,experiment,40,↑,up,↑,0.8424905000720173,True,18
106M23,60,experiment,60,←,left,←,0.6823658000212163,True,18
106M23,61,experiment,58,→,right,→,0.6013545000459999,True,18
106M23,62,experiment,19,←,left,←,0.6934963001403958,True,18
106M23,63,experiment,31,↑,up,↑,0.7183104001451284,True,18
106M23,64,experiment,20,↑,up,↑,0.6213748999871314,True,18
106M23,65,experiment,50,←,left,←,1.1322363999206573,True,18
106M23,66,experiment,44,↑,up,↑,0.5706936998758465,True,18
106M23,67,experiment,57,↑,right,→,1.007127600023523,False,18
106M23,68,experiment,23,→,right,→,0.7287628999911249,True,18
106M23,69,experiment,15,↑,up,↑,0.514780200086534,True,18
106M23,70,experiment,26,↓,down,↓,0.8780717998743057,True,18
106M23,71,experiment,49,↓,down,↓,0.8593321000225842,True,18
106M23,72,experiment,24,→,right,→,0.554598799906671,True,18
106M23,73,experiment,17,←,left,←,0.7056905999779701,True,18
106M23,74,experiment,30,↓,down,↓,0.8344688999932259,True,18
106M23,75,experiment,48,←,left,←,0.8742573000490665,True,18
106M23,76,experiment,21,↑,up,↑,0.7384005999192595,True,18
106M23,77,experiment,59,↑,up,↑,0.6150057001505047,True,18
106M23,78,experiment,13,↓,up,↑,0.5662948000244796,False,18
106M23,79,experiment,42,↓,up,↑,0.7724967999383807,False,18
106M23,80,experiment,52,→,right,→,1.2044988998677582,True,18
106M23,81,experiment,22,↑,up,↑,0.7266871999017894,True,18
106M23,82,experiment,51,←,left,←,0.992961100069806,True,18
106M23,83,experiment,43,↓,down,↓,0.6062212998513132,True,18
106M23,84,experiment,45,↑,up,↑,0.5611493999604136,True,18
106M23,85,experiment,14,↓,up,↑,0.6983980000950396,False,18
106M23,86,experiment,55,↓,down,↓,0.6828996001277119,True,18
106M23,87,experiment,47,↓,down,↓,0.6412209998816252,True,18
106M23,88,experiment,54,↑,up,↑,0.828886300092563,True,18
106M23,89,experiment,38,←,left,←,0.5312896999530494,True,18
106M23,90,experiment,35,↓,down,↓,0.7033791001886129,True,18
106M23,91,training,50,↓,up,↑,0.6940063999500126,False,18
106M23,92,training,47,→,right,→,0.5722570000216365,True,18
106M23,93,experiment,18,↑,up,↑,0.7389144999906421,True,18
106M23,94,experiment,17,←,left,←,0.7865831998642534,True,18
106M23,95,experiment,38,→,right,→,0.4907306998502463,True,18
106M23,96,experiment,50,↑,up,↑,0.5191422000061721,True,18
106M23,97,experiment,42,←,left,←,0.5113184999208897,True,18
106M23,98,experiment,23,←,left,←,0.500771899940446,True,18
106M23,99,experiment,26,←,left,←,0.6641634998377413,True,18
106M23,100,experiment,53,←,left,←,0.8031763001345098,True,18
106M23,101,experiment,22,→,right,→,0.5657158000394702,True,18
106M23,102,experiment,25,→,right,→,0.6627197000198066,True,18
106M23,103,experiment,14,↑,up,↑,0.6117183000314981,True,18
106M23,104,experiment,30,←,left,←,0.6242015999741852,True,18
106M23,105,experiment,16,↑,up,↑,0.6697961001191288,True,18
106M23,106,experiment,60,↓,down,↓,0.69198890007101,True,18
106M23,107,experiment,21,→,right,→,0.5634969000238925,True,18
106M23,108,experiment,57,↑,up,↑,0.7198677998967469,True,18
106M23,109,experiment,24,↓,left,←,0.7960198998916894,False,18
106M23,110,experiment,37,↑,up,↑,0.9803643000777811,True,18
106M23,111,experiment,49,↓,down,↓,0.9016899999696761,True,18
106M23,112,experiment,27,←,left,←,0.7053481000475585,True,18
106M23,113,experiment,41,↑,up,↑,0.49004090018570423,True,18
106M23,114,experiment,20,↓,up,↑,1.2021925000008196,False,18
106M23,115,experiment,52,↑,up,↑,0.4889305999968201,True,18
106M23,116,experiment,39,↑,up,↑,0.5642490999307483,True,18
106M23,117,experiment,28,↓,up,↑,0.587826200062409,False,18
106M23,118,experiment,33,←,left,←,0.5195213998667896,True,18
106M23,119,experiment,32,←,left,←,0.6381529001519084,True,18
106M23,120,experiment,40,←,left,←,0.602992600062862,True,18
106M23,121,experiment,59,↓,down,↓,0.764780699973926,True,18
106M23,122,experiment,34,→,right,→,0.6002368000335991,True,18
106M23,123,experiment,19,↑,up,↑,0.8686761998105794,True,18
106M23,124,experiment,47,↑,up,↑,0.6034882999956608,True,18
106M23,125,experiment,31,→,left,←,0.5675978998187929,False,18
106M23,126,experiment,36,↑,up,↑,0.8340793000534177,True,18
106M23,127,experiment,44,↓,down,↓,0.8122105000074953,True,18
106M23,128,experiment,45,↑,up,↑,0.7586601998191327,True,18
106M23,129,experiment,58,↑,up,↑,0.7230054000392556,True,18
106M23,130,experiment,48,↓,up,↑,0.6554159999359399,False,18
106M23,131,experiment,29,→,right,→,0.7628732998855412,True,18
106M23,132,experiment,46,→,right,→,0.6874141001608223,True,18
106M23,133,experiment,51,↓,up,↑,0.5870024000760168,False,18
106M23,134,experiment,15,↑,left,←,0.9064273999538273,False,18
106M23,135,experiment,43,→,right,→,0.786807700060308,True,18
106M23,136,experiment,13,↑,up,↑,0.6998084001243114,True,18
106M23,137,experiment,54,↑,up,↑,0.5808733999729156,True,18
106M23,138,experiment,56,→,right,→,0.7210142000112683,True,18
106M23,139,experiment,35,↓,down,↓,0.8698964000213891,True,18
106M23,140,experiment,55,↑,down,↓,1.0076599000021815,False,18
106M23,141,training,26,↑,up,↑,0.6098217000253499,True,18
106M23,142,training,29,↓,left,←,0.6952889000531286,False,18
106M23,143,experiment,51,←,left,←,0.531005100114271,True,18
106M23,144,experiment,58,↑,up,↑,0.4799532999750227,True,18
106M23,145,experiment,35,←,right,→,0.5105850999243557,False,18
106M23,146,experiment,54,↑,up,↑,0.49538149987347424,True,18
106M23,147,experiment,30,↓,down,↓,0.6725206000264734,True,18
106M23,148,experiment,48,↓,down,↓,0.8868275000713766,True,18
106M23,149,experiment,15,→,right,→,0.994581599952653,True,18
106M23,150,experiment,13,↑,up,↑,0.883204499958083,True,18
106M23,151,experiment,57,←,left,←,0.6191535999532789,True,18
106M23,152,experiment,49,↓,down,↓,0.8509541000239551,True,18
106M23,153,experiment,19,→,left,←,0.7569947999436408,False,18
106M23,154,experiment,41,←,left,←,0.684535900130868,True,18
106M23,155,experiment,59,↓,up,↑,0.803026300156489,False,18
106M23,156,experiment,50,←,left,←,0.52271439996548,True,18
106M23,157,experiment,46,↑,up,↑,0.6562241001520306,True,18
106M23,158,experiment,52,↓,down,↓,0.8207195999566466,True,18
106M23,159,experiment,23,↓,down,↓,0.7495516000781208,True,18
106M23,160,experiment,32,↑,up,↑,0.6195475000422448,True,18
106M23,161,experiment,42,↑,down,↓,0.9754517998080701,False,18
106M23,162,experiment,56,↓,down,↓,0.7646258999593556,True,18
106M23,163,experiment,45,↓,down,↓,0.8089820998720825,True,18
106M23,164,experiment,27,↓,down,↓,0.6639984999783337,True,18
106M23,165,experiment,21,↓,down,↓,0.6880948999896646,True,18
106M23,166,experiment,47,←,left,←,0.5023535001091659,True,18
106M23,167,experiment,43,↓,down,↓,0.7427496998570859,True,18
106M23,168,experiment,36,↓,up,↑,0.7383295001927763,False,18
106M23,169,experiment,34,↓,down,↓,0.6871890998445451,True,18
106M23,170,experiment,37,↑,no_key,no_letter,-1.0,False,18
106M23,171,experiment,26,←,left,←,0.7015038998797536,True,18
106M23,172,experiment,40,←,left,←,0.6080221000593156,True,18
106M23,173,experiment,33,↑,up,↑,0.4175704999361187,True,18
106M23,174,experiment,55,↑,left,←,1.0218178001232445,False,18
106M23,175,experiment,31,↓,down,↓,0.6172643001191318,True,18
106M23,176,experiment,39,←,left,←,0.5115102001000196,True,18
106M23,177,experiment,60,→,left,←,0.6925140998791903,False,18
106M23,178,experiment,24,↓,down,↓,0.7621090998873115,True,18
106M23,179,experiment,20,↓,down,↓,0.7755267999600619,True,18
106M23,180,experiment,38,←,left,←,0.6244729000609368,True,18
106M23,181,experiment,22,↑,up,↑,0.8819160000421107,True,18
106M23,182,experiment,29,←,left,←,0.5882626001257449,True,18
106M23,183,experiment,17,→,right,→,0.7945335002150387,True,18
106M23,184,experiment,18,↓,right,→,1.05601240019314,False,18
106M23,185,experiment,53,↑,up,↑,0.5637410001363605,True,18
106M23,186,experiment,44,→,right,→,0.6645812999922782,True,18
106M23,187,experiment,25,←,right,→,0.9180703999008983,False,18
106M23,188,experiment,16,→,right,→,0.5515173999592662,True,18
106M23,189,experiment,14,←,left,←,0.7209488998632878,True,18
106M23,190,experiment,28,↓,down,↓,0.8504493001382798,True,18
106M23,191,training,21,←,left,←,0.7383165000937879,True,18
106M23,192,training,52,↑,up,↑,0.5955393998883665,True,18
106M23,193,experiment,24,→,right,→,0.5570211000740528,True,18
106M23,194,experiment,34,↓,up,↑,0.6970327999442816,False,18
106M23,195,experiment,15,→,right,→,0.7478293001186103,True,18
106M23,196,experiment,47,↓,down,↓,0.6555280999746174,True,18
106M23,197,experiment,20,→,right,→,0.6889309999532998,True,18
106M23,198,experiment,35,→,right,→,0.5832042000256479,True,18
106M23,199,experiment,27,←,left,←,0.7348061001393944,True,18
106M23,200,experiment,13,←,left,←,0.6974658002145588,True,18
106M23,201,experiment,31,←,left,←,0.5539504999760538,True,18
106M23,202,experiment,51,↓,down,↓,0.7146441999357194,True,18
106M23,203,experiment,55,→,down,↓,0.8186303998809308,False,18
106M23,204,experiment,53,→,right,→,0.7035447000525892,True,18
106M23,205,experiment,41,←,left,←,0.569342500064522,True,18
106M23,206,experiment,52,←,left,←,0.7050696001388133,True,18
106M23,207,experiment,59,↓,up,↑,0.7988400999456644,False,18
106M23,208,experiment,25,↓,down,↓,0.6148216999135911,True,18
106M23,209,experiment,45,↑,up,↑,0.6810256000608206,True,18
106M23,210,experiment,46,→,no_key,no_letter,-1.0,False,18
106M23,211,experiment,33,→,no_key,no_letter,-1.0,False,18
106M23,212,experiment,38,←,left,←,0.6385344001464546,True,18
106M23,213,experiment,17,↓,down,↓,1.4345197998918593,True,18
106M23,214,experiment,50,↑,left,←,0.5452077998779714,False,18
106M23,215,experiment,58,→,right,→,0.5022103998344392,True,18
106M23,216,experiment,18,↑,up,↑,0.6712370999157429,True,18
106M23,217,experiment,19,↓,down,↓,0.8084271000698209,True,18
106M23,218,experiment,49,↑,up,↑,0.6728820998687297,True,18
106M23,219,experiment,32,→,right,→,0.5377323001157492,True,18
106M23,220,experiment,37,→,left,←,0.3997104000300169,False,18
106M23,221,experiment,56,↓,down,↓,0.8077314000111073,True,18
106M23,222,experiment,30,→,right,→,0.7164296000264585,True,18
106M23,223,experiment,28,←,left,←,0.7419069001916796,True,18
106M23,224,experiment,14,→,right,→,0.5040903000626713,True,18
106M23,225,experiment,23,↑,up,↑,0.5339883000124246,True,18
106M23,226,experiment,29,↑,up,↑,0.6614696001634002,True,18
106M23,227,experiment,39,↑,up,↑,0.4744825998786837,True,18
106M23,228,experiment,60,←,left,←,0.5441505000926554,True,18
106M23,229,experiment,26,←,left,←,0.5063090999610722,True,18
106M23,230,experiment,44,←,left,←,0.5458307000808418,True,18
106M23,231,experiment,40,←,left,←,0.7066544000990689,True,18
106M23,232,experiment,43,↑,up,↑,0.5069883998949081,True,18
106M23,233,experiment,22,↓,down,↓,0.8250812999904156,True,18
106M23,234,experiment,36,↑,up,↑,0.40034390008077025,True,18
106M23,235,experiment,21,→,left,←,0.5554022002033889,False,18
106M23,236,experiment,57,→,right,→,0.9283603001385927,True,18
106M23,237,experiment,42,←,left,←,0.5288724999409169,True,18
106M23,238,experiment,16,↓,down,↓,0.769516000058502,True,18
106M23,239,experiment,54,↓,down,↓,0.559980700025335,True,18
106M23,240,experiment,48,←,left,←,0.5228515998460352,True,18
106M23,241,training,24,→,right,→,0.6479466001037508,True,18
106M23,242,training,24,↑,up,↑,1.654712799936533,True,18
106M23,243,experiment,51,↑,left,←,0.8849045000970364,False,18
106M23,244,experiment,31,↓,up,↑,0.8454096000641584,False,18
106M23,245,experiment,46,→,right,→,0.7186075998470187,True,18
106M23,246,experiment,18,→,right,→,0.6703106998465955,True,18
106M23,247,experiment,41,↑,up,↑,0.5455585001036525,True,18
106M23,248,experiment,59,↑,up,↑,0.6935223999898881,True,18
106M23,249,experiment,43,↑,up,↑,1.2866170001216233,True,18
106M23,250,experiment,14,↑,up,↑,0.4337673999834806,True,18
106M23,251,experiment,16,↓,down,↓,0.7030207000207156,True,18
106M23,252,experiment,50,←,left,←,0.6746674999594688,True,18
106M23,253,experiment,42,→,no_key,no_letter,-1.0,False,18
106M23,254,experiment,26,↑,left,←,0.8143321999814361,False,18
106M23,255,experiment,32,↓,down,↓,0.7376210000365973,True,18
106M23,256,experiment,22,↑,left,←,0.6222258000634611,False,18
106M23,257,experiment,35,↓,down,↓,0.679139900021255,True,18
106M23,258,experiment,57,↑,up,↑,0.5827486999332905,True,18
106M23,259,experiment,24,→,right,→,0.43412670004181564,True,18
106M23,260,experiment,21,↓,left,←,0.5529457998927683,False,18
106M23,261,experiment,30,↑,down,↓,0.8317011999897659,False,18
106M23,262,experiment,58,→,right,→,0.49699850007891655,True,18
106M23,263,experiment,54,←,left,←,0.7061193000990897,True,18
106M23,264,experiment,56,→,right,→,0.7298347998876125,True,18
106M23,265,experiment,40,←,left,←,0.7948113000020385,True,18
106M23,266,experiment,33,↓,down,↓,0.8781987000256777,True,18
106M23,267,experiment,45,↑,up,↑,0.5588708999566734,True,18
106M23,268,experiment,34,→,right,→,0.6747526000253856,True,18
106M23,269,experiment,47,↓,down,↓,0.6901589999906719,True,18
106M23,270,experiment,37,↓,down,↓,0.471241099992767,True,18
106M23,271,experiment,36,↑,down,↓,0.70842200005427,False,18
106M23,272,experiment,17,↓,down,↓,0.605558600043878,True,18
106M23,273,experiment,19,→,right,→,1.31359070003964,True,18
106M23,274,experiment,53,←,right,→,0.5469599000643939,False,18
106M23,275,experiment,20,←,left,←,0.6005010001827031,True,18
106M23,276,experiment,13,↓,up,↑,0.7204740999732167,False,18
106M23,277,experiment,48,↓,down,↓,0.8047613000962883,True,18
106M23,278,experiment,15,→,right,→,0.6195863999892026,True,18
106M23,279,experiment,60,↓,down,↓,0.7480484999250621,True,18
106M23,280,experiment,23,←,left,←,0.5354730999097228,True,18
106M23,281,experiment,55,↑,down,↓,0.8545451001264155,False,18
106M23,282,experiment,44,↑,up,↑,0.6563095999881625,True,18
106M23,283,experiment,39,→,right,→,0.7011627999600023,True,18
106M23,284,experiment,28,→,right,→,0.6957224998623133,True,18
106M23,285,experiment,49,←,right,→,0.5963828000240028,False,18
106M23,286,experiment,25,↓,down,↓,0.7405221001245081,True,18
106M23,287,experiment,27,→,right,→,0.6301357999909669,True,18
106M23,288,experiment,38,↑,down,↓,0.7084392998367548,False,18
106M23,289,experiment,52,↓,down,↓,0.6390062998980284,True,18
106M23,290,experiment,29,↑,up,↑,0.594877100083977,True,18
106M23,291,training,47,↓,up,↑,0.5978971000295132,False,18
106M23,292,training,21,↑,down,↓,0.8640717999078333,False,18
106M23,293,experiment,34,↓,down,↓,0.5756361000239849,True,18
106M23,294,experiment,14,→,right,→,0.568342600017786,True,18
106M23,295,experiment,13,←,up,↑,1.0017401000950485,False,18
106M23,296,experiment,17,←,left,←,0.5034154998138547,True,18
106M23,297,experiment,43,←,left,←,0.5274551999755204,True,18
106M23,298,experiment,31,↑,up,↑,0.7269159001298249,True,18
106M23,299,experiment,49,→,right,→,0.618710899958387,True,18
106M23,300,experiment,46,←,left,←,0.7245114999823272,True,18
106M23,301,experiment,22,↑,up,↑,0.6017672000452876,True,18
106M23,302,experiment,53,→,right,→,0.5354126000311226,True,18
106M23,303,experiment,47,←,right,→,0.5959178002085537,False,18
106M23,304,experiment,38,←,right,→,0.5159297999925911,False,18
106M23,305,experiment,33,←,left,←,0.6819859999231994,True,18
106M23,306,experiment,50,←,up,↑,1.246460999827832,False,18
106M23,307,experiment,52,→,right,→,0.6431367001496255,True,18
106M23,308,experiment,42,←,left,←,0.5267783999443054,True,18
106M23,309,experiment,32,↓,down,↓,0.7495077000930905,True,18
106M23,310,experiment,18,→,right,→,0.5402565998956561,True,18
106M23,311,experiment,51,→,right,→,0.5579108998645097,True,18
106M23,312,experiment,39,↑,up,↑,0.5108082999940962,True,18
106M23,313,experiment,26,→,right,→,0.538242399925366,True,18
106M23,314,experiment,15,←,right,→,0.6995667999144644,False,18
106M23,315,experiment,57,↓,down,↓,0.7787363000679761,True,18
106M23,316,experiment,59,↑,up,↑,1.0299316998571157,True,18
106M23,317,experiment,58,↓,down,↓,0.7590235001407564,True,18
106M23,318,experiment,48,↑,up,↑,0.8980414001271129,True,18
106M23,319,experiment,40,↑,up,↑,0.8045267001725733,True,18
106M23,320,experiment,41,←,left,←,0.5942431997973472,True,18
106M23,321,experiment,55,↓,down,↓,0.9912392999976873,True,18
106M23,322,experiment,21,↓,down,↓,0.7226639001164585,True,18
106M23,323,experiment,25,↓,down,↓,0.6305061001330614,True,18
106M23,324,experiment,29,→,left,←,0.7707057001534849,False,18
106M23,325,experiment,30,↑,up,↑,0.7926964999642223,True,18
106M23,326,experiment,36,↑,up,↑,0.7703414000570774,True,18
106M23,327,experiment,20,↑,up,↑,0.7753949000034481,True,18
106M23,328,experiment,28,→,right,→,0.7106810000259429,True,18
106M23,329,experiment,54,←,left,←,0.711850699968636,True,18
106M23,330,experiment,27,←,left,←,0.6827066999394447,True,18
106M23,331,experiment,35,↑,up,↑,0.6172068999148905,True,18
106M23,332,experiment,16,→,right,→,0.6623156999703497,True,18
106M23,333,experiment,56,←,left,←,0.551356100011617,True,18
106M23,334,experiment,60,→,right,→,0.5383967000525445,True,18
106M23,335,experiment,19,↑,up,↑,0.5694506000727415,True,18
106M23,336,experiment,23,←,left,←,0.5078578998800367,True,18
106M23,337,experiment,45,→,right,→,0.6347904000431299,True,18
106M23,338,experiment,24,↑,up,↑,0.5382471999619156,True,18
106M23,339,experiment,44,→,right,→,0.5844659002032131,True,18
106M23,340,experiment,37,←,left,←,0.5293793000746518,True,18
106M23,341,training,28,↓,down,↓,1.0877346999477595,True,18
106M23,342,training,19,↑,up,↑,0.5686846000608057,True,18
106M23,343,experiment,43,↓,down,↓,0.8144989002030343,True,18
106M23,344,experiment,44,←,left,←,0.4735127000603825,True,18
106M23,345,experiment,38,↓,down,↓,0.8134797001257539,True,18
106M23,346,experiment,30,↓,down,↓,0.6576583997812122,True,18
106M23,347,experiment,56,←,left,←,0.563472299836576,True,18
106M23,348,experiment,26,↓,down,↓,0.65234460006468,True,18
106M23,349,experiment,50,↓,down,↓,0.554222899954766,True,18
106M23,350,experiment,24,→,right,→,0.7486811999697238,True,18
106M23,351,experiment,36,↑,up,↑,0.6330752999056131,True,18
106M23,352,experiment,47,↓,down,↓,0.6473773999605328,True,18
106M23,353,experiment,55,↑,up,↑,0.8022660999558866,True,18
106M23,354,experiment,35,←,left,←,0.5799579999875277,True,18
106M23,355,experiment,17,↑,up,↑,0.6499777000863105,True,18
106M23,356,experiment,42,←,right,→,1.0290570999495685,False,18
106M23,357,experiment,19,→,right,→,0.7041204997804016,True,18
106M23,358,experiment,16,↓,down,↓,0.7619239999912679,True,18
106M23,359,experiment,13,→,right,→,0.7159496999811381,True,18
106M23,360,experiment,33,↓,down,↓,0.7623381000012159,True,18
106M23,361,experiment,23,←,left,←,0.7091673999093473,True,18
106M23,362,experiment,58,↑,up,↑,0.6116197998635471,True,18
106M23,363,experiment,48,↑,no_key,no_letter,-1.0,False,18
106M23,364,experiment,54,→,no_key,no_letter,-1.0,False,18
106M23,365,experiment,49,←,no_key,no_letter,-1.0,False,18
106M23,366,experiment,27,↑,up,↑,0.5028759001288563,True,18
106M23,367,experiment,22,↓,down,↓,0.5968122999183834,True,18
106M23,368,experiment,20,→,right,→,0.48008639994077384,True,18
106M23,369,experiment,21,←,right,→,0.5035876999609172,False,18
106M23,370,experiment,37,→,left,←,0.3837398001924157,False,18
106M23,371,experiment,25,↓,down,↓,0.6519264997914433,True,18
106M23,372,experiment,32,←,left,←,0.47719889995642006,True,18
106M23,373,experiment,39,←,left,←,1.4167623999528587,True,18
106M23,374,experiment,52,↓,down,↓,0.8151414000894874,True,18
106M23,375,experiment,59,↑,up,↑,1.0399366000201553,True,18
106M23,376,experiment,51,↑,up,↑,0.6778623000718653,True,18
106M23,377,experiment,41,←,left,←,0.7048063001129776,True,18
106M23,378,experiment,45,→,right,→,0.6557168997824192,True,18
106M23,379,experiment,14,↑,up,↑,0.781316600041464,True,18
106M23,380,experiment,57,→,right,→,0.713404200039804,True,18
106M23,381,experiment,29,→,left,←,0.5865738999564201,False,18
106M23,382,experiment,46,↓,right,→,0.8774192999117076,False,18
106M23,383,experiment,18,←,left,←,0.5997023999225348,True,18
106M23,384,experiment,53,↓,down,↓,0.9253206001594663,True,18
106M23,385,experiment,60,↓,down,↓,0.7859306999016553,True,18
106M23,386,experiment,31,↓,down,↓,0.678825399838388,True,18
106M23,387,experiment,34,↑,up,↑,0.7019454999826849,True,18
106M23,388,experiment,28,↑,up,↑,0.7599138000514358,True,18
106M23,389,experiment,15,↓,down,↓,1.0246486999094486,True,18
106M23,390,experiment,40,↑,up,↑,0.7105771999340504,True,18
106M23,391,training,32,↓,down,↓,1.013032500166446,True,18
106M23,392,training,44,→,right,→,0.6562132998369634,True,18
106M23,393,experiment,21,←,left,←,0.5369240997824818,True,18
106M23,394,experiment,32,←,left,←,0.5351651997771114,True,18
106M23,395,experiment,34,↑,up,↑,0.6199169000610709,True,18
106M23,396,experiment,56,←,left,←,0.5589896000456065,True,18
106M23,397,experiment,31,→,right,→,0.6130613000132143,True,18
106M23,398,experiment,44,→,right,→,0.6487407998647541,True,18
106M23,399,experiment,38,←,right,→,0.854526000097394,False,18
106M23,400,experiment,47,→,right,→,0.7101004000287503,True,18
106M23,401,experiment,58,→,right,→,0.6684565998148173,True,18
106M23,402,experiment,16,↑,up,↑,1.1678015000652522,True,18
106M23,403,experiment,40,↑,up,↑,0.5837022000923753,True,18
106M23,404,experiment,45,←,left,←,0.6271653999574482,True,18
106M23,405,experiment,15,←,left,←,0.8334001998882741,True,18
106M23,406,experiment,13,↑,up,↑,0.7522034000139683,True,18
106M23,407,experiment,51,←,left,←,0.609207300003618,True,18
106M23,408,experiment,53,→,right,→,0.5829930000472814,True,18
106M23,409,experiment,55,↑,up,↑,0.6678918001707643,True,18
106M23,410,experiment,37,→,right,→,0.729538599960506,True,18
106M23,411,experiment,52,↑,up,↑,0.6187080000527203,True,18
106M23,412,experiment,57,↓,down,↓,0.7089345999993384,True,18
106M23,413,experiment,36,↓,down,↓,0.6979606000240892,True,18
106M23,414,experiment,28,↓,down,↓,0.6521457000635564,True,18
106M23,415,experiment,54,↑,up,↑,0.5751787000335753,True,18
106M23,416,experiment,25,↓,up,↑,0.7205043998546898,False,18
106M23,417,experiment,48,→,down,↓,0.7009571997914463,False,18
106M23,418,experiment,19,→,right,→,0.6370029000099748,True,18
106M23,419,experiment,49,→,right,→,0.6920316000469029,True,18
106M23,420,experiment,43,↑,up,↑,0.7809454000089318,True,18
106M23,421,experiment,26,↑,up,↑,0.5092555999290198,True,18
106M23,422,experiment,27,↑,up,↑,0.49632549984380603,True,18
106M23,423,experiment,39,↓,up,↑,0.802815199829638,False,18
106M23,424,experiment,17,←,left,←,0.4722436999436468,True,18
106M23,425,experiment,59,↓,up,↑,0.7988056000322104,False,18
106M23,426,experiment,41,↓,down,↓,0.7964300001040101,True,18
106M23,427,experiment,20,←,left,←,0.6559337999206036,True,18
106M23,428,experiment,60,↓,down,↓,0.6709606000222266,True,18
106M23,429,experiment,29,←,left,←,0.7137728999368846,True,18
106M23,430,experiment,42,←,left,←,0.4980886001139879,True,18
106M23,431,experiment,30,←,left,←,1.2508613001555204,True,18
106M23,432,experiment,50,↑,up,↑,0.9048189001623541,True,18
106M23,433,experiment,24,↓,down,↓,0.6217677001841366,True,18
106M23,434,experiment,14,↓,down,↓,0.47651419998146594,True,18
106M23,435,experiment,46,↑,up,↑,0.5873660000506788,True,18
106M23,436,experiment,23,↓,down,↓,0.5257536000572145,True,18
106M23,437,experiment,18,↓,left,←,0.5015139000024647,False,18
106M23,438,experiment,35,←,left,←,0.49099199986085296,True,18
106M23,439,experiment,33,←,left,←,0.5544247000943869,True,18
106M23,440,experiment,22,↓,up,↑,0.758519799914211,False,18
106M23,441,training,25,↓,down,↓,0.8365052998997271,True,18
106M23,442,training,16,↑,down,↓,0.6413034999277443,False,18
106M23,443,experiment,23,←,left,←,0.5133709001820534,True,18
106M23,444,experiment,14,←,left,←,0.4695449999999255,True,18
106M23,445,experiment,59,←,left,←,0.5071224998682737,True,18
106M23,446,experiment,20,↑,up,↑,0.6264749998226762,True,18
106M23,447,experiment,60,↑,up,↑,0.7788205998949707,True,18
106M23,448,experiment,29,→,right,→,0.5851552998647094,True,18
106M23,449,experiment,48,→,right,→,0.6027065000962466,True,18
106M23,450,experiment,52,←,left,←,0.6253770000766963,True,18
106M23,451,experiment,31,↓,down,↓,0.684548000106588,True,18
106M23,452,experiment,43,←,left,←,0.5411865999922156,True,18
106M23,453,experiment,37,↓,up,↑,0.7763527000788599,False,18
106M23,454,experiment,15,→,right,→,0.6165183999110013,True,18
106M23,455,experiment,55,↑,up,↑,0.6602048000786453,True,18
106M23,456,experiment,17,↓,up,↑,0.6556903999298811,False,18
106M23,457,experiment,53,←,left,←,1.947298799874261,True,18
106M23,458,experiment,38,↑,up,↑,0.6536543001420796,True,18
106M23,459,experiment,35,↑,up,↑,0.5172240000683814,True,18
106M23,460,experiment,36,←,left,←,0.5772913999389857,True,18
106M23,461,experiment,49,↓,down,↓,0.690916100051254,True,18
106M23,462,experiment,30,→,right,→,0.7163769998587668,True,18
106M23,463,experiment,33,↑,up,↑,0.7389291999861598,True,18
106M23,464,experiment,45,↑,up,↑,0.504687299951911,True,18
106M23,465,experiment,47,→,right,→,0.6139347001444548,True,18
106M23,466,experiment,56,↓,up,↑,0.68896279996261,False,18
106M23,467,experiment,32,↑,up,↑,0.6092469999566674,True,18
106M23,468,experiment,13,↓,up,↑,0.7052903000731021,False,18
106M23,469,experiment,27,→,down,↓,0.7400410000700504,False,18
106M23,470,experiment,28,↓,down,↓,0.6369574000127614,True,18
106M23,471,experiment,44,↓,down,↓,0.7194868000224233,True,18
106M23,472,experiment,19,→,right,→,0.5667644999921322,True,18
106M23,473,experiment,24,↑,up,↑,0.7371340000536293,True,18
106M23,474,experiment,40,↓,down,↓,0.7303577000275254,True,18
106M23,475,experiment,42,→,right,→,0.537419400177896,True,18
106M23,476,experiment,16,←,left,←,0.5781759999226779,True,18
106M23,477,experiment,34,↓,down,↓,0.6776089000049978,True,18
106M23,478,experiment,54,↑,up,↑,0.5600140998139977,True,18
106M23,479,experiment,25,→,right,→,0.7060944999102503,True,18
106M23,480,experiment,51,→,right,→,0.6691459000576288,True,18
106M23,481,experiment,39,↓,down,↓,0.7134597001131624,True,18
106M23,482,experiment,58,↑,up,↑,0.6631168001331389,True,18
106M23,483,experiment,26,↓,down,↓,0.7880302001722157,True,18
106M23,484,experiment,18,←,left,←,0.7055422000121325,True,18
106M23,485,experiment,46,↓,down,↓,0.7438465999439359,True,18
106M23,486,experiment,41,←,left,←,0.5121967999730259,True,18
106M23,487,experiment,50,←,left,←,0.5397838000208139,True,18
106M23,488,experiment,21,←,left,←,0.7211569999344647,True,18
106M23,489,experiment,22,→,right,→,0.8066279999911785,True,18
106M23,490,experiment,57,←,right,→,0.729762899922207,False,18
106M23,491,training,13,↑,up,↑,0.5961173998657614,True,18
106M23,492,training,25,←,left,←,0.6122032001148909,True,18
106M23,493,experiment,40,↓,down,↓,0.769770999904722,True,18
106M23,494,experiment,60,↑,up,↑,0.6763010998256505,True,18
106M23,495,experiment,44,↓,down,↓,0.7493095998652279,True,18
106M23,496,experiment,33,→,right,→,0.7862430000677705,True,18
106M23,497,experiment,47,→,right,→,0.7885563999880105,True,18
106M23,498,experiment,54,↑,up,↑,0.7142171999439597,True,18
106M23,499,experiment,45,→,right,→,0.7366680998820812,True,18
106M23,500,experiment,27,←,left,←,0.682480099843815,True,18
106M23,501,experiment,49,→,right,→,0.8875120999291539,True,18
106M23,502,experiment,18,↓,down,↓,0.744846299989149,True,18
106M23,503,experiment,36,→,right,→,0.8285076001193374,True,18
106M23,504,experiment,13,→,right,→,0.6441788000520319,True,18
106M23,505,experiment,57,←,left,←,0.8136948999017477,True,18
106M23,506,experiment,39,↑,up,↑,0.8521013001445681,True,18
106M23,507,experiment,30,←,left,←,0.7349225000943989,True,18
106M23,508,experiment,21,↑,up,↑,0.5966667998582125,True,18
106M23,509,experiment,17,↓,down,↓,0.7459553999360651,True,18
106M23,510,experiment,37,→,right,→,0.636020899983123,True,18
106M23,511,experiment,50,←,left,←,0.7063557000365108,True,18
106M23,512,experiment,19,→,right,→,0.6426055999472737,True,18
106M23,513,experiment,31,←,left,←,0.5892797999549657,True,18
106M23,514,experiment,20,↓,down,↓,0.7933410000987351,True,18
106M23,515,experiment,14,→,right,→,0.6896210999693722,True,18
106M23,516,experiment,25,↑,down,↓,0.846323800040409,False,18
106M23,517,experiment,55,→,right,→,0.864803500007838,True,18
106M23,518,experiment,22,↓,down,↓,0.6567129001487046,True,18
106M23,519,experiment,56,←,down,↓,0.7620845001656562,False,18
106M23,520,experiment,35,↑,up,↑,0.6850255001336336,True,18
106M23,521,experiment,29,→,right,→,0.823492799885571,True,18
106M23,522,experiment,23,→,right,→,0.7841161000542343,True,18
106M23,523,experiment,58,→,right,→,0.7796176001429558,True,18
106M23,524,experiment,38,↑,up,↑,0.6437174000311643,True,18
106M23,525,experiment,28,←,left,←,0.8164735999889672,True,18
106M23,526,experiment,26,↓,down,↓,0.7033180999569595,True,18
106M23,527,experiment,59,↓,down,↓,0.5971444000024348,True,18
106M23,528,experiment,51,←,left,←,0.7560345998499542,True,18
106M23,529,experiment,42,↑,up,↑,0.7711962999310344,True,18
106M23,530,experiment,16,←,left,←,0.8024919999297708,True,18
106M23,531,experiment,52,←,left,←,0.6490835999138653,True,18
106M23,532,experiment,41,←,left,←,0.5487603000365198,True,18
106M23,533,experiment,34,↓,left,←,0.824941499857232,False,18
106M23,534,experiment,48,↑,up,↑,0.6410948999691755,True,18
106M23,535,experiment,15,↑,up,↑,0.7665407999884337,True,18
106M23,536,experiment,32,←,left,←,0.6994783999398351,True,18
106M23,537,experiment,53,↑,up,↑,0.8454919999931008,True,18
106M23,538,experiment,46,↑,up,↑,0.6623593999538571,True,18
106M23,539,experiment,24,↓,up,↑,0.5164586999453604,False,18
106M23,540,experiment,43,←,left,←,0.5641262999270111,True,18
106M23,541,training,55,↓,down,↓,0.6711099999956787,True,17
106M23,542,training,38,→,right,→,0.5160854000132531,True,17
106M23,543,experiment,27,←,left,←,0.5740192998200655,True,17
106M23,544,experiment,16,↓,down,↓,0.7013757999520749,True,17
106M23,545,experiment,24,←,left,←,0.5541441000532359,True,17
106M23,546,experiment,17,←,left,←,0.5693856999278069,True,17
106M23,547,experiment,21,→,right,→,0.4935291998554021,True,17
106M23,548,experiment,15,↑,up,↑,0.5768468000460416,True,17
106M23,549,experiment,55,→,right,→,0.6066085000056773,True,17
106M23,550,experiment,50,→,right,→,0.7504593001212925,True,17
106M23,551,experiment,47,←,left,←,0.7543711999896914,True,17
106M23,552,experiment,59,←,left,←,0.6057099001482129,True,17
106M23,553,experiment,54,→,right,→,0.5787885000463575,True,17
106M23,554,experiment,52,→,right,→,0.5384723998140544,True,17
106M23,555,experiment,49,→,right,→,0.4936248001176864,True,17
106M23,556,experiment,42,↑,up,↑,0.7748543999623507,True,17
106M23,557,experiment,25,→,right,→,0.7284560000989586,True,17
106M23,558,experiment,41,↑,up,↑,0.5854118000715971,True,17
106M23,559,experiment,28,↓,down,↓,0.8403078999835998,True,17
106M23,560,experiment,46,↑,up,↑,0.5695678000338376,True,17
106M23,561,experiment,57,↓,down,↓,0.7258804000448436,True,17
106M23,562,experiment,14,←,left,←,0.7363321001175791,True,17
106M23,563,experiment,19,→,right,→,0.6313720000907779,True,17
106M23,564,experiment,36,↓,down,↓,0.6227021999657154,True,17
106M23,565,experiment,37,←,left,←,0.6784820999018848,True,17
106M23,566,experiment,30,↑,up,↑,0.704503099899739,True,17
106M23,567,experiment,23,↓,down,↓,0.9260281999595463,True,17
106M23,568,experiment,35,↓,down,↓,0.8830337999388576,True,17
106M23,569,experiment,45,→,right,→,0.6107587998267263,True,17
106M23,570,experiment,48,↓,down,↓,0.7076785999815911,True,17
106M23,571,experiment,29,←,left,←,0.5972382999025285,True,17
106M23,572,experiment,34,←,left,←,0.5357079000677913,True,17
106M23,573,experiment,58,→,right,→,0.7166136000305414,True,17
106M23,574,experiment,18,↑,up,↑,0.6925768000073731,True,17
106M23,575,experiment,56,↑,up,↑,0.5650472999550402,True,17
106M23,576,experiment,40,→,right,→,0.7405209999997169,True,17
106M23,577,experiment,13,↓,down,↓,0.719269499881193,True,17
106M23,578,experiment,53,↑,up,↑,0.6245973999612033,True,17
106M23,579,experiment,32,→,right,→,0.5152197000570595,True,17
106M23,580,experiment,43,↑,up,↑,0.6427694999147207,True,17
106M23,581,experiment,20,→,right,→,0.5728526001330465,True,17
106M23,582,experiment,26,↑,up,↑,0.6776656000874937,True,17
106M23,583,experiment,60,↓,down,↓,0.8680448001250625,True,17
106M23,584,experiment,39,↑,up,↑,0.5923973000608385,True,17
106M23,585,experiment,31,↓,up,↑,0.765372599940747,False,17
106M23,586,experiment,33,↑,up,↑,0.5215192001778632,True,17
106M23,587,experiment,44,←,right,→,0.5925086000934243,False,17
106M23,588,experiment,51,↑,up,↑,0.5921054999344051,True,17
106M23,589,experiment,38,→,right,→,0.7041918998584151,True,17
106M23,590,experiment,22,→,right,→,0.5904831998050213,True,17
