PART_ID,Trial_no,Trial_type,CSI,Stim_letter,Key_pressed,letter_choose,Rt,Corr,Stimulus Time
107K20,1,training,60,↓,no_key,no_letter,-1.0,False,30
107K20,2,training,60,←,left,←,0.9897194998338819,True,30
107K20,3,training,60,↓,down,↓,0.8229533000849187,True,30
107K20,4,training,60,→,right,→,0.7271008000243455,True,30
107K20,5,training,60,←,left,←,0.6174021000042558,True,30
107K20,6,training,60,→,right,→,0.6170697999186814,True,30
107K20,7,training,60,↑,up,↑,0.7539357000496238,True,30
107K20,8,training,60,↑,up,↑,0.8448296999558806,True,30
107K20,9,training,60,↑,no_key,no_letter,-1.0,False,30
107K20,10,training,60,→,right,→,1.0869205000344664,True,30
107K20,11,training,60,←,left,←,0.7485559999477118,True,30
107K20,12,training,60,←,left,←,0.7917565000243485,True,30
107K20,13,training,60,←,left,←,0.7855819999240339,True,30
107K20,14,training,60,→,right,→,0.8592403000220656,True,30
107K20,15,training,60,←,left,←,0.7615410999860615,True,30
107K20,16,training,60,↓,down,↓,0.731708699837327,True,30
107K20,17,training,60,→,right,→,0.7434729998931289,True,30
107K20,18,training,60,←,left,←,1.7945124001707882,True,30
107K20,19,training,60,→,left,←,1.0917492001317441,False,30
107K20,20,training,60,↓,down,↓,0.753515399992466,True,30
107K20,21,training,60,↓,down,↓,0.6804503002204001,True,18
107K20,22,training,60,↓,down,↓,0.8143688999116421,True,18
107K20,23,training,60,↓,down,↓,0.6864641001448035,True,18
107K20,24,training,60,↑,down,↓,0.7482544998638332,False,18
107K20,25,training,60,→,right,→,0.8632179999258369,True,18
107K20,26,training,60,←,left,←,0.7573637999594212,True,18
107K20,27,training,60,←,left,←,0.7123614000156522,True,18
107K20,28,training,60,→,left,←,0.9646898999344558,False,18
107K20,29,training,60,↑,up,↑,0.8313082000240684,True,18
107K20,30,training,60,↑,up,↑,0.7907544001936913,True,18
107K20,31,training,60,→,right,→,1.1844350998289883,True,18
107K20,32,training,60,↓,down,↓,0.8824465998914093,True,18
107K20,33,training,60,→,right,→,0.7679286999627948,True,18
107K20,34,training,60,→,right,→,0.8423486999236047,True,18
107K20,35,training,60,↑,down,↓,0.7533239000476897,False,18
107K20,36,training,60,↑,up,↑,0.7886014999821782,True,18
107K20,37,training,60,↓,down,↓,0.7659271999727935,True,18
107K20,38,training,60,↓,up,↑,0.8403981998562813,False,18
107K20,39,training,60,↑,up,↑,0.7441346000414342,True,18
107K20,40,training,60,→,right,→,0.7791840999852866,True,18
107K20,41,training,17,↑,up,↑,0.8432144001126289,True,18
107K20,42,training,47,→,right,→,0.8838885000441223,True,18
107K20,43,experiment,48,←,left,←,1.15340769989416,True,18
107K20,44,experiment,47,↓,down,↓,1.093390400055796,True,18
107K20,45,experiment,27,←,left,←,0.7932909999508411,True,18
107K20,46,experiment,36,↑,up,↑,0.762930299853906,True,18
107K20,47,experiment,16,↓,down,↓,0.762202899903059,True,18
107K20,48,experiment,28,←,left,←,0.7462440000381321,True,18
107K20,49,experiment,44,←,left,←,0.9049062000121921,True,18
107K20,50,experiment,15,←,left,←,0.8276605999562889,True,18
107K20,51,experiment,29,↓,down,↓,0.9286551999393851,True,18
107K20,52,experiment,58,←,left,←,0.9985214001499116,True,18
107K20,53,experiment,41,←,left,←,0.8122420001309365,True,18
107K20,54,experiment,55,←,left,←,0.8167588000651449,True,18
107K20,55,experiment,25,↓,down,↓,0.8883255000691861,True,18
107K20,56,experiment,57,→,right,→,0.7760045998729765,True,18
107K20,57,experiment,32,↑,up,↑,0.780932999914512,True,18
107K20,58,experiment,60,→,right,→,0.8706553999800235,True,18
107K20,59,experiment,38,↑,up,↑,0.8836619998328388,True,18
107K20,60,experiment,42,←,left,←,0.8453984998632222,True,18
107K20,61,experiment,50,→,right,→,0.7318227000068873,True,18
107K20,62,experiment,26,↓,down,↓,0.7823252999223769,True,18
107K20,63,experiment,22,↓,down,↓,0.7368445000611246,True,18
107K20,64,experiment,54,↑,up,↑,0.7769974998664111,True,18
107K20,65,experiment,49,↓,down,↓,0.6666138998698443,True,18
107K20,66,experiment,45,↑,up,↑,0.7067766999825835,True,18
107K20,67,experiment,35,↑,up,↑,0.66426289989613,True,18
107K20,68,experiment,51,→,right,→,0.7886196998879313,True,18
107K20,69,experiment,20,←,left,←,0.7609268999658525,True,18
107K20,70,experiment,31,↑,up,↑,0.7350135000888258,True,18
107K20,71,experiment,43,↑,up,↑,0.7580770999193192,True,18
107K20,72,experiment,46,→,right,→,0.8346810999792069,True,18
107K20,73,experiment,17,↓,down,↓,0.7745635998435318,True,18
107K20,74,experiment,24,↓,down,↓,0.8010027999989688,True,18
107K20,75,experiment,23,→,right,→,0.7943948998581618,True,18
107K20,76,experiment,18,↑,up,↑,0.7520453000906855,True,18
107K20,77,experiment,34,→,right,→,0.7402051000390202,True,18
107K20,78,experiment,33,↑,up,↑,0.6978486999869347,True,18
107K20,79,experiment,14,←,left,←,0.8370351998601109,True,18
107K20,80,experiment,30,→,right,→,0.7526549999602139,True,18
107K20,81,experiment,37,←,left,←,0.7951301999855787,True,18
107K20,82,experiment,39,←,left,←,0.7626681001856923,True,18
107K20,83,experiment,19,↓,down,↓,0.8000692999921739,True,18
107K20,84,experiment,40,↓,down,↓,0.7026991001330316,True,18
107K20,85,experiment,56,←,left,←,0.9182714000344276,True,18
107K20,86,experiment,59,→,left,←,0.9072750001214445,False,18
107K20,87,experiment,53,↑,up,↑,0.7731083000544459,True,18
107K20,88,experiment,13,→,right,→,0.8706203000620008,True,18
107K20,89,experiment,52,↑,up,↑,0.7307355999946594,True,18
107K20,90,experiment,21,←,left,←,0.743921099929139,True,18
107K20,91,training,23,↓,down,↓,0.753131499979645,True,17
107K20,92,training,19,↓,down,↓,0.6794284000061452,True,17
107K20,93,experiment,46,→,right,→,0.7503223000094295,True,17
107K20,94,experiment,14,↓,down,↓,0.7515963001642376,True,17
107K20,95,experiment,20,→,right,→,0.8773610999342054,True,17
107K20,96,experiment,54,→,left,←,0.8157140999101102,False,17
107K20,97,experiment,52,↓,up,↑,1.3814561001490802,False,17
107K20,98,experiment,21,→,right,→,0.7694779001176357,True,17
107K20,99,experiment,30,↑,up,↑,0.6634490001015365,True,17
107K20,100,experiment,42,↓,down,↓,0.7378550001885742,True,17
107K20,101,experiment,23,→,right,→,0.8218080000951886,True,17
107K20,102,experiment,58,↑,up,↑,0.7920266001019627,True,17
107K20,103,experiment,48,↑,up,↑,0.7616234000306576,True,17
107K20,104,experiment,41,←,left,←,0.8971943000797182,True,17
107K20,105,experiment,47,↑,up,↑,0.806883699959144,True,17
107K20,106,experiment,44,←,left,←,0.8108385999221355,True,17
107K20,107,experiment,18,→,right,→,0.8316379999741912,True,17
107K20,108,experiment,49,→,right,→,0.8067286999430507,True,17
107K20,109,experiment,26,↓,down,↓,0.822348800022155,True,17
107K20,110,experiment,35,↓,down,↓,0.6391974999569356,True,17
107K20,111,experiment,16,→,right,→,0.8357655999716371,True,17
107K20,112,experiment,53,←,right,→,0.7282870998606086,False,17
107K20,113,experiment,60,←,left,←,0.7809256000909954,True,17
107K20,114,experiment,29,←,left,←,1.1309206001460552,True,17
107K20,115,experiment,17,↓,down,↓,0.7792070999275893,True,17
107K20,116,experiment,28,→,right,→,0.8261921000666916,True,17
107K20,117,experiment,31,→,right,→,0.8939541999716312,True,17
107K20,118,experiment,37,↓,down,↓,0.7467064999509603,True,17
107K20,119,experiment,34,←,left,←,0.8712589000351727,True,17
107K20,120,experiment,36,←,left,←,0.8936785999685526,True,17
107K20,121,experiment,19,→,right,→,0.8865772997960448,True,17
107K20,122,experiment,22,↓,down,↓,0.7971861001569778,True,17
107K20,123,experiment,51,→,right,→,0.7561977000441402,True,17
107K20,124,experiment,24,→,right,→,0.7033287000376731,True,17
107K20,125,experiment,40,→,right,→,0.8654948999173939,True,17
107K20,126,experiment,33,←,left,←,0.7619477999396622,True,17
107K20,127,experiment,32,↓,down,↓,0.6952221000101417,True,17
107K20,128,experiment,56,↓,down,↓,0.6876580000389367,True,17
107K20,129,experiment,15,↓,down,↓,0.6836943000089377,True,17
107K20,130,experiment,27,←,right,→,1.1112368998583406,False,17
107K20,131,experiment,43,←,left,←,0.6473433999344707,True,17
107K20,132,experiment,59,→,right,→,0.5988577001262456,True,17
107K20,133,experiment,50,←,right,→,0.7028274999465793,False,17
107K20,134,experiment,13,↓,left,←,1.2992131998762488,False,17
107K20,135,experiment,38,↓,down,↓,0.9586438999976963,True,17
107K20,136,experiment,45,←,left,←,0.8999013998545706,True,17
107K20,137,experiment,57,←,left,←,0.755046300124377,True,17
107K20,138,experiment,55,↑,up,↑,0.769314399920404,True,17
107K20,139,experiment,25,↑,up,↑,0.8427724000066519,True,17
107K20,140,experiment,39,↓,up,↑,0.6805795000400394,False,17
107K20,141,training,38,←,left,←,0.8830977000761777,True,17
107K20,142,training,17,↓,down,↓,0.7170993001200259,True,17
107K20,143,experiment,54,→,right,→,0.7014144998975098,True,17
107K20,144,experiment,44,←,left,←,0.7011448999401182,True,17
107K20,145,experiment,39,↓,down,↓,0.6963362998794764,True,17
107K20,146,experiment,33,→,right,→,0.7269417000934482,True,17
107K20,147,experiment,23,↑,up,↑,0.8357705001253635,True,17
107K20,148,experiment,40,←,left,←,0.8729762001894414,True,17
107K20,149,experiment,59,↓,down,↓,0.7439748998731375,True,17
107K20,150,experiment,56,→,right,→,0.7504145000129938,True,17
107K20,151,experiment,28,↓,up,↑,0.9186398999299854,False,17
107K20,152,experiment,18,↓,down,↓,0.7827473001088947,True,17
107K20,153,experiment,16,←,left,←,0.9576878999359906,True,17
107K20,154,experiment,32,↑,up,↑,0.7074583999346942,True,17
107K20,155,experiment,58,←,left,←,0.6899572999682277,True,17
107K20,156,experiment,25,→,right,→,0.8387935999780893,True,17
107K20,157,experiment,21,↓,up,↑,0.9120228001847863,False,17
107K20,158,experiment,48,↑,up,↑,0.6293020998127759,True,17
107K20,159,experiment,57,→,right,→,0.7271952999290079,True,17
107K20,160,experiment,46,↑,up,↑,0.5806909000966698,True,17
107K20,161,experiment,50,↓,up,↑,0.821247800020501,False,17
107K20,162,experiment,53,←,left,←,1.5303513000253588,True,17
107K20,163,experiment,41,→,right,→,0.7391572000924498,True,17
107K20,164,experiment,13,←,left,←,0.6216106000356376,True,17
107K20,165,experiment,51,↓,down,↓,0.6679345001466572,True,17
107K20,166,experiment,45,↓,down,↓,0.6046603999566287,True,17
107K20,167,experiment,31,→,right,→,0.8243635999970138,True,17
107K20,168,experiment,43,←,left,←,0.724281000206247,True,17
107K20,169,experiment,22,↓,down,↓,0.7855687998235226,True,17
107K20,170,experiment,15,↓,down,↓,0.6890197999309748,True,17
107K20,171,experiment,35,↑,up,↑,0.6632991000078619,True,17
107K20,172,experiment,26,→,right,→,0.612182900076732,True,17
107K20,173,experiment,38,↓,down,↓,0.7316304999403656,True,17
107K20,174,experiment,42,←,left,←,1.0833584000356495,True,17
107K20,175,experiment,49,↑,down,↓,1.0007344998884946,False,17
107K20,176,experiment,60,↓,down,↓,0.7780013000592589,True,17
107K20,177,experiment,30,↓,up,↑,0.7520003998652101,False,17
107K20,178,experiment,36,↓,up,↑,0.7152417998295277,False,17
107K20,179,experiment,55,↓,up,↑,0.6827979998197407,False,17
107K20,180,experiment,19,↓,down,↓,0.7557590999640524,True,17
107K20,181,experiment,52,←,left,←,0.6518969000317156,True,17
107K20,182,experiment,37,→,right,→,0.6181562999263406,True,17
107K20,183,experiment,47,←,left,←,0.7552068999502808,True,17
107K20,184,experiment,20,←,right,→,0.752931300085038,False,17
107K20,185,experiment,29,→,right,→,0.7442000999581069,True,17
107K20,186,experiment,27,←,right,→,1.121737299952656,False,17
107K20,187,experiment,14,↑,up,↑,0.7809218000620604,True,17
107K20,188,experiment,17,↓,down,↓,0.722754699876532,True,17
107K20,189,experiment,34,←,left,←,0.800489200046286,True,17
107K20,190,experiment,24,↓,down,↓,0.7295649999286979,True,17
107K20,191,training,35,←,left,←,0.739046499831602,True,17
107K20,192,training,57,↑,up,↑,0.6726917000487447,True,17
107K20,193,experiment,50,↓,down,↓,0.7420550000388175,True,17
107K20,194,experiment,57,↓,down,↓,0.6518289998639375,True,17
107K20,195,experiment,36,↑,up,↑,0.7224815001245588,True,17
107K20,196,experiment,14,↑,up,↑,0.7250880000647157,True,17
107K20,197,experiment,48,↑,up,↑,0.713844700017944,True,17
107K20,198,experiment,37,←,left,←,0.7811926000285894,True,17
107K20,199,experiment,47,←,up,↑,0.7835931000299752,False,17
107K20,200,experiment,30,↑,up,↑,0.7570248998235911,True,17
107K20,201,experiment,56,↑,up,↑,0.8589248000644147,True,17
107K20,202,experiment,46,→,right,→,0.8273385998327285,True,17
107K20,203,experiment,13,↑,up,↑,0.8348844998981804,True,17
107K20,204,experiment,20,←,left,←,0.7410924001596868,True,17
107K20,205,experiment,53,↑,up,↑,0.6538247000426054,True,17
107K20,206,experiment,45,↓,down,↓,0.702500999905169,True,17
107K20,207,experiment,43,↓,up,↑,0.7586203999817371,False,17
107K20,208,experiment,24,←,left,←,0.8257740999106318,True,17
107K20,209,experiment,44,↓,down,↓,0.7164440997876227,True,17
107K20,210,experiment,21,→,left,←,1.0429408000782132,False,17
107K20,211,experiment,25,↑,up,↑,0.7779383999295533,True,17
107K20,212,experiment,31,→,right,→,0.7753002000972629,True,17
107K20,213,experiment,59,←,right,→,0.7546234999317676,False,17
107K20,214,experiment,55,↓,up,↑,0.6891218998935074,False,17
107K20,215,experiment,26,←,left,←,0.6612692999187857,True,17
107K20,216,experiment,27,↑,up,↑,0.6339426001068205,True,17
107K20,217,experiment,39,↑,up,↑,0.6714463999960572,True,17
107K20,218,experiment,23,↑,up,↑,0.6065499999094754,True,17
107K20,219,experiment,60,←,left,←,0.719216899946332,True,17
107K20,220,experiment,38,→,left,←,0.7702333000488579,False,17
107K20,221,experiment,16,↑,up,↑,0.7941282000392675,True,17
107K20,222,experiment,17,↑,up,↑,0.6880161000881344,True,17
107K20,223,experiment,35,↓,up,↑,0.7743556001223624,False,17
107K20,224,experiment,33,←,left,←,0.7705945000052452,True,17
107K20,225,experiment,29,↓,down,↓,0.9534897999837995,True,17
107K20,226,experiment,18,↑,up,↑,0.7203728999011219,True,17
107K20,227,experiment,22,↑,up,↑,0.7418066998943686,True,17
107K20,228,experiment,19,←,left,←,0.7325044001918286,True,17
107K20,229,experiment,28,←,left,←,0.7413709999527782,True,17
107K20,230,experiment,54,↑,up,↑,0.6130403999704868,True,17
107K20,231,experiment,15,→,right,→,1.2431305998470634,True,17
107K20,232,experiment,41,←,left,←,0.719649099977687,True,17
107K20,233,experiment,51,↑,up,↑,0.6663131001405418,True,17
107K20,234,experiment,32,↑,down,↓,0.8588918999303132,False,17
107K20,235,experiment,58,←,left,←,0.7715023998171091,True,17
107K20,236,experiment,40,↓,down,↓,0.7392679997719824,True,17
107K20,237,experiment,42,↓,down,↓,0.7628067000769079,True,17
107K20,238,experiment,52,↓,down,↓,0.643496299860999,True,17
107K20,239,experiment,49,←,left,←,0.7624721999745816,True,17
107K20,240,experiment,34,↓,down,↓,0.7106922999955714,True,17
107K20,241,training,45,→,right,→,0.7885160001460463,True,17
107K20,242,training,30,→,right,→,0.7218358998652548,True,17
107K20,243,experiment,22,←,left,←,0.6707740998826921,True,17
107K20,244,experiment,21,←,left,←,0.687230900162831,True,17
107K20,245,experiment,19,←,left,←,0.6560071001295,True,17
107K20,246,experiment,32,↓,down,↓,0.6420690000522882,True,17
107K20,247,experiment,60,←,left,←,0.6972572999075055,True,17
107K20,248,experiment,57,↑,up,↑,0.6564086999278516,True,17
107K20,249,experiment,48,↑,up,↑,0.5993311000056565,True,17
107K20,250,experiment,17,↑,up,↑,0.7488414999097586,True,17
107K20,251,experiment,40,→,left,←,0.7334043998271227,False,17
107K20,252,experiment,25,↑,up,↑,0.7201054999604821,True,17
107K20,253,experiment,45,↓,down,↓,0.6942827999591827,True,17
107K20,254,experiment,38,↑,up,↑,0.6986769000068307,True,17
107K20,255,experiment,59,↓,down,↓,0.6803045000415295,True,17
107K20,256,experiment,29,↓,down,↓,0.7145444999914616,True,17
107K20,257,experiment,34,↓,down,↓,0.6960871999617666,True,17
107K20,258,experiment,39,→,right,→,0.9550668001174927,True,17
107K20,259,experiment,13,↓,down,↓,0.7014627999160439,True,17
107K20,260,experiment,16,→,down,↓,0.7673595000524074,False,17
107K20,261,experiment,24,←,left,←,0.6177534000016749,True,17
107K20,262,experiment,35,↑,up,↑,0.5866298999171704,True,17
107K20,263,experiment,58,↑,up,↑,0.6374182999134064,True,17
107K20,264,experiment,42,←,left,←,0.689243600005284,True,17
107K20,265,experiment,31,→,right,→,0.7059591999277472,True,17
107K20,266,experiment,27,↑,up,↑,0.8687485000118613,True,17
107K20,267,experiment,43,→,right,→,0.6948678998742253,True,17
107K20,268,experiment,54,↑,down,↓,0.8564685999881476,False,17
107K20,269,experiment,52,←,left,←,0.6047050999477506,True,17
107K20,270,experiment,23,←,right,→,0.7344665999989957,False,17
107K20,271,experiment,26,→,right,→,0.7445511999540031,True,17
107K20,272,experiment,28,→,right,→,0.8333006999455392,True,17
107K20,273,experiment,47,↑,up,↑,0.7619095998816192,True,17
107K20,274,experiment,41,←,up,↑,0.9452935999725014,False,17
107K20,275,experiment,20,→,left,←,0.7434842998627573,False,17
107K20,276,experiment,14,→,right,→,0.8736127999145538,True,17
107K20,277,experiment,53,←,left,←,0.8288324000313878,True,17
107K20,278,experiment,30,→,right,→,0.7691960998345166,True,17
107K20,279,experiment,37,↓,down,↓,0.738848099950701,True,17
107K20,280,experiment,44,→,left,←,0.8330197997856885,False,17
107K20,281,experiment,56,↓,down,↓,0.5715279998257756,True,17
107K20,282,experiment,33,↑,down,↓,0.6396611998789012,False,17
107K20,283,experiment,18,→,right,→,0.7712379000149667,True,17
107K20,284,experiment,36,↓,down,↓,0.6773528999183327,True,17
107K20,285,experiment,46,→,right,→,0.6769975000061095,True,17
107K20,286,experiment,49,↑,down,↓,0.6427468000911176,False,17
107K20,287,experiment,50,→,right,→,0.7213208000175655,True,17
107K20,288,experiment,51,↓,down,↓,0.5956754998769611,True,17
107K20,289,experiment,55,→,right,→,0.6647814998868853,True,17
107K20,290,experiment,15,↓,down,↓,0.7490111000370234,True,17
107K20,291,training,27,←,right,→,0.818491900106892,False,17
107K20,292,training,41,↓,down,↓,0.5994516999926418,True,17
107K20,293,experiment,52,→,right,→,0.7260255999863148,True,17
107K20,294,experiment,19,↑,up,↑,0.7335721000563353,True,17
107K20,295,experiment,23,↑,up,↑,0.5854371997993439,True,17
107K20,296,experiment,30,←,left,←,0.6628153000492603,True,17
107K20,297,experiment,39,↓,down,↓,0.6674378998577595,True,17
107K20,298,experiment,41,↓,down,↓,0.7181314998306334,True,17
107K20,299,experiment,57,→,right,→,0.7728068998549134,True,17
107K20,300,experiment,40,→,right,→,0.644655000185594,True,17
107K20,301,experiment,44,↓,down,↓,0.6305032998789102,True,17
107K20,302,experiment,55,↑,up,↑,0.7775903998408467,True,17
107K20,303,experiment,18,↓,down,↓,0.7118259000126272,True,17
107K20,304,experiment,45,←,left,←,0.6705726999789476,True,17
107K20,305,experiment,21,↓,down,↓,0.7188188000582159,True,17
107K20,306,experiment,15,↑,up,↑,0.8571607999037951,True,17
107K20,307,experiment,54,↓,down,↓,0.6678862001281232,True,17
107K20,308,experiment,16,↑,down,↓,0.663482700008899,False,17
107K20,309,experiment,42,↑,up,↑,0.7857249998487532,True,17
107K20,310,experiment,34,←,left,←,0.7249686000868678,True,17
107K20,311,experiment,20,↑,up,↑,0.6035094000399113,True,17
107K20,312,experiment,53,↓,down,↓,0.6491493000648916,True,17
107K20,313,experiment,47,↑,up,↑,0.672828400041908,True,17
107K20,314,experiment,33,←,left,←,0.6330321000423282,True,17
107K20,315,experiment,36,↓,down,↓,0.800616400083527,True,17
107K20,316,experiment,51,↑,up,↑,0.6636121000628918,True,17
107K20,317,experiment,48,↓,down,↓,0.5902939001098275,True,17
107K20,318,experiment,27,↑,up,↑,0.653501900145784,True,17
107K20,319,experiment,59,←,left,←,0.6374734002165496,True,17
107K20,320,experiment,22,→,right,→,0.646285800030455,True,17
107K20,321,experiment,38,←,left,←,0.6036330999340862,True,17
107K20,322,experiment,60,↓,down,↓,0.5888799999374896,True,17
107K20,323,experiment,56,→,right,→,0.6492650001309812,True,17
107K20,324,experiment,46,←,left,←,0.5933056999929249,True,17
107K20,325,experiment,25,←,left,←,0.7861360001843423,True,17
107K20,326,experiment,13,↑,up,↑,1.250987800071016,True,17
107K20,327,experiment,43,↑,up,↑,0.7254476000089198,True,17
107K20,328,experiment,24,→,right,→,0.6176096999552101,True,17
107K20,329,experiment,28,↓,down,↓,0.6391851999796927,True,17
107K20,330,experiment,32,→,left,←,0.8976904000155628,False,17
107K20,331,experiment,26,←,left,←,0.6530202000867575,True,17
107K20,332,experiment,14,↑,up,↑,0.6424730999860913,True,17
107K20,333,experiment,37,↓,down,↓,0.561479999916628,True,17
107K20,334,experiment,58,←,left,←,0.7020688001066446,True,17
107K20,335,experiment,17,→,left,←,0.6952353999949992,False,17
107K20,336,experiment,35,↓,down,↓,0.7175125000067055,True,17
107K20,337,experiment,50,↓,down,↓,0.7125230999663472,True,17
107K20,338,experiment,29,→,right,→,0.7780801001936197,True,17
107K20,339,experiment,31,↓,down,↓,0.7675309001933783,True,17
107K20,340,experiment,49,↑,up,↑,0.7934444001875818,True,17
107K20,341,training,44,↑,up,↑,0.6474943000357598,True,16
107K20,342,training,33,↑,up,↑,0.5683388998731971,True,16
107K20,343,experiment,16,↑,up,↑,0.6717476998455822,True,16
107K20,344,experiment,57,↓,down,↓,0.6799673999194056,True,16
107K20,345,experiment,30,→,right,→,0.7214238001033664,True,16
107K20,346,experiment,49,→,right,→,0.6933416998945177,True,16
107K20,347,experiment,27,→,right,→,0.7286501000635326,True,16
107K20,348,experiment,46,←,left,←,0.7103679000865668,True,16
107K20,349,experiment,52,→,right,→,0.8087331999558955,True,16
107K20,350,experiment,26,→,right,→,0.8404869998339564,True,16
107K20,351,experiment,37,↓,down,↓,0.7195370998233557,True,16
107K20,352,experiment,33,←,left,←,0.7018099999986589,True,16
107K20,353,experiment,51,↓,down,↓,0.6405380999203771,True,16
107K20,354,experiment,56,↑,up,↑,0.6748863998800516,True,16
107K20,355,experiment,18,←,left,←,0.7171006000135094,True,16
107K20,356,experiment,28,→,right,→,0.6705771000124514,True,16
107K20,357,experiment,45,←,left,←,0.6630750000476837,True,16
107K20,358,experiment,60,←,left,←,0.6783980000764132,True,16
107K20,359,experiment,21,→,left,←,0.710293099982664,False,16
107K20,360,experiment,41,→,left,←,0.9357714999932796,False,16
107K20,361,experiment,22,→,right,→,0.7809260000940412,True,16
107K20,362,experiment,20,↑,up,↑,0.6807893000077456,True,16
107K20,363,experiment,19,←,left,←,0.881578299915418,True,16
107K20,364,experiment,40,↓,down,↓,0.7086644999217242,True,16
107K20,365,experiment,50,→,right,→,0.6803472000174224,True,16
107K20,366,experiment,43,↓,down,↓,0.633315599989146,True,16
107K20,367,experiment,24,↑,up,↑,0.7287799997720867,True,16
107K20,368,experiment,53,↓,down,↓,0.6339038999285549,True,16
107K20,369,experiment,42,←,left,←,0.6537556000985205,True,16
107K20,370,experiment,39,←,left,←,0.6263816999271512,True,16
107K20,371,experiment,38,←,left,←,0.6732914999593049,True,16
107K20,372,experiment,23,→,right,→,0.8081219999585301,True,16
107K20,373,experiment,17,↑,up,↑,0.733476199908182,True,16
107K20,374,experiment,29,←,left,←,0.6299946999642998,True,16
107K20,375,experiment,35,↓,down,↓,0.6782468999736011,True,16
107K20,376,experiment,58,←,left,←,0.6382055000867695,True,16
107K20,377,experiment,15,→,left,←,0.6512058000080287,False,16
107K20,378,experiment,54,→,up,↑,1.4782406000886112,False,16
107K20,379,experiment,59,→,right,→,0.7019242001697421,True,16
107K20,380,experiment,47,→,right,→,0.6516803000122309,True,16
107K20,381,experiment,25,↓,down,↓,0.7855431998614222,True,16
107K20,382,experiment,14,↑,up,↑,0.6016340001951903,True,16
107K20,383,experiment,44,↑,up,↑,0.6295020999386907,True,16
107K20,384,experiment,31,↑,up,↑,0.6648255998734385,True,16
107K20,385,experiment,36,↓,down,↓,0.6152507001534104,True,16
107K20,386,experiment,34,↓,down,↓,0.6007509001065046,True,16
107K20,387,experiment,48,↓,down,↓,0.5297851997893304,True,16
107K20,388,experiment,13,→,right,→,0.6283343997783959,True,16
107K20,389,experiment,32,←,right,→,0.9432902000844479,False,16
107K20,390,experiment,55,←,left,←,0.7504292000085115,True,16
107K20,391,training,30,→,right,→,0.6708476000931114,True,16
107K20,392,training,19,←,left,←,0.624127000104636,True,16
107K20,393,experiment,25,←,left,←,0.5996093999128789,True,16
107K20,394,experiment,38,→,right,→,0.647103400202468,True,16
107K20,395,experiment,60,→,right,→,0.630248700035736,True,16
107K20,396,experiment,24,→,left,←,0.7097060000523925,False,16
107K20,397,experiment,28,↓,down,↓,0.6559014997910708,True,16
107K20,398,experiment,46,↑,up,↑,0.6083870001602918,True,16
107K20,399,experiment,53,↓,down,↓,0.5979178000707179,True,16
107K20,400,experiment,15,←,left,←,0.6767468000762165,True,16
107K20,401,experiment,32,→,right,→,0.6855126000009477,True,16
107K20,402,experiment,22,←,left,←,0.6924900999292731,True,16
107K20,403,experiment,55,↑,up,↑,0.6615094998851418,True,16
107K20,404,experiment,29,↓,down,↓,0.6327438000589609,True,16
107K20,405,experiment,14,→,left,←,0.6869206000119448,False,16
107K20,406,experiment,49,↑,up,↑,0.5798812001012266,True,16
107K20,407,experiment,18,↓,down,↓,0.5134972999803722,True,16
107K20,408,experiment,31,↓,down,↓,0.70566640002653,True,16
107K20,409,experiment,20,↑,up,↑,0.6009237999096513,True,16
107K20,410,experiment,27,←,left,←,0.7118734000250697,True,16
107K20,411,experiment,36,↑,up,↑,0.6606482998467982,True,16
107K20,412,experiment,59,→,right,→,0.6283760999795049,True,16
107K20,413,experiment,30,→,right,→,0.7124942999798805,True,16
107K20,414,experiment,33,←,left,←,0.5667419999372214,True,16
107K20,415,experiment,19,↓,down,↓,0.6524106999859214,True,16
107K20,416,experiment,37,←,right,→,0.7068169999402016,False,16
107K20,417,experiment,21,←,left,←,0.7054107999429107,True,16
107K20,418,experiment,34,→,right,→,0.6554683002177626,True,16
107K20,419,experiment,16,↑,up,↑,0.6517141999211162,True,16
107K20,420,experiment,51,←,left,←,0.6485645000357181,True,16
107K20,421,experiment,13,→,right,→,0.6868399998638779,True,16
107K20,422,experiment,40,↑,up,↑,0.7294358999934047,True,16
107K20,423,experiment,44,→,left,←,0.6494171000085771,False,16
107K20,424,experiment,35,←,left,←,0.7114518000744283,True,16
107K20,425,experiment,56,↓,down,↓,0.6474344998132437,True,16
107K20,426,experiment,41,→,right,→,1.0509722998831421,True,16
107K20,427,experiment,43,→,right,→,0.6614504000172019,True,16
107K20,428,experiment,52,←,left,←,0.6656137998215854,True,16
107K20,429,experiment,42,↑,up,↑,0.6838796001393348,True,16
107K20,430,experiment,39,↑,up,↑,0.6637850999832153,True,16
107K20,431,experiment,58,↓,down,↓,0.6235147002153099,True,16
107K20,432,experiment,50,↑,up,↑,0.6382756000384688,True,16
107K20,433,experiment,23,→,right,→,0.8223377000540495,True,16
107K20,434,experiment,45,→,right,→,0.7130608998704702,True,16
107K20,435,experiment,17,→,right,→,0.7385067001450807,True,16
107K20,436,experiment,57,↑,up,↑,0.6080523999407887,True,16
107K20,437,experiment,47,↑,up,↑,0.6418121000751853,True,16
107K20,438,experiment,26,↓,down,↓,0.656094399979338,True,16
107K20,439,experiment,48,→,right,→,0.6709044999442995,True,16
107K20,440,experiment,54,↑,up,↑,0.5530805001035333,True,16
107K20,441,training,21,←,left,←,0.7749387000221759,True,15
107K20,442,training,15,↓,down,↓,0.6631719002034515,True,15
107K20,443,experiment,37,→,right,→,0.6763148999307305,True,15
107K20,444,experiment,27,→,right,→,0.6887517001014203,True,15
107K20,445,experiment,36,↑,up,↑,0.5980359998065978,True,15
107K20,446,experiment,55,→,right,→,0.6664207999128848,True,15
107K20,447,experiment,45,↑,up,↑,0.6187092000618577,True,15
107K20,448,experiment,33,←,left,←,0.692933099810034,True,15
107K20,449,experiment,42,↓,down,↓,0.6628632999490947,True,15
107K20,450,experiment,43,↓,down,↓,0.7050731999333948,True,15
107K20,451,experiment,23,↓,down,↓,0.6386903000529855,True,15
107K20,452,experiment,40,→,right,→,0.6432409998960793,True,15
107K20,453,experiment,29,↓,down,↓,0.7117854999378324,True,15
107K20,454,experiment,17,→,right,→,0.7129705999977887,True,15
107K20,455,experiment,44,↓,down,↓,0.5999213999602944,True,15
107K20,456,experiment,18,→,right,→,0.7249406999908388,True,15
107K20,457,experiment,35,→,right,→,0.6495147000532597,True,15
107K20,458,experiment,58,↓,down,↓,0.6101619000546634,True,15
107K20,459,experiment,53,↓,down,↓,0.6079346998594701,True,15
107K20,460,experiment,52,↓,down,↓,0.5979297000449151,True,15
107K20,461,experiment,49,↓,down,↓,0.6543521999847144,True,15
107K20,462,experiment,14,→,right,→,0.6997573000844568,True,15
107K20,463,experiment,50,↑,up,↑,0.7195582999847829,True,15
107K20,464,experiment,54,↑,up,↑,0.567993100034073,True,15
107K20,465,experiment,38,→,right,→,0.5928351001348346,True,15
107K20,466,experiment,15,→,right,→,0.5921844001859426,True,15
107K20,467,experiment,16,↓,down,↓,0.5990834000986069,True,15
107K20,468,experiment,32,←,left,←,0.6182631999254227,True,15
107K20,469,experiment,24,↑,down,↓,0.96235609985888,False,15
107K20,470,experiment,47,↓,down,↓,0.6382200000807643,True,15
107K20,471,experiment,30,↑,up,↑,0.5775989000685513,True,15
107K20,472,experiment,56,↓,down,↓,0.6307904000859708,True,15
107K20,473,experiment,31,←,left,←,0.6817866999190301,True,15
107K20,474,experiment,19,→,right,→,0.6264905000571162,True,15
107K20,475,experiment,34,↑,up,↑,0.6601154999807477,True,15
107K20,476,experiment,26,↑,up,↑,0.6015366001520306,True,15
107K20,477,experiment,60,↓,down,↓,0.6266600999515504,True,15
107K20,478,experiment,46,↓,down,↓,0.7406242999713868,True,15
107K20,479,experiment,21,←,left,←,0.7054741999600083,True,15
107K20,480,experiment,59,←,right,→,0.7276971000246704,False,15
107K20,481,experiment,41,↓,down,↓,0.6402420999947935,True,15
107K20,482,experiment,25,←,left,←,0.6951130998786539,True,15
107K20,483,experiment,20,↑,left,←,0.7992694000713527,False,15
107K20,484,experiment,39,↑,up,↑,0.6701871000695974,True,15
107K20,485,experiment,48,←,left,←,0.6446018000133336,True,15
107K20,486,experiment,22,↓,down,↓,0.6453064999077469,True,15
107K20,487,experiment,51,←,left,←,0.6270409000571817,True,15
107K20,488,experiment,57,↑,up,↑,0.6537347000557929,True,15
107K20,489,experiment,13,←,left,←,0.7073379000648856,True,15
107K20,490,experiment,28,→,right,→,0.685991499805823,True,15
107K20,491,training,34,←,left,←,0.6148169001098722,True,15
107K20,492,training,16,←,left,←,0.6279859999194741,True,15
107K20,493,experiment,44,→,right,→,0.6708370000123978,True,15
107K20,494,experiment,33,→,right,→,0.7429414000362158,True,15
107K20,495,experiment,55,←,left,←,0.7023041001521051,True,15
107K20,496,experiment,37,←,left,←,0.6184656000696123,True,15
107K20,497,experiment,27,↓,down,↓,0.6644995999522507,True,15
107K20,498,experiment,34,←,left,←,0.6963597999420017,True,15
107K20,499,experiment,26,→,right,→,0.6760849999263883,True,15
107K20,500,experiment,60,←,left,←,0.6181174002122134,True,15
107K20,501,experiment,59,↓,down,↓,0.6513385002035648,True,15
107K20,502,experiment,35,↑,up,↑,1.1147038000635803,True,15
107K20,503,experiment,32,→,left,←,0.6897629001177847,False,15
107K20,504,experiment,18,↓,down,↓,0.6834398999344558,True,15
107K20,505,experiment,53,↓,down,↓,0.6776187000796199,True,15
107K20,506,experiment,47,←,left,←,0.6446289999876171,True,15
107K20,507,experiment,30,→,right,→,0.7441110999789089,True,15
107K20,508,experiment,48,↑,up,↑,0.6678452000487596,True,15
107K20,509,experiment,51,←,left,←,0.680111899971962,True,15
107K20,510,experiment,14,↑,up,↑,0.7242783000692725,True,15
107K20,511,experiment,21,↓,down,↓,0.8583994000218809,True,15
107K20,512,experiment,20,→,right,→,0.7322399001568556,True,15
107K20,513,experiment,54,←,left,←,0.5797344001475722,True,15
107K20,514,experiment,40,↓,down,↓,0.6347475000657141,True,15
107K20,515,experiment,31,→,right,→,0.6936554000712931,True,15
107K20,516,experiment,58,←,left,←,0.6205399001482874,True,15
107K20,517,experiment,24,→,right,→,0.6926126000471413,True,15
107K20,518,experiment,43,↓,down,↓,0.6135607999749482,True,15
107K20,519,experiment,57,→,right,→,0.6959478000644594,True,15
107K20,520,experiment,16,→,right,→,0.6989511998835951,True,15
107K20,521,experiment,41,→,right,→,0.652377099962905,True,15
107K20,522,experiment,19,→,left,←,0.7427664999850094,False,15
107K20,523,experiment,23,↑,up,↑,0.7069076001644135,True,15
107K20,524,experiment,49,→,right,→,0.6629735000897199,True,15
107K20,525,experiment,28,↓,down,↓,0.7067072000354528,True,15
107K20,526,experiment,36,←,left,←,0.6554805999621749,True,15
107K20,527,experiment,22,↑,up,↑,0.6877192000392824,True,15
107K20,528,experiment,13,↑,up,↑,0.6925823998171836,True,15
107K20,529,experiment,38,←,left,←,0.625567700015381,True,15
107K20,530,experiment,15,↑,up,↑,0.6626460000406951,True,15
107K20,531,experiment,50,←,left,←,0.6918373999651521,True,15
107K20,532,experiment,29,←,left,←,0.7256989998277277,True,15
107K20,533,experiment,25,↓,down,↓,0.6495597998145968,True,15
107K20,534,experiment,39,→,right,→,0.6063945000059903,True,15
107K20,535,experiment,52,←,left,←,0.6448653999250382,True,15
107K20,536,experiment,46,→,left,←,0.7575492998585105,False,15
107K20,537,experiment,56,↓,down,↓,0.7076384001411498,True,15
107K20,538,experiment,42,←,left,←,0.7403829998802394,True,15
107K20,539,experiment,17,↑,up,↑,0.8285875001456589,True,15
107K20,540,experiment,45,↑,up,↑,0.622797799995169,True,15
107K20,541,training,47,←,left,←,0.6299511999823153,True,15
107K20,542,training,23,←,left,←,0.5585751000326127,True,15
107K20,543,experiment,51,←,left,←,0.583549999864772,True,15
107K20,544,experiment,57,↓,down,↓,0.6912726000882685,True,15
107K20,545,experiment,23,↓,down,↓,0.649734300095588,True,15
107K20,546,experiment,30,→,right,→,0.7403823998756707,True,15
107K20,547,experiment,21,↑,up,↑,0.753976299893111,True,15
107K20,548,experiment,54,↑,up,↑,0.7687796000391245,True,15
107K20,549,experiment,40,↓,down,↓,0.6726653000805527,True,15
107K20,550,experiment,27,→,right,→,0.7326455998700112,True,15
107K20,551,experiment,28,→,right,→,0.6614675000309944,True,15
107K20,552,experiment,44,←,left,←,0.7271569001022726,True,15
107K20,553,experiment,18,↓,down,↓,0.6636009998619556,True,15
107K20,554,experiment,49,←,left,←,0.6529578999616206,True,15
107K20,555,experiment,15,←,left,←,0.6416292998474091,True,15
107K20,556,experiment,45,↑,up,↑,0.5872631000820547,True,15
107K20,557,experiment,38,←,left,←,0.635834899963811,True,15
107K20,558,experiment,58,↑,up,↑,0.5968437001574785,True,15
107K20,559,experiment,56,↓,down,↓,0.6245500000659376,True,15
107K20,560,experiment,46,←,left,←,0.6259675000328571,True,15
107K20,561,experiment,34,↓,down,↓,0.6196696001570672,True,15
107K20,562,experiment,14,↓,down,↓,0.6343982999678701,True,15
107K20,563,experiment,20,↑,up,↑,0.7162786000408232,True,15
107K20,564,experiment,59,→,right,→,0.8176263999193907,True,15
107K20,565,experiment,42,←,right,→,0.7420610000845045,False,15
107K20,566,experiment,26,→,right,→,0.7120785999577492,True,15
107K20,567,experiment,31,←,left,←,0.7444319000933319,True,15
107K20,568,experiment,13,↑,up,↑,0.7608784001786262,True,15
107K20,569,experiment,55,↑,up,↑,0.6313530001789331,True,15
107K20,570,experiment,22,↑,up,↑,0.7047611998859793,True,15
107K20,571,experiment,35,→,right,→,0.6460301999468356,True,15
107K20,572,experiment,43,↑,up,↑,0.6647266000509262,True,15
107K20,573,experiment,36,↑,up,↑,0.6791932999622077,True,15
107K20,574,experiment,47,→,right,→,0.6700547998771071,True,15
107K20,575,experiment,25,←,left,←,0.7078856001608074,True,15
107K20,576,experiment,29,↓,down,↓,0.6289441999979317,True,15
107K20,577,experiment,19,↑,up,↑,0.6803571998607367,True,15
107K20,578,experiment,16,↑,up,↑,0.6991260000504553,True,15
107K20,579,experiment,32,↓,down,↓,0.6827561999671161,True,15
107K20,580,experiment,53,←,left,←,0.6612990000285208,True,15
107K20,581,experiment,39,→,right,→,0.6822147001512349,True,15
107K20,582,experiment,60,↑,up,↑,0.7520047998987138,True,15
107K20,583,experiment,37,↓,down,↓,0.6823353001382202,True,15
107K20,584,experiment,52,↓,down,↓,0.6450710999779403,True,15
107K20,585,experiment,50,←,left,←,0.7091754002030939,True,15
107K20,586,experiment,33,←,left,←,0.7226219000294805,True,15
107K20,587,experiment,17,↑,up,↑,0.7552086000796407,True,15
107K20,588,experiment,41,→,right,→,0.7227717000059783,True,15
107K20,589,experiment,48,→,right,→,0.6551216999068856,True,15
107K20,590,experiment,24,→,right,→,0.7262742000166327,True,15
