PART_ID,Trial_no,Trial_type,CSI,Stim_letter,Key_pressed,letter_choose,Rt,Corr,Stimulus Time
108K22,1,training,60,→,no_key,no_letter,-1.0,False,30
108K22,2,training,60,→,right,→,1.1667470999527723,True,30
108K22,3,training,60,↓,down,↓,0.7194884999189526,True,30
108K22,4,training,60,→,right,→,1.1142101001460105,True,30
108K22,5,training,60,→,right,→,0.6851984998211265,True,30
108K22,6,training,60,↓,down,↓,0.7367416000925004,True,30
108K22,7,training,60,←,left,←,0.7467612000182271,True,30
108K22,8,training,60,↓,no_key,no_letter,-1.0,False,30
108K22,9,training,60,↑,up,↑,0.732821200042963,True,30
108K22,10,training,60,←,left,←,1.438861799892038,True,30
108K22,11,training,60,↑,up,↑,0.7487160998862237,True,30
108K22,12,training,60,↓,down,↓,0.7099733001086861,True,30
108K22,13,training,60,↓,down,↓,0.6007165999617428,True,30
108K22,14,training,60,↓,no_key,no_letter,-1.0,False,30
108K22,15,training,60,←,left,←,0.727987099904567,True,30
108K22,16,training,60,↑,up,↑,0.5839225999079645,True,30
108K22,17,training,60,↑,up,↑,0.6973299998790026,True,30
108K22,18,training,60,→,right,→,0.7007341000717133,True,30
108K22,19,training,60,←,left,←,0.6885844001080841,True,30
108K22,20,training,60,←,left,←,0.7642750998493284,True,30
108K22,21,training,60,↑,up,↑,0.889277399983257,True,18
108K22,22,training,60,←,left,←,0.7093696999363601,True,18
108K22,23,training,60,→,right,→,0.6158567999955267,True,18
108K22,24,training,60,↓,down,↓,0.6789005000609905,True,18
108K22,25,training,60,↑,up,↑,0.6826436999253929,True,18
108K22,26,training,60,→,right,→,0.6945662999060005,True,18
108K22,27,training,60,←,left,←,0.6897657997906208,True,18
108K22,28,training,60,↑,up,↑,0.6060593000147492,True,18
108K22,29,training,60,→,right,→,0.741213999921456,True,18
108K22,30,training,60,↓,up,↑,0.7432422998826951,False,18
108K22,31,training,60,→,right,→,0.8165278998203576,True,18
108K22,32,training,60,→,right,→,0.6554218998644501,True,18
108K22,33,training,60,↓,down,↓,0.6445615999400616,True,18
108K22,34,training,60,↓,up,↑,0.7138247999828309,False,18
108K22,35,training,60,↓,down,↓,0.6205572001636028,True,18
108K22,36,training,60,→,right,→,0.7151959000620991,True,18
108K22,37,training,60,↓,up,↑,0.7979325999040157,False,18
108K22,38,training,60,←,left,←,0.6454658999573439,True,18
108K22,39,training,60,↑,up,↑,0.6912430999800563,True,18
108K22,40,training,60,↑,up,↑,0.6865193999838084,True,18
108K22,41,training,54,→,right,→,0.6932226000353694,True,18
108K22,42,training,60,→,up,↑,1.3538579000160098,False,18
108K22,43,experiment,46,→,left,←,0.7491703000850976,False,18
108K22,44,experiment,28,↑,up,↑,0.7884615999646485,True,18
108K22,45,experiment,59,→,right,→,0.6858498000074178,True,18
108K22,46,experiment,49,↑,right,→,1.2337364999111742,False,18
108K22,47,experiment,57,←,left,←,0.682509999955073,True,18
108K22,48,experiment,18,→,right,→,1.1311170998960733,True,18
108K22,49,experiment,16,←,left,←,0.5551631001289934,True,18
108K22,50,experiment,32,→,right,→,0.5198401000816375,True,18
108K22,51,experiment,42,→,right,→,0.6711308001540601,True,18
108K22,52,experiment,27,↓,up,↑,1.202496400102973,False,18
108K22,53,experiment,37,↑,up,↑,0.4978926000185311,True,18
108K22,54,experiment,52,↓,down,↓,0.7551443998236209,True,18
108K22,55,experiment,41,↑,up,↑,0.5459382999688387,True,18
108K22,56,experiment,24,→,right,→,0.6757829999551177,True,18
108K22,57,experiment,15,↓,no_key,no_letter,-1.0,False,18
108K22,58,experiment,25,→,left,←,0.49584750016219914,False,18
108K22,59,experiment,50,→,right,→,0.5474262998905033,True,18
108K22,60,experiment,21,→,right,→,1.3197411000728607,True,18
108K22,61,experiment,13,←,left,←,0.8344145000446588,True,18
108K22,62,experiment,48,↑,up,↑,0.8651255001313984,True,18
108K22,63,experiment,45,↑,up,↑,0.6804583000484854,True,18
108K22,64,experiment,35,←,left,←,0.9898803001269698,True,18
108K22,65,experiment,54,↑,up,↑,0.7148339000996202,True,18
108K22,66,experiment,38,↓,down,↓,0.7804056000895798,True,18
108K22,67,experiment,33,↑,up,↑,0.40066799987107515,True,18
108K22,68,experiment,30,←,right,→,1.4344021000433713,False,18
108K22,69,experiment,53,→,right,→,0.7818638999015093,True,18
108K22,70,experiment,44,↑,up,↑,0.7855060999281704,True,18
108K22,71,experiment,17,↑,up,↑,0.7347301000263542,True,18
108K22,72,experiment,43,←,left,←,0.5647160999942571,True,18
108K22,73,experiment,20,↓,left,←,1.4804690999444574,False,18
108K22,74,experiment,40,←,right,→,1.0828305000904948,False,18
108K22,75,experiment,51,↑,up,↑,0.7251161998137832,True,18
108K22,76,experiment,26,←,left,←,0.583739000139758,True,18
108K22,77,experiment,23,↑,up,↑,0.5683915000408888,True,18
108K22,78,experiment,22,↓,down,↓,0.5233631001319736,True,18
108K22,79,experiment,39,↓,down,↓,1.2523917998187244,True,18
108K22,80,experiment,58,→,right,→,0.8437514000106603,True,18
108K22,81,experiment,56,→,right,→,0.6931052999570966,True,18
108K22,82,experiment,47,←,left,←,0.7223988999612629,True,18
108K22,83,experiment,60,→,right,→,1.005772699834779,True,18
108K22,84,experiment,34,←,left,←,0.7270790999755263,True,18
108K22,85,experiment,29,↑,up,↑,0.5751026999205351,True,18
108K22,86,experiment,14,←,left,←,1.0870411999057978,True,18
108K22,87,experiment,31,↓,down,↓,0.8710904000326991,True,18
108K22,88,experiment,19,↑,up,↑,1.2396956000011414,True,18
108K22,89,experiment,55,↑,down,↓,1.4580135999713093,False,18
108K22,90,experiment,36,↑,down,↓,1.3756734000053257,False,18
108K22,91,training,42,←,left,←,0.8097362001426518,True,18
108K22,92,training,55,↓,down,↓,0.7573426000308245,True,18
108K22,93,experiment,33,←,left,←,0.7050258000381291,True,18
108K22,94,experiment,48,←,left,←,1.1009959999937564,True,18
108K22,95,experiment,54,→,left,←,1.1010821999516338,False,18
108K22,96,experiment,43,↑,up,↑,1.4686624999158084,True,18
108K22,97,experiment,53,→,right,→,0.6783579001203179,True,18
108K22,98,experiment,34,↑,up,↑,1.1650093998759985,True,18
108K22,99,experiment,27,→,right,→,1.668428200064227,True,18
108K22,100,experiment,19,↑,up,↑,0.7810302001889795,True,18
108K22,101,experiment,55,↓,up,↑,0.8412678001914173,False,18
108K22,102,experiment,44,↑,up,↑,0.762293600011617,True,18
108K22,103,experiment,30,→,right,→,0.6645782000850886,True,18
108K22,104,experiment,18,↓,down,↓,0.849615499842912,True,18
108K22,105,experiment,49,←,right,→,0.7910023999866098,False,18
108K22,106,experiment,51,←,left,←,1.357694299891591,True,18
108K22,107,experiment,50,←,left,←,0.9103549998253584,True,18
108K22,108,experiment,24,↓,down,↓,1.2663666000589728,True,18
108K22,109,experiment,14,↑,up,↑,0.5663155000656843,True,18
108K22,110,experiment,36,↓,down,↓,0.639679100131616,True,18
108K22,111,experiment,21,→,right,→,0.6482839998789132,True,18
108K22,112,experiment,22,↑,up,↑,1.4715984999202192,True,18
108K22,113,experiment,37,→,right,→,1.4363981001079082,True,18
108K22,114,experiment,46,←,left,←,1.3644204000011086,True,18
108K22,115,experiment,56,→,right,→,1.3203761999029666,True,18
108K22,116,experiment,42,←,left,←,0.599865899886936,True,18
108K22,117,experiment,41,↓,down,↓,0.7722950999159366,True,18
108K22,118,experiment,32,←,left,←,0.8804875002242625,True,18
108K22,119,experiment,20,←,right,→,1.1362774998415262,False,18
108K22,120,experiment,17,↑,up,↑,0.5838426998816431,True,18
108K22,121,experiment,59,→,right,→,0.6970032001845539,True,18
108K22,122,experiment,58,↑,up,↑,0.7183232000097632,True,18
108K22,123,experiment,29,←,left,←,0.48624620004557073,True,18
108K22,124,experiment,60,↓,down,↓,0.850899200187996,True,18
108K22,125,experiment,23,←,left,←,0.7697028000839055,True,18
108K22,126,experiment,40,↓,left,←,0.9762200000695884,False,18
108K22,127,experiment,35,↓,right,→,0.6342978999018669,False,18
108K22,128,experiment,39,↓,down,↓,0.5909345999825746,True,18
108K22,129,experiment,47,←,right,→,0.8002991999965161,False,18
108K22,130,experiment,31,→,right,→,0.5636831000447273,True,18
108K22,131,experiment,45,↑,up,↑,0.5270686000585556,True,18
108K22,132,experiment,28,←,right,→,0.7596399998292327,False,18
108K22,133,experiment,26,←,left,←,0.6242556001525372,True,18
108K22,134,experiment,38,→,no_key,no_letter,-1.0,False,18
108K22,135,experiment,16,←,right,→,0.804976899875328,False,18
108K22,136,experiment,52,←,left,←,1.6582491998560727,True,18
108K22,137,experiment,25,↑,up,↑,0.5037100999616086,True,18
108K22,138,experiment,15,←,left,←,0.665876799961552,True,18
108K22,139,experiment,13,↑,up,↑,0.4944662998896092,True,18
108K22,140,experiment,57,←,right,→,0.5490240000654012,False,18
108K22,141,training,35,→,right,→,0.665216000052169,True,18
108K22,142,training,43,←,left,←,0.4895170999225229,True,18
108K22,143,experiment,51,→,right,→,0.5004189999308437,True,18
108K22,144,experiment,34,↓,up,↑,1.2736003999598324,False,18
108K22,145,experiment,13,→,right,→,0.5902798001188785,True,18
108K22,146,experiment,29,↓,down,↓,0.8195641001220793,True,18
108K22,147,experiment,60,←,left,←,0.49115250003524125,True,18
108K22,148,experiment,23,←,left,←,1.6641747001558542,True,18
108K22,149,experiment,47,↓,down,↓,0.9182108000386506,True,18
108K22,150,experiment,35,→,right,→,1.3302124000620097,True,18
108K22,151,experiment,39,→,right,→,0.8275019000284374,True,18
108K22,152,experiment,45,→,right,→,1.1568723998498172,True,18
108K22,153,experiment,30,→,right,→,0.6589021999388933,True,18
108K22,154,experiment,43,←,left,←,0.5482908000703901,True,18
108K22,155,experiment,22,←,right,→,0.7754883000161499,False,18
108K22,156,experiment,36,→,right,→,1.0411621001549065,True,18
108K22,157,experiment,46,↑,right,→,0.9208736000582576,False,18
108K22,158,experiment,53,←,left,←,0.6327710999175906,True,18
108K22,159,experiment,50,↑,up,↑,0.8461351001169533,True,18
108K22,160,experiment,38,↑,up,↑,0.7395987999625504,True,18
108K22,161,experiment,32,→,right,→,0.5528223000001162,True,18
108K22,162,experiment,31,←,left,←,0.6623898998368531,True,18
108K22,163,experiment,41,↓,down,↓,1.264824700076133,True,18
108K22,164,experiment,48,←,left,←,1.3101193001493812,True,18
108K22,165,experiment,59,↓,down,↓,0.7068675998598337,True,18
108K22,166,experiment,16,↓,up,↑,1.276110599981621,False,18
108K22,167,experiment,54,↑,up,↑,0.5898453001864254,True,18
108K22,168,experiment,56,↑,up,↑,1.0568190000485629,True,18
108K22,169,experiment,26,→,right,→,0.8217428000643849,True,18
108K22,170,experiment,37,→,left,←,0.9881088000256568,False,18
108K22,171,experiment,24,↓,up,↑,0.860770900035277,False,18
108K22,172,experiment,42,←,left,←,0.48673930019140244,True,18
108K22,173,experiment,28,←,right,→,1.0568719001021236,False,18
108K22,174,experiment,58,→,right,→,0.5281919999979436,True,18
108K22,175,experiment,15,→,right,→,0.5134680999908596,True,18
108K22,176,experiment,17,↑,up,↑,0.5135421000886708,True,18
108K22,177,experiment,14,↑,down,↓,0.9321105999406427,False,18
108K22,178,experiment,49,↓,down,↓,0.5424026001710445,True,18
108K22,179,experiment,52,←,left,←,1.1660537000279874,True,18
108K22,180,experiment,21,↑,up,↑,0.5136094000190496,True,18
108K22,181,experiment,25,→,right,→,0.540713399881497,True,18
108K22,182,experiment,55,↑,up,↑,0.49053920013830066,True,18
108K22,183,experiment,44,↓,down,↓,0.7375068999826908,True,18
108K22,184,experiment,20,↓,down,↓,0.5828662998974323,True,18
108K22,185,experiment,57,←,left,←,0.7453607998322695,True,18
108K22,186,experiment,19,←,left,←,0.5594542999751866,True,18
108K22,187,experiment,27,→,right,→,0.48741799988783896,True,18
108K22,188,experiment,18,↑,up,↑,0.4726547999307513,True,18
108K22,189,experiment,33,→,right,→,0.4787516000214964,True,18
108K22,190,experiment,40,↑,up,↑,1.0250254001002759,True,18
108K22,191,training,54,←,left,←,1.40071459999308,True,18
108K22,192,training,32,↑,right,→,0.7314744999166578,False,18
108K22,193,experiment,49,↑,up,↑,0.5574870998971164,True,18
108K22,194,experiment,16,↑,right,→,1.3327669999562204,False,18
108K22,195,experiment,41,→,right,→,0.4686231000814587,True,18
108K22,196,experiment,29,←,left,←,1.1654298999346793,True,18
108K22,197,experiment,53,↓,down,↓,0.7554637000430375,True,18
108K22,198,experiment,48,↓,up,↑,1.0532877000514418,False,18
108K22,199,experiment,17,←,left,←,1.3360923000145704,True,18
108K22,200,experiment,35,→,right,→,0.5874880000483245,True,18
108K22,201,experiment,14,←,left,←,0.4000095999799669,True,18
108K22,202,experiment,45,↑,up,↑,0.9320501000620425,True,18
108K22,203,experiment,25,↑,up,↑,0.48606880009174347,True,18
108K22,204,experiment,24,←,left,←,0.4333838999737054,True,18
108K22,205,experiment,30,→,right,→,0.5010508999694139,True,18
108K22,206,experiment,15,↑,up,↑,0.4173669998999685,True,18
108K22,207,experiment,13,→,right,→,0.9487499999813735,True,18
108K22,208,experiment,33,→,right,→,0.640689300140366,True,18
108K22,209,experiment,44,→,right,→,0.5061232000589371,True,18
108K22,210,experiment,55,↑,up,↑,0.705422000028193,True,18
108K22,211,experiment,34,↑,left,←,0.3676271000877023,False,18
108K22,212,experiment,59,→,right,→,1.024019599892199,True,18
108K22,213,experiment,50,←,right,→,0.5820964998565614,False,18
108K22,214,experiment,37,↑,up,↑,1.3900121999904513,True,18
108K22,215,experiment,57,↑,up,↑,0.49662140011787415,True,18
108K22,216,experiment,60,↑,up,↑,0.38332100003026426,True,18
108K22,217,experiment,20,↓,down,↓,0.9040449999738485,True,18
108K22,218,experiment,38,→,right,→,0.5386913002002984,True,18
108K22,219,experiment,51,→,right,→,0.5234503000974655,True,18
108K22,220,experiment,56,←,right,→,0.76140660000965,False,18
108K22,221,experiment,31,↓,down,↓,0.6229771000798792,True,18
108K22,222,experiment,22,↓,up,↑,0.7515929001383483,False,18
108K22,223,experiment,36,→,right,→,1.2493481000419706,True,18
108K22,224,experiment,19,↓,down,↓,0.6666703999508172,True,18
108K22,225,experiment,46,→,right,→,0.4173808000050485,True,18
108K22,226,experiment,54,→,right,→,0.900009100092575,True,18
108K22,227,experiment,52,↓,down,↓,1.2292387001216412,True,18
108K22,228,experiment,23,→,right,→,0.5568706998601556,True,18
108K22,229,experiment,43,↑,up,↑,0.49807750014588237,True,18
108K22,230,experiment,39,↓,down,↓,0.9162965998984873,True,18
108K22,231,experiment,21,↑,right,→,1.6173278000205755,False,18
108K22,232,experiment,18,←,left,←,0.5326666000764817,True,18
108K22,233,experiment,28,←,right,→,1.5330140001606196,False,18
108K22,234,experiment,47,←,left,←,0.7120932000689209,True,18
108K22,235,experiment,40,→,right,→,0.5133789000101388,True,18
108K22,236,experiment,27,←,left,←,0.6831411998718977,True,18
108K22,237,experiment,32,↓,down,↓,1.1061038998886943,True,18
108K22,238,experiment,26,←,left,←,0.4928227998316288,True,18
108K22,239,experiment,42,←,left,←,0.5013991000596434,True,18
108K22,240,experiment,58,←,left,←,0.4986908999271691,True,18
108K22,241,training,20,→,no_key,no_letter,-1.0,False,18
108K22,242,training,56,↓,down,↓,0.7279233001172543,True,18
108K22,243,experiment,26,↓,down,↓,0.5932244001887739,True,18
108K22,244,experiment,49,↓,down,↓,0.5292572998441756,True,18
108K22,245,experiment,28,↑,up,↑,1.1374337999150157,True,18
108K22,246,experiment,48,↑,up,↑,0.7318396000191569,True,18
108K22,247,experiment,42,→,right,→,0.8185987998731434,True,18
108K22,248,experiment,60,←,up,↑,0.7539383999537677,False,18
108K22,249,experiment,56,←,left,←,0.5346887998748571,True,18
108K22,250,experiment,18,←,left,←,1.1574003999121487,True,18
108K22,251,experiment,52,↓,left,←,0.48503140010870993,False,18
108K22,252,experiment,53,↓,down,↓,0.902019300032407,True,18
108K22,253,experiment,14,←,left,←,0.6008916001301259,True,18
108K22,254,experiment,43,↑,up,↑,0.6919233999215066,True,18
108K22,255,experiment,24,→,up,↑,0.8488787999376655,False,18
108K22,256,experiment,47,↓,down,↓,0.7672292999923229,True,18
108K22,257,experiment,38,→,right,→,0.6152321000117809,True,18
108K22,258,experiment,36,↓,down,↓,0.8464623999316245,True,18
108K22,259,experiment,39,←,right,→,0.7625662998761982,False,18
108K22,260,experiment,41,↓,down,↓,0.9288903998676687,True,18
108K22,261,experiment,16,↑,up,↑,0.5212331002112478,True,18
108K22,262,experiment,45,↓,down,↓,0.8546537000220269,True,18
108K22,263,experiment,58,↑,up,↑,0.5579691999591887,True,18
108K22,264,experiment,54,↓,down,↓,0.49995780014432967,True,18
108K22,265,experiment,50,→,right,→,0.6386169998440892,True,18
108K22,266,experiment,15,←,right,→,0.8195518997963518,False,18
108K22,267,experiment,59,←,right,→,0.8193322999868542,False,18
108K22,268,experiment,51,→,right,→,0.5365788999479264,True,18
108K22,269,experiment,20,↓,down,↓,0.5499048000201583,True,18
108K22,270,experiment,23,↑,right,→,1.3446599999442697,False,18
108K22,271,experiment,31,←,right,→,0.8468494999688119,False,18
108K22,272,experiment,25,←,left,←,0.433804800035432,True,18
108K22,273,experiment,17,→,right,→,1.2632232999894768,True,18
108K22,274,experiment,57,→,right,→,0.5192145998589694,True,18
108K22,275,experiment,44,↓,down,↓,0.7975235001649708,True,18
108K22,276,experiment,55,↑,up,↑,0.5205941000021994,True,18
108K22,277,experiment,29,↑,down,↓,0.7606067999731749,False,18
108K22,278,experiment,40,←,left,←,1.351917800027877,True,18
108K22,279,experiment,33,↓,down,↓,1.052188899833709,True,18
108K22,280,experiment,27,→,up,↑,1.2400062000378966,False,18
108K22,281,experiment,46,↓,down,↓,0.8478176000062376,True,18
108K22,282,experiment,13,→,right,→,0.5574604000430554,True,18
108K22,283,experiment,22,↓,down,↓,0.736453999998048,True,18
108K22,284,experiment,21,↓,down,↓,0.7894687000662088,True,18
108K22,285,experiment,30,←,left,←,1.329783999826759,True,18
108K22,286,experiment,37,←,right,→,0.6366795999929309,False,18
108K22,287,experiment,34,↓,right,→,0.5085274998564273,False,18
108K22,288,experiment,32,←,up,↑,0.7070812999736518,False,18
108K22,289,experiment,35,←,right,→,0.8239917000755668,False,18
108K22,290,experiment,19,↑,up,↑,0.5145270000211895,True,18
108K22,291,training,30,↑,up,↑,0.49783620005473495,True,18
108K22,292,training,34,←,right,→,0.49548349995166063,False,18
108K22,293,experiment,55,→,right,→,0.48789949994534254,True,18
108K22,294,experiment,43,→,right,→,1.1031919999513775,True,18
108K22,295,experiment,30,↑,up,↑,0.5271433000452816,True,18
108K22,296,experiment,26,↑,up,↑,0.5216074001509696,True,18
108K22,297,experiment,15,→,right,→,0.5705499998293817,True,18
108K22,298,experiment,59,←,left,←,0.5006380998529494,True,18
108K22,299,experiment,29,→,right,→,0.5173046998679638,True,18
108K22,300,experiment,22,→,right,→,0.5218813999090344,True,18
108K22,301,experiment,60,↓,down,↓,0.9411754000466317,True,18
108K22,302,experiment,25,↓,down,↓,0.9274071999825537,True,18
108K22,303,experiment,37,↓,down,↓,0.6100746998563409,True,18
108K22,304,experiment,17,↑,right,→,1.4145442000590265,False,18
108K22,305,experiment,42,↓,down,↓,0.5699371001683176,True,18
108K22,306,experiment,20,→,right,→,1.0058261000085622,True,18
108K22,307,experiment,33,←,left,←,0.543773700017482,True,18
108K22,308,experiment,50,↓,down,↓,0.7692717001773417,True,18
108K22,309,experiment,38,←,right,→,0.6731386999599636,False,18
108K22,310,experiment,31,←,right,→,0.9460642000194639,False,18
108K22,311,experiment,58,↑,up,↑,0.49314039992168546,True,18
108K22,312,experiment,53,↓,right,→,0.6065455998759717,False,18
108K22,313,experiment,19,→,right,→,0.577803400112316,True,18
108K22,314,experiment,28,↑,up,↑,0.43396499985828996,True,18
108K22,315,experiment,56,→,right,→,0.6814417000859976,True,18
108K22,316,experiment,44,↓,down,↓,0.6808071997947991,True,18
108K22,317,experiment,34,↓,down,↓,0.6064500000793487,True,18
108K22,318,experiment,18,←,left,←,0.5145614000502974,True,18
108K22,319,experiment,23,←,left,←,1.4384963000193238,True,18
108K22,320,experiment,39,←,right,→,0.5073562001343817,False,18
108K22,321,experiment,40,←,left,←,0.4173216000199318,True,18
108K22,322,experiment,21,←,left,←,1.1650404001120478,True,18
108K22,323,experiment,46,←,right,→,0.9997318000532687,False,18
108K22,324,experiment,57,↓,down,↓,0.6498281999956816,True,18
108K22,325,experiment,49,←,down,↓,0.2716459999792278,False,18
108K22,326,experiment,32,↑,down,↓,0.8936674001161009,False,18
108K22,327,experiment,35,↑,up,↑,0.5629860998596996,True,18
108K22,328,experiment,48,→,right,→,0.740659800125286,True,18
108K22,329,experiment,47,→,right,→,0.7601181999780238,True,18
108K22,330,experiment,27,↑,right,→,1.3846821000333875,False,18
108K22,331,experiment,54,→,right,→,1.0283500999212265,True,18
108K22,332,experiment,16,←,right,→,0.9050457000266761,False,18
108K22,333,experiment,52,↓,down,↓,0.8503811999689788,True,18
108K22,334,experiment,13,↑,no_key,no_letter,-1.0,False,18
108K22,335,experiment,45,↑,up,↑,0.7312549999915063,True,18
108K22,336,experiment,24,→,right,→,0.40088830003514886,True,18
108K22,337,experiment,14,↑,left,←,0.5722123000305146,False,18
108K22,338,experiment,41,↑,right,→,0.5616624001413584,False,18
108K22,339,experiment,36,←,right,→,0.5641316999681294,False,18
108K22,340,experiment,51,←,left,←,0.8917576000094414,True,18
108K22,341,training,39,←,left,←,0.6023627000395209,True,18
108K22,342,training,38,←,left,←,0.5530499001033604,True,18
108K22,343,experiment,40,↑,left,←,0.5607622000388801,False,18
108K22,344,experiment,60,→,right,→,0.6904504001140594,True,18
108K22,345,experiment,36,↓,down,↓,0.5832783000078052,True,18
108K22,346,experiment,26,↑,up,↑,0.9504627999849617,True,18
108K22,347,experiment,16,↑,up,↑,0.6699752998538315,True,18
108K22,348,experiment,46,↓,right,→,0.908580900169909,False,18
108K22,349,experiment,48,→,up,↑,0.77639070013538,False,18
108K22,350,experiment,15,↑,up,↑,0.519776500063017,True,18
108K22,351,experiment,59,→,right,→,0.5557021999265999,True,18
108K22,352,experiment,50,↑,up,↑,1.4045645999722183,True,18
108K22,353,experiment,58,←,right,→,0.7976952998433262,False,18
108K22,354,experiment,49,↓,down,↓,0.8853694000281394,True,18
108K22,355,experiment,29,↓,down,↓,0.6943469000980258,True,18
108K22,356,experiment,55,↑,up,↑,0.9904463000129908,True,18
108K22,357,experiment,42,↓,down,↓,0.515019099926576,True,18
108K22,358,experiment,17,↑,up,↑,0.546911499928683,True,18
108K22,359,experiment,56,←,left,←,0.4956452001351863,True,18
108K22,360,experiment,52,↑,up,↑,0.5696547999978065,True,18
108K22,361,experiment,33,↓,right,→,1.0532521998975426,False,18
108K22,362,experiment,30,←,right,→,0.8069892001803964,False,18
108K22,363,experiment,43,→,right,→,0.6105080000124872,True,18
108K22,364,experiment,18,↑,up,↑,0.7025301000103354,True,18
108K22,365,experiment,54,←,right,→,0.7345129000023007,False,18
108K22,366,experiment,20,↓,right,→,0.675624500028789,False,18
108K22,367,experiment,25,↓,right,→,0.8082510998938233,False,18
108K22,368,experiment,37,→,right,→,0.6476229000836611,True,18
108K22,369,experiment,51,→,right,→,1.435774700017646,True,18
108K22,370,experiment,44,→,right,→,0.5090483999811113,True,18
108K22,371,experiment,22,→,left,←,0.8583078999072313,False,18
108K22,372,experiment,31,↑,up,↑,0.515610900009051,True,18
108K22,373,experiment,24,↑,up,↑,1.2549513999838382,True,18
108K22,374,experiment,53,↑,up,↑,0.4339252000208944,True,18
108K22,375,experiment,39,→,right,→,0.8696061000227928,True,18
108K22,376,experiment,28,↑,up,↑,0.6962607998866588,True,18
108K22,377,experiment,34,↑,up,↑,0.49432700010947883,True,18
108K22,378,experiment,27,↑,down,↓,1.0818074000999331,False,18
108K22,379,experiment,14,→,up,↑,0.9567945001181215,False,18
108K22,380,experiment,57,→,right,→,0.9365169999655336,True,18
108K22,381,experiment,32,↓,right,→,0.7097010998986661,False,18
108K22,382,experiment,47,↑,up,↑,1.2103748000226915,True,18
108K22,383,experiment,38,←,left,←,1.3609754000790417,True,18
108K22,384,experiment,21,→,right,→,0.5249193999916315,True,18
108K22,385,experiment,19,↑,up,↑,0.9316551999654621,True,18
108K22,386,experiment,13,←,left,←,0.43385819997638464,True,18
108K22,387,experiment,41,↑,up,↑,0.4333531998563558,True,18
108K22,388,experiment,23,←,left,←,0.5912482000421733,True,18
108K22,389,experiment,35,↑,up,↑,0.48826969997026026,True,18
108K22,390,experiment,45,→,right,→,0.6150136000942439,True,18
108K22,391,training,43,→,right,→,0.7043037998955697,True,18
108K22,392,training,21,→,right,→,0.7182231999468058,True,18
108K22,393,experiment,59,←,left,←,0.49823979986831546,True,18
108K22,394,experiment,40,←,right,→,0.5876195000018924,False,18
108K22,395,experiment,50,←,left,←,0.41730400011874735,True,18
108K22,396,experiment,32,→,right,→,0.5722805999685079,True,18
108K22,397,experiment,23,←,up,↑,0.534286699956283,False,18
108K22,398,experiment,38,↑,right,→,0.5995267999824136,False,18
108K22,399,experiment,24,↓,down,↓,0.6395907001569867,True,18
108K22,400,experiment,15,↑,up,↑,0.6042936998419464,True,18
108K22,401,experiment,17,→,left,←,0.3998951001558453,False,18
108K22,402,experiment,57,↑,up,↑,0.6021676999516785,True,18
108K22,403,experiment,37,←,down,↓,1.8335541998967528,False,18
108K22,404,experiment,18,↑,up,↑,0.5003495998680592,True,18
108K22,405,experiment,60,↓,left,←,0.43377689993940294,False,18
108K22,406,experiment,51,←,down,↓,1.3801778999622911,False,18
108K22,407,experiment,22,→,right,→,0.5423060001339763,True,18
108K22,408,experiment,47,→,up,↑,1.2095134002156556,False,18
108K22,409,experiment,53,↓,down,↓,0.8062064000405371,True,18
108K22,410,experiment,43,→,down,↓,0.7775858000386506,False,18
108K22,411,experiment,45,↓,up,↑,0.9254930999595672,False,18
108K22,412,experiment,44,↑,up,↑,0.5708939998876303,True,18
108K22,413,experiment,48,←,left,←,0.5642400998622179,True,18
108K22,414,experiment,25,↓,down,↓,0.6531274002045393,True,18
108K22,415,experiment,16,→,right,→,0.5603858001995832,True,18
108K22,416,experiment,56,→,right,→,0.5812605998944491,True,18
108K22,417,experiment,54,←,left,←,0.7215177998878062,True,18
108K22,418,experiment,33,↓,down,↓,0.7748358999378979,True,18
108K22,419,experiment,13,←,left,←,0.7434811000712216,True,18
108K22,420,experiment,29,↑,down,↓,0.9431514998432249,False,18
108K22,421,experiment,31,←,left,←,0.5971463997848332,True,18
108K22,422,experiment,41,↓,down,↓,1.105538300005719,True,18
108K22,423,experiment,30,←,right,→,0.513445199932903,False,18
108K22,424,experiment,46,←,right,→,0.6148033998906612,False,18
108K22,425,experiment,55,→,left,←,0.52157670003362,False,18
108K22,426,experiment,42,←,left,←,0.5848220000043511,True,18
108K22,427,experiment,20,↑,left,←,0.5002505001612008,False,18
108K22,428,experiment,34,↓,down,↓,1.3854996000882238,True,18
108K22,429,experiment,26,←,right,→,0.5608048001304269,False,18
108K22,430,experiment,58,→,left,←,0.7161832998972386,False,18
108K22,431,experiment,36,↑,down,↓,0.9274711001198739,False,18
108K22,432,experiment,21,←,right,→,0.7008614998776466,False,18
108K22,433,experiment,28,↓,down,↓,0.7181505002081394,True,18
108K22,434,experiment,52,↑,down,↓,0.6067101999651641,False,18
108K22,435,experiment,49,↑,up,↑,0.8462306000292301,True,18
108K22,436,experiment,14,↓,down,↓,0.6507673000451177,True,18
108K22,437,experiment,27,→,right,→,0.4952169000171125,True,18
108K22,438,experiment,19,←,left,←,0.766770799877122,True,18
108K22,439,experiment,39,→,up,↑,0.8700918999966234,False,18
108K22,440,experiment,35,↓,down,↓,1.6441790000535548,True,18
108K22,441,training,15,↓,down,↓,0.6588278999552131,True,19
108K22,442,training,43,↑,up,↑,0.7721196999773383,True,19
108K22,443,experiment,37,↓,down,↓,0.8448983998969197,True,19
108K22,444,experiment,25,↑,up,↑,0.7068992001004517,True,19
108K22,445,experiment,34,→,right,→,0.728083899943158,True,19
108K22,446,experiment,35,↑,up,↑,0.7483587998431176,True,19
108K22,447,experiment,52,→,right,→,0.5636829999275506,True,19
108K22,448,experiment,56,↑,up,↑,0.6876673998776823,True,19
108K22,449,experiment,51,↓,down,↓,0.7944022999145091,True,19
108K22,450,experiment,14,←,left,←,0.49737809994257987,True,19
108K22,451,experiment,32,←,left,←,0.7200474999845028,True,19
108K22,452,experiment,13,←,right,→,0.8507634999696165,False,19
108K22,453,experiment,26,←,left,←,0.7353916000574827,True,19
108K22,454,experiment,50,→,right,→,0.6089451001025736,True,19
108K22,455,experiment,55,→,left,←,0.8281324999406934,False,19
108K22,456,experiment,18,→,right,→,0.7276719000656158,True,19
108K22,457,experiment,49,→,right,→,0.5860274999868125,True,19
108K22,458,experiment,40,↑,up,↑,0.560172300087288,True,19
108K22,459,experiment,43,↑,up,↑,0.8694980998989195,True,19
108K22,460,experiment,47,→,left,←,0.28357130009680986,False,19
108K22,461,experiment,38,↓,down,↓,0.7093858998268843,True,19
108K22,462,experiment,53,→,right,→,0.6621677000075579,True,19
108K22,463,experiment,23,↑,up,↑,0.8848814000375569,True,19
108K22,464,experiment,59,←,left,←,0.8501885000150651,True,19
108K22,465,experiment,15,↑,up,↑,0.8220750000327826,True,19
108K22,466,experiment,20,→,left,←,0.45048430003225803,False,19
108K22,467,experiment,30,←,left,←,0.6493414998985827,True,19
108K22,468,experiment,39,↑,up,↑,0.6614141999743879,True,19
108K22,469,experiment,46,←,left,←,0.8686949000693858,True,19
108K22,470,experiment,29,↑,up,↑,0.6148064997978508,True,19
108K22,471,experiment,28,↑,up,↑,0.6355968001298606,True,19
108K22,472,experiment,60,↑,up,↑,0.6822335000615567,True,19
108K22,473,experiment,16,←,left,←,0.7081293000373989,True,19
108K22,474,experiment,41,←,left,←,0.7007230999879539,True,19
108K22,475,experiment,44,←,left,←,0.6834041001275182,True,19
108K22,476,experiment,24,↑,up,↑,0.7202540999278426,True,19
108K22,477,experiment,54,→,left,←,0.9281274999957532,False,19
108K22,478,experiment,42,↑,up,↑,0.5507894998881966,True,19
108K22,479,experiment,57,→,right,→,0.6588139999657869,True,19
108K22,480,experiment,31,→,no_key,no_letter,-1.0,False,19
108K22,481,experiment,45,→,right,→,0.8309794999659061,True,19
108K22,482,experiment,22,←,left,←,0.5748668001033366,True,19
108K22,483,experiment,33,↓,down,↓,0.7620434002019465,True,19
108K22,484,experiment,21,→,right,→,0.6860630998853594,True,19
108K22,485,experiment,58,↑,up,↑,0.6282619999255985,True,19
108K22,486,experiment,19,↓,down,↓,0.8221271000802517,True,19
108K22,487,experiment,36,↑,up,↑,0.6780100001487881,True,19
108K22,488,experiment,48,↑,up,↑,1.9232946999836713,True,19
108K22,489,experiment,27,←,right,→,0.7969517998863012,False,19
108K22,490,experiment,17,↓,down,↓,0.7613272999878973,True,19
108K22,491,training,54,↓,down,↓,0.687387099955231,True,19
108K22,492,training,16,↓,down,↓,0.5213109999895096,True,19
108K22,493,experiment,27,→,right,→,0.5389062000904232,True,19
108K22,494,experiment,39,←,left,←,0.5553677000571042,True,19
108K22,495,experiment,21,↓,down,↓,0.5753005999140441,True,19
108K22,496,experiment,42,→,right,→,0.6126733000855893,True,19
108K22,497,experiment,22,↑,up,↑,0.6613294999115169,True,19
108K22,498,experiment,25,↓,down,↓,0.5866918000392616,True,19
108K22,499,experiment,38,→,right,→,0.5699400999583304,True,19
108K22,500,experiment,56,←,left,←,0.9179493999108672,True,19
108K22,501,experiment,15,↑,up,↑,0.6876020999625325,True,19
108K22,502,experiment,44,←,left,←,0.5829184998292476,True,19
108K22,503,experiment,50,→,right,→,0.5660542999394238,True,19
108K22,504,experiment,26,←,right,→,0.5419547001365572,False,19
108K22,505,experiment,24,↑,up,↑,0.6166460998356342,True,19
108K22,506,experiment,47,↓,down,↓,0.8566004000604153,True,19
108K22,507,experiment,46,→,right,→,0.7519933001603931,True,19
108K22,508,experiment,54,↓,down,↓,0.7662325000856072,True,19
108K22,509,experiment,60,←,left,←,0.7594222000334412,True,19
108K22,510,experiment,43,↑,up,↑,0.8365563000552356,True,19
108K22,511,experiment,17,→,right,→,0.5359354000538588,True,19
108K22,512,experiment,33,→,right,→,0.7726962000597268,True,19
108K22,513,experiment,57,→,right,→,0.7358448000159115,True,19
108K22,514,experiment,49,→,right,→,0.8339915999677032,True,19
108K22,515,experiment,53,↑,up,↑,0.7573142000474036,True,19
108K22,516,experiment,36,↑,up,↑,0.7592935999855399,True,19
108K22,517,experiment,29,→,right,→,0.62187509983778,True,19
108K22,518,experiment,34,→,right,→,0.854764899937436,True,19
108K22,519,experiment,20,↓,down,↓,0.6153194999787956,True,19
108K22,520,experiment,52,←,right,→,0.8359440001659095,False,19
108K22,521,experiment,59,←,left,←,0.6675251999404281,True,19
108K22,522,experiment,41,↑,up,↑,0.573292399989441,True,19
108K22,523,experiment,55,↑,up,↑,0.5619542000349611,True,19
108K22,524,experiment,48,←,left,←,0.6279827000107616,True,19
108K22,525,experiment,32,→,right,→,0.7899493998847902,True,19
108K22,526,experiment,37,→,right,→,0.6219365000724792,True,19
108K22,527,experiment,35,←,left,←,0.7578288000077009,True,19
108K22,528,experiment,23,↓,down,↓,0.9131926000118256,True,19
108K22,529,experiment,30,→,right,→,0.6318865001667291,True,19
108K22,530,experiment,16,→,right,→,0.5719628999941051,True,19
108K22,531,experiment,51,→,left,←,1.1872026999481022,False,19
108K22,532,experiment,45,←,left,←,0.5578980999998748,True,19
108K22,533,experiment,31,↓,down,↓,0.6352731001097709,True,19
108K22,534,experiment,18,↑,up,↑,0.5338836000300944,True,19
108K22,535,experiment,13,↓,right,→,0.8879207998979837,False,19
108K22,536,experiment,40,↑,up,↑,0.5138352999929339,True,19
108K22,537,experiment,14,→,right,→,0.771877400111407,True,19
108K22,538,experiment,58,↓,down,↓,0.7188093001022935,True,19
108K22,539,experiment,19,↑,down,↓,0.845359800150618,False,19
108K22,540,experiment,28,↑,up,↑,0.6092300000600517,True,19
108K22,541,training,33,←,left,←,0.6439399998635054,True,19
108K22,542,training,25,↓,down,↓,0.737908799899742,True,19
108K22,543,experiment,55,→,right,→,0.5999759999103844,True,19
108K22,544,experiment,15,↓,down,↓,0.54997400008142,True,19
108K22,545,experiment,20,↑,up,↑,0.5865073001477867,True,19
108K22,546,experiment,27,↓,down,↓,0.4335446001496166,True,19
108K22,547,experiment,40,↑,up,↑,0.5005853998009115,True,19
108K22,548,experiment,29,←,left,←,0.613167499890551,True,19
108K22,549,experiment,46,←,left,←,1.4705515999812633,True,19
108K22,550,experiment,56,→,left,←,0.6305368000175804,False,19
108K22,551,experiment,16,→,right,→,1.5866855999920517,True,19
108K22,552,experiment,58,→,right,→,0.80457210005261,True,19
108K22,553,experiment,38,←,left,←,0.6271558001171798,True,19
108K22,554,experiment,39,↓,down,↓,0.7445515000727028,True,19
108K22,555,experiment,24,↓,down,↓,0.7632357999682426,True,19
108K22,556,experiment,36,↓,down,↓,0.8134841001592577,True,19
108K22,557,experiment,19,↓,down,↓,0.6645678000058979,True,19
108K22,558,experiment,18,↓,down,↓,0.6019180000294,True,19
108K22,559,experiment,25,→,right,→,0.7531251998152584,True,19
108K22,560,experiment,51,←,left,←,0.5532309000845999,True,19
108K22,561,experiment,43,↑,down,↓,0.6944432999007404,False,19
108K22,562,experiment,44,↑,down,↓,0.7179770001675934,False,19
108K22,563,experiment,28,↓,down,↓,0.7425086000002921,True,19
108K22,564,experiment,47,←,left,←,0.5378527999855578,True,19
108K22,565,experiment,41,←,left,←,0.5771363999228925,True,19
108K22,566,experiment,21,↓,down,↓,0.7484297000337392,True,19
108K22,567,experiment,60,→,right,→,0.8464844999834895,True,19
108K22,568,experiment,26,←,left,←,0.7151054998394102,True,19
108K22,569,experiment,52,↓,down,↓,0.667822299990803,True,19
108K22,570,experiment,50,↑,up,↑,0.5278652999550104,True,19
108K22,571,experiment,14,↑,up,↑,0.7298355000093579,True,19
108K22,572,experiment,22,↓,down,↓,0.7020188001915812,True,19
108K22,573,experiment,45,↑,down,↓,1.5957521998789161,False,19
108K22,574,experiment,17,→,right,→,0.8252015002071857,True,19
108K22,575,experiment,35,↑,up,↑,0.6570723000913858,True,19
108K22,576,experiment,48,↑,up,↑,0.6552005999255925,True,19
108K22,577,experiment,30,→,right,→,1.1133387999143451,True,19
108K22,578,experiment,23,↓,down,↓,0.5572012001648545,True,19
108K22,579,experiment,32,→,right,→,0.6337307998910546,True,19
108K22,580,experiment,54,←,left,←,0.5965017999988049,True,19
108K22,581,experiment,34,↓,down,↓,0.6465267001185566,True,19
108K22,582,experiment,37,↓,right,→,0.9560352000407875,False,19
108K22,583,experiment,33,→,right,→,0.7280824999324977,True,19
108K22,584,experiment,57,↓,down,↓,0.6530631000641733,True,19
108K22,585,experiment,53,→,right,→,0.7117590999696404,True,19
108K22,586,experiment,59,↓,right,→,0.7483982001431286,False,19
108K22,587,experiment,31,→,right,→,1.6017751002218574,True,19
108K22,588,experiment,13,↓,down,↓,0.7531145999673754,True,19
108K22,589,experiment,42,↓,down,↓,0.6950658999849111,True,19
108K22,590,experiment,49,↓,down,↓,0.6910031998995692,True,19
