PART_ID,Trial_no,Trial_type,CSI,Stim_letter,Key_pressed,letter_choose,Rt,Corr,Stimulus Time
119K22,1,training,60,↑,up,↑,0.8523778000380844,True,30
119K22,2,training,60,←,right,→,1.1636632999870926,False,30
119K22,3,training,60,→,right,→,0.5670926999300718,True,30
119K22,4,training,60,←,left,←,0.6718355999328196,True,30
119K22,5,training,60,↓,down,↓,0.7493431000038981,True,30
119K22,6,training,60,↑,right,→,0.5503666999284178,False,30
119K22,7,training,60,→,right,→,0.5505166999064386,True,30
119K22,8,training,60,↓,down,↓,0.6926166999619454,True,30
119K22,9,training,60,←,right,→,0.5337193999439478,False,30
119K22,10,training,60,↓,down,↓,0.9403027000371367,True,30
119K22,11,training,60,↑,up,↑,0.6728722001425922,True,30
119K22,12,training,60,↓,down,↓,0.917610100004822,True,30
119K22,13,training,60,↑,up,↑,0.8175770998932421,True,30
119K22,14,training,60,↓,down,↓,0.7943170999642462,True,30
119K22,15,training,60,↑,up,↑,1.2354623000137508,True,30
119K22,16,training,60,↓,down,↓,0.8517364000435919,True,30
119K22,17,training,60,↓,up,↑,1.0184134000446647,False,30
119K22,18,training,60,←,left,←,2.010666700080037,True,30
119K22,19,training,60,↑,up,↑,1.7156304998788983,True,30
119K22,20,training,60,→,right,→,1.6646789000369608,True,30
119K22,21,training,60,↓,down,↓,1.4162956001237035,True,18
119K22,22,training,60,→,left,←,1.08092759991996,False,18
119K22,23,training,60,←,right,→,1.0787295000627637,False,18
119K22,24,training,60,↓,down,↓,0.8684445000253618,True,18
119K22,25,training,60,↓,up,↑,1.2269554000813514,False,18
119K22,26,training,60,←,left,←,0.6908750999718904,True,18
119K22,27,training,60,↑,up,↑,0.98444619984366,True,18
119K22,28,training,60,→,right,→,0.7302476998884231,True,18
119K22,29,training,60,↑,up,↑,0.75784289999865,True,18
119K22,30,training,60,↓,down,↓,0.9687306999694556,True,18
119K22,31,training,60,←,left,←,0.5071922999341041,True,18
119K22,32,training,60,↓,down,↓,0.9761139999609441,True,18
119K22,33,training,60,↓,down,↓,0.8095696000382304,True,18
119K22,34,training,60,↑,up,↑,0.8179293998982757,True,18
119K22,35,training,60,←,left,←,0.6343230998609215,True,18
119K22,36,training,60,→,right,→,0.8338581998832524,True,18
119K22,37,training,60,←,left,←,1.2656811000779271,True,18
119K22,38,training,60,→,right,→,0.8243023999966681,True,18
119K22,39,training,60,↓,up,↑,1.2246463999617845,False,18
119K22,40,training,60,→,left,←,1.0729752001352608,False,18
119K22,41,training,36,←,left,←,0.8076331000775099,True,18
119K22,42,training,41,↓,down,↓,0.6611563002225012,True,18
119K22,43,experiment,43,→,left,←,0.8478068001568317,False,18
119K22,44,experiment,15,←,right,→,0.9081903998740017,False,18
119K22,45,experiment,24,→,left,←,0.9540369000751525,False,18
119K22,46,experiment,56,↓,up,↑,0.6390249999240041,False,18
119K22,47,experiment,54,↓,down,↓,0.7548025997821242,True,18
119K22,48,experiment,28,↓,up,↑,0.7949827997945249,False,18
119K22,49,experiment,59,↑,right,→,0.8937728998716921,False,18
119K22,50,experiment,33,←,left,←,0.6771021001040936,True,18
119K22,51,experiment,13,←,left,←,0.7785274998750538,True,18
119K22,52,experiment,30,↑,up,↑,0.6889355999883264,True,18
119K22,53,experiment,40,↑,up,↑,0.6915731001645327,True,18
119K22,54,experiment,53,←,left,←,0.7260220998432487,True,18
119K22,55,experiment,26,↓,down,↓,0.8250328002031893,True,18
119K22,56,experiment,17,←,right,→,0.8138252999633551,False,18
119K22,57,experiment,44,↓,up,↑,0.8408234000671655,False,18
119K22,58,experiment,58,←,left,←,1.0662601999938488,True,18
119K22,59,experiment,20,↑,up,↑,1.7632275000214577,True,18
119K22,60,experiment,27,→,left,←,1.2676403000950813,False,18
119K22,61,experiment,32,→,right,→,1.0367794998455793,True,18
119K22,62,experiment,21,→,right,→,1.2304360999260098,True,18
119K22,63,experiment,25,↓,down,↓,1.3336558998562396,True,18
119K22,64,experiment,14,↓,up,↑,1.6480363998562098,False,18
119K22,65,experiment,36,↓,down,↓,0.9192736998666078,True,18
119K22,66,experiment,57,↑,up,↑,1.3019523001275957,True,18
119K22,67,experiment,22,↓,down,↓,1.7963326999451965,True,18
119K22,68,experiment,41,←,left,←,1.146568699972704,True,18
119K22,69,experiment,35,↑,left,←,1.6865437000524253,False,18
119K22,70,experiment,31,→,left,←,1.1836656001396477,False,18
119K22,71,experiment,18,↓,down,↓,1.9334778001066297,True,18
119K22,72,experiment,50,↑,down,↓,1.5682830999139696,False,18
119K22,73,experiment,19,←,left,←,1.1022362001240253,True,18
119K22,74,experiment,48,↑,up,↑,0.8673455000389367,True,18
119K22,75,experiment,47,↑,up,↑,0.8664464000612497,True,18
119K22,76,experiment,37,↓,down,↓,1.2722498998045921,True,18
119K22,77,experiment,45,↑,up,↑,0.744658499956131,True,18
119K22,78,experiment,46,↑,up,↑,0.6939490998629481,True,18
119K22,79,experiment,39,↓,down,↓,1.0573572998400778,True,18
119K22,80,experiment,16,↑,up,↑,0.7655916998628527,True,18
119K22,81,experiment,49,←,left,←,0.6874257000163198,True,18
119K22,82,experiment,29,→,right,→,1.0976979001425207,True,18
119K22,83,experiment,38,→,right,→,1.5735214001033455,True,18
119K22,84,experiment,51,↑,up,↑,1.5423220999073237,True,18
119K22,85,experiment,52,↓,down,↓,0.8719210000708699,True,18
119K22,86,experiment,60,←,right,→,0.9024376000743359,False,18
119K22,87,experiment,55,↑,up,↑,0.878675599815324,True,18
119K22,88,experiment,23,←,down,↓,1.2538530000019819,False,18
119K22,89,experiment,34,↓,up,↑,1.0142345000058413,False,18
119K22,90,experiment,42,↑,right,→,1.5385798001661897,False,18
119K22,91,training,26,↑,up,↑,1.0119141000322998,True,18
119K22,92,training,54,↓,down,↓,1.056948299985379,True,18
119K22,93,experiment,39,→,right,→,1.1822747001424432,True,18
119K22,94,experiment,47,←,left,←,0.8166058000642806,True,18
119K22,95,experiment,15,→,left,←,1.1746835000813007,False,18
119K22,96,experiment,51,←,left,←,0.615428099874407,True,18
119K22,97,experiment,53,↑,up,↑,0.644285999936983,True,18
119K22,98,experiment,27,←,left,←,1.6099149000365287,True,18
119K22,99,experiment,45,↓,down,↓,1.4851930998265743,True,18
119K22,100,experiment,37,↑,up,↑,1.0988555999938399,True,18
119K22,101,experiment,50,→,left,←,0.7827266999520361,False,18
119K22,102,experiment,36,↑,up,↑,1.6322988998144865,True,18
119K22,103,experiment,13,↓,down,↓,1.9274424999020994,True,18
119K22,104,experiment,19,↓,down,↓,1.375425900099799,True,18
119K22,105,experiment,41,↓,down,↓,0.8389723000582308,True,18
119K22,106,experiment,54,→,left,←,1.0503723002038896,False,18
119K22,107,experiment,49,↑,up,↑,0.9290157998912036,True,18
119K22,108,experiment,42,←,no_key,no_letter,-1.0,False,18
119K22,109,experiment,40,←,left,←,0.8970546999480575,True,18
119K22,110,experiment,38,↑,up,↑,1.1245933999307454,True,18
119K22,111,experiment,28,→,no_key,no_letter,-1.0,False,18
119K22,112,experiment,14,←,left,←,1.3757670000195503,True,18
119K22,113,experiment,52,↓,no_key,no_letter,-1.0,False,18
119K22,114,experiment,46,↓,down,↓,0.988275800133124,True,18
119K22,115,experiment,44,→,left,←,0.5527057000435889,False,18
119K22,116,experiment,58,↓,up,↑,1.837204199982807,False,18
119K22,117,experiment,60,←,left,←,0.701181799871847,True,18
119K22,118,experiment,16,→,right,→,0.9434557999484241,True,18
119K22,119,experiment,24,↑,up,↑,0.7230326998978853,True,18
119K22,120,experiment,43,→,left,←,0.8746332998853177,False,18
119K22,121,experiment,32,↓,down,↓,0.7076999000273645,True,18
119K22,122,experiment,22,↓,down,↓,1.4659049999900162,True,18
119K22,123,experiment,17,←,right,→,0.7968077999539673,False,18
119K22,124,experiment,20,↓,down,↓,0.6166598999407142,True,18
119K22,125,experiment,18,↑,down,↓,1.9405607997905463,False,18
119K22,126,experiment,21,←,left,←,0.7148060000035912,True,18
119K22,127,experiment,35,←,right,→,0.8553363000974059,False,18
119K22,128,experiment,33,←,left,←,1.256373800104484,True,18
119K22,129,experiment,34,→,right,→,0.9691172000020742,True,18
119K22,130,experiment,29,↑,up,↑,1.4718760999385267,True,18
119K22,131,experiment,26,→,right,→,0.9253110000863671,True,18
119K22,132,experiment,31,→,right,→,0.7010156998876482,True,18
119K22,133,experiment,30,→,right,→,0.7095852000638843,True,18
119K22,134,experiment,59,↓,down,↓,0.5796979998704046,True,18
119K22,135,experiment,23,↓,down,↓,1.0943829999305308,True,18
119K22,136,experiment,55,↑,up,↑,1.2636498999781907,True,18
119K22,137,experiment,56,↓,down,↓,0.792766299797222,True,18
119K22,138,experiment,57,→,right,→,0.6367345000617206,True,18
119K22,139,experiment,48,←,right,→,1.1003410001285374,False,18
119K22,140,experiment,25,→,right,→,0.7687539998441935,True,18
119K22,141,training,22,↓,up,↑,0.7220805000979453,False,18
119K22,142,training,39,→,right,→,0.7404356000479311,True,18
119K22,143,experiment,44,↓,down,↓,1.0185600998811424,True,18
119K22,144,experiment,25,→,right,→,0.9622071001213044,True,18
119K22,145,experiment,27,←,up,↑,1.6911195002030581,False,18
119K22,146,experiment,35,→,right,→,1.1462550999131054,True,18
119K22,147,experiment,18,→,down,↓,1.7300056000240147,False,18
119K22,148,experiment,57,→,no_key,no_letter,-1.0,False,18
119K22,149,experiment,38,←,left,←,0.8180405001621693,True,18
119K22,150,experiment,24,→,right,→,0.9304509998764843,True,18
119K22,151,experiment,28,←,left,←,0.6994564000051469,True,18
119K22,152,experiment,49,↑,up,↑,0.7918926998972893,True,18
119K22,153,experiment,13,↑,up,↑,0.9768425000365824,True,18
119K22,154,experiment,46,↑,up,↑,0.7241850001737475,True,18
119K22,155,experiment,34,↓,down,↓,0.9139841999858618,True,18
119K22,156,experiment,52,↑,up,↑,0.8675841998774558,True,18
119K22,157,experiment,43,←,left,←,1.0933083998970687,True,18
119K22,158,experiment,17,↑,up,↑,1.3516543000005186,True,18
119K22,159,experiment,26,↓,down,↓,1.0815115000586957,True,18
119K22,160,experiment,37,↓,down,↓,0.9028513999655843,True,18
119K22,161,experiment,39,↓,down,↓,0.9378161001950502,True,18
119K22,162,experiment,15,↑,up,↑,0.7950719001237303,True,18
119K22,163,experiment,42,→,right,→,0.7127485000528395,True,18
119K22,164,experiment,16,↑,left,←,0.5544823000673205,False,18
119K22,165,experiment,29,→,right,→,0.8016551998443902,True,18
119K22,166,experiment,30,↑,up,↑,0.6628982000984251,True,18
119K22,167,experiment,22,↑,no_key,no_letter,-1.0,False,18
119K22,168,experiment,41,↓,down,↓,0.7825138000771403,True,18
119K22,169,experiment,19,↓,right,→,1.4513975998852402,False,18
119K22,170,experiment,21,←,left,←,0.5004046999383718,True,18
119K22,171,experiment,20,←,left,←,0.7319350000470877,True,18
119K22,172,experiment,59,→,left,←,0.5282675998751074,False,18
119K22,173,experiment,55,↓,up,↑,1.5919345999136567,False,18
119K22,174,experiment,14,↓,down,↓,0.7603104000445455,True,18
119K22,175,experiment,23,←,left,←,0.692118400009349,True,18
119K22,176,experiment,51,→,right,→,0.6318065000232309,True,18
119K22,177,experiment,54,↓,down,↓,0.6754627998452634,True,18
119K22,178,experiment,50,→,right,→,0.5605258999858052,True,18
119K22,179,experiment,40,↓,up,↑,1.2484470999334008,False,18
119K22,180,experiment,47,↓,down,↓,0.640345900086686,True,18
119K22,181,experiment,48,←,left,←,0.5762213999405503,True,18
119K22,182,experiment,53,↓,down,↓,0.7433683001436293,True,18
119K22,183,experiment,58,↑,up,↑,1.1323655000887811,True,18
119K22,184,experiment,56,↓,down,↓,0.6107679000124335,True,18
119K22,185,experiment,32,→,right,→,0.6143002999015152,True,18
119K22,186,experiment,33,←,left,←,0.8406757998745888,True,18
119K22,187,experiment,36,↓,down,↓,0.6481538000516593,True,18
119K22,188,experiment,31,↓,down,↓,0.986252199858427,True,18
119K22,189,experiment,60,←,left,←,0.908454499905929,True,18
119K22,190,experiment,45,→,right,→,0.5316186998970807,True,18
119K22,191,training,37,↓,down,↓,0.8095894998405129,True,18
119K22,192,training,57,→,right,→,0.6449162000790238,True,18
119K22,193,experiment,55,←,right,→,1.1276752001140267,False,18
119K22,194,experiment,21,↓,down,↓,1.7659817000385374,True,18
119K22,195,experiment,17,↑,up,↑,0.9495741000864655,True,18
119K22,196,experiment,31,↑,up,↑,0.8038020001258701,True,18
119K22,197,experiment,42,↓,down,↓,0.7688462999649346,True,18
119K22,198,experiment,47,→,right,→,0.6282556001096964,True,18
119K22,199,experiment,39,↓,down,↓,0.7059176999609917,True,18
119K22,200,experiment,15,↑,up,↑,0.589079299941659,True,18
119K22,201,experiment,22,↑,up,↑,0.5114197998773307,True,18
119K22,202,experiment,58,↑,down,↓,1.2377960998564959,False,18
119K22,203,experiment,43,→,left,←,0.4729428000282496,False,18
119K22,204,experiment,19,→,right,→,1.0336251000408083,True,18
119K22,205,experiment,53,↑,no_key,no_letter,-1.0,False,18
119K22,206,experiment,35,↓,down,↓,0.7698584001045674,True,18
119K22,207,experiment,48,↓,down,↓,0.7242628999520093,True,18
119K22,208,experiment,36,↓,down,↓,0.864413799950853,True,18
119K22,209,experiment,49,→,left,←,1.1025310000404716,False,18
119K22,210,experiment,34,↓,up,↑,0.9728472002316266,False,18
119K22,211,experiment,52,→,right,→,0.6527178999967873,True,18
119K22,212,experiment,40,↓,down,↓,0.8408504000399262,True,18
119K22,213,experiment,45,↑,up,↑,0.7066128000151366,True,18
119K22,214,experiment,28,←,left,←,0.8770008001010865,True,18
119K22,215,experiment,14,←,left,←,0.633915799902752,True,18
119K22,216,experiment,25,←,left,←,0.7846459001302719,True,18
119K22,217,experiment,18,↓,down,↓,0.5737337998580188,True,18
119K22,218,experiment,27,→,right,→,0.8140793000347912,True,18
119K22,219,experiment,26,↓,down,↓,0.6367826000787318,True,18
119K22,220,experiment,46,↑,up,↑,0.7017867001704872,True,18
119K22,221,experiment,56,↓,down,↓,0.7417995000723749,True,18
119K22,222,experiment,41,→,right,→,0.5661339999642223,True,18
119K22,223,experiment,50,→,left,←,0.4787847001571208,False,18
119K22,224,experiment,60,→,right,→,0.7084772998932749,True,18
119K22,225,experiment,16,→,right,→,0.7187955998815596,True,18
119K22,226,experiment,51,←,left,←,0.4891763001214713,True,18
119K22,227,experiment,38,↓,up,↑,1.453185899881646,False,18
119K22,228,experiment,32,↓,down,↓,0.5912603000178933,True,18
119K22,229,experiment,54,↓,no_key,no_letter,-1.0,False,18
119K22,230,experiment,33,→,no_key,no_letter,-1.0,False,18
119K22,231,experiment,30,↑,up,↑,0.9765677000395954,True,18
119K22,232,experiment,13,→,right,→,0.84207300003618,True,18
119K22,233,experiment,59,→,right,→,0.7626779000274837,True,18
119K22,234,experiment,29,↑,up,↑,1.5853438000194728,True,18
119K22,235,experiment,23,↓,up,↑,1.7480750000104308,False,18
119K22,236,experiment,37,←,left,←,0.7348227999173105,True,18
119K22,237,experiment,20,←,right,→,0.7172334999777377,False,18
119K22,238,experiment,44,→,right,→,0.604059400036931,True,18
119K22,239,experiment,24,→,right,→,0.6846643001772463,True,18
119K22,240,experiment,57,↑,up,↑,0.6287614998873323,True,18
119K22,241,training,32,←,left,←,1.0561881000176072,True,18
119K22,242,training,40,↑,up,↑,0.620808299863711,True,18
119K22,243,experiment,25,→,left,←,1.588402699911967,False,18
119K22,244,experiment,36,↓,down,↓,0.7901989000383765,True,18
119K22,245,experiment,24,←,no_key,no_letter,-1.0,False,18
119K22,246,experiment,21,←,no_key,no_letter,-1.0,False,18
119K22,247,experiment,54,→,left,←,0.08428740012459457,False,18
119K22,248,experiment,35,→,right,→,1.0088591000530869,True,18
119K22,249,experiment,57,←,left,←,0.7083535999991,True,18
119K22,250,experiment,45,←,left,←,0.5232955999672413,True,18
119K22,251,experiment,33,→,right,→,0.5534779999870807,True,18
119K22,252,experiment,15,→,right,→,0.7300972999073565,True,18
119K22,253,experiment,20,↑,up,↑,1.6478832000866532,True,18
119K22,254,experiment,58,↓,down,↓,0.7289271999616176,True,18
119K22,255,experiment,43,→,right,→,0.6327715001534671,True,18
119K22,256,experiment,59,→,right,→,0.48938829987309873,True,18
119K22,257,experiment,17,↓,down,↓,0.659363399958238,True,18
119K22,258,experiment,18,↑,up,↑,1.3336733998730779,True,18
119K22,259,experiment,31,↓,down,↓,0.7491406998597085,True,18
119K22,260,experiment,60,↓,up,↑,1.207981999963522,False,18
119K22,261,experiment,16,↑,up,↑,0.7104774999897927,True,18
119K22,262,experiment,37,→,right,→,0.6586126999463886,True,18
119K22,263,experiment,52,↑,up,↑,0.5431487001478672,True,18
119K22,264,experiment,56,↓,up,↑,0.9253392000682652,False,18
119K22,265,experiment,47,→,right,→,0.5786727999802679,True,18
119K22,266,experiment,38,↑,up,↑,0.5233434000983834,True,18
119K22,267,experiment,42,←,left,←,0.5315159999299794,True,18
119K22,268,experiment,34,←,right,→,0.6726778999436647,False,18
119K22,269,experiment,53,→,right,→,0.6914526000618935,True,18
119K22,270,experiment,41,←,right,→,0.6617356999777257,False,18
119K22,271,experiment,28,↑,up,↑,0.5460920000914484,True,18
119K22,272,experiment,44,→,right,→,0.4723077998496592,True,18
119K22,273,experiment,32,→,right,→,0.5044635001104325,True,18
119K22,274,experiment,22,←,left,←,0.5508838999085128,True,18
119K22,275,experiment,27,→,right,→,0.487094399984926,True,18
119K22,276,experiment,30,→,left,←,0.5524538001045585,False,18
119K22,277,experiment,48,↓,right,→,0.4836177001707256,False,18
119K22,278,experiment,26,↓,up,↑,1.2555696000345051,False,18
119K22,279,experiment,46,←,right,→,0.41717679984867573,False,18
119K22,280,experiment,55,←,right,→,0.5390316999983042,False,18
119K22,281,experiment,14,↑,up,↑,1.1973067000508308,True,18
119K22,282,experiment,40,↑,up,↑,0.6116271000355482,True,18
119K22,283,experiment,50,←,right,→,0.4912487000692636,False,18
119K22,284,experiment,49,←,left,←,0.6003927998244762,True,18
119K22,285,experiment,13,↑,up,↑,0.6161156999878585,True,18
119K22,286,experiment,29,↑,up,↑,0.6692238999530673,True,18
119K22,287,experiment,51,↓,down,↓,0.8177332999184728,True,18
119K22,288,experiment,39,↑,up,↑,0.6479602998588234,True,18
119K22,289,experiment,19,↓,up,↑,0.6899142998736352,False,18
119K22,290,experiment,23,←,left,←,0.5926185001153499,True,18
119K22,291,training,48,←,no_key,no_letter,-1.0,False,18
119K22,292,training,31,↓,no_key,no_letter,-1.0,False,18
119K22,293,experiment,17,←,left,←,0.5203935001045465,True,18
119K22,294,experiment,53,↑,right,→,0.4816692001186311,False,18
119K22,295,experiment,48,→,up,↑,1.9590058999601752,False,18
119K22,296,experiment,28,←,left,←,0.4172557999845594,True,18
119K22,297,experiment,20,←,left,←,0.5135174999013543,True,18
119K22,298,experiment,45,↓,up,↑,1.023791499901563,False,18
119K22,299,experiment,24,←,right,→,0.6001459001563489,False,18
119K22,300,experiment,41,→,right,→,0.5818851001095027,True,18
119K22,301,experiment,52,→,right,→,0.588871099986136,True,18
119K22,302,experiment,38,↓,up,↑,1.1729976998176426,False,18
119K22,303,experiment,51,←,right,→,0.5335250999778509,False,18
119K22,304,experiment,60,↓,up,↑,0.6494523000437766,False,18
119K22,305,experiment,21,→,right,→,0.9300577999092638,True,18
119K22,306,experiment,44,↓,down,↓,0.9286809000186622,True,18
119K22,307,experiment,22,→,left,←,0.7499212000984699,False,18
119K22,308,experiment,47,←,no_key,no_letter,-1.0,False,18
119K22,309,experiment,26,↑,up,↑,0.8271555998362601,True,18
119K22,310,experiment,40,↑,up,↑,0.7131248000077903,True,18
119K22,311,experiment,56,↓,down,↓,0.9282569999340922,True,18
119K22,312,experiment,31,←,right,→,0.5278127000201494,False,18
119K22,313,experiment,50,↑,left,←,0.6505179998930544,False,18
119K22,314,experiment,35,↓,up,↑,0.6503024999983609,False,18
119K22,315,experiment,23,→,right,→,0.7618086999282241,True,18
119K22,316,experiment,19,↑,right,→,1.5439748000353575,False,18
119K22,317,experiment,13,→,right,→,0.5548886999022216,True,18
119K22,318,experiment,39,→,right,→,0.540133599890396,True,18
119K22,319,experiment,33,↑,left,←,0.7853422001935542,False,18
119K22,320,experiment,30,↓,down,↓,0.8309929999522865,True,18
119K22,321,experiment,58,←,right,→,0.6879567999858409,False,18
119K22,322,experiment,15,↑,down,↓,1.2276300000958145,False,18
119K22,323,experiment,49,↑,up,↑,1.7634654000867158,True,18
119K22,324,experiment,46,→,left,←,1.7195953999180347,False,18
119K22,325,experiment,16,←,left,←,0.561597199877724,True,18
119K22,326,experiment,57,↓,right,→,1.2465788000263274,False,18
119K22,327,experiment,42,↑,up,↑,0.7536493998486549,True,18
119K22,328,experiment,25,↓,down,↓,0.8997982000000775,True,18
119K22,329,experiment,18,↓,no_key,no_letter,-1.0,False,18
119K22,330,experiment,14,→,right,→,0.5421859999187291,True,18
119K22,331,experiment,54,→,right,→,0.6618041000328958,True,18
119K22,332,experiment,29,→,left,←,1.1214311998337507,False,18
119K22,333,experiment,36,↓,down,↓,1.1337609000038356,True,18
119K22,334,experiment,27,→,up,↑,1.3997408000286669,False,18
119K22,335,experiment,59,↓,up,↑,1.6097796000540257,False,18
119K22,336,experiment,34,↓,left,←,1.2364622000604868,False,18
119K22,337,experiment,32,→,right,→,0.6787929001729935,True,18
119K22,338,experiment,43,←,left,←,0.49642139999195933,True,18
119K22,339,experiment,55,↑,up,↑,1.080969400005415,True,18
119K22,340,experiment,37,↑,no_key,no_letter,-1.0,False,18
119K22,341,training,17,↓,right,→,1.2402069999370724,False,19
119K22,342,training,34,↑,up,↑,0.7215342000126839,True,19
119K22,343,experiment,16,↑,up,↑,0.794899299973622,True,19
119K22,344,experiment,58,↑,up,↑,0.7020786998327821,True,19
119K22,345,experiment,50,←,left,←,0.5858310998883098,True,19
119K22,346,experiment,17,←,left,←,0.8635525000281632,True,19
119K22,347,experiment,33,←,left,←,0.640176200075075,True,19
119K22,348,experiment,40,↑,up,↑,0.6291043998207897,True,19
119K22,349,experiment,55,↑,up,↑,0.5525652000214905,True,19
119K22,350,experiment,26,←,left,←,0.80198649992235,True,19
119K22,351,experiment,59,→,right,→,0.6678724000230432,True,19
119K22,352,experiment,43,↑,up,↑,0.685582600068301,True,19
119K22,353,experiment,57,←,left,←,0.6133856000378728,True,19
119K22,354,experiment,24,↑,up,↑,0.8132112000603229,True,19
119K22,355,experiment,46,↑,right,→,0.6317545999772847,False,19
119K22,356,experiment,18,↓,down,↓,1.0833167999517173,True,19
119K22,357,experiment,56,→,right,→,0.6517763999290764,True,19
119K22,358,experiment,38,↓,up,↑,1.1372742000967264,False,19
119K22,359,experiment,42,↑,left,←,1.2971523001324385,False,19
119K22,360,experiment,35,←,left,←,0.5430697000119835,True,19
119K22,361,experiment,29,↑,up,↑,0.6311253998428583,True,19
119K22,362,experiment,41,←,left,←,0.5716911000199616,True,19
119K22,363,experiment,44,↓,up,↑,1.3365839999169111,False,19
119K22,364,experiment,54,←,left,←,0.657047500135377,True,19
119K22,365,experiment,36,↑,no_key,no_letter,-1.0,False,19
119K22,366,experiment,20,↓,down,↓,0.9480870000552386,True,19
119K22,367,experiment,34,←,left,←,0.6246436999645084,True,19
119K22,368,experiment,19,↓,down,↓,0.8598023001104593,True,19
119K22,369,experiment,49,↑,up,↑,0.5862174001522362,True,19
119K22,370,experiment,37,↓,up,↑,1.019166500074789,False,19
119K22,371,experiment,23,→,right,→,0.6442905999720097,True,19
119K22,372,experiment,52,←,right,→,0.8732694999780506,False,19
119K22,373,experiment,47,↑,up,↑,1.2163864001631737,True,19
119K22,374,experiment,31,→,right,→,0.5721946998964995,True,19
119K22,375,experiment,14,→,left,←,1.1166566000320017,False,19
119K22,376,experiment,22,→,right,→,0.9863802001345903,True,19
119K22,377,experiment,21,↑,up,↑,0.9742422001436353,True,19
119K22,378,experiment,15,←,left,←,0.9981647999957204,True,19
119K22,379,experiment,51,↓,up,↑,0.7414508999790996,False,19
119K22,380,experiment,13,↓,right,→,1.5764427999965847,False,19
119K22,381,experiment,45,→,right,→,0.5649391000624746,True,19
119K22,382,experiment,60,→,right,→,0.5032783001661301,True,19
119K22,383,experiment,28,→,right,→,0.5933429000433534,True,19
119K22,384,experiment,39,→,right,→,0.6573091000318527,True,19
119K22,385,experiment,48,→,right,→,0.7041446000803262,True,19
119K22,386,experiment,30,↑,left,←,1.2570960000157356,False,19
119K22,387,experiment,53,↓,up,↑,1.044828400015831,False,19
119K22,388,experiment,32,→,right,→,0.6392452998552471,True,19
119K22,389,experiment,25,↑,up,↑,0.5820758999325335,True,19
119K22,390,experiment,27,↑,up,↑,1.5494521001819521,True,19
119K22,391,training,38,↑,right,→,1.218602400040254,False,19
119K22,392,training,47,←,right,→,0.7716703999321908,False,19
119K22,393,experiment,13,→,right,→,0.7249990999698639,True,19
119K22,394,experiment,52,↓,up,↑,1.3269636000040919,False,19
119K22,395,experiment,28,↑,up,↑,0.8005516999401152,True,19
119K22,396,experiment,15,↑,right,→,1.3433048999868333,False,19
119K22,397,experiment,20,↓,down,↓,1.0063686999492347,True,19
119K22,398,experiment,51,↓,right,→,0.9172232998535037,False,19
119K22,399,experiment,60,→,right,→,0.5374338999390602,True,19
119K22,400,experiment,45,→,right,→,0.6873725999612361,True,19
119K22,401,experiment,24,←,left,←,0.564810800133273,True,19
119K22,402,experiment,58,←,left,←,0.7121650001499802,True,19
119K22,403,experiment,59,↑,up,↑,0.6616813000291586,True,19
119K22,404,experiment,38,→,right,→,1.1470693000592291,True,19
119K22,405,experiment,48,↑,up,↑,0.5504000000655651,True,19
119K22,406,experiment,36,←,left,←,0.60105189983733,True,19
119K22,407,experiment,32,→,up,↑,1.0926846999209374,False,19
119K22,408,experiment,23,↓,right,→,0.5631587998941541,False,19
119K22,409,experiment,18,←,left,←,0.7213268000632524,True,19
119K22,410,experiment,21,↓,up,↑,1.1513781000394374,False,19
119K22,411,experiment,19,→,right,→,0.6296383999288082,True,19
119K22,412,experiment,31,←,right,→,0.512466800166294,False,19
119K22,413,experiment,57,←,left,←,0.8232803998980671,True,19
119K22,414,experiment,53,↑,up,↑,1.1005448000505567,True,19
119K22,415,experiment,16,↑,up,↑,0.5746696998830885,True,19
119K22,416,experiment,33,↓,right,→,1.3951016999781132,False,19
119K22,417,experiment,42,→,right,→,0.7287776998709887,True,19
119K22,418,experiment,34,→,right,→,0.7664524000138044,True,19
119K22,419,experiment,35,↑,up,↑,0.697767399949953,True,19
119K22,420,experiment,17,←,up,↑,1.1791324000805616,False,19
119K22,421,experiment,49,↑,up,↑,0.6046424000523984,True,19
119K22,422,experiment,50,↓,down,↓,0.7886259998194873,True,19
119K22,423,experiment,29,→,right,→,0.8187657999806106,True,19
119K22,424,experiment,47,←,left,←,0.6997644999064505,True,19
119K22,425,experiment,44,↑,up,↑,0.9394025998190045,True,19
119K22,426,experiment,40,↓,down,↓,0.996545200003311,True,19
119K22,427,experiment,26,→,right,→,0.9162924999836832,True,19
119K22,428,experiment,14,↑,up,↑,0.606944200117141,True,19
119K22,429,experiment,37,←,down,↓,1.1753927997779101,False,19
119K22,430,experiment,25,→,right,→,0.7608211000915617,True,19
119K22,431,experiment,39,←,right,→,0.6497271999251097,False,19
119K22,432,experiment,27,↑,right,→,0.8788459999486804,False,19
119K22,433,experiment,41,←,left,←,0.5783028001897037,True,19
119K22,434,experiment,56,↓,down,↓,1.4549318999052048,True,19
119K22,435,experiment,30,↑,right,→,0.770228800131008,False,19
119K22,436,experiment,54,→,right,→,0.6643602999392897,True,19
119K22,437,experiment,43,←,right,→,0.8739895999897271,False,19
119K22,438,experiment,55,↓,down,↓,0.7480874999891967,True,19
119K22,439,experiment,22,←,left,←,0.8079049999359995,True,19
119K22,440,experiment,46,↓,right,→,0.6104292999953032,False,19
119K22,441,training,25,→,left,←,0.41715870006009936,False,19
119K22,442,training,34,↑,up,↑,0.5553655999246985,True,19
119K22,443,experiment,32,↑,up,↑,0.7848768001422286,True,19
119K22,444,experiment,34,↓,down,↓,0.7397255999967456,True,19
119K22,445,experiment,44,←,left,←,0.6180292000062764,True,19
119K22,446,experiment,38,↑,left,←,0.6492323998827487,False,19
119K22,447,experiment,57,↓,down,↓,0.6020142000634223,True,19
119K22,448,experiment,27,↑,up,↑,0.7691025000531226,True,19
119K22,449,experiment,22,↑,down,↓,1.364530900027603,False,19
119K22,450,experiment,39,→,right,→,0.6049196999520063,True,19
119K22,451,experiment,28,↓,down,↓,0.6273262999020517,True,19
119K22,452,experiment,47,↓,down,↓,0.7720550999511033,True,19
119K22,453,experiment,60,↓,down,↓,0.7105228998698294,True,19
119K22,454,experiment,15,←,left,←,0.6173669998534024,True,19
119K22,455,experiment,56,←,right,→,0.6205573999322951,False,19
119K22,456,experiment,36,→,right,→,0.756464899983257,True,19
119K22,457,experiment,25,←,left,←,0.5269554001279175,True,19
119K22,458,experiment,31,↓,right,→,1.1581983000505716,False,19
119K22,459,experiment,18,↑,down,↓,1.0374429000075907,False,19
119K22,460,experiment,33,↓,down,↓,0.5512620001100004,True,19
119K22,461,experiment,37,→,right,→,0.7213442998472601,True,19
119K22,462,experiment,14,↓,down,↓,0.70785400015302,True,19
119K22,463,experiment,45,←,left,←,0.5391585999168456,True,19
119K22,464,experiment,35,↑,down,↓,1.0553749999962747,False,19
119K22,465,experiment,20,↑,right,→,0.7288999001029879,False,19
119K22,466,experiment,52,↑,up,↑,0.6904316998552531,True,19
119K22,467,experiment,51,↑,down,↓,1.0060906999278814,False,19
119K22,468,experiment,13,←,right,→,0.7023889000993222,False,19
119K22,469,experiment,42,↓,down,↓,0.7275881001260132,True,19
119K22,470,experiment,50,←,left,←,0.6026286000851542,True,19
119K22,471,experiment,46,←,left,←,0.6685999999754131,True,19
119K22,472,experiment,49,↓,right,→,1.0903179999440908,False,19
119K22,473,experiment,21,→,right,→,0.5860039000399411,True,19
119K22,474,experiment,43,→,left,←,0.9989428999833763,False,19
119K22,475,experiment,53,→,left,←,0.4504149998538196,False,19
119K22,476,experiment,26,↓,down,↓,0.8174689998850226,True,19
119K22,477,experiment,41,→,right,→,0.774469600059092,True,19
119K22,478,experiment,17,←,right,→,1.1895923998672515,False,19
119K22,479,experiment,16,↑,right,→,1.0285940000321716,False,19
119K22,480,experiment,54,↑,up,↑,1.1050076999235898,True,19
119K22,481,experiment,59,→,right,→,0.6308528000954539,True,19
119K22,482,experiment,30,←,left,←,0.9146558998618275,True,19
119K22,483,experiment,58,↑,up,↑,0.8083265998866409,True,19
119K22,484,experiment,24,←,left,←,0.6411797998007387,True,19
119K22,485,experiment,23,↑,down,↓,1.6652296998072416,False,19
119K22,486,experiment,55,↓,right,→,1.5634707000572234,False,19
119K22,487,experiment,48,↑,down,↓,1.2383076001424342,False,19
119K22,488,experiment,19,↓,up,↑,1.5453262000810355,False,19
119K22,489,experiment,40,←,left,←,0.5868979999795556,True,19
119K22,490,experiment,29,←,right,→,1.6248947998974472,False,19
119K22,491,training,39,↑,up,↑,0.5574751000385731,True,19
119K22,492,training,57,↑,up,↑,0.4983562999404967,True,19
119K22,493,experiment,57,↓,right,→,1.3053367000538856,False,19
119K22,494,experiment,35,←,left,←,0.7513279998674989,True,19
119K22,495,experiment,55,←,left,←,0.6377797001041472,True,19
119K22,496,experiment,54,↑,right,→,0.8577237999998033,False,19
119K22,497,experiment,43,→,right,→,0.6357714000623673,True,19
119K22,498,experiment,28,↓,left,←,0.8406032999046147,False,19
119K22,499,experiment,17,←,left,←,0.7328180000185966,True,19
119K22,500,experiment,52,↑,left,←,0.8619341999292374,False,19
119K22,501,experiment,39,←,left,←,0.6108413999900222,True,19
119K22,502,experiment,37,↓,right,→,1.083300800062716,False,19
119K22,503,experiment,46,→,left,←,0.7062880001030862,False,19
119K22,504,experiment,40,→,right,→,0.7249032000545412,True,19
119K22,505,experiment,48,→,left,←,0.6250175999011844,False,19
119K22,506,experiment,29,↓,down,↓,0.8058172001037747,True,19
119K22,507,experiment,16,↑,up,↑,0.8758936999365687,True,19
119K22,508,experiment,58,↑,up,↑,0.6841855999082327,True,19
119K22,509,experiment,42,→,right,→,0.6055796002037823,True,19
119K22,510,experiment,31,→,right,→,0.7055951999500394,True,19
119K22,511,experiment,13,→,right,→,0.5899191999342293,True,19
119K22,512,experiment,36,↓,down,↓,0.6631648999173194,True,19
119K22,513,experiment,60,↓,down,↓,0.6224136999808252,True,19
119K22,514,experiment,49,→,right,→,0.5102939999196678,True,19
119K22,515,experiment,33,→,right,→,0.6286564997863024,True,19
119K22,516,experiment,59,↓,down,↓,1.0698930998332798,True,19
119K22,517,experiment,34,→,right,→,0.7415811000391841,True,19
119K22,518,experiment,20,↓,down,↓,0.6520686000585556,True,19
119K22,519,experiment,24,←,left,←,0.6744985999539495,True,19
119K22,520,experiment,21,↑,right,→,0.7545900999102741,False,19
119K22,521,experiment,56,↑,no_key,no_letter,-1.0,False,19
119K22,522,experiment,32,↑,up,↑,0.549416899913922,True,19
119K22,523,experiment,19,→,right,→,0.6672323998063803,True,19
119K22,524,experiment,23,↑,up,↑,0.9701789999380708,True,19
119K22,525,experiment,26,↓,right,→,1.0029931000899523,False,19
119K22,526,experiment,47,←,left,←,0.5331747999880463,True,19
119K22,527,experiment,51,←,left,←,0.44985640002414584,True,19
119K22,528,experiment,38,←,right,→,0.6279890001751482,False,19
119K22,529,experiment,27,→,right,→,0.7856236998923123,True,19
119K22,530,experiment,18,→,right,→,0.5749709999654442,True,19
119K22,531,experiment,30,→,right,→,0.5571352001279593,True,19
119K22,532,experiment,15,↑,right,→,1.069971299963072,False,19
119K22,533,experiment,41,↓,down,↓,0.8012141000945121,True,19
119K22,534,experiment,14,←,right,→,1.1124992999248207,False,19
119K22,535,experiment,45,→,no_key,no_letter,-1.0,False,19
119K22,536,experiment,22,←,no_key,no_letter,-1.0,False,19
119K22,537,experiment,50,↓,down,↓,0.6198419001884758,True,19
119K22,538,experiment,53,↑,up,↑,0.5445936999749392,True,19
119K22,539,experiment,44,→,right,→,0.5346584001090378,True,19
119K22,540,experiment,25,↓,down,↓,0.7537285999860615,True,19
119K22,541,training,20,→,right,→,0.5446495001669973,True,19
119K22,542,training,37,→,right,→,0.43394469982013106,True,19
119K22,543,experiment,46,→,right,→,0.8677105000242591,True,19
119K22,544,experiment,34,→,right,→,0.6114445000421256,True,19
119K22,545,experiment,43,←,right,→,0.6395500001963228,False,19
119K22,546,experiment,54,↑,down,↓,1.4834384999703616,False,19
119K22,547,experiment,19,←,left,←,0.7966913999989629,True,19
119K22,548,experiment,37,↓,down,↓,0.7007684998679906,True,19
119K22,549,experiment,50,↑,right,→,1.384495599893853,False,19
119K22,550,experiment,31,←,left,←,0.5577136001084,True,19
119K22,551,experiment,38,←,right,→,0.5432094000279903,False,19
119K22,552,experiment,55,↑,up,↑,0.8145212999079376,True,19
119K22,553,experiment,58,↓,down,↓,0.784231600118801,True,19
119K22,554,experiment,14,→,right,→,0.8243364000227302,True,19
119K22,555,experiment,51,→,right,→,0.5666934999171644,True,19
119K22,556,experiment,20,↓,down,↓,0.8913428001105785,True,19
119K22,557,experiment,35,←,left,←,0.5702041001059115,True,19
119K22,558,experiment,29,→,right,→,0.6794481999240816,True,19
119K22,559,experiment,16,→,right,→,0.6587533999700099,True,19
119K22,560,experiment,27,←,left,←,0.6476298999041319,True,19
119K22,561,experiment,57,↑,up,↑,0.6084332000464201,True,19
119K22,562,experiment,39,↑,right,→,1.0073239000048488,False,19
119K22,563,experiment,24,↓,up,↑,0.9445360999088734,False,19
119K22,564,experiment,44,←,left,←,0.6146726000588387,True,19
119K22,565,experiment,13,↓,up,↑,0.7823236999101937,False,19
119K22,566,experiment,26,↓,up,↑,1.0224007000215352,False,19
119K22,567,experiment,36,→,right,→,0.6469497000798583,True,19
119K22,568,experiment,17,→,right,→,0.7867762001696974,True,19
119K22,569,experiment,53,→,left,←,0.5055387997999787,False,19
119K22,570,experiment,18,→,left,←,1.018217199947685,False,19
119K22,571,experiment,60,↓,down,↓,0.8187227000016719,True,19
119K22,572,experiment,15,↓,up,↑,0.8171535001602024,False,19
119K22,573,experiment,32,→,right,→,0.5479292999953032,True,19
119K22,574,experiment,30,←,right,→,0.6824018999468535,False,19
119K22,575,experiment,41,↓,down,↓,0.7726908000186086,True,19
119K22,576,experiment,48,→,right,→,0.567340400069952,True,19
119K22,577,experiment,42,←,left,←,0.5333618000149727,True,19
119K22,578,experiment,40,→,right,→,0.5584301999770105,True,19
119K22,579,experiment,25,←,right,→,1.440552799962461,False,19
119K22,580,experiment,33,↑,up,↑,0.6983368000946939,True,19
119K22,581,experiment,52,↓,up,↑,1.2046088001225144,False,19
119K22,582,experiment,49,↓,down,↓,0.8215063998941332,True,19
119K22,583,experiment,28,→,right,→,0.9068057001568377,True,19
119K22,584,experiment,23,↓,down,↓,0.960679599782452,True,19
119K22,585,experiment,59,←,left,←,0.7568094998132437,True,19
119K22,586,experiment,22,↓,down,↓,0.8247271000873297,True,19
119K22,587,experiment,56,↓,down,↓,0.7160481000319123,True,19
119K22,588,experiment,21,↑,down,↓,0.6657600998878479,False,19
119K22,589,experiment,47,↑,left,←,1.4169254000298679,False,19
119K22,590,experiment,45,→,right,→,0.6435935997869819,True,19
