PART_ID,Trial_no,Trial_type,CSI,Stim_letter,Key_pressed,letter_choose,Rt,Corr,Stimulus Time
11K19,1,training,60,↓,no_key,no_letter,-1.0,False,30
11K19,2,training,60,←,left,←,0.6169504999998026,True,30
11K19,3,training,60,←,right,→,0.5339545000024373,False,30
11K19,4,training,60,↓,right,→,0.6169501999975182,False,30
11K19,5,training,60,↓,down,↓,0.6338628999947105,True,30
11K19,6,training,60,↓,right,→,0.3516153999953531,False,30
11K19,7,training,60,←,left,←,0.4517367000080412,True,30
11K19,8,training,60,←,left,←,0.45171330000448506,True,30
11K19,9,training,60,↓,down,↓,0.6004677000019001,True,30
11K19,10,training,60,↓,down,↓,0.46821279999858234,True,30
11K19,11,training,60,↑,down,↓,0.36812519999512006,False,30
11K19,12,training,60,←,right,→,0.5350547999987612,False,30
11K19,13,training,60,←,right,→,0.6880060999974376,False,30
11K19,14,training,60,↓,down,↓,0.4014076000021305,True,30
11K19,15,training,60,↑,down,↓,0.5002957999968203,False,30
11K19,16,training,60,→,left,←,0.4516804000013508,False,30
11K19,17,training,60,←,right,→,0.4184887000010349,False,30
11K19,18,training,60,←,left,←,0.6340622999996413,True,30
11K19,19,training,60,↑,down,↓,0.48397169999952894,False,30
11K19,20,training,60,↓,up,↑,0.780042800004594,False,30
11K19,21,training,60,→,right,→,0.5487923000036972,True,18
11K19,22,training,60,←,left,←,1.711585199998808,True,18
11K19,23,training,60,→,right,→,1.4444231999950716,True,18
11K19,24,training,60,↓,down,↓,0.5956350000051316,True,18
11K19,25,training,60,↓,down,↓,0.6926546000031522,True,18
11K19,26,training,60,↓,down,↓,0.698017799993977,True,18
11K19,27,training,60,→,right,→,0.5989682999934303,True,18
11K19,28,training,60,←,left,←,0.7759147000033408,True,18
11K19,29,training,60,←,left,←,0.7374969999946188,True,18
11K19,30,training,60,↑,up,↑,0.6613979999965522,True,18
11K19,31,training,60,→,right,→,0.7474965000001248,True,18
11K19,32,training,60,→,right,→,0.7666267000022344,True,18
11K19,33,training,60,↑,up,↑,0.5687080999923637,True,18
11K19,34,training,60,↑,up,↑,0.7150880999979563,True,18
11K19,35,training,60,↑,up,↑,0.49530890000460204,True,18
11K19,36,training,60,←,left,←,0.676006999987294,True,18
11K19,37,training,60,←,left,←,0.7616593999991892,True,18
11K19,38,training,60,↓,down,↓,0.6760786999948323,True,18
11K19,39,training,60,↓,down,↓,0.5374979999905918,True,18
11K19,40,training,60,↓,down,↓,1.165200500006904,True,18
11K19,41,training,22,←,left,←,0.6315852999978233,True,18
11K19,42,training,53,↓,down,↓,0.7479391000088071,True,18
11K19,43,experiment,32,←,right,→,1.0974972999974852,False,18
11K19,44,experiment,24,←,left,←,0.6867972999898484,True,18
11K19,45,experiment,21,↑,up,↑,0.5900646999944001,True,18
11K19,46,experiment,50,↑,up,↑,0.5503102999937255,True,18
11K19,47,experiment,54,↑,up,↑,0.7653801999986172,True,18
11K19,48,experiment,48,→,right,→,0.831934400004684,True,18
11K19,49,experiment,52,←,left,←,0.7648128000000725,True,18
11K19,50,experiment,29,→,right,→,0.7077042000018992,True,18
11K19,51,experiment,42,←,left,←,0.5573326000012457,True,18
11K19,52,experiment,19,→,right,→,0.7707511999906274,True,18
11K19,53,experiment,13,↓,down,↓,0.7421177000069292,True,18
11K19,54,experiment,35,→,right,→,0.6165572000027169,True,18
11K19,55,experiment,46,↓,down,↓,0.7779740999976639,True,18
11K19,56,experiment,36,→,right,→,0.548647899995558,True,18
11K19,57,experiment,49,→,right,→,0.5829098000103841,True,18
11K19,58,experiment,56,↓,down,↓,0.5709537999937311,True,18
11K19,59,experiment,59,→,right,→,0.5421330999961356,True,18
11K19,60,experiment,40,↑,up,↑,0.5428664999926696,True,18
11K19,61,experiment,39,↓,down,↓,0.6405157999979565,True,18
11K19,62,experiment,16,←,left,←,0.8134057999996003,True,18
11K19,63,experiment,28,→,right,→,0.4673380000022007,True,18
11K19,64,experiment,57,←,right,→,0.49832779999997,False,18
11K19,65,experiment,38,↓,down,↓,0.685899399992195,True,18
11K19,66,experiment,14,↓,down,↓,0.5939390999992611,True,18
11K19,67,experiment,27,↓,down,↓,0.729425600002287,True,18
11K19,68,experiment,51,→,right,→,1.0911469000129728,True,18
11K19,69,experiment,20,←,left,←,0.7474187000043457,True,18
11K19,70,experiment,33,↑,up,↑,0.7284706000064034,True,18
11K19,71,experiment,53,→,right,→,0.8174209999997402,True,18
11K19,72,experiment,41,←,left,←,0.8544067000038922,True,18
11K19,73,experiment,43,↓,down,↓,0.7608691999921575,True,18
11K19,74,experiment,23,←,left,←,0.7323757999984082,True,18
11K19,75,experiment,15,←,left,←,0.9898477999959141,True,18
11K19,76,experiment,58,↑,up,↑,0.9770092999970075,True,18
11K19,77,experiment,37,→,right,→,0.8347705000051064,True,18
11K19,78,experiment,17,←,left,←,1.071100099987234,True,18
11K19,79,experiment,26,↓,down,↓,0.8999397000006866,True,18
11K19,80,experiment,25,↑,up,↑,0.8882333999936236,True,18
11K19,81,experiment,44,↑,up,↑,0.8006353000091622,True,18
11K19,82,experiment,22,↑,up,↑,0.73076220000803,True,18
11K19,83,experiment,45,↓,down,↓,0.672494700003881,True,18
11K19,84,experiment,47,→,right,→,0.8474373000062769,True,18
11K19,85,experiment,30,→,right,→,1.0346141999907559,True,18
11K19,86,experiment,34,↑,up,↑,0.8595174999936717,True,18
11K19,87,experiment,55,←,left,←,0.806072999999742,True,18
11K19,88,experiment,18,↓,down,↓,0.8108519000088563,True,18
11K19,89,experiment,31,←,left,←,0.7273796999943443,True,18
11K19,90,experiment,60,↑,up,↑,0.6196127000002889,True,18
11K19,91,training,22,↓,down,↓,0.5830188999971142,True,17
11K19,92,training,60,↑,up,↑,0.6086421999934828,True,17
11K19,93,experiment,46,←,left,←,0.7310959000024013,True,17
11K19,94,experiment,52,→,right,→,0.7081629000022076,True,17
11K19,95,experiment,51,↑,up,↑,0.9430752999905962,True,17
11K19,96,experiment,21,←,left,←,0.8767197000124725,True,17
11K19,97,experiment,22,↓,down,↓,0.8122767000022577,True,17
11K19,98,experiment,49,→,right,→,0.5726070000091568,True,17
11K19,99,experiment,47,↓,down,↓,0.7516123000095831,True,17
11K19,100,experiment,19,→,right,→,0.7417367000016384,True,17
11K19,101,experiment,58,←,left,←,0.8428093999973498,True,17
11K19,102,experiment,56,↑,up,↑,0.837362900012522,True,17
11K19,103,experiment,44,↓,down,↓,0.8716950999951223,True,17
11K19,104,experiment,13,→,right,→,1.1172441000089748,True,17
11K19,105,experiment,55,↓,down,↓,0.8612698999932036,True,17
11K19,106,experiment,60,↓,down,↓,1.2446554999914952,True,17
11K19,107,experiment,35,←,left,←,0.6769593999924837,True,17
11K19,108,experiment,15,←,left,←,1.0648746999941068,True,17
11K19,109,experiment,42,↑,up,↑,0.8033977000013692,True,17
11K19,110,experiment,32,←,left,←,0.7669464999926277,True,17
11K19,111,experiment,18,←,left,←,0.7572626000037417,True,17
11K19,112,experiment,57,↓,down,↓,0.8742996000073617,True,17
11K19,113,experiment,25,→,right,→,0.911863600005745,True,17
11K19,114,experiment,29,←,left,←,0.745540499992785,True,17
11K19,115,experiment,30,↑,up,↑,0.7052867000020342,True,17
11K19,116,experiment,38,→,right,→,0.5885857999965083,True,17
11K19,117,experiment,48,↓,down,↓,0.7983058000099845,True,17
11K19,118,experiment,39,↑,up,↑,0.8692759999976261,True,17
11K19,119,experiment,23,↓,down,↓,1.2442473999981303,True,17
11K19,120,experiment,53,↓,down,↓,1.096929099992849,True,17
11K19,121,experiment,20,↑,up,↑,0.8245047999953385,True,17
11K19,122,experiment,45,↓,down,↓,0.698850400003721,True,17
11K19,123,experiment,54,↑,up,↑,0.5881898999941768,True,17
11K19,124,experiment,37,→,right,→,1.5489110000053188,True,17
11K19,125,experiment,14,→,right,→,0.7986917000089306,True,17
11K19,126,experiment,26,↓,down,↓,0.7264034999971045,True,17
11K19,127,experiment,33,↓,down,↓,0.7644077000004472,True,17
11K19,128,experiment,43,↓,down,↓,0.6421548999933293,True,17
11K19,129,experiment,36,←,left,←,0.8900966999935918,True,17
11K19,130,experiment,31,↓,down,↓,0.7949592000077246,True,17
11K19,131,experiment,24,↑,up,↑,0.452321499993559,True,17
11K19,132,experiment,41,↑,up,↑,0.5910313000058522,True,17
11K19,133,experiment,28,↓,up,↑,1.317720000006375,False,17
11K19,134,experiment,16,↑,up,↑,0.6875857999984873,True,17
11K19,135,experiment,34,↓,down,↓,0.814456699998118,True,17
11K19,136,experiment,27,←,right,→,1.0847579999972368,False,17
11K19,137,experiment,50,←,left,←,0.569371499994304,True,17
11K19,138,experiment,17,↓,down,↓,0.679977300009341,True,17
11K19,139,experiment,59,↑,up,↑,1.742365099999006,True,17
11K19,140,experiment,40,→,right,→,1.0087995999929262,True,17
11K19,141,training,22,↓,down,↓,0.7718105999956606,True,16
11K19,142,training,21,↓,down,↓,0.6081989999947837,True,16
11K19,143,experiment,39,←,left,←,0.7750280000036582,True,16
11K19,144,experiment,15,↑,up,↑,0.8229295000055572,True,16
11K19,145,experiment,16,↓,down,↓,0.8364173999871127,True,16
11K19,146,experiment,24,↑,up,↑,0.7719904999976279,True,16
11K19,147,experiment,32,←,left,←,0.9608927999943262,True,16
11K19,148,experiment,60,↓,down,↓,0.7481104000034975,True,16
11K19,149,experiment,29,↑,up,↑,1.03575580001052,True,16
11K19,150,experiment,19,↓,down,↓,0.8307249999925261,True,16
11K19,151,experiment,38,↓,down,↓,0.8369291999988491,True,16
11K19,152,experiment,41,←,left,←,0.7453634999983478,True,16
11K19,153,experiment,51,→,right,→,0.7150997999997344,True,16
11K19,154,experiment,18,↑,up,↑,0.6433073000080185,True,16
11K19,155,experiment,57,←,left,←,0.5412057999928948,True,16
11K19,156,experiment,28,↓,up,↑,1.3337597999925492,False,16
11K19,157,experiment,43,↓,down,↓,0.7255413999955636,True,16
11K19,158,experiment,54,→,right,→,0.813764300008188,True,16
11K19,159,experiment,46,←,left,←,0.8884436999942409,True,16
11K19,160,experiment,55,→,right,→,0.7122852000029525,True,16
11K19,161,experiment,53,↓,down,↓,1.1940908999968087,True,16
11K19,162,experiment,23,→,no_key,no_letter,-1.0,False,16
11K19,163,experiment,27,←,left,←,0.9826769000064814,True,16
11K19,164,experiment,20,↑,up,↑,0.6268708000134211,True,16
11K19,165,experiment,26,→,right,→,1.1058751000091434,True,16
11K19,166,experiment,21,↑,up,↑,0.7527154999988852,True,16
11K19,167,experiment,13,↓,down,↓,0.8828593999933219,True,16
11K19,168,experiment,30,→,right,→,0.596623700010241,True,16
11K19,169,experiment,22,↓,down,↓,0.5984803000028478,True,16
11K19,170,experiment,37,→,right,→,0.5346580999903381,True,16
11K19,171,experiment,14,←,left,←,0.4728379999869503,True,16
11K19,172,experiment,34,↑,up,↑,0.6561477000068408,True,16
11K19,173,experiment,31,←,left,←,0.610426400002325,True,16
11K19,174,experiment,50,→,right,→,0.6900153000024147,True,16
11K19,175,experiment,58,←,left,←,0.48914040000818204,True,16
11K19,176,experiment,48,→,right,→,0.4635541000025114,True,16
11K19,177,experiment,59,↓,down,↓,0.6457094000070356,True,16
11K19,178,experiment,36,↓,down,↓,0.6373033999989275,True,16
11K19,179,experiment,45,↓,down,↓,0.6388535000005504,True,16
11K19,180,experiment,49,→,right,→,0.5820788999990327,True,16
11K19,181,experiment,25,→,right,→,0.7347066000074847,True,16
11K19,182,experiment,40,↑,up,↑,0.8076090999966254,True,16
11K19,183,experiment,56,←,left,←,0.5633719000034034,True,16
11K19,184,experiment,52,↑,up,↑,0.8190285999880871,True,16
11K19,185,experiment,33,→,right,→,0.6292934999946738,True,16
11K19,186,experiment,42,↓,down,↓,0.80094950000057,True,16
11K19,187,experiment,17,→,right,→,0.7344107000099029,True,16
11K19,188,experiment,44,→,left,←,1.0048276000015903,False,16
11K19,189,experiment,47,→,right,→,0.7028954999987036,True,16
11K19,190,experiment,35,←,left,←,0.6361582999961684,True,16
11K19,191,training,50,↓,down,↓,0.6745811000000685,True,15
11K19,192,training,48,↓,down,↓,0.9126378999935696,True,15
11K19,193,experiment,19,←,left,←,0.9682295000093291,True,15
11K19,194,experiment,16,↑,up,↑,0.7836334000021452,True,15
11K19,195,experiment,49,↓,down,↓,0.9767677000054391,True,15
11K19,196,experiment,59,↓,down,↓,0.7399985999945784,True,15
11K19,197,experiment,37,→,right,→,0.6629228000092553,True,15
11K19,198,experiment,30,↑,left,←,1.169237800000701,False,15
11K19,199,experiment,26,↑,up,↑,0.530522299988661,True,15
11K19,200,experiment,41,←,left,←,0.7624210000067251,True,15
11K19,201,experiment,53,↓,up,↑,1.050218499993207,False,15
11K19,202,experiment,46,→,right,→,0.9468510000006063,True,15
11K19,203,experiment,42,↓,left,←,1.6097854999970878,False,15
11K19,204,experiment,45,←,left,←,0.7012011000042548,True,15
11K19,205,experiment,34,→,right,→,0.699500699993223,True,15
11K19,206,experiment,40,←,left,←,0.7100515000056475,True,15
11K19,207,experiment,60,→,right,→,0.8911835000035353,True,15
11K19,208,experiment,55,↓,up,↑,0.8841393000038806,False,15
11K19,209,experiment,44,↓,down,↓,0.6605160000035539,True,15
11K19,210,experiment,27,↑,up,↑,1.129362100007711,True,15
11K19,211,experiment,50,↓,down,↓,0.867827699999907,True,15
11K19,212,experiment,29,→,right,→,0.7508635999984108,True,15
11K19,213,experiment,17,→,right,→,1.014295700006187,True,15
11K19,214,experiment,20,↑,up,↑,0.6172155999956885,True,15
11K19,215,experiment,31,↑,up,↑,0.6367222000117181,True,15
11K19,216,experiment,32,↑,up,↑,0.6713222000107635,True,15
11K19,217,experiment,24,←,right,→,0.7971477000101004,False,15
11K19,218,experiment,43,↑,up,↑,0.7221090000093682,True,15
11K19,219,experiment,57,↑,up,↑,0.6479078999982448,True,15
11K19,220,experiment,33,↓,up,↑,1.512839900009567,False,15
11K19,221,experiment,48,→,right,→,0.4774844000057783,True,15
11K19,222,experiment,14,↑,up,↑,0.8261127999867313,True,15
11K19,223,experiment,36,↑,up,↑,0.6025355000019772,True,15
11K19,224,experiment,54,→,right,→,0.6474706000008155,True,15
11K19,225,experiment,13,→,left,←,1.429405200004112,False,15
11K19,226,experiment,39,←,left,←,0.6515251999953762,True,15
11K19,227,experiment,56,↑,up,↑,0.4292379000107758,True,15
11K19,228,experiment,51,↑,up,↑,0.7311274999956368,True,15
11K19,229,experiment,25,←,left,←,0.5496584000065923,True,15
11K19,230,experiment,58,↑,up,↑,0.5460124999954132,True,15
11K19,231,experiment,15,→,right,→,0.5230156000034185,True,15
11K19,232,experiment,22,↓,up,↑,0.7281591999926604,False,15
11K19,233,experiment,21,←,left,←,1.2145579000061844,True,15
11K19,234,experiment,28,←,right,→,0.740187400006107,False,15
11K19,235,experiment,38,↓,down,↓,0.7265270000061719,True,15
11K19,236,experiment,35,←,left,←,0.6993124000000535,True,15
11K19,237,experiment,23,↑,up,↑,0.5448456000012811,True,15
11K19,238,experiment,18,←,left,←,0.512020099995425,True,15
11K19,239,experiment,52,→,right,→,0.7304294000059599,True,15
11K19,240,experiment,47,→,right,→,0.5107185000088066,True,15
11K19,241,training,29,←,left,←,0.8022999999957392,True,15
11K19,242,training,40,↑,up,↑,0.6326053999946453,True,15
11K19,243,experiment,34,↑,up,↑,0.8653830000112066,True,15
11K19,244,experiment,56,↑,up,↑,1.0585877999983495,True,15
11K19,245,experiment,26,←,left,←,0.8402480999939144,True,15
11K19,246,experiment,50,↑,up,↑,0.8706451000034576,True,15
11K19,247,experiment,24,→,right,→,0.8529138000012608,True,15
11K19,248,experiment,22,←,right,→,1.0373770000005607,False,15
11K19,249,experiment,52,↓,down,↓,0.8823163000051863,True,15
11K19,250,experiment,46,→,right,→,0.7054268000065349,True,15
11K19,251,experiment,57,↑,up,↑,0.7925419000093825,True,15
11K19,252,experiment,45,↓,down,↓,0.9802506999985781,True,15
11K19,253,experiment,51,←,left,←,1.0920273999945493,True,15
11K19,254,experiment,32,↑,up,↑,0.7968075000098906,True,15
11K19,255,experiment,14,↓,down,↓,0.900023099995451,True,15
11K19,256,experiment,13,←,left,←,0.9280197999905795,True,15
11K19,257,experiment,47,→,left,←,1.5811684999935096,False,15
11K19,258,experiment,37,↑,down,↓,0.9191305999993347,False,15
11K19,259,experiment,31,→,right,→,0.7021791000006488,True,15
11K19,260,experiment,60,←,left,←,0.7313718999939738,True,15
11K19,261,experiment,40,↓,down,↓,0.8123311999952421,True,15
11K19,262,experiment,44,↓,down,↓,0.8720152000023518,True,15
11K19,263,experiment,35,←,left,←,0.8309776999958558,True,15
11K19,264,experiment,25,←,left,←,0.8779441000078805,True,15
11K19,265,experiment,18,↓,down,↓,0.9441211000084877,True,15
11K19,266,experiment,49,←,left,←,0.723306700005196,True,15
11K19,267,experiment,36,→,left,←,1.311524200005806,False,15
11K19,268,experiment,48,↓,down,↓,0.6208479999913834,True,15
11K19,269,experiment,29,↓,down,↓,0.7857050000020536,True,15
11K19,270,experiment,38,←,down,↓,1.4580241000076057,False,15
11K19,271,experiment,27,→,right,→,0.8311634999990929,True,15
11K19,272,experiment,41,↓,down,↓,0.7475537999998778,True,15
11K19,273,experiment,43,↑,down,↓,0.882063900004141,False,15
11K19,274,experiment,20,→,left,←,0.8903423000010662,False,15
11K19,275,experiment,42,↑,up,↑,0.7078160000091884,True,15
11K19,276,experiment,33,↓,down,↓,0.7867298999917693,True,15
11K19,277,experiment,28,→,right,→,1.0416611999971792,True,15
11K19,278,experiment,16,↓,down,↓,0.7105823000019882,True,15
11K19,279,experiment,21,↓,down,↓,0.6134682999982033,True,15
11K19,280,experiment,55,←,left,←,0.6731525000068359,True,15
11K19,281,experiment,53,→,right,→,0.46812480001244694,True,15
11K19,282,experiment,23,→,right,→,0.8509349000087241,True,15
11K19,283,experiment,59,↓,down,↓,0.6268842999998014,True,15
11K19,284,experiment,17,↑,up,↑,0.5435624000092503,True,15
11K19,285,experiment,19,↓,down,↓,0.7581447999982629,True,15
11K19,286,experiment,54,→,right,→,0.7092093999963254,True,15
11K19,287,experiment,30,↓,down,↓,1.3502158999908715,True,15
11K19,288,experiment,15,→,left,←,0.8071213999937754,False,15
11K19,289,experiment,58,↑,up,↑,0.697699799988186,True,15
11K19,290,experiment,39,↓,down,↓,0.8366458999953466,True,15
11K19,291,training,34,←,left,←,0.6789977000007639,True,15
11K19,292,training,36,→,right,→,0.6932512999919709,True,15
11K19,293,experiment,51,↑,up,↑,1.12892109999666,True,15
11K19,294,experiment,38,←,right,→,1.844163200003095,False,15
11K19,295,experiment,28,→,right,→,0.8501292000000831,True,15
11K19,296,experiment,50,↑,up,↑,1.7592482000036398,True,15
11K19,297,experiment,35,→,right,→,0.6356996999966213,True,15
11K19,298,experiment,13,↑,right,→,1.322080099998857,False,15
11K19,299,experiment,27,←,left,←,0.7245275000022957,True,15
11K19,300,experiment,46,↓,down,↓,0.9382812000112608,True,15
11K19,301,experiment,30,←,left,←,0.67391920000955,True,15
11K19,302,experiment,37,↑,up,↑,0.7034539000014775,True,15
11K19,303,experiment,55,←,left,←,0.639947800009395,True,15
11K19,304,experiment,36,↑,up,↑,0.727802099994733,True,15
11K19,305,experiment,42,←,left,←,1.5119554000120843,True,15
11K19,306,experiment,34,←,right,→,0.7104461999988416,False,15
11K19,307,experiment,48,↓,down,↓,0.9074131999950623,True,15
11K19,308,experiment,58,→,right,→,0.7620647000003373,True,15
11K19,309,experiment,41,←,left,←,0.8976271999999881,True,15
11K19,310,experiment,45,←,left,←,0.6566657000075793,True,15
11K19,311,experiment,17,→,left,←,1.0921578999987105,False,15
11K19,312,experiment,16,→,right,→,0.5670413000043482,True,15
11K19,313,experiment,29,←,left,←,0.6218483999982709,True,15
11K19,314,experiment,20,↑,no_key,no_letter,-1.0,False,15
11K19,315,experiment,23,→,right,→,0.8700337000045693,True,15
11K19,316,experiment,40,↓,down,↓,0.8257696999935433,True,15
11K19,317,experiment,15,↑,down,↓,0.8878752000018721,False,15
11K19,318,experiment,43,↓,down,↓,1.1691035999974702,True,15
11K19,319,experiment,53,←,left,←,0.5684971000009682,True,15
11K19,320,experiment,52,→,left,←,0.7443260000000009,False,15
11K19,321,experiment,25,→,right,→,0.778768600008334,True,15
11K19,322,experiment,39,←,left,←,0.5309906000038609,True,15
11K19,323,experiment,33,↑,up,↑,0.8090706999937538,True,15
11K19,324,experiment,59,←,left,←,0.5464826000097673,True,15
11K19,325,experiment,60,↑,up,↑,1.7014133000047877,True,15
11K19,326,experiment,49,←,left,←,0.722335699989344,True,15
11K19,327,experiment,18,↓,down,↓,0.8024016999988817,True,15
11K19,328,experiment,22,→,right,→,0.5406150999915553,True,15
11K19,329,experiment,31,→,left,←,0.6756970000133151,False,15
11K19,330,experiment,26,↓,down,↓,0.48819210000510793,True,15
11K19,331,experiment,32,←,left,←,0.6805059999896912,True,15
11K19,332,experiment,54,←,left,←,0.7140205000032438,True,15
11K19,333,experiment,56,←,left,←,0.7210399000032339,True,15
11K19,334,experiment,47,→,right,→,0.6621882000035839,True,15
11K19,335,experiment,19,←,left,←,0.8484925999946427,True,15
11K19,336,experiment,44,↑,up,↑,0.5219690999947488,True,15
11K19,337,experiment,14,↑,right,→,0.9566365999926347,False,15
11K19,338,experiment,21,→,right,→,0.6738799000013387,True,15
11K19,339,experiment,57,←,left,←,1.594300499986275,True,15
11K19,340,experiment,24,←,left,←,0.6040092000039294,True,15
11K19,341,training,49,←,left,←,0.6237700000056066,True,15
11K19,342,training,30,→,right,→,0.8599575999978697,True,15
11K19,343,experiment,17,↑,up,↑,0.9037964000017382,True,15
11K19,344,experiment,40,→,up,↑,1.3380868999956874,False,15
11K19,345,experiment,36,←,left,←,0.7817481999954907,True,15
11K19,346,experiment,46,→,right,→,0.8487564999959432,True,15
11K19,347,experiment,18,↑,up,↑,0.7638198000058765,True,15
11K19,348,experiment,19,↑,up,↑,0.7850810999952955,True,15
11K19,349,experiment,13,←,left,←,0.7458612999907928,True,15
11K19,350,experiment,58,←,left,←,0.6789630999992369,True,15
11K19,351,experiment,56,↑,left,←,1.5440959000115981,False,15
11K19,352,experiment,23,→,right,→,0.6846810999995796,True,15
11K19,353,experiment,24,→,right,→,0.7221273000031943,True,15
11K19,354,experiment,48,↓,down,↓,0.7424969999992754,True,15
11K19,355,experiment,51,↓,down,↓,0.8402657000115141,True,15
11K19,356,experiment,16,↑,up,↑,0.7971055999951204,True,15
11K19,357,experiment,37,←,left,←,0.7656386000016937,True,15
11K19,358,experiment,35,←,left,←,0.5763153999869246,True,15
11K19,359,experiment,34,↓,down,↓,0.8839210000005551,True,15
11K19,360,experiment,47,↓,down,↓,0.3839311000047019,True,15
11K19,361,experiment,43,↓,down,↓,0.78243009999278,True,15
11K19,362,experiment,22,←,right,→,0.8413407000043662,False,15
11K19,363,experiment,30,←,left,←,0.7088905999989947,True,15
11K19,364,experiment,26,↑,down,↓,1.2084295999957249,False,15
11K19,365,experiment,38,↑,up,↑,0.6402600000001257,True,15
11K19,366,experiment,50,↑,up,↑,0.5185402999923099,True,15
11K19,367,experiment,25,←,left,←,0.5463771999930032,True,15
11K19,368,experiment,31,←,left,←,0.5607722999993712,True,15
11K19,369,experiment,44,↓,down,↓,0.670372699998552,True,15
11K19,370,experiment,39,↓,down,↓,0.666622799995821,True,15
11K19,371,experiment,20,←,left,←,0.5714967000094475,True,15
11K19,372,experiment,29,↓,down,↓,0.738208199996734,True,15
11K19,373,experiment,14,→,right,→,0.7163933999981964,True,15
11K19,374,experiment,32,→,left,←,1.267211899990798,False,15
11K19,375,experiment,45,↓,down,↓,0.6919198000105098,True,15
11K19,376,experiment,15,↓,down,↓,0.8153145999967819,True,15
11K19,377,experiment,52,↑,up,↑,0.7169357999955537,True,15
11K19,378,experiment,53,↑,up,↑,0.7260873000050196,True,15
11K19,379,experiment,57,↓,down,↓,0.6284989999985555,True,15
11K19,380,experiment,54,→,right,→,0.6248890999995638,True,15
11K19,381,experiment,60,↑,up,↑,0.9053599999897415,True,15
11K19,382,experiment,49,↑,up,↑,0.534058899997035,True,15
11K19,383,experiment,28,←,right,→,0.7426368000014918,False,15
11K19,384,experiment,41,↑,up,↑,0.5348056999937398,True,15
11K19,385,experiment,59,←,right,→,0.48320079999393784,False,15
11K19,386,experiment,21,↑,up,↑,0.7787454999925103,True,15
11K19,387,experiment,33,↑,up,↑,0.6788610999938101,True,15
11K19,388,experiment,55,↑,up,↑,0.8645340000075521,True,15
11K19,389,experiment,42,→,right,→,0.9149362000025576,True,15
11K19,390,experiment,27,↓,down,↓,0.8372514000075171,True,15
11K19,391,training,21,←,right,→,1.1566702000127407,False,15
11K19,392,training,16,←,left,←,0.5649115999985952,True,15
11K19,393,experiment,17,→,right,→,0.6842696000094293,True,15
11K19,394,experiment,48,←,left,←,0.6018050999991829,True,15
11K19,395,experiment,35,←,left,←,0.6108538999978919,True,15
11K19,396,experiment,43,→,right,→,0.7352441999973962,True,15
11K19,397,experiment,15,↓,down,↓,0.7128151999932015,True,15
11K19,398,experiment,45,↑,up,↑,0.7354739000002155,True,15
11K19,399,experiment,18,↓,down,↓,0.47094869999273214,True,15
11K19,400,experiment,41,→,right,→,0.6338654000137467,True,15
11K19,401,experiment,59,←,left,←,0.6023520000017015,True,15
11K19,402,experiment,42,→,right,→,0.6550888000056148,True,15
11K19,403,experiment,44,↑,up,↑,0.976797199997236,True,15
11K19,404,experiment,14,→,right,→,0.785712800003239,True,15
11K19,405,experiment,32,↑,up,↑,0.5258707000029972,True,15
11K19,406,experiment,46,→,right,→,0.4514672000077553,True,15
11K19,407,experiment,26,↓,down,↓,0.760933900004602,True,15
11K19,408,experiment,29,←,left,←,0.7444603000039933,True,15
11K19,409,experiment,22,→,right,→,0.4532941000070423,True,15
11K19,410,experiment,28,→,right,→,0.5294194000016432,True,15
11K19,411,experiment,31,→,right,→,0.744777999992948,True,15
11K19,412,experiment,30,↓,down,↓,0.7762998999969568,True,15
11K19,413,experiment,21,←,right,→,1.0125348000001395,False,15
11K19,414,experiment,37,↓,down,↓,0.8042572000122163,True,15
11K19,415,experiment,23,→,right,→,0.9912336999987019,True,15
11K19,416,experiment,36,↑,up,↑,0.7918171000055736,True,15
11K19,417,experiment,56,←,left,←,0.8920433000021148,True,15
11K19,418,experiment,38,→,right,→,0.8243808999977773,True,15
11K19,419,experiment,47,←,left,←,0.6415604000067106,True,15
11K19,420,experiment,55,↓,down,↓,0.8604660000128206,True,15
11K19,421,experiment,50,↓,down,↓,0.666354400003911,True,15
11K19,422,experiment,39,↑,up,↑,0.7585130000079516,True,15
11K19,423,experiment,25,←,right,→,0.6329450999910478,False,15
11K19,424,experiment,54,←,left,←,0.7087695999944117,True,15
11K19,425,experiment,24,→,left,←,0.8812832999974489,False,15
11K19,426,experiment,49,→,right,→,0.6783544000063557,True,15
11K19,427,experiment,16,↑,up,↑,0.8657863999978872,True,15
11K19,428,experiment,58,↓,down,↓,0.6176113999972586,True,15
11K19,429,experiment,33,→,right,→,0.6918635000038194,True,15
11K19,430,experiment,34,↑,up,↑,0.954975500004366,True,15
11K19,431,experiment,40,↓,down,↓,0.7634379000082845,True,15
11K19,432,experiment,52,↓,down,↓,0.7956560000020545,True,15
11K19,433,experiment,51,↑,up,↑,0.5953024000045843,True,15
11K19,434,experiment,60,←,left,←,0.8850414000044111,True,15
11K19,435,experiment,13,←,right,→,0.6658128999988548,False,15
11K19,436,experiment,57,→,right,→,0.6743085999914911,True,15
11K19,437,experiment,27,←,right,→,1.750425999998697,False,15
11K19,438,experiment,20,←,right,→,0.6204424999887124,False,15
11K19,439,experiment,19,↓,up,↑,0.8477992999978596,False,15
11K19,440,experiment,53,↓,down,↓,0.44370469999557827,True,15
11K19,441,training,38,→,right,→,0.5129712000052677,True,15
11K19,442,training,26,↑,up,↑,0.8517908999929205,True,15
11K19,443,experiment,34,←,left,←,0.9479854000092018,True,15
11K19,444,experiment,49,↓,down,↓,0.8945413999899756,True,15
11K19,445,experiment,51,←,left,←,0.9542726000072435,True,15
11K19,446,experiment,35,↑,no_key,no_letter,-1.0,False,15
11K19,447,experiment,59,→,right,→,0.8123440000053961,True,15
11K19,448,experiment,44,←,left,←,0.6316774000006262,True,15
11K19,449,experiment,47,↓,down,↓,0.6476629999961006,True,15
11K19,450,experiment,25,↑,down,↓,0.8301772999984678,False,15
11K19,451,experiment,16,↓,down,↓,0.7546978000027593,True,15
11K19,452,experiment,54,↑,up,↑,0.7617379000002984,True,15
11K19,453,experiment,13,→,right,→,0.6199256999971112,True,15
11K19,454,experiment,50,→,right,→,0.5868296999979066,True,15
11K19,455,experiment,30,↑,up,↑,0.5523408000008203,True,15
11K19,456,experiment,37,→,right,→,0.6506404999963706,True,15
11K19,457,experiment,52,→,right,→,0.6709430000046268,True,15
11K19,458,experiment,21,↑,down,↓,0.8791957000066759,False,15
11K19,459,experiment,58,←,left,←,0.726817899994785,True,15
11K19,460,experiment,14,→,right,→,0.48965489999682177,True,15
11K19,461,experiment,55,↓,right,→,0.9305748000042513,False,15
11K19,462,experiment,27,↓,down,↓,0.508311199999298,True,15
11K19,463,experiment,32,→,right,→,0.7160057000000961,True,15
11K19,464,experiment,48,→,right,→,0.4880706999974791,True,15
11K19,465,experiment,29,↑,up,↑,0.6662445999972988,True,15
11K19,466,experiment,46,↑,up,↑,0.6580476999952225,True,15
11K19,467,experiment,17,↓,down,↓,0.7731518999935361,True,15
11K19,468,experiment,39,→,right,→,0.661545799986925,True,15
11K19,469,experiment,20,↓,down,↓,0.5429417999985162,True,15
11K19,470,experiment,45,←,left,←,1.1088008000078844,True,15
11K19,471,experiment,22,↑,up,↑,0.7071448000060627,True,15
11K19,472,experiment,23,↓,down,↓,0.5123450999963097,True,15
11K19,473,experiment,38,←,left,←,0.7718380000005709,True,15
11K19,474,experiment,28,→,right,→,0.5157600999955321,True,15
11K19,475,experiment,53,↑,up,↑,0.5244629999942845,True,15
11K19,476,experiment,19,←,left,←,0.5319365000032121,True,15
11K19,477,experiment,57,←,left,←,0.48948530000052415,True,15
11K19,478,experiment,41,↑,up,↑,0.6196401999914087,True,15
11K19,479,experiment,18,↓,up,↑,0.7996380999975372,False,15
11K19,480,experiment,43,↑,up,↑,0.8360357000055956,True,15
11K19,481,experiment,26,↓,down,↓,0.7704173999954946,True,15
11K19,482,experiment,33,↓,down,↓,0.6306585999991512,True,15
11K19,483,experiment,24,↑,up,↑,0.6860082000057446,True,15
11K19,484,experiment,31,←,left,←,0.655049200009671,True,15
11K19,485,experiment,40,↓,down,↓,0.667622199995094,True,15
11K19,486,experiment,36,←,left,←,0.6494301999919116,True,15
11K19,487,experiment,42,→,left,←,0.8364024999900721,False,15
11K19,488,experiment,15,↓,down,↓,0.889847300000838,True,15
11K19,489,experiment,56,↓,down,↓,0.5782898000034038,True,15
11K19,490,experiment,60,←,left,←,0.7807165999984136,True,15
11K19,491,training,39,↓,down,↓,0.43676050000067335,True,15
11K19,492,training,58,←,left,←,0.6376151000004029,True,15
11K19,493,experiment,23,↑,up,↑,0.757702299990342,True,15
11K19,494,experiment,35,←,left,←,0.6813778999930946,True,15
11K19,495,experiment,24,←,left,←,0.6071787999972003,True,15
11K19,496,experiment,19,→,right,→,0.4831131999962963,True,15
11K19,497,experiment,46,↑,up,↑,0.5218353999953251,True,15
11K19,498,experiment,20,→,right,→,0.7204575999930967,True,15
11K19,499,experiment,14,→,right,→,0.643501299986383,True,15
11K19,500,experiment,39,↓,down,↓,0.4968929000024218,True,15
11K19,501,experiment,54,→,right,→,0.5859558999945875,True,15
11K19,502,experiment,48,←,left,←,0.48348139999143314,True,15
11K19,503,experiment,47,↓,down,↓,0.7456322000070941,True,15
11K19,504,experiment,56,→,left,←,0.5601350999932038,False,15
11K19,505,experiment,26,↓,down,↓,0.6655377999995835,True,15
11K19,506,experiment,18,↓,down,↓,0.5556216999975732,True,15
11K19,507,experiment,49,←,left,←,0.6300482999940868,True,15
11K19,508,experiment,27,←,left,←,0.7083417000103509,True,15
11K19,509,experiment,21,→,left,←,1.4828382000123383,False,15
11K19,510,experiment,43,→,right,→,0.6122470999980578,True,15
11K19,511,experiment,36,↓,down,↓,0.5891396000079112,True,15
11K19,512,experiment,33,↓,down,↓,0.6087140000017826,True,15
11K19,513,experiment,13,↑,up,↑,0.7846600999910152,True,15
11K19,514,experiment,55,↑,up,↑,0.6380193999939365,True,15
11K19,515,experiment,59,←,left,←,0.4463486000022385,True,15
11K19,516,experiment,52,↓,right,→,1.0425233999994816,False,15
11K19,517,experiment,25,↑,up,↑,0.47347320000699256,True,15
11K19,518,experiment,50,↑,up,↑,0.7103917999920668,True,15
11K19,519,experiment,45,→,right,→,0.6213859999988927,True,15
11K19,520,experiment,58,↓,down,↓,0.6790697999967961,True,15
11K19,521,experiment,31,→,right,→,0.6086719000013545,True,15
11K19,522,experiment,16,→,right,→,0.5752248000062536,True,15
11K19,523,experiment,28,↑,up,↑,0.7182021000044188,True,15
11K19,524,experiment,40,→,right,→,0.4798282999981893,True,15
11K19,525,experiment,37,→,right,→,0.6374668000062229,True,15
11K19,526,experiment,44,←,left,←,0.6636400999996113,True,15
11K19,527,experiment,34,↑,up,↑,0.9031609000085155,True,15
11K19,528,experiment,51,↑,up,↑,0.5862060999934329,True,15
11K19,529,experiment,53,→,right,→,0.7685376000008546,True,15
11K19,530,experiment,17,↓,down,↓,0.5916753000055905,True,15
11K19,531,experiment,30,↑,up,↑,0.8288424999918789,True,15
11K19,532,experiment,57,↑,right,→,0.7993893999955617,False,15
11K19,533,experiment,15,↓,up,↑,1.0141768000030424,False,15
11K19,534,experiment,42,→,right,→,0.5866442999977153,True,15
11K19,535,experiment,22,←,left,←,0.5173275999986799,True,15
11K19,536,experiment,60,←,left,←,0.7376950000034412,True,15
11K19,537,experiment,29,↑,up,↑,0.4499822000070708,True,15
11K19,538,experiment,41,→,right,→,0.677475400007097,True,15
11K19,539,experiment,38,↑,up,↑,0.7464093000016874,True,15
11K19,540,experiment,32,←,left,←,0.7363267000037013,True,15
11K19,541,training,26,↑,up,↑,0.6056799000070896,True,15
11K19,542,training,21,←,left,←,0.7284011000010651,True,15
11K19,543,experiment,45,←,left,←,0.64706699999806,True,15
11K19,544,experiment,24,←,left,←,0.6860777000110829,True,15
11K19,545,experiment,56,↑,up,↑,0.6225950999942143,True,15
11K19,546,experiment,16,←,left,←,0.643897800007835,True,15
11K19,547,experiment,20,↓,down,↓,0.5661431999906199,True,15
11K19,548,experiment,48,←,left,←,0.7201858999906108,True,15
11K19,549,experiment,32,↓,down,↓,0.6635194000118645,True,15
11K19,550,experiment,33,↑,up,↑,0.7114161000063177,True,15
11K19,551,experiment,15,→,up,↑,0.9061318999883952,False,15
11K19,552,experiment,59,↓,down,↓,0.7840824000013527,True,15
11K19,553,experiment,51,→,right,→,0.5199033999961102,True,15
11K19,554,experiment,44,→,right,→,0.6547198999905959,True,15
11K19,555,experiment,27,←,left,←,0.5861686999996891,True,15
11K19,556,experiment,38,↑,down,↓,0.7143832000001566,False,15
11K19,557,experiment,49,←,left,←,0.5821346000011545,True,15
11K19,558,experiment,23,↓,down,↓,0.4723934000066947,True,15
11K19,559,experiment,52,→,right,→,0.4278600999969058,True,15
11K19,560,experiment,22,↑,up,↑,1.0765559999999823,True,15
11K19,561,experiment,46,↓,down,↓,0.4524315999879036,True,15
11K19,562,experiment,50,←,left,←,0.6022570000059204,True,15
11K19,563,experiment,26,→,right,→,0.46541489999799524,True,15
11K19,564,experiment,21,↓,down,↓,0.7935372999927495,True,15
11K19,565,experiment,13,→,right,→,0.5943107999919448,True,15
11K19,566,experiment,55,↓,down,↓,0.5674728000012692,True,15
11K19,567,experiment,31,←,left,←,0.6208544999972219,True,15
11K19,568,experiment,14,↓,down,↓,0.45955049998883624,True,15
11K19,569,experiment,25,→,right,→,0.537436800004798,True,15
11K19,570,experiment,17,←,right,→,0.7695072999922559,False,15
11K19,571,experiment,29,↓,down,↓,0.688381500003743,True,15
11K19,572,experiment,34,→,right,→,0.5193320999969728,True,15
11K19,573,experiment,43,←,left,←,0.6311759000091115,True,15
11K19,574,experiment,41,↓,down,↓,0.6190552000043681,True,15
11K19,575,experiment,19,↑,up,↑,0.5106792000005953,True,15
11K19,576,experiment,53,←,left,←,0.50441390000924,True,15
11K19,577,experiment,60,→,right,→,0.8774354000051972,True,15
11K19,578,experiment,37,→,right,→,0.7387780999997631,True,15
11K19,579,experiment,18,←,left,←,0.5863801999948919,True,15
11K19,580,experiment,36,←,right,→,0.9079913000023225,False,15
11K19,581,experiment,42,↓,down,↓,0.5329044999962207,True,15
11K19,582,experiment,39,←,left,←,0.751051200000802,True,15
11K19,583,experiment,47,↑,up,↑,0.8504623000044376,True,15
11K19,584,experiment,57,→,right,→,0.5153361999982735,True,15
11K19,585,experiment,54,↓,down,↓,0.5876456999976654,True,15
11K19,586,experiment,35,←,left,←,1.0698886000027414,True,15
11K19,587,experiment,28,←,left,←,0.5054600999865215,True,15
11K19,588,experiment,58,↓,down,↓,0.6238872999965679,True,15
11K19,589,experiment,40,→,right,→,0.5734607999911532,True,15
11K19,590,experiment,30,↓,down,↓,0.6355864000070142,True,15
