PART_ID,Trial_no,Trial_type,CSI,Stim_letter,Key_pressed,letter_choose,Rt,Corr,Stimulus Time
124K21,1,training,60,→,left,←,0.5169074998702854,False,30
124K21,2,training,60,←,left,←,0.7787158000282943,True,30
124K21,3,training,60,→,right,→,0.7544625999871641,True,30
124K21,4,training,60,↑,down,↓,0.7080852000508457,False,30
124K21,5,training,60,←,left,←,0.7831629000138491,True,30
124K21,6,training,60,←,no_key,no_letter,-1.0,False,30
124K21,7,training,60,↓,down,↓,0.7277431001421064,True,30
124K21,8,training,60,←,left,←,0.6169082999695092,True,30
124K21,9,training,60,↓,left,←,0.5538149999920279,False,30
124K21,10,training,60,↓,down,↓,0.5499460999853909,True,30
124K21,11,training,60,→,no_key,no_letter,-1.0,False,30
124K21,12,training,60,→,right,→,0.7137239000294358,True,30
124K21,13,training,60,→,right,→,0.600582999875769,True,30
124K21,14,training,60,↓,down,↓,0.6829626001417637,True,30
124K21,15,training,60,↓,down,↓,0.550586000084877,True,30
124K21,16,training,60,↓,down,↓,0.584095099940896,True,30
124K21,17,training,60,→,right,→,0.7110971000511199,True,30
124K21,18,training,60,←,left,←,0.5840566998813301,True,30
124K21,19,training,60,←,left,←,0.500665299827233,True,30
124K21,20,training,60,←,left,←,0.6007160001900047,True,30
124K21,21,training,60,↑,up,↑,0.7196627999655902,True,18
124K21,22,training,60,→,right,→,0.6583369998261333,True,18
124K21,23,training,60,↓,down,↓,0.6716066000517458,True,18
124K21,24,training,60,↓,down,↓,0.5323562999255955,True,18
124K21,25,training,60,↓,up,↑,1.166286899941042,False,18
124K21,26,training,60,→,right,→,0.7192251000087708,True,18
124K21,27,training,60,←,left,←,0.7222122000530362,True,18
124K21,28,training,60,→,right,→,0.5002911000046879,True,18
124K21,29,training,60,↑,up,↑,0.48770739999599755,True,18
124K21,30,training,60,↑,up,↑,0.8355942000634968,True,18
124K21,31,training,60,←,right,→,0.8415721000637859,False,18
124K21,32,training,60,←,left,←,0.7197022999171168,True,18
124K21,33,training,60,→,right,→,0.5224163001403213,True,18
124K21,34,training,60,→,right,→,0.573100000154227,True,18
124K21,35,training,60,←,left,←,0.47008609981276095,True,18
124K21,36,training,60,→,right,→,0.48184569994919,True,18
124K21,37,training,60,↑,up,↑,0.829567699925974,True,18
124K21,38,training,60,↑,up,↑,0.6435694999527186,True,18
124K21,39,training,60,←,left,←,0.7129520000889897,True,18
124K21,40,training,60,↑,up,↑,0.5155460999812931,True,18
124K21,41,training,56,↑,up,↑,0.5061950001399964,True,18
124K21,42,training,21,→,left,←,1.6162839999888092,False,18
124K21,43,experiment,39,↓,down,↓,1.1175549000035971,True,18
124K21,44,experiment,59,↑,up,↑,0.5536110999528319,True,18
124K21,45,experiment,52,↓,down,↓,1.0168414998333901,True,18
124K21,46,experiment,15,→,up,↑,1.6862240999471396,False,18
124K21,47,experiment,13,↓,down,↓,0.8743392000906169,True,18
124K21,48,experiment,58,←,left,←,0.6648677000775933,True,18
124K21,49,experiment,46,↓,down,↓,0.8236992999445647,True,18
124K21,50,experiment,24,↓,down,↓,0.726952699944377,True,18
124K21,51,experiment,26,→,down,↓,1.3849083001259714,False,18
124K21,52,experiment,55,←,left,←,0.5730289998464286,True,18
124K21,53,experiment,36,→,left,←,1.014394799945876,False,18
124K21,54,experiment,34,←,left,←,0.8228314998559654,True,18
124K21,55,experiment,17,↑,up,↑,0.8109934001695365,True,18
124K21,56,experiment,18,↑,left,←,1.5350329999346286,False,18
124K21,57,experiment,32,↓,down,↓,0.7561143999919295,True,18
124K21,58,experiment,44,←,left,←,0.47292880015447736,True,18
124K21,59,experiment,29,↑,up,↑,1.2983901998959482,True,18
124K21,60,experiment,22,←,left,←,0.7115925000980496,True,18
124K21,61,experiment,25,←,left,←,1.186843799892813,True,18
124K21,62,experiment,42,←,left,←,0.8635180999990553,True,18
124K21,63,experiment,43,↓,down,↓,0.7201107998844236,True,18
124K21,64,experiment,48,↑,up,↑,0.6677047000266612,True,18
124K21,65,experiment,28,←,up,↑,1.2788336998783052,False,18
124K21,66,experiment,60,↓,up,↑,1.1554752001538873,False,18
124K21,67,experiment,45,→,up,↑,1.0074014000128955,False,18
124K21,68,experiment,50,→,up,↑,0.9341994998976588,False,18
124K21,69,experiment,23,↓,down,↓,0.7774677998386323,True,18
124K21,70,experiment,30,↓,down,↓,1.0068661000113934,True,18
124K21,71,experiment,38,←,left,←,0.7974305998068303,True,18
124K21,72,experiment,51,→,right,→,0.9154578000307083,True,18
124K21,73,experiment,40,↓,right,→,1.2841902000363916,False,18
124K21,74,experiment,53,→,right,→,0.9895452000200748,True,18
124K21,75,experiment,56,↓,down,↓,1.713204100029543,True,18
124K21,76,experiment,57,←,up,↑,0.9662035000510514,False,18
124K21,77,experiment,47,↓,down,↓,0.8641802999190986,True,18
124K21,78,experiment,19,←,left,←,0.7528009000234306,True,18
124K21,79,experiment,33,↓,down,↓,0.652820099843666,True,18
124K21,80,experiment,21,→,right,→,0.8127913998905569,True,18
124K21,81,experiment,31,↓,down,↓,1.6882563999388367,True,18
124K21,82,experiment,20,↓,down,↓,1.0555309997871518,True,18
124K21,83,experiment,49,→,right,→,0.8207959998399019,True,18
124K21,84,experiment,41,→,right,→,0.832715299911797,True,18
124K21,85,experiment,27,↓,down,↓,0.7336616998072714,True,18
124K21,86,experiment,16,↓,down,↓,1.2376969999168068,True,18
124K21,87,experiment,54,↑,no_key,no_letter,-1.0,False,18
124K21,88,experiment,37,↓,down,↓,1.232870199950412,True,18
124K21,89,experiment,14,→,down,↓,1.6462258999235928,False,18
124K21,90,experiment,35,←,right,→,0.7577055001165718,False,18
124K21,91,training,31,↑,up,↑,0.7066616998054087,True,18
124K21,92,training,56,↓,down,↓,0.7854228999931365,True,18
124K21,93,experiment,32,←,left,←,0.5086465000640601,True,18
124K21,94,experiment,36,↑,left,←,1.7766545999329537,False,18
124K21,95,experiment,45,→,right,→,0.5241664000786841,True,18
124K21,96,experiment,34,↑,up,↑,0.640566100133583,True,18
124K21,97,experiment,37,↑,up,↑,0.5825785000342876,True,18
124K21,98,experiment,48,↑,up,↑,0.48728620004840195,True,18
124K21,99,experiment,31,↑,up,↑,0.4334305999800563,True,18
124K21,100,experiment,60,←,up,↑,0.8373642999213189,False,18
124K21,101,experiment,29,→,right,→,0.560611299937591,True,18
124K21,102,experiment,42,←,left,←,0.47864679992198944,True,18
124K21,103,experiment,22,↑,up,↑,0.5247177998535335,True,18
124K21,104,experiment,59,↓,no_key,no_letter,-1.0,False,18
124K21,105,experiment,41,↓,no_key,no_letter,-1.0,False,18
124K21,106,experiment,50,→,up,↑,1.2866505000274628,False,18
124K21,107,experiment,49,←,right,→,0.482673300197348,False,18
124K21,108,experiment,17,→,left,←,1.348097699927166,False,18
124K21,109,experiment,57,↓,down,↓,1.4640641000587493,True,18
124K21,110,experiment,55,→,right,→,0.5287518999539316,True,18
124K21,111,experiment,40,↓,down,↓,0.6492836999241263,True,18
124K21,112,experiment,38,↑,up,↑,0.5258857000153512,True,18
124K21,113,experiment,54,↑,up,↑,0.6933084998745471,True,18
124K21,114,experiment,53,→,left,←,0.7186761999037117,False,18
124K21,115,experiment,52,↓,left,←,1.7513613000046462,False,18
124K21,116,experiment,25,→,right,→,0.7927638001274318,True,18
124K21,117,experiment,44,↑,up,↑,0.5239363999571651,True,18
124K21,118,experiment,16,↓,right,→,0.7408221000805497,False,18
124K21,119,experiment,15,←,left,←,0.6053967999760062,True,18
124K21,120,experiment,19,←,left,←,0.8166382999625057,True,18
124K21,121,experiment,23,←,left,←,0.47260899981483817,True,18
124K21,122,experiment,35,↓,down,↓,0.7980019000824541,True,18
124K21,123,experiment,39,→,right,→,0.6838905999902636,True,18
124K21,124,experiment,47,→,right,→,0.9772028001025319,True,18
124K21,125,experiment,46,↑,down,↓,0.7800088999792933,False,18
124K21,126,experiment,18,↓,down,↓,0.7365060998126864,True,18
124K21,127,experiment,58,↑,up,↑,0.8205552999861538,True,18
124K21,128,experiment,30,↓,down,↓,0.6240295001771301,True,18
124K21,129,experiment,28,↓,down,↓,0.7487218999303877,True,18
124K21,130,experiment,21,↑,up,↑,0.6085435000713915,True,18
124K21,131,experiment,43,←,up,↑,0.9721754000056535,False,18
124K21,132,experiment,27,↑,up,↑,0.5231971999164671,True,18
124K21,133,experiment,56,↑,up,↑,0.5453931000083685,True,18
124K21,134,experiment,51,←,up,↑,0.8258195000234991,False,18
124K21,135,experiment,33,↑,up,↑,0.6192393000237644,True,18
124K21,136,experiment,20,↑,up,↑,0.49311739997938275,True,18
124K21,137,experiment,26,→,right,→,0.5205898000858724,True,18
124K21,138,experiment,24,→,right,→,0.5559185000602156,True,18
124K21,139,experiment,13,←,up,↑,1.3092143998946995,False,18
124K21,140,experiment,14,→,up,↑,1.7599166999571025,False,18
124K21,141,training,28,→,no_key,no_letter,-1.0,False,18
124K21,142,training,43,↓,down,↓,0.7460960000753403,True,18
124K21,143,experiment,14,↓,down,↓,0.4912280000280589,True,18
124K21,144,experiment,58,←,left,←,0.6652393001131713,True,18
124K21,145,experiment,25,↑,up,↑,0.5418914000038058,True,18
124K21,146,experiment,27,↑,up,↑,0.8147644998971373,True,18
124K21,147,experiment,24,→,right,→,0.4779492998495698,True,18
124K21,148,experiment,42,↑,right,→,0.798554299864918,False,18
124K21,149,experiment,13,↓,down,↓,0.7259398000314832,True,18
124K21,150,experiment,37,→,right,→,0.6645142000634223,True,18
124K21,151,experiment,53,←,right,→,0.7465363999363035,False,18
124K21,152,experiment,36,↓,down,↓,0.7004786001052707,True,18
124K21,153,experiment,39,↓,down,↓,0.75874980003573,True,18
124K21,154,experiment,56,↓,down,↓,0.6512609999626875,True,18
124K21,155,experiment,15,↑,down,↓,0.8072873000055552,False,18
124K21,156,experiment,28,→,right,→,0.7964904999826103,True,18
124K21,157,experiment,48,↑,up,↑,0.49249029997736216,True,18
124K21,158,experiment,41,←,right,→,0.5578542000148445,False,18
124K21,159,experiment,51,↑,right,→,0.8618617998436093,False,18
124K21,160,experiment,26,↑,up,↑,0.8027797001414001,True,18
124K21,161,experiment,52,↑,no_key,no_letter,-1.0,False,18
124K21,162,experiment,60,→,up,↑,0.5692262998782098,False,18
124K21,163,experiment,23,↑,up,↑,0.5391609000507742,True,18
124K21,164,experiment,45,↓,down,↓,0.7918982000555843,True,18
124K21,165,experiment,19,↓,down,↓,0.6758119000587612,True,18
124K21,166,experiment,21,↓,down,↓,0.7311790999956429,True,18
124K21,167,experiment,46,↓,down,↓,0.7191375999245793,True,18
124K21,168,experiment,38,↑,up,↑,0.6332058000843972,True,18
124K21,169,experiment,30,↓,down,↓,0.891744599910453,True,18
124K21,170,experiment,44,→,right,→,0.6431266001891345,True,18
124K21,171,experiment,55,↑,up,↑,0.8851911001838744,True,18
124K21,172,experiment,49,↑,up,↑,0.6971329001244158,True,18
124K21,173,experiment,20,↓,up,↑,1.183831499889493,False,18
124K21,174,experiment,59,→,left,←,0.7771243001334369,False,18
124K21,175,experiment,34,↓,right,→,1.467820799909532,False,18
124K21,176,experiment,50,↓,down,↓,0.6798744001425803,True,18
124K21,177,experiment,22,↓,left,←,0.8544524998869747,False,18
124K21,178,experiment,47,→,left,←,0.6131049999967217,False,18
124K21,179,experiment,31,→,right,→,0.736455800011754,True,18
124K21,180,experiment,33,→,right,→,0.5734182000160217,True,18
124K21,181,experiment,43,↓,down,↓,0.6340667000040412,True,18
124K21,182,experiment,16,↑,up,↑,0.8697650998365134,True,18
124K21,183,experiment,57,↓,no_key,no_letter,-1.0,False,18
124K21,184,experiment,54,↑,up,↑,0.7144178999587893,True,18
124K21,185,experiment,17,←,left,←,0.8184005999937654,True,18
124K21,186,experiment,40,→,right,→,0.7031608000397682,True,18
124K21,187,experiment,35,→,right,→,0.8036749998573214,True,18
124K21,188,experiment,18,→,right,→,0.9678415001835674,True,18
124K21,189,experiment,29,←,right,→,0.6057871000375599,False,18
124K21,190,experiment,32,↓,down,↓,0.8724470001179725,True,18
124K21,191,training,29,→,right,→,0.5171421999111772,True,18
124K21,192,training,58,→,right,→,0.6017380999401212,True,18
124K21,193,experiment,17,↓,down,↓,0.6784192998893559,True,18
124K21,194,experiment,18,↑,down,↓,0.6717914999462664,False,18
124K21,195,experiment,21,↑,down,↓,0.6151872999034822,False,18
124K21,196,experiment,15,↓,down,↓,0.5404231001157314,True,18
124K21,197,experiment,49,←,left,←,0.5347272998187691,True,18
124K21,198,experiment,37,↓,down,↓,0.6884039000142366,True,18
124K21,199,experiment,34,→,down,↓,0.8784622000530362,False,18
124K21,200,experiment,35,↓,down,↓,0.7562802999746054,True,18
124K21,201,experiment,33,↓,down,↓,0.704343100078404,True,18
124K21,202,experiment,56,→,right,→,0.7191371000371873,True,18
124K21,203,experiment,28,→,right,→,0.6163174000103027,True,18
124K21,204,experiment,47,←,right,→,0.6636733999475837,False,18
124K21,205,experiment,14,↑,left,←,1.1558242000173777,False,18
124K21,206,experiment,30,↓,down,↓,0.6418224999215454,True,18
124K21,207,experiment,60,↑,down,↓,0.7523670999798924,False,18
124K21,208,experiment,24,→,right,→,0.5143355999607593,True,18
124K21,209,experiment,16,→,right,→,0.5549495001323521,True,18
124K21,210,experiment,29,↑,up,↑,0.7138744001276791,True,18
124K21,211,experiment,27,←,left,←,0.6350157000124454,True,18
124K21,212,experiment,39,↑,up,↑,0.7037428999319673,True,18
124K21,213,experiment,42,↑,up,↑,0.47968570003286004,True,18
124K21,214,experiment,59,←,up,↑,0.8129826998338103,False,18
124K21,215,experiment,58,↓,down,↓,0.4937132999766618,True,18
124K21,216,experiment,50,↑,left,←,0.5050437999889255,False,18
124K21,217,experiment,40,↑,up,↑,0.7064804001711309,True,18
124K21,218,experiment,43,↑,up,↑,0.625961400102824,True,18
124K21,219,experiment,22,→,right,→,0.4983252000529319,True,18
124K21,220,experiment,26,→,right,→,0.6133671998977661,True,18
124K21,221,experiment,45,→,up,↑,1.751010000007227,False,18
124K21,222,experiment,48,↑,up,↑,0.7369966998230666,True,18
124K21,223,experiment,57,↓,up,↑,0.7897120001725852,False,18
124K21,224,experiment,19,→,right,→,0.6257184001151472,True,18
124K21,225,experiment,52,→,right,→,0.8623762999195606,True,18
124K21,226,experiment,13,↓,left,←,1.5635875998996198,False,18
124K21,227,experiment,41,←,left,←,0.6577226999215782,True,18
124K21,228,experiment,54,→,right,→,0.707690899958834,True,18
124K21,229,experiment,55,↑,right,→,1.6429701999295503,False,18
124K21,230,experiment,44,←,left,←,0.7083473999518901,True,18
124K21,231,experiment,53,→,right,→,0.6690586998593062,True,18
124K21,232,experiment,46,↑,up,↑,0.5476782000623643,True,18
124K21,233,experiment,20,↓,up,↑,0.5043446000199765,False,18
124K21,234,experiment,38,→,left,←,0.6109295999631286,False,18
124K21,235,experiment,32,→,right,→,0.837796000065282,True,18
124K21,236,experiment,51,↓,down,↓,0.7465739999897778,True,18
124K21,237,experiment,23,↓,down,↓,1.5338958001229912,True,18
124K21,238,experiment,36,↑,up,↑,0.7523219001013786,True,18
124K21,239,experiment,31,↑,up,↑,1.053675499977544,True,18
124K21,240,experiment,25,↑,up,↑,1.45096500008367,True,18
124K21,241,training,52,↓,up,↑,0.8663613998796791,False,18
124K21,242,training,30,↑,up,↑,0.4841511999256909,True,18
124K21,243,experiment,49,←,left,←,0.6396961999125779,True,18
124K21,244,experiment,22,←,left,←,0.8558239999692887,True,18
124K21,245,experiment,48,↑,up,↑,0.6857473000418395,True,18
124K21,246,experiment,55,←,up,↑,0.805503600044176,False,18
124K21,247,experiment,18,←,left,←,0.5215191999450326,True,18
124K21,248,experiment,50,↑,up,↑,1.4277081000618637,True,18
124K21,249,experiment,17,↑,up,↑,0.5441362999845296,True,18
124K21,250,experiment,57,→,right,→,0.5323809999972582,True,18
124K21,251,experiment,58,←,left,←,1.2802868001163006,True,18
124K21,252,experiment,42,→,right,→,0.8728964000474662,True,18
124K21,253,experiment,35,↑,up,↑,0.8949050998780876,True,18
124K21,254,experiment,45,→,right,→,0.7176442998461425,True,18
124K21,255,experiment,37,←,right,→,0.6084552998654544,False,18
124K21,256,experiment,52,→,right,→,0.6055993000045419,True,18
124K21,257,experiment,24,↑,up,↑,0.5815512000117451,True,18
124K21,258,experiment,56,→,right,→,0.5688791000284255,True,18
124K21,259,experiment,16,←,left,←,0.7756446001585573,True,18
124K21,260,experiment,25,↓,down,↓,0.9042301001027226,True,18
124K21,261,experiment,14,←,left,←,0.6029403998982161,True,18
124K21,262,experiment,41,↑,up,↑,0.43414609995670617,True,18
124K21,263,experiment,13,←,left,←,1.2688223998993635,True,18
124K21,264,experiment,39,←,right,→,0.8323931000195444,False,18
124K21,265,experiment,40,→,left,←,1.468268800061196,False,18
124K21,266,experiment,21,↓,down,↓,0.6035003000870347,True,18
124K21,267,experiment,15,↓,down,↓,0.7218124000355601,True,18
124K21,268,experiment,29,↓,down,↓,0.913610199932009,True,18
124K21,269,experiment,59,←,left,←,0.8135645999573171,True,18
124K21,270,experiment,26,→,right,→,0.7798091999720782,True,18
124K21,271,experiment,34,→,right,→,0.5422831999603659,True,18
124K21,272,experiment,20,↓,down,↓,0.6597031999845058,True,18
124K21,273,experiment,23,↓,down,↓,1.09022879996337,True,18
124K21,274,experiment,31,↓,right,→,1.5941996001638472,False,18
124K21,275,experiment,28,→,down,↓,0.8482518000528216,False,18
124K21,276,experiment,30,→,right,→,1.0981797000858933,True,18
124K21,277,experiment,54,↓,down,↓,0.6502499000634998,True,18
124K21,278,experiment,46,←,left,←,0.9055775001179427,True,18
124K21,279,experiment,60,↓,down,↓,0.6377139000687748,True,18
124K21,280,experiment,51,→,down,↓,0.8901843999046832,False,18
124K21,281,experiment,44,↓,down,↓,0.5777437000069767,True,18
124K21,282,experiment,43,←,left,←,0.8302394999191165,True,18
124K21,283,experiment,38,←,left,←,0.604154699947685,True,18
124K21,284,experiment,33,→,left,←,0.5982474000193179,False,18
124K21,285,experiment,36,↓,down,↓,0.5582339998800308,True,18
124K21,286,experiment,27,↓,down,↓,0.5197957998607308,True,18
124K21,287,experiment,32,←,left,←,0.500545599963516,True,18
124K21,288,experiment,19,←,right,→,0.8995222998782992,False,18
124K21,289,experiment,47,↑,down,↓,0.7122162999585271,False,18
124K21,290,experiment,53,→,right,→,0.640800999943167,True,18
124K21,291,training,30,→,right,→,0.6115164998918772,True,18
124K21,292,training,46,↑,up,↑,0.5327916000969708,True,18
124K21,293,experiment,26,↓,up,↑,0.7982531997840852,False,18
124K21,294,experiment,24,↓,down,↓,0.7981084000784904,True,18
124K21,295,experiment,41,↓,down,↓,0.5708331000059843,True,18
124K21,296,experiment,59,↓,down,↓,0.4927113999146968,True,18
124K21,297,experiment,37,→,right,→,0.6166711999103427,True,18
124K21,298,experiment,56,↓,down,↓,0.634745400166139,True,18
124K21,299,experiment,17,↑,up,↑,0.7181661000940949,True,18
124K21,300,experiment,36,↑,up,↑,0.5454281999263912,True,18
124K21,301,experiment,49,←,left,←,0.6593787001911551,True,18
124K21,302,experiment,16,←,right,→,0.6950163000728935,False,18
124K21,303,experiment,52,←,left,←,0.6728296000510454,True,18
124K21,304,experiment,48,↑,up,↑,0.7663074000738561,True,18
124K21,305,experiment,33,↑,up,↑,0.585550099844113,True,18
124K21,306,experiment,25,↓,down,↓,0.689390700077638,True,18
124K21,307,experiment,43,↑,up,↑,0.481469500111416,True,18
124K21,308,experiment,29,←,left,←,0.6907469001598656,True,18
124K21,309,experiment,38,↓,down,↓,0.7180411999579519,True,18
124K21,310,experiment,28,→,right,→,0.4712640999350697,True,18
124K21,311,experiment,47,→,right,→,0.7082355997990817,True,18
124K21,312,experiment,30,→,right,→,0.5640555000863969,True,18
124K21,313,experiment,19,←,right,→,0.6330051999539137,False,18
124K21,314,experiment,42,↑,up,↑,0.7233989001251757,True,18
124K21,315,experiment,15,←,left,←,0.5167016999330372,True,18
124K21,316,experiment,40,↑,left,←,0.9736490999348462,False,18
124K21,317,experiment,60,←,left,←,0.8307527999859303,True,18
124K21,318,experiment,14,←,left,←,0.708569600014016,True,18
124K21,319,experiment,23,↓,up,↑,0.6647260999307036,False,18
124K21,320,experiment,57,→,right,→,0.5921434999909252,True,18
124K21,321,experiment,58,→,right,→,1.1939902999438345,True,18
124K21,322,experiment,13,←,left,←,0.48211910016834736,True,18
124K21,323,experiment,55,↑,up,↑,1.626638799905777,True,18
124K21,324,experiment,35,←,right,→,0.8501335999462754,False,18
124K21,325,experiment,39,←,left,←,1.0140633000992239,True,18
124K21,326,experiment,32,↓,up,↑,0.9040153999812901,False,18
124K21,327,experiment,18,→,right,→,0.5680455998517573,True,18
124K21,328,experiment,34,←,right,→,0.506703200051561,False,18
124K21,329,experiment,53,←,left,←,0.7233124999329448,True,18
124K21,330,experiment,27,←,left,←,0.4343095999211073,True,18
124K21,331,experiment,44,↓,up,↑,1.189350500004366,False,18
124K21,332,experiment,45,↑,up,↑,0.576078400015831,True,18
124K21,333,experiment,51,→,right,→,0.47187979985028505,True,18
124K21,334,experiment,31,↓,down,↓,0.7353868999052793,True,18
124K21,335,experiment,20,←,left,←,0.7007509998511523,True,18
124K21,336,experiment,21,↓,left,←,0.7465810000430793,False,18
124K21,337,experiment,22,←,left,←,0.5980427002068609,True,18
124K21,338,experiment,54,↓,down,↓,0.5860095000825822,True,18
124K21,339,experiment,46,←,right,→,0.9480679000262171,False,18
124K21,340,experiment,50,→,right,→,0.6846688000950962,True,18
124K21,341,training,17,↑,right,→,0.5123976001050323,False,18
124K21,342,training,36,↓,down,↓,0.8600208000279963,True,18
124K21,343,experiment,32,↓,down,↓,0.5886268001049757,True,18
124K21,344,experiment,30,↓,down,↓,1.0172039000317454,True,18
124K21,345,experiment,38,↑,up,↑,0.8073944998905063,True,18
124K21,346,experiment,54,←,left,←,0.5715123999398202,True,18
124K21,347,experiment,19,↓,down,↓,0.5680090999230742,True,18
124K21,348,experiment,28,←,left,←,1.0226533999666572,True,18
124K21,349,experiment,27,←,left,←,0.47590090008452535,True,18
124K21,350,experiment,39,←,left,←,0.43391739996150136,True,18
124K21,351,experiment,13,↑,up,↑,0.4841426000930369,True,18
124K21,352,experiment,22,→,left,←,0.8259193999692798,False,18
124K21,353,experiment,37,↑,up,↑,1.0646156000439078,True,18
124K21,354,experiment,35,↑,up,↑,0.49572310014627874,True,18
124K21,355,experiment,16,→,up,↑,0.41750689991749823,False,18
124K21,356,experiment,42,←,left,←,0.48327660001814365,True,18
124K21,357,experiment,29,→,right,→,0.6526056001894176,True,18
124K21,358,experiment,33,→,left,←,0.9406107999384403,False,18
124K21,359,experiment,53,↑,up,↑,0.5800348999910057,True,18
124K21,360,experiment,59,→,up,↑,0.8213476999662817,False,18
124K21,361,experiment,44,←,right,→,0.6955500000622123,False,18
124K21,362,experiment,58,↓,down,↓,0.7172600999474525,True,18
124K21,363,experiment,31,→,right,→,0.723945900099352,True,18
124K21,364,experiment,60,→,right,→,0.5915564999449998,True,18
124K21,365,experiment,46,↓,down,↓,0.5293324000667781,True,18
124K21,366,experiment,56,↓,down,↓,0.7433268998283893,True,18
124K21,367,experiment,23,→,down,↓,0.7467284998856485,False,18
124K21,368,experiment,49,↑,up,↑,0.5559218998532742,True,18
124K21,369,experiment,24,↑,up,↑,0.6061818001326174,True,18
124K21,370,experiment,43,←,left,←,1.1295729998964816,True,18
124K21,371,experiment,21,↓,up,↑,1.8627234001178294,False,18
124K21,372,experiment,20,→,left,←,1.2472950001247227,False,18
124K21,373,experiment,52,→,right,→,0.5546399001032114,True,18
124K21,374,experiment,45,←,left,←,0.702595799928531,True,18
124K21,375,experiment,36,→,right,→,0.5795999998226762,True,18
124K21,376,experiment,14,↑,down,↓,1.1220325999893248,False,18
124K21,377,experiment,40,←,right,→,0.858841700013727,False,18
124K21,378,experiment,55,↑,left,←,0.8199835000559688,False,18
124K21,379,experiment,15,↑,up,↑,0.569268099963665,True,18
124K21,380,experiment,26,→,up,↑,0.737215899862349,False,18
124K21,381,experiment,25,↑,up,↑,0.6115097999572754,True,18
124K21,382,experiment,17,←,left,←,0.823888499988243,True,18
124K21,383,experiment,18,↓,down,↓,0.6034271998796612,True,18
124K21,384,experiment,51,↑,left,←,0.7612582000438124,False,18
124K21,385,experiment,50,↑,up,↑,0.946155000012368,True,18
124K21,386,experiment,34,→,left,←,0.5502212001010776,False,18
124K21,387,experiment,48,→,right,→,0.5438941998872906,True,18
124K21,388,experiment,47,↑,up,↑,0.5952720998320729,True,18
124K21,389,experiment,57,←,left,←,0.5739078000187874,True,18
124K21,390,experiment,41,→,right,→,0.6999911000020802,True,18
124K21,391,training,13,↓,down,↓,0.6560775998514146,True,18
124K21,392,training,57,←,left,←,0.567888799821958,True,18
124K21,393,experiment,58,↑,up,↑,0.6425870000384748,True,18
124K21,394,experiment,19,→,right,→,0.7087114001624286,True,18
124K21,395,experiment,43,←,left,←,0.5240527000278234,True,18
124K21,396,experiment,41,↓,down,↓,0.6518511001486331,True,18
124K21,397,experiment,36,↓,down,↓,0.4340570999775082,True,18
124K21,398,experiment,31,←,left,←,0.49118709983304143,True,18
124K21,399,experiment,18,→,right,→,0.5239495001733303,True,18
124K21,400,experiment,30,←,left,←,0.49935690010897815,True,18
124K21,401,experiment,33,←,left,←,0.4811872001737356,True,18
124K21,402,experiment,24,←,right,→,0.8378377000335604,False,18
124K21,403,experiment,44,→,right,→,0.5591857000254095,True,18
124K21,404,experiment,55,←,left,←,0.6924729000311345,True,18
124K21,405,experiment,23,←,left,←,0.4818464999552816,True,18
124K21,406,experiment,17,→,right,→,0.4752022000029683,True,18
124K21,407,experiment,42,↑,up,↑,0.6758048001211137,True,18
124K21,408,experiment,48,↓,down,↓,0.4891062998212874,True,18
124K21,409,experiment,16,→,right,→,0.6351866000331938,True,18
124K21,410,experiment,59,→,right,→,1.5704634999856353,True,18
124K21,411,experiment,51,←,left,←,1.2258983000647277,True,18
124K21,412,experiment,38,↓,up,↑,0.9758792000357062,False,18
124K21,413,experiment,49,↓,down,↓,0.6566479001194239,True,18
124K21,414,experiment,39,→,down,↓,0.9164747998584062,False,18
124K21,415,experiment,35,↑,down,↓,0.8084718999452889,False,18
124K21,416,experiment,60,→,right,→,0.48858439992181957,True,18
124K21,417,experiment,40,↓,down,↓,0.5384678998962045,True,18
124K21,418,experiment,13,↓,down,↓,0.7887198999524117,True,18
124K21,419,experiment,27,→,right,→,0.48326599993743,True,18
124K21,420,experiment,32,→,right,→,1.114379599923268,True,18
124K21,421,experiment,14,←,right,→,0.7085434999316931,False,18
124K21,422,experiment,57,←,up,↑,0.8504402998369187,False,18
124K21,423,experiment,47,←,left,←,1.0731750999111682,True,18
124K21,424,experiment,28,←,left,←,0.7317513001617044,True,18
124K21,425,experiment,22,↓,left,←,0.703842299990356,False,18
124K21,426,experiment,26,←,left,←,0.9464787000324577,True,18
124K21,427,experiment,15,←,left,←,1.171085099922493,True,18
124K21,428,experiment,52,↑,up,↑,0.49788090004585683,True,18
124K21,429,experiment,37,→,right,→,0.589161500101909,True,18
124K21,430,experiment,20,↑,up,↑,0.5766087002120912,True,18
124K21,431,experiment,34,↑,up,↑,0.5471332999877632,True,18
124K21,432,experiment,45,←,left,←,0.5671878999564797,True,18
124K21,433,experiment,29,↓,down,↓,0.6610950001049787,True,18
124K21,434,experiment,46,→,right,→,0.6524499000515789,True,18
124K21,435,experiment,21,↓,down,↓,0.7164175999350846,True,18
124K21,436,experiment,50,←,left,←,0.6064271999057382,True,18
124K21,437,experiment,53,→,right,→,0.7870898998808116,True,18
124K21,438,experiment,54,↑,up,↑,1.287733999779448,True,18
124K21,439,experiment,25,↓,down,↓,0.6517552000004798,True,18
124K21,440,experiment,56,↓,down,↓,1.412500600097701,True,18
124K21,441,training,25,↑,up,↑,0.4904161000158638,True,18
124K21,442,training,41,↓,down,↓,0.6358405000064522,True,18
124K21,443,experiment,36,↓,down,↓,0.8986330998595804,True,18
124K21,444,experiment,18,↑,down,↓,0.5864418998826295,False,18
124K21,445,experiment,55,←,left,←,0.5583856001030654,True,18
124K21,446,experiment,20,↓,down,↓,0.6911480999551713,True,18
124K21,447,experiment,26,→,down,↓,0.5584428999572992,False,18
124K21,448,experiment,37,←,left,←,0.4801998999901116,True,18
124K21,449,experiment,47,↓,down,↓,0.5571610000915825,True,18
124K21,450,experiment,59,←,left,←,0.5198008001316339,True,18
124K21,451,experiment,51,→,right,→,0.5930563001893461,True,18
124K21,452,experiment,34,↑,up,↑,0.8270372000988573,True,18
124K21,453,experiment,42,→,right,→,0.5583746000193059,True,18
124K21,454,experiment,27,↓,up,↑,0.678384899860248,False,18
124K21,455,experiment,29,↓,down,↓,0.6246160001028329,True,18
124K21,456,experiment,23,→,right,→,0.6645420000422746,True,18
124K21,457,experiment,43,←,left,←,0.6652283000294119,True,18
124K21,458,experiment,41,↓,down,↓,0.5631126998923719,True,18
124K21,459,experiment,32,↑,up,↑,0.6550925001502037,True,18
124K21,460,experiment,60,↓,down,↓,0.6530001000501215,True,18
124K21,461,experiment,38,↑,up,↑,0.5857683001086116,True,18
124K21,462,experiment,33,→,right,→,0.6205599999520928,True,18
124K21,463,experiment,52,←,left,←,1.6812656000256538,True,18
124K21,464,experiment,49,←,left,←,0.7090539999771863,True,18
124K21,465,experiment,58,←,left,←,0.6586199998855591,True,18
124K21,466,experiment,14,↓,down,↓,0.5990105997771025,True,18
124K21,467,experiment,45,↓,down,↓,0.6657149998936802,True,18
124K21,468,experiment,35,↓,down,↓,0.5910843999590725,True,18
124K21,469,experiment,57,→,right,→,0.48179170000366867,True,18
124K21,470,experiment,39,↓,down,↓,0.8843654999509454,True,18
124K21,471,experiment,50,↓,down,↓,0.7356757000088692,True,18
124K21,472,experiment,21,↓,down,↓,0.6201452999375761,True,18
124K21,473,experiment,15,→,right,→,0.4898878000676632,True,18
124K21,474,experiment,22,←,left,←,0.6956666000187397,True,18
124K21,475,experiment,28,↑,up,↑,0.8176583999302238,True,18
124K21,476,experiment,17,→,right,→,0.5914215999655426,True,18
124K21,477,experiment,25,↓,down,↓,0.6140360001008958,True,18
124K21,478,experiment,48,↓,down,↓,0.7896484001539648,True,18
124K21,479,experiment,19,←,left,←,0.6416871999390423,True,18
124K21,480,experiment,13,↑,up,↑,0.5996183999814093,True,18
124K21,481,experiment,44,↓,down,↓,0.6743554000277072,True,18
124K21,482,experiment,30,←,left,←,0.6437192999292165,True,18
124K21,483,experiment,54,←,left,←,0.8703461999539286,True,18
124K21,484,experiment,46,←,left,←,0.7329390998929739,True,18
124K21,485,experiment,16,←,left,←,0.7491940001491457,True,18
124K21,486,experiment,24,↑,left,←,1.151049999985844,False,18
124K21,487,experiment,53,↑,up,↑,0.5657401001080871,True,18
124K21,488,experiment,56,↓,up,↑,0.8497548999730498,False,18
124K21,489,experiment,40,→,left,←,0.8538476000539958,False,18
124K21,490,experiment,31,→,right,→,0.8464703001081944,True,18
124K21,491,training,20,↑,up,↑,0.601154400035739,True,18
124K21,492,training,52,↓,left,←,0.5423228999134153,False,18
124K21,493,experiment,54,→,right,→,0.5648732001427561,True,18
124K21,494,experiment,23,→,right,→,0.5029059001244605,True,18
124K21,495,experiment,24,←,right,→,0.7229698000010103,False,18
124K21,496,experiment,38,↑,right,→,0.9331219999585301,False,18
124K21,497,experiment,42,↑,up,↑,0.5795724000781775,True,18
124K21,498,experiment,19,↓,down,↓,0.8075586000923067,True,18
124K21,499,experiment,20,↓,down,↓,0.618258000118658,True,18
124K21,500,experiment,15,↓,down,↓,0.7996023998130113,True,18
124K21,501,experiment,43,←,left,←,0.5389131000265479,True,18
124K21,502,experiment,13,←,left,←,0.9649082999676466,True,18
124K21,503,experiment,53,↓,down,↓,0.658861700212583,True,18
124K21,504,experiment,32,←,left,←,0.48373360000550747,True,18
124K21,505,experiment,59,↑,up,↑,0.6251073000021279,True,18
124K21,506,experiment,16,←,left,←,0.5896584000438452,True,18
124K21,507,experiment,34,←,left,←,0.6874933999497443,True,18
124K21,508,experiment,21,↓,down,↓,0.5743050999008119,True,18
124K21,509,experiment,47,↑,down,↓,0.7281904998235404,False,18
124K21,510,experiment,56,↑,up,↑,0.8622214999049902,True,18
124K21,511,experiment,25,↓,down,↓,0.5235156000126153,True,18
124K21,512,experiment,18,↓,down,↓,0.46791089978069067,True,18
124K21,513,experiment,30,↑,up,↑,0.4679809999652207,True,18
124K21,514,experiment,31,←,right,→,0.763560299994424,False,18
124K21,515,experiment,28,↓,down,↓,0.6261427002027631,True,18
124K21,516,experiment,51,↑,up,↑,0.7035196002107114,True,18
124K21,517,experiment,57,→,right,→,0.5188827000092715,True,18
124K21,518,experiment,26,→,right,→,0.6878003000747412,True,18
124K21,519,experiment,44,↑,right,→,0.5991633001249284,False,18
124K21,520,experiment,48,→,right,→,0.6947862999513745,True,18
124K21,521,experiment,40,←,left,←,0.6328664999455214,True,18
124K21,522,experiment,36,←,left,←,0.6155183999799192,True,18
124K21,523,experiment,17,↑,up,↑,0.715472900075838,True,18
124K21,524,experiment,35,↓,down,↓,0.7114985999651253,True,18
124K21,525,experiment,58,↑,up,↑,0.4694453999400139,True,18
124K21,526,experiment,49,←,left,←,0.4733206999953836,True,18
124K21,527,experiment,50,→,right,→,0.7081409001257271,True,18
124K21,528,experiment,41,←,right,→,0.8048706001136452,False,18
124K21,529,experiment,60,→,right,→,0.6770018001552671,True,18
124K21,530,experiment,27,→,right,→,0.8561424999497831,True,18
124K21,531,experiment,45,→,right,→,0.5443627999629825,True,18
124K21,532,experiment,39,↑,up,↑,0.5130352999549359,True,18
124K21,533,experiment,22,→,right,→,0.6221737000159919,True,18
124K21,534,experiment,33,→,right,→,0.7196891999337822,True,18
124K21,535,experiment,14,↓,down,↓,1.7694806000217795,True,18
124K21,536,experiment,55,↑,up,↑,0.7661852999590337,True,18
124K21,537,experiment,46,←,right,→,0.6167827998287976,False,18
124K21,538,experiment,37,←,right,→,0.6554226998705417,False,18
124K21,539,experiment,29,→,right,→,0.5304727000184357,True,18
124K21,540,experiment,52,→,right,→,0.9308270998299122,True,18
124K21,541,training,45,↓,down,↓,0.7116997998673469,True,18
124K21,542,training,51,↑,up,↑,0.7215201000217348,True,18
124K21,543,experiment,59,↑,down,↓,0.5894525998737663,False,18
124K21,544,experiment,51,→,left,←,0.6762618999928236,False,18
124K21,545,experiment,41,↓,down,↓,0.630161400185898,True,18
124K21,546,experiment,43,↑,up,↑,0.5920762000605464,True,18
124K21,547,experiment,20,↑,up,↑,0.6354797999374568,True,18
124K21,548,experiment,23,→,right,→,0.8507497999817133,True,18
124K21,549,experiment,25,↑,up,↑,0.6720942999236286,True,18
124K21,550,experiment,34,↑,up,↑,0.6147300000302494,True,18
124K21,551,experiment,28,↓,down,↓,0.667557300068438,True,18
124K21,552,experiment,52,↓,down,↓,0.5979921999387443,True,18
124K21,553,experiment,55,→,right,→,0.7054031000006944,True,18
124K21,554,experiment,58,↑,up,↑,0.6787292999215424,True,18
124K21,555,experiment,16,←,left,←,0.5775939000304788,True,18
124K21,556,experiment,48,→,right,→,0.6349820999894291,True,18
124K21,557,experiment,49,→,right,→,0.6488218000158668,True,18
124K21,558,experiment,26,↓,down,↓,0.8534538000822067,True,18
124K21,559,experiment,27,→,right,→,0.5215274998918176,True,18
124K21,560,experiment,30,←,left,←,0.8327424000017345,True,18
124K21,561,experiment,45,↑,up,↑,0.5934107000939548,True,18
124K21,562,experiment,46,↑,up,↑,0.5954446999821812,True,18
124K21,563,experiment,35,↓,up,↑,0.7648968000430614,False,18
124K21,564,experiment,39,↑,up,↑,0.5241539999842644,True,18
124K21,565,experiment,36,↑,up,↑,0.6474136000033468,True,18
124K21,566,experiment,32,↑,up,↑,0.608199100010097,True,18
124K21,567,experiment,50,↑,up,↑,0.494813600089401,True,18
124K21,568,experiment,14,↑,up,↑,0.5060318999458104,True,18
124K21,569,experiment,44,←,left,←,0.6726700998842716,True,18
124K21,570,experiment,29,↑,up,↑,0.6107091000303626,True,18
124K21,571,experiment,57,↓,down,↓,0.6128694000653923,True,18
124K21,572,experiment,40,←,left,←,0.634255199925974,True,18
124K21,573,experiment,22,↑,up,↑,0.6500340001657605,True,18
124K21,574,experiment,18,→,right,→,0.5562887000851333,True,18
124K21,575,experiment,54,←,left,←,0.6420519999228418,True,18
124K21,576,experiment,13,↓,down,↓,0.7601685000117868,True,18
124K21,577,experiment,17,↓,down,↓,1.0466960999183357,True,18
124K21,578,experiment,42,←,left,←,0.6409904998727143,True,18
124K21,579,experiment,15,←,left,←,0.5733660999685526,True,18
124K21,580,experiment,31,→,left,←,0.8249214000534266,False,18
124K21,581,experiment,56,↓,down,↓,0.5546768999192864,True,18
124K21,582,experiment,37,→,right,→,0.8922772000078112,True,18
124K21,583,experiment,21,→,left,←,0.6826327999588102,False,18
124K21,584,experiment,38,↑,up,↑,0.6222049000207335,True,18
124K21,585,experiment,47,↑,left,←,0.7259329000953585,False,18
124K21,586,experiment,53,←,left,←,0.5340106000658125,True,18
124K21,587,experiment,24,→,right,→,0.648930300027132,True,18
124K21,588,experiment,19,↓,down,↓,0.6021193999331445,True,18
124K21,589,experiment,33,↓,down,↓,0.8362251000944525,True,18
124K21,590,experiment,60,↑,up,↑,0.7065908000804484,True,18
