PART_ID,Trial_no,Trial_type,CSI,Stim_letter,Key_pressed,letter_choose,Rt,Corr,Stimulus Time
132K22,1,training,60,←,left,←,2.1345343000721186,True,30
132K22,2,training,60,→,right,→,1.0804409999400377,True,30
132K22,3,training,60,→,right,→,1.6845009999815375,True,30
132K22,4,training,60,→,right,→,0.7207088000141084,True,30
132K22,5,training,60,↑,up,↑,1.0670776998158544,True,30
132K22,6,training,60,→,right,→,1.0881874000187963,True,30
132K22,7,training,60,↓,down,↓,0.9557722001336515,True,30
132K22,8,training,60,↓,down,↓,1.0690917000174522,True,30
132K22,9,training,60,↑,up,↑,1.1056987999472767,True,30
132K22,10,training,60,↓,down,↓,0.7972987999673933,True,30
132K22,11,training,60,↓,down,↓,1.156961499946192,True,30
132K22,12,training,60,→,right,→,1.029927299823612,True,30
132K22,13,training,60,←,left,←,1.2037527000065893,True,30
132K22,14,training,60,↑,up,↑,0.8835793000180274,True,30
132K22,15,training,60,←,left,←,0.8872719998471439,True,30
132K22,16,training,60,↓,down,↓,1.0110343000851572,True,30
132K22,17,training,60,↑,up,↑,0.7863260000012815,True,30
132K22,18,training,60,→,right,→,0.7376522000413388,True,30
132K22,19,training,60,↓,down,↓,1.0279482998885214,True,30
132K22,20,training,60,→,right,→,1.1217590000014752,True,30
132K22,21,training,60,←,left,←,1.1205991001334041,True,18
132K22,22,training,60,→,right,→,0.8189914000686258,True,18
132K22,23,training,60,↑,up,↑,0.833900999976322,True,18
132K22,24,training,60,↓,down,↓,0.8403019001707435,True,18
132K22,25,training,60,→,right,→,0.9979052999988198,True,18
132K22,26,training,60,→,right,→,0.6930907999631017,True,18
132K22,27,training,60,←,left,←,0.713127400027588,True,18
132K22,28,training,60,→,right,→,0.8277263999916613,True,18
132K22,29,training,60,↑,up,↑,0.9218786000274122,True,18
132K22,30,training,60,↓,down,↓,0.8523520999588072,True,18
132K22,31,training,60,←,left,←,0.9056567000225186,True,18
132K22,32,training,60,→,right,→,0.7094572999048978,True,18
132K22,33,training,60,↓,down,↓,0.6648646998219192,True,18
132K22,34,training,60,←,left,←,0.7892109998501837,True,18
132K22,35,training,60,↑,up,↑,0.8770459000952542,True,18
132K22,36,training,60,↓,down,↓,0.7210659999400377,True,18
132K22,37,training,60,→,right,→,0.8518930000718683,True,18
132K22,38,training,60,→,right,→,0.6649354000110179,True,18
132K22,39,training,60,→,right,→,0.6938716000877321,True,18
132K22,40,training,60,→,right,→,0.8332888998556882,True,18
132K22,41,training,45,↓,down,↓,0.8415873001795262,True,18
132K22,42,training,23,→,right,→,0.6891024999786168,True,18
132K22,43,experiment,53,←,left,←,0.890316299861297,True,18
132K22,44,experiment,49,→,right,→,0.846227299887687,True,18
132K22,45,experiment,56,←,left,←,0.8228947999887168,True,18
132K22,46,experiment,40,→,right,→,0.9077906999737024,True,18
132K22,47,experiment,22,←,left,←,0.8168806999456137,True,18
132K22,48,experiment,41,↓,down,↓,0.9728586000856012,True,18
132K22,49,experiment,24,↓,down,↓,0.9422969999723136,True,18
132K22,50,experiment,28,↓,down,↓,0.8942207000218332,True,18
132K22,51,experiment,46,↓,down,↓,1.092168000061065,True,18
132K22,52,experiment,60,←,left,←,0.8971236001234502,True,18
132K22,53,experiment,35,↑,up,↑,0.9897886000107974,True,18
132K22,54,experiment,47,←,left,←,1.0311198998242617,True,18
132K22,55,experiment,58,←,left,←,0.8709082000423223,True,18
132K22,56,experiment,59,→,right,→,1.597030899953097,True,18
132K22,57,experiment,44,↓,down,↓,0.9195995999034494,True,18
132K22,58,experiment,43,↓,down,↓,0.9103673999197781,True,18
132K22,59,experiment,52,↓,down,↓,0.9357932999264449,True,18
132K22,60,experiment,38,↑,up,↑,0.9690397002268583,True,18
132K22,61,experiment,31,→,right,→,0.8698287999723107,True,18
132K22,62,experiment,34,→,right,→,1.6924695998895913,True,18
132K22,63,experiment,26,→,right,→,0.8876718999817967,True,18
132K22,64,experiment,21,→,right,→,0.814195099985227,True,18
132K22,65,experiment,20,←,left,←,1.0324021999258548,True,18
132K22,66,experiment,39,↑,up,↑,1.0128891000058502,True,18
132K22,67,experiment,27,→,right,→,0.8674012999981642,True,18
132K22,68,experiment,15,↑,up,↑,0.950375400017947,True,18
132K22,69,experiment,25,↑,up,↑,0.903575100004673,True,18
132K22,70,experiment,54,←,left,←,1.0797206000424922,True,18
132K22,71,experiment,18,←,left,←,0.9368084999732673,True,18
132K22,72,experiment,16,↓,down,↓,0.9209265999961644,True,18
132K22,73,experiment,36,←,left,←,0.8522459999658167,True,18
132K22,74,experiment,23,↓,down,↓,0.8430121999699622,True,18
132K22,75,experiment,19,↓,down,↓,0.8768728999421,True,18
132K22,76,experiment,32,↓,down,↓,0.932736799819395,True,18
132K22,77,experiment,29,↑,up,↑,0.9482205000240356,True,18
132K22,78,experiment,48,←,left,←,0.9422383999917656,True,18
132K22,79,experiment,42,↑,up,↑,0.8287609999533743,True,18
132K22,80,experiment,17,←,left,←,1.0088096999097615,True,18
132K22,81,experiment,30,↑,up,↑,0.909072200069204,True,18
132K22,82,experiment,33,←,left,←,0.7481853000354022,True,18
132K22,83,experiment,51,→,right,→,0.9467869999352843,True,18
132K22,84,experiment,55,←,left,←,0.8241144998464733,True,18
132K22,85,experiment,37,↑,up,↑,0.8068166000302881,True,18
132K22,86,experiment,14,→,right,→,0.805461399955675,True,18
132K22,87,experiment,50,↑,up,↑,0.7962043001316488,True,18
132K22,88,experiment,13,→,right,→,1.2921620002016425,True,18
132K22,89,experiment,45,→,right,→,0.7554287000093609,True,18
132K22,90,experiment,57,↓,down,↓,0.7829813999123871,True,18
132K22,91,training,48,←,left,←,0.5863405000418425,True,17
132K22,92,training,20,↑,up,↑,0.8135970998555422,True,17
132K22,93,experiment,19,↑,up,↑,1.2568300999701023,True,17
132K22,94,experiment,33,↓,down,↓,0.8247981001622975,True,17
132K22,95,experiment,56,←,right,→,1.5547019999939948,False,17
132K22,96,experiment,51,←,left,←,1.5547211999073625,True,17
132K22,97,experiment,23,→,right,→,1.1894730001222342,True,17
132K22,98,experiment,30,↓,down,↓,0.8983036999125034,True,17
132K22,99,experiment,53,→,right,→,0.8187452000565827,True,17
132K22,100,experiment,46,→,right,→,0.811655999859795,True,17
132K22,101,experiment,39,←,left,←,0.9615869999397546,True,17
132K22,102,experiment,17,←,left,←,1.3521245999727398,True,17
132K22,103,experiment,59,→,right,→,0.9147122001741081,True,17
132K22,104,experiment,52,↓,down,↓,0.9873826000839472,True,17
132K22,105,experiment,24,↓,down,↓,0.9724276000633836,True,17
132K22,106,experiment,54,↑,up,↑,0.9293579999357462,True,17
132K22,107,experiment,49,↑,up,↑,0.9323002998717129,True,17
132K22,108,experiment,29,↑,no_key,no_letter,-1.0,False,17
132K22,109,experiment,34,↓,down,↓,0.5750893000513315,True,17
132K22,110,experiment,41,←,left,←,0.7486121000256389,True,17
132K22,111,experiment,20,↑,up,↑,0.8094997000880539,True,17
132K22,112,experiment,38,↑,up,↑,0.5839911999646574,True,17
132K22,113,experiment,42,←,left,←,0.9327680000569671,True,17
132K22,114,experiment,35,↑,up,↑,0.6959981000982225,True,17
132K22,115,experiment,15,→,left,←,0.8509967001155019,False,17
132K22,116,experiment,22,←,left,←,1.0020940999966115,True,17
132K22,117,experiment,47,←,left,←,0.8593760998919606,True,17
132K22,118,experiment,55,↑,up,↑,0.8121768001001328,True,17
132K22,119,experiment,40,→,right,→,0.8335981999989599,True,17
132K22,120,experiment,36,→,right,→,1.0480156000703573,True,17
132K22,121,experiment,26,←,left,←,1.0206234999932349,True,17
132K22,122,experiment,25,←,left,←,0.8514195000752807,True,17
132K22,123,experiment,31,←,left,←,0.8606312000192702,True,17
132K22,124,experiment,57,↓,down,↓,0.8846599000971764,True,17
132K22,125,experiment,37,→,right,→,0.753279099939391,True,17
132K22,126,experiment,28,↑,up,↑,1.0559761999174953,True,17
132K22,127,experiment,45,←,left,←,0.8402265999466181,True,17
132K22,128,experiment,44,↓,down,↓,0.9455752999056131,True,17
132K22,129,experiment,18,←,left,←,0.9042591999750584,True,17
132K22,130,experiment,50,↓,down,↓,0.8349946001544595,True,17
132K22,131,experiment,27,→,right,→,0.8633725000545382,True,17
132K22,132,experiment,58,←,left,←,0.9499147001188248,True,17
132K22,133,experiment,21,→,right,→,0.8821994001045823,True,17
132K22,134,experiment,60,↑,up,↑,0.9507230999879539,True,17
132K22,135,experiment,13,↓,down,↓,0.9362017000094056,True,17
132K22,136,experiment,14,↓,down,↓,0.9294120999984443,True,17
132K22,137,experiment,48,→,right,→,0.8608893998898566,True,17
132K22,138,experiment,32,↑,up,↑,0.9573929999023676,True,17
132K22,139,experiment,16,←,left,←,1.116900600027293,True,17
132K22,140,experiment,43,←,left,←,0.9074973000679165,True,17
132K22,141,training,16,←,left,←,0.7988986000418663,True,16
132K22,142,training,35,↓,down,↓,0.8553681999910623,True,16
132K22,143,experiment,21,→,right,→,0.9113119000103325,True,16
132K22,144,experiment,29,←,left,←,1.127935600001365,True,16
132K22,145,experiment,30,←,left,←,0.9673633000347763,True,16
132K22,146,experiment,39,↓,down,↓,0.8788228000048548,True,16
132K22,147,experiment,50,←,left,←,0.8425831000786275,True,16
132K22,148,experiment,38,↓,down,↓,0.8639219999313354,True,16
132K22,149,experiment,40,←,left,←,0.9145871000364423,True,16
132K22,150,experiment,13,↑,down,↓,1.1814772998914123,False,16
132K22,151,experiment,57,←,left,←,0.9522411997895688,True,16
132K22,152,experiment,22,→,left,←,1.1875501000322402,False,16
132K22,153,experiment,56,←,left,←,0.8545765997841954,True,16
132K22,154,experiment,48,↓,down,↓,0.8445721999742091,True,16
132K22,155,experiment,16,←,left,←,1.0087914001196623,True,16
132K22,156,experiment,41,↓,down,↓,1.0612791001331061,True,16
132K22,157,experiment,24,↓,down,↓,0.9871688999701291,True,16
132K22,158,experiment,58,↓,down,↓,0.8534593000076711,True,16
132K22,159,experiment,15,↓,down,↓,1.1614852999337018,True,16
132K22,160,experiment,32,→,right,→,1.4300621000584215,True,16
132K22,161,experiment,28,↓,down,↓,0.8819203998427838,True,16
132K22,162,experiment,36,↓,down,↓,0.8947958000935614,True,16
132K22,163,experiment,45,↑,up,↑,0.9892777998466045,True,16
132K22,164,experiment,17,↓,up,↑,1.8345673000440001,False,16
132K22,165,experiment,33,←,left,←,0.6754997000098228,True,16
132K22,166,experiment,25,↑,up,↑,1.1118240000214428,True,16
132K22,167,experiment,23,↑,up,↑,0.9968062001280487,True,16
132K22,168,experiment,43,→,right,→,1.0480941999703646,True,16
132K22,169,experiment,59,→,right,→,1.0625473000109196,True,16
132K22,170,experiment,49,↑,up,↑,0.9961312999948859,True,16
132K22,171,experiment,52,↑,up,↑,1.4101004998665303,True,16
132K22,172,experiment,18,↑,up,↑,0.877792099956423,True,16
132K22,173,experiment,55,↑,up,↑,0.9344817001838237,True,16
132K22,174,experiment,31,↑,up,↑,0.9647997999563813,True,16
132K22,175,experiment,35,←,left,←,0.8386774000246078,True,16
132K22,176,experiment,26,←,left,←,0.9561103000305593,True,16
132K22,177,experiment,37,↑,up,↑,0.9574684000108391,True,16
132K22,178,experiment,20,↑,up,↑,0.9140765001066029,True,16
132K22,179,experiment,53,↑,up,↑,0.8899450998287648,True,16
132K22,180,experiment,60,→,right,→,0.9266482999082655,True,16
132K22,181,experiment,42,→,right,→,0.8538683999795467,True,16
132K22,182,experiment,27,→,right,→,0.9380316999740899,True,16
132K22,183,experiment,46,→,right,→,0.9498604000546038,True,16
132K22,184,experiment,51,→,right,→,0.9580374998040497,True,16
132K22,185,experiment,44,↓,down,↓,0.9547953000292182,True,16
132K22,186,experiment,34,↑,up,↑,0.9021836998872459,True,16
132K22,187,experiment,14,↑,up,↑,1.0244890002068132,True,16
132K22,188,experiment,19,→,right,→,0.9233201998285949,True,16
132K22,189,experiment,47,↑,up,↑,1.3351635001599789,True,16
132K22,190,experiment,54,→,right,→,0.8460690001957119,True,16
132K22,191,training,37,→,right,→,0.9894175999797881,True,15
132K22,192,training,31,↓,down,↓,0.8651946999598294,True,15
132K22,193,experiment,40,←,left,←,0.8438363999594003,True,15
132K22,194,experiment,21,↑,up,↑,0.9487493999768049,True,15
132K22,195,experiment,46,↑,up,↑,0.8638579999096692,True,15
132K22,196,experiment,28,→,right,→,0.802539300173521,True,15
132K22,197,experiment,41,←,left,←,0.855236099800095,True,15
132K22,198,experiment,56,←,left,←,0.791779899969697,True,15
132K22,199,experiment,38,→,right,→,0.9192569998558611,True,15
132K22,200,experiment,37,↑,up,↑,0.8978532000910491,True,15
132K22,201,experiment,20,←,left,←,0.7363787000067532,True,15
132K22,202,experiment,35,→,right,→,0.8040539999492466,True,15
132K22,203,experiment,14,←,left,←,0.8664427001494914,True,15
132K22,204,experiment,25,←,left,←,0.7671018000692129,True,15
132K22,205,experiment,58,←,left,←,0.7777749998494983,True,15
132K22,206,experiment,36,↑,up,↑,0.7551063001155853,True,15
132K22,207,experiment,24,↑,up,↑,1.4613371000159532,True,15
132K22,208,experiment,29,←,left,←,0.7358448000159115,True,15
132K22,209,experiment,19,↓,down,↓,0.9419986999128014,True,15
132K22,210,experiment,33,↑,up,↑,0.8106804999988526,True,15
132K22,211,experiment,43,↓,up,↑,1.1179182000923902,False,15
132K22,212,experiment,22,→,right,→,0.8184215000364929,True,15
132K22,213,experiment,51,←,left,←,0.7439842999447137,True,15
132K22,214,experiment,45,↑,up,↑,1.8606614999007434,True,15
132K22,215,experiment,27,↑,up,↑,1.0807056000921875,True,15
132K22,216,experiment,52,↑,up,↑,0.930576300015673,True,15
132K22,217,experiment,54,↓,down,↓,0.9051009998656809,True,15
132K22,218,experiment,15,→,left,←,1.1390199000015855,False,15
132K22,219,experiment,60,↑,up,↑,0.9100734998937696,True,15
132K22,220,experiment,39,↓,down,↓,0.8399633998051286,True,15
132K22,221,experiment,53,↑,up,↑,0.8911528999451548,True,15
132K22,222,experiment,32,→,right,→,0.8664065999910235,True,15
132K22,223,experiment,26,→,right,→,0.9344689999707043,True,15
132K22,224,experiment,30,↓,down,↓,0.7890467999968678,True,15
132K22,225,experiment,23,→,right,→,0.9422794000711292,True,15
132K22,226,experiment,13,↓,down,↓,0.8805271999444813,True,15
132K22,227,experiment,16,↑,down,↓,1.5463872000109404,False,15
132K22,228,experiment,48,→,right,→,0.8443939001299441,True,15
132K22,229,experiment,17,←,left,←,0.8879129998385906,True,15
132K22,230,experiment,31,↓,down,↓,0.8396573998034,True,15
132K22,231,experiment,18,↓,down,↓,0.8263338000979275,True,15
132K22,232,experiment,59,→,right,→,0.7224176998715848,True,15
132K22,233,experiment,57,→,right,→,0.7436953000724316,True,15
132K22,234,experiment,55,←,left,←,1.181889500003308,True,15
132K22,235,experiment,42,→,right,→,0.9237236001063138,True,15
132K22,236,experiment,47,↓,down,↓,0.8864156000781804,True,15
132K22,237,experiment,34,→,right,→,0.8285286999307573,True,15
132K22,238,experiment,50,→,right,→,0.8025755998678505,True,15
132K22,239,experiment,44,↓,down,↓,0.9730165000073612,True,15
132K22,240,experiment,49,↑,up,↑,0.8137638999614865,True,15
132K22,241,training,47,→,right,→,0.7176679999101907,True,15
132K22,242,training,29,↓,down,↓,1.0291509998496622,True,15
132K22,243,experiment,59,↑,up,↑,0.8530226999428123,True,15
132K22,244,experiment,14,↑,up,↑,1.8978806999512017,True,15
132K22,245,experiment,18,↑,up,↑,0.9219428000506014,True,15
132K22,246,experiment,36,↑,up,↑,0.81320929992944,True,15
132K22,247,experiment,48,←,left,←,0.7965409001335502,True,15
132K22,248,experiment,56,↓,down,↓,1.0073228001128882,True,15
132K22,249,experiment,55,↑,up,↑,0.8346049999818206,True,15
132K22,250,experiment,45,↓,down,↓,0.8672553000506014,True,15
132K22,251,experiment,39,←,left,←,0.7988317999988794,True,15
132K22,252,experiment,28,←,left,←,0.8038269998505712,True,15
132K22,253,experiment,40,↑,up,↑,0.8332694000564516,True,15
132K22,254,experiment,46,←,left,←,0.801018700003624,True,15
132K22,255,experiment,57,↑,up,↑,0.8272241000086069,True,15
132K22,256,experiment,22,←,left,←,0.8197905998677015,True,15
132K22,257,experiment,50,←,left,←,0.8176782000809908,True,15
132K22,258,experiment,47,→,left,←,1.505624599987641,False,15
132K22,259,experiment,17,←,left,←,0.7863090001046658,True,15
132K22,260,experiment,16,→,right,→,0.9203900001011789,True,15
132K22,261,experiment,42,→,right,→,0.80751320021227,True,15
132K22,262,experiment,60,←,left,←,0.8721781999338418,True,15
132K22,263,experiment,33,↓,down,↓,0.8790174999739975,True,15
132K22,264,experiment,44,↑,up,↑,0.8229620000347495,True,15
132K22,265,experiment,25,←,left,←,0.869892300106585,True,15
132K22,266,experiment,30,←,left,←,0.694946400122717,True,15
132K22,267,experiment,27,↑,up,↑,0.7936912998557091,True,15
132K22,268,experiment,29,←,left,←,0.966938299825415,True,15
132K22,269,experiment,24,→,right,→,0.8163317001890391,True,15
132K22,270,experiment,35,←,left,←,0.6964487999211997,True,15
132K22,271,experiment,20,→,right,→,1.0789093000348657,True,15
132K22,272,experiment,52,→,right,→,0.8817321001552045,True,15
132K22,273,experiment,34,→,right,→,0.9677425001282245,True,15
132K22,274,experiment,41,↓,down,↓,0.869808099931106,True,15
132K22,275,experiment,51,←,left,←,0.7448524998035282,True,15
132K22,276,experiment,21,↓,down,↓,0.8698178001213819,True,15
132K22,277,experiment,54,↓,down,↓,0.8551376999821514,True,15
132K22,278,experiment,49,↑,up,↑,0.7962506001349539,True,15
132K22,279,experiment,43,→,right,→,0.7194957998581231,True,15
132K22,280,experiment,19,↓,down,↓,0.9824733000714332,True,15
132K22,281,experiment,23,↑,up,↑,0.8155058999545872,True,15
132K22,282,experiment,37,→,right,→,0.742518899962306,True,15
132K22,283,experiment,32,←,left,←,0.6995574999600649,True,15
132K22,284,experiment,13,←,left,←,1.078923499910161,True,15
132K22,285,experiment,53,↑,up,↑,0.9209368999581784,True,15
132K22,286,experiment,15,→,right,→,0.8504628001246601,True,15
132K22,287,experiment,58,↓,down,↓,0.8977466998621821,True,15
132K22,288,experiment,38,←,left,←,0.7484255998861045,True,15
132K22,289,experiment,31,→,right,→,1.7219112999737263,True,15
132K22,290,experiment,26,↑,up,↑,0.7157320000696927,True,15
132K22,291,training,51,←,left,←,0.7469518999569118,True,15
132K22,292,training,38,↑,up,↑,0.723800600040704,True,15
132K22,293,experiment,43,←,left,←,0.6105125998146832,True,15
132K22,294,experiment,21,↓,left,←,1.0921425998676568,False,15
132K22,295,experiment,33,←,left,←,0.7468238000292331,True,15
132K22,296,experiment,55,↑,up,↑,0.8082270000595599,True,15
132K22,297,experiment,24,↓,down,↓,0.8001525001600385,True,15
132K22,298,experiment,15,←,left,←,1.046354299876839,True,15
132K22,299,experiment,28,←,left,←,0.8745355999562889,True,15
132K22,300,experiment,46,→,right,→,0.8089899998158216,True,15
132K22,301,experiment,51,←,left,←,0.7833529999479651,True,15
132K22,302,experiment,27,↓,down,↓,0.9178333000745624,True,15
132K22,303,experiment,58,↓,down,↓,0.8822840000502765,True,15
132K22,304,experiment,44,↑,up,↑,0.9855361999943852,True,15
132K22,305,experiment,20,→,no_key,no_letter,-1.0,False,15
132K22,306,experiment,36,↓,down,↓,0.7526437998749316,True,15
132K22,307,experiment,17,→,right,→,0.6628677998669446,True,15
132K22,308,experiment,59,↓,down,↓,0.88480079988949,True,15
132K22,309,experiment,60,↑,up,↑,0.7616828999016434,True,15
132K22,310,experiment,25,↓,down,↓,0.8507791999727488,True,15
132K22,311,experiment,39,→,left,←,1.2633444999810308,False,15
132K22,312,experiment,14,←,left,←,0.5791480001062155,True,15
132K22,313,experiment,49,↓,down,↓,0.8516810999717563,True,15
132K22,314,experiment,45,←,left,←,0.7797300999518484,True,15
132K22,315,experiment,53,↑,up,↑,0.7368453999515623,True,15
132K22,316,experiment,18,↑,up,↑,0.7914400999434292,True,15
132K22,317,experiment,54,←,left,←,0.6280211000703275,True,15
132K22,318,experiment,57,→,right,→,0.7974940999411047,True,15
132K22,319,experiment,29,←,left,←,0.8740162998437881,True,15
132K22,320,experiment,41,←,left,←,0.7560477000661194,True,15
132K22,321,experiment,38,→,right,→,0.9729028001893312,True,15
132K22,322,experiment,50,↓,down,↓,0.868894400075078,True,15
132K22,323,experiment,52,→,right,→,0.743493199814111,True,15
132K22,324,experiment,35,→,right,→,0.7947901000734419,True,15
132K22,325,experiment,22,→,right,→,1.0769494997803122,True,15
132K22,326,experiment,19,↑,up,↑,0.8218390999827534,True,15
132K22,327,experiment,16,←,left,←,0.8024417001288384,True,15
132K22,328,experiment,47,↓,down,↓,0.8430272999685258,True,15
132K22,329,experiment,40,←,left,←,0.734805699903518,True,15
132K22,330,experiment,32,←,left,←,0.7723403999116272,True,15
132K22,331,experiment,37,←,left,←,0.980831699911505,True,15
132K22,332,experiment,13,↓,down,↓,0.8770723000634462,True,15
132K22,333,experiment,26,←,left,←,0.8089993000030518,True,15
132K22,334,experiment,23,←,left,←,0.8497310997918248,True,15
132K22,335,experiment,42,↑,up,↑,0.7074064000044018,True,15
132K22,336,experiment,31,↓,down,↓,0.8110247000586241,True,15
132K22,337,experiment,30,↑,up,↑,0.9590422001201659,True,15
132K22,338,experiment,56,←,left,←,0.7634008000604808,True,15
132K22,339,experiment,48,→,right,→,0.7246640999801457,True,15
132K22,340,experiment,34,↑,up,↑,0.7134116000961512,True,15
132K22,341,training,15,←,left,←,0.8379543998744339,True,15
132K22,342,training,39,↑,up,↑,0.7387868999503553,True,15
132K22,343,experiment,43,↑,up,↑,0.7767771000508219,True,15
132K22,344,experiment,33,↓,down,↓,0.8040595001075417,True,15
132K22,345,experiment,35,↓,down,↓,0.7489773000124842,True,15
132K22,346,experiment,32,←,left,←,0.7855698999483138,True,15
132K22,347,experiment,14,→,right,→,0.7850060998462141,True,15
132K22,348,experiment,21,↓,down,↓,0.7556711998768151,True,15
132K22,349,experiment,55,→,right,→,1.1529696001671255,True,15
132K22,350,experiment,42,↓,down,↓,0.7586721000261605,True,15
132K22,351,experiment,26,←,left,←,0.663290600059554,True,15
132K22,352,experiment,25,→,right,→,0.8041081998962909,True,15
132K22,353,experiment,58,↓,down,↓,0.781615300104022,True,15
132K22,354,experiment,36,→,right,→,0.7421603000257164,True,15
132K22,355,experiment,31,→,right,→,0.8760238999966532,True,15
132K22,356,experiment,50,→,right,→,0.7602725001052022,True,15
132K22,357,experiment,17,→,right,→,0.814696199959144,True,15
132K22,358,experiment,56,←,left,←,0.880707300035283,True,15
132K22,359,experiment,23,↑,up,↑,0.8220444999169558,True,15
132K22,360,experiment,44,↓,down,↓,0.8801796999759972,True,15
132K22,361,experiment,47,→,right,→,0.8295683998148888,True,15
132K22,362,experiment,16,→,right,→,0.9219355001114309,True,15
132K22,363,experiment,30,↑,down,↓,1.0013432998675853,False,15
132K22,364,experiment,39,←,left,←,0.8156342001166195,True,15
132K22,365,experiment,15,↓,down,↓,0.8366996999830008,True,15
132K22,366,experiment,59,→,right,→,0.8202865000348538,True,15
132K22,367,experiment,54,→,right,→,0.8152789999730885,True,15
132K22,368,experiment,20,↑,up,↑,0.9052852001041174,True,15
132K22,369,experiment,52,↓,down,↓,0.8027630001306534,True,15
132K22,370,experiment,53,↑,up,↑,0.8073756999801844,True,15
132K22,371,experiment,19,→,right,→,0.7947060000151396,True,15
132K22,372,experiment,37,→,right,→,1.3946171998977661,True,15
132K22,373,experiment,22,↓,down,↓,0.8851652999874204,True,15
132K22,374,experiment,24,→,right,→,0.7693213999737054,True,15
132K22,375,experiment,29,↓,down,↓,0.8155402999836951,True,15
132K22,376,experiment,51,↓,down,↓,0.7567226001992822,True,15
132K22,377,experiment,28,↑,up,↑,1.692193000111729,True,15
132K22,378,experiment,45,←,left,←,0.8428412999492139,True,15
132K22,379,experiment,34,→,right,→,0.5228103001136333,True,15
132K22,380,experiment,57,→,right,→,0.784512999933213,True,15
132K22,381,experiment,38,↑,up,↑,0.7998973000794649,True,15
132K22,382,experiment,13,→,right,→,0.8146337999496609,True,15
132K22,383,experiment,18,→,right,→,0.8741980998311192,True,15
132K22,384,experiment,40,↓,down,↓,0.8447670999448746,True,15
132K22,385,experiment,27,→,right,→,0.7695725001394749,True,15
132K22,386,experiment,48,↑,up,↑,0.867163100047037,True,15
132K22,387,experiment,41,→,right,→,0.9088977000210434,True,15
132K22,388,experiment,60,←,right,→,1.240732999984175,False,15
132K22,389,experiment,49,↑,up,↑,0.8306675001513213,True,15
132K22,390,experiment,46,↑,up,↑,0.8948361000511795,True,15
132K22,391,training,53,↑,up,↑,0.794624200090766,True,15
132K22,392,training,56,↓,down,↓,0.8620917999651283,True,15
132K22,393,experiment,34,→,right,→,0.7893524998798966,True,15
132K22,394,experiment,24,↑,up,↑,0.7898925999179482,True,15
132K22,395,experiment,13,↓,down,↓,0.854108699830249,True,15
132K22,396,experiment,42,←,left,←,0.7921134999487549,True,15
132K22,397,experiment,26,↓,down,↓,0.7993091999087483,True,15
132K22,398,experiment,20,↑,up,↑,1.0500681002158672,True,15
132K22,399,experiment,30,←,left,←,0.8439196001272649,True,15
132K22,400,experiment,41,→,right,→,0.871232199948281,True,15
132K22,401,experiment,57,↑,up,↑,0.8226175999734551,True,15
132K22,402,experiment,33,↑,up,↑,1.023922799853608,True,15
132K22,403,experiment,17,←,left,←,0.795827099820599,True,15
132K22,404,experiment,28,→,right,→,1.0101787000894547,True,15
132K22,405,experiment,51,↑,up,↑,0.8079152000136673,True,15
132K22,406,experiment,45,→,right,→,0.7298910999670625,True,15
132K22,407,experiment,60,→,right,→,0.7894448000006378,True,15
132K22,408,experiment,49,↑,up,↑,0.9014024001080543,True,15
132K22,409,experiment,23,↑,up,↑,1.0659028000663966,True,15
132K22,410,experiment,52,←,left,←,0.9967505000531673,True,15
132K22,411,experiment,43,↓,down,↓,0.7840948000084609,True,15
132K22,412,experiment,38,→,right,→,0.8472268001642078,True,15
132K22,413,experiment,16,↑,up,↑,0.9150574000086635,True,15
132K22,414,experiment,19,→,right,→,0.7934733000583947,True,15
132K22,415,experiment,47,↑,up,↑,0.8344688001088798,True,15
132K22,416,experiment,29,→,right,→,0.7978169000707567,True,15
132K22,417,experiment,25,→,right,→,0.8133235001005232,True,15
132K22,418,experiment,31,←,right,→,1.0717505000066012,False,15
132K22,419,experiment,27,→,right,→,0.8834979000966996,True,15
132K22,420,experiment,50,→,right,→,0.7827211001422256,True,15
132K22,421,experiment,21,↓,down,↓,0.9771819999441504,True,15
132K22,422,experiment,55,↓,down,↓,0.8297940001357347,True,15
132K22,423,experiment,37,↓,down,↓,0.8604802000336349,True,15
132K22,424,experiment,32,←,left,←,0.9733603000640869,True,15
132K22,425,experiment,22,→,right,→,0.8478629000019282,True,15
132K22,426,experiment,58,↓,down,↓,0.7993753000628203,True,15
132K22,427,experiment,59,↑,up,↑,0.8317748000845313,True,15
132K22,428,experiment,46,→,up,↑,0.9517897998448461,False,15
132K22,429,experiment,54,→,right,→,0.9021081998944283,True,15
132K22,430,experiment,36,↑,up,↑,0.7860954999923706,True,15
132K22,431,experiment,18,←,left,←,0.9264452001079917,True,15
132K22,432,experiment,40,↑,up,↑,0.7433736999519169,True,15
132K22,433,experiment,15,↓,down,↓,0.8000707000028342,True,15
132K22,434,experiment,44,→,right,→,0.7305880000349134,True,15
132K22,435,experiment,39,→,right,→,0.7792177000083029,True,15
132K22,436,experiment,48,↑,up,↑,0.805043599801138,True,15
132K22,437,experiment,56,↓,down,↓,0.847358499886468,True,15
132K22,438,experiment,14,→,right,→,0.827756900107488,True,15
132K22,439,experiment,53,←,left,←,0.7599865000229329,True,15
132K22,440,experiment,35,↑,up,↑,0.7947700000368059,True,15
132K22,441,training,17,→,right,→,0.6904923999682069,True,15
132K22,442,training,27,↓,down,↓,0.7811499000526965,True,15
132K22,443,experiment,26,→,right,→,0.7565162000246346,True,15
132K22,444,experiment,54,→,right,→,0.8028422999195755,True,15
132K22,445,experiment,20,→,right,→,0.6535637998022139,True,15
132K22,446,experiment,52,↑,up,↑,0.73647590004839,True,15
132K22,447,experiment,59,↓,down,↓,0.7962430000770837,True,15
132K22,448,experiment,32,←,left,←,0.8791116999927908,True,15
132K22,449,experiment,48,←,left,←,0.7566879999358207,True,15
132K22,450,experiment,15,↑,up,↑,0.8767393999733031,True,15
132K22,451,experiment,33,↑,up,↑,0.7480597998946905,True,15
132K22,452,experiment,13,↓,down,↓,0.8930707999970764,True,15
132K22,453,experiment,38,↑,up,↑,0.7683983999304473,True,15
132K22,454,experiment,46,↓,down,↓,0.8191382000222802,True,15
132K22,455,experiment,45,→,right,→,1.3964437001850456,True,15
132K22,456,experiment,18,←,left,←,0.792424299987033,True,15
132K22,457,experiment,31,→,right,→,0.7643363000825047,True,15
132K22,458,experiment,57,←,left,←,0.7997827001381665,True,15
132K22,459,experiment,14,←,left,←,0.742377300048247,True,15
132K22,460,experiment,41,←,left,←,0.8618666001129895,True,15
132K22,461,experiment,27,↑,up,↑,0.697868499904871,True,15
132K22,462,experiment,55,↑,up,↑,0.8332054999191314,True,15
132K22,463,experiment,16,↓,down,↓,0.8530745999887586,True,15
132K22,464,experiment,49,→,right,→,0.850443399976939,True,15
132K22,465,experiment,25,↓,down,↓,0.7999251000583172,True,15
132K22,466,experiment,22,→,right,→,1.225262900115922,True,15
132K22,467,experiment,47,→,right,→,0.7771235001273453,True,15
132K22,468,experiment,42,↑,right,→,1.3263621998485178,False,15
132K22,469,experiment,58,↓,down,↓,0.8832062999717891,True,15
132K22,470,experiment,28,←,right,→,1.5493306999560446,False,15
132K22,471,experiment,36,→,right,→,0.7675347998738289,True,15
132K22,472,experiment,40,→,right,→,0.7500092999543995,True,15
132K22,473,experiment,37,↓,down,↓,0.9510451999958605,True,15
132K22,474,experiment,21,→,right,→,0.7392598001752049,True,15
132K22,475,experiment,43,↑,up,↑,0.8333296000491828,True,15
132K22,476,experiment,29,↑,up,↑,1.10855480004102,True,15
132K22,477,experiment,53,↓,down,↓,0.9013221000786871,True,15
132K22,478,experiment,60,↓,down,↓,0.8493490999098867,True,15
132K22,479,experiment,50,↓,down,↓,0.9019641999620944,True,15
132K22,480,experiment,39,↑,up,↑,0.7118675999809057,True,15
132K22,481,experiment,44,↓,down,↓,0.814386400161311,True,15
132K22,482,experiment,24,↑,up,↑,0.8458674000576138,True,15
132K22,483,experiment,51,↓,down,↓,0.7463151998817921,True,15
132K22,484,experiment,56,↑,up,↑,0.8632992999628186,True,15
132K22,485,experiment,35,↑,up,↑,0.8458885999862105,True,15
132K22,486,experiment,30,↓,down,↓,0.7604163000360131,True,15
132K22,487,experiment,34,↓,down,↓,0.8756201998330653,True,15
132K22,488,experiment,23,↑,left,←,1.3140262998640537,False,15
132K22,489,experiment,17,↑,up,↑,0.7537582998629659,True,15
132K22,490,experiment,19,↑,up,↑,0.9670125001575798,True,15
132K22,491,training,44,↑,up,↑,0.6058610000181943,True,15
132K22,492,training,21,↓,down,↓,0.8328924998641014,True,15
132K22,493,experiment,42,↑,up,↑,0.8824990999419242,True,15
132K22,494,experiment,45,→,right,→,0.8171564999502152,True,15
132K22,495,experiment,57,←,left,←,0.7863796998281032,True,15
132K22,496,experiment,18,←,left,←,0.9671070000622422,True,15
132K22,497,experiment,22,→,right,→,0.7458492999430746,True,15
132K22,498,experiment,39,→,right,→,0.7223217999562621,True,15
132K22,499,experiment,24,←,left,←,0.7896072999574244,True,15
132K22,500,experiment,30,←,left,←,0.7944362999405712,True,15
132K22,501,experiment,49,←,left,←,0.73825170006603,True,15
132K22,502,experiment,43,→,right,→,0.7764862000476569,True,15
132K22,503,experiment,58,→,right,→,0.8589393000584096,True,15
132K22,504,experiment,51,→,right,→,0.7749125000555068,True,15
132K22,505,experiment,59,→,right,→,0.7771028999704868,True,15
132K22,506,experiment,41,↓,down,↓,0.7509381999261677,True,15
132K22,507,experiment,55,←,left,←,0.8124325000680983,True,15
132K22,508,experiment,23,→,right,→,0.7812478998675942,True,15
132K22,509,experiment,60,←,left,←,0.7498232000507414,True,15
132K22,510,experiment,28,←,left,←,0.7569238999858499,True,15
132K22,511,experiment,40,←,left,←,0.7564646999817342,True,15
132K22,512,experiment,44,→,right,→,0.8411582000553608,True,15
132K22,513,experiment,29,←,left,←,0.8045085000339895,True,15
132K22,514,experiment,52,←,left,←,0.9538310999050736,True,15
132K22,515,experiment,32,↑,up,↑,0.8464533002115786,True,15
132K22,516,experiment,27,→,right,→,0.7382359001785517,True,15
132K22,517,experiment,54,←,left,←,0.8089385000057518,True,15
132K22,518,experiment,36,↑,up,↑,0.7369256999809295,True,15
132K22,519,experiment,25,↓,down,↓,0.8108268999494612,True,15
132K22,520,experiment,38,↑,up,↑,0.8015539001207799,True,15
132K22,521,experiment,13,↑,up,↑,0.7371031998191029,True,15
132K22,522,experiment,19,←,left,←,0.7591442000120878,True,15
132K22,523,experiment,14,→,right,→,0.9915950000286102,True,15
132K22,524,experiment,47,←,left,←,0.7528874999843538,True,15
132K22,525,experiment,33,↑,up,↑,1.1568821999244392,True,15
132K22,526,experiment,21,↑,up,↑,0.7608925998210907,True,15
132K22,527,experiment,53,↓,down,↓,0.8321505999192595,True,15
132K22,528,experiment,15,↓,right,→,0.8684286000207067,False,15
132K22,529,experiment,37,↑,up,↑,0.7049082000739872,True,15
132K22,530,experiment,17,→,right,→,0.849879699992016,True,15
132K22,531,experiment,20,→,right,→,0.6823177998885512,True,15
132K22,532,experiment,50,↑,up,↑,0.7256934000179172,True,15
132K22,533,experiment,35,↓,down,↓,0.7695951000787318,True,15
132K22,534,experiment,31,↓,down,↓,0.7424402001779526,True,15
132K22,535,experiment,48,→,right,→,0.769105700077489,True,15
132K22,536,experiment,16,↓,down,↓,0.8876852998510003,True,15
132K22,537,experiment,56,←,left,←,0.670812499942258,True,15
132K22,538,experiment,34,←,left,←,0.6935252998955548,True,15
132K22,539,experiment,26,↓,down,↓,0.8090604001190513,True,15
132K22,540,experiment,46,↑,up,↑,1.1303713000379503,True,15
132K22,541,training,26,→,right,→,0.6481999000534415,True,15
132K22,542,training,48,↑,up,↑,0.9903540001250803,True,15
132K22,543,experiment,25,↓,down,↓,0.7341570998542011,True,15
132K22,544,experiment,18,↓,down,↓,0.7087443999480456,True,15
132K22,545,experiment,37,↑,up,↑,0.6641755001619458,True,15
132K22,546,experiment,29,↑,up,↑,0.9381333999335766,True,15
132K22,547,experiment,15,→,right,→,0.9949058000929654,True,15
132K22,548,experiment,46,→,right,→,0.7247599998954684,True,15
132K22,549,experiment,48,↑,up,↑,0.856142699951306,True,15
132K22,550,experiment,34,→,right,→,0.6715814000926912,True,15
132K22,551,experiment,42,←,left,←,0.8967069000937045,True,15
132K22,552,experiment,38,↑,up,↑,0.8036902998574078,True,15
132K22,553,experiment,19,↑,up,↑,0.806792400078848,True,15
132K22,554,experiment,43,↓,down,↓,0.9543512999080122,True,15
132K22,555,experiment,52,→,right,→,0.8417448000982404,True,15
132K22,556,experiment,58,↓,down,↓,0.817534799920395,True,15
132K22,557,experiment,36,←,left,←,0.7367881000973284,True,15
132K22,558,experiment,51,→,right,→,0.8093789999838918,True,15
132K22,559,experiment,44,←,left,←,0.7083199999760836,True,15
132K22,560,experiment,13,↓,down,↓,0.8154225999023765,True,15
132K22,561,experiment,16,←,left,←,0.7562934998422861,True,15
132K22,562,experiment,57,←,left,←,0.680143800098449,True,15
132K22,563,experiment,41,↓,down,↓,0.7693713000044227,True,15
132K22,564,experiment,40,↓,down,↓,0.6801203999202698,True,15
132K22,565,experiment,39,↑,up,↑,0.7147630001418293,True,15
132K22,566,experiment,28,→,right,→,1.0834337999112904,True,15
132K22,567,experiment,22,→,right,→,0.6414022000972182,True,15
132K22,568,experiment,47,↓,down,↓,0.7688947999849916,True,15
132K22,569,experiment,55,↓,down,↓,0.6936715000774711,True,15
132K22,570,experiment,23,←,left,←,0.7149364000651985,True,15
132K22,571,experiment,60,↓,down,↓,1.3820817999076098,True,15
132K22,572,experiment,35,←,left,←,0.759769800119102,True,15
132K22,573,experiment,14,←,left,←,0.5679860999807715,True,15
132K22,574,experiment,50,←,left,←,0.7680675000883639,True,15
132K22,575,experiment,56,→,right,→,0.6923211000394076,True,15
132K22,576,experiment,17,→,right,→,0.7656060999725014,True,15
132K22,577,experiment,24,←,left,←,0.7508531999774277,True,15
132K22,578,experiment,53,↓,down,↓,0.7002999000251293,True,15
132K22,579,experiment,32,←,left,←,0.7547891999129206,True,15
132K22,580,experiment,31,←,left,←,0.728095900034532,True,15
132K22,581,experiment,59,↑,up,↑,0.7721524001099169,True,15
132K22,582,experiment,30,↑,up,↑,0.7372789999935776,True,15
132K22,583,experiment,20,↑,up,↑,0.7429791998583823,True,15
132K22,584,experiment,27,→,right,→,0.7356676999479532,True,15
132K22,585,experiment,54,→,right,→,0.6940788000356406,True,15
132K22,586,experiment,26,↓,down,↓,0.7775936000980437,True,15
132K22,587,experiment,49,→,right,→,0.8341292999684811,True,15
132K22,588,experiment,21,←,left,←,0.7230416999664158,True,15
132K22,589,experiment,45,↓,down,↓,0.7442737999372184,True,15
132K22,590,experiment,33,↓,down,↓,0.7807004998903722,True,15
