PART_ID,Trial_no,Trial_type,CSI,Stim_letter,Key_pressed,letter_choose,Rt,Corr,Stimulus Time
134M23,1,training,60,↑,right,→,0.7028054997790605,False,30
134M23,2,training,60,↓,down,↓,0.842046600067988,True,30
134M23,3,training,60,↓,no_key,no_letter,-1.0,False,30
134M23,4,training,60,↑,up,↑,1.31207330012694,True,30
134M23,5,training,60,↓,down,↓,1.2267147998791188,True,30
134M23,6,training,60,↓,no_key,no_letter,-1.0,False,30
134M23,7,training,60,↓,down,↓,1.0492271999828517,True,30
134M23,8,training,60,↓,down,↓,0.6173768998123705,True,30
134M23,9,training,60,↓,down,↓,0.9886839999817312,True,30
134M23,10,training,60,↓,down,↓,0.8365538001526147,True,30
134M23,11,training,60,↓,down,↓,0.8106917000841349,True,30
134M23,12,training,60,↑,up,↑,1.0333475999068469,True,30
134M23,13,training,60,↓,down,↓,0.8153082001954317,True,30
134M23,14,training,60,↓,down,↓,0.8860188000835478,True,30
134M23,15,training,60,←,left,←,0.9539896999485791,True,30
134M23,16,training,60,↓,down,↓,1.1472587999887764,True,30
134M23,17,training,60,↓,down,↓,0.9486515999305993,True,30
134M23,18,training,60,→,right,→,0.9019536999985576,True,30
134M23,19,training,60,←,left,←,1.1132813999429345,True,30
134M23,20,training,60,↓,down,↓,0.8999197999946773,True,30
134M23,21,training,60,↑,up,↑,0.7899194001220167,True,18
134M23,22,training,60,↓,down,↓,0.6539103998802602,True,18
134M23,23,training,60,↑,up,↑,0.6993374000303447,True,18
134M23,24,training,60,←,left,←,0.6545872001443058,True,18
134M23,25,training,60,↑,up,↑,0.8361762999556959,True,18
134M23,26,training,60,←,left,←,0.7139773000963032,True,18
134M23,27,training,60,↓,down,↓,0.7245987998321652,True,18
134M23,28,training,60,→,right,→,0.6792756000068039,True,18
134M23,29,training,60,↑,up,↑,0.7151742000132799,True,18
134M23,30,training,60,↑,up,↑,0.7178736000787467,True,18
134M23,31,training,60,←,left,←,0.6085416998248547,True,18
134M23,32,training,60,→,right,→,0.7199369999580085,True,18
134M23,33,training,60,↓,down,↓,0.6265048000495881,True,18
134M23,34,training,60,→,right,→,0.6893039999995381,True,18
134M23,35,training,60,←,left,←,0.8214217000640929,True,18
134M23,36,training,60,↓,down,↓,0.691871999995783,True,18
134M23,37,training,60,←,left,←,0.687796900048852,True,18
134M23,38,training,60,←,left,←,0.6598333998117596,True,18
134M23,39,training,60,←,left,←,0.6253918998409063,True,18
134M23,40,training,60,←,left,←,0.6399314999580383,True,18
134M23,41,training,30,↑,up,↑,0.5517180000897497,True,18
134M23,42,training,47,→,right,→,0.5698311999440193,True,18
134M23,43,experiment,13,←,left,←,0.538480999879539,True,18
134M23,44,experiment,15,↓,down,↓,0.6831344999372959,True,18
134M23,45,experiment,34,↑,up,↑,0.6171091999858618,True,18
134M23,46,experiment,39,↓,down,↓,0.6064589999150485,True,18
134M23,47,experiment,20,↑,up,↑,0.6411757001187652,True,18
134M23,48,experiment,41,↑,up,↑,0.6124356999062002,True,18
134M23,49,experiment,56,→,right,→,0.5911663000006229,True,18
134M23,50,experiment,40,→,right,→,0.5812091999687254,True,18
134M23,51,experiment,54,↑,up,↑,0.489729099906981,True,18
134M23,52,experiment,44,→,right,→,0.5931108000222594,True,18
134M23,53,experiment,43,→,right,→,1.0290930999908596,True,18
134M23,54,experiment,31,↓,down,↓,0.5597521001473069,True,18
134M23,55,experiment,51,←,left,←,0.6478173998184502,True,18
134M23,56,experiment,16,←,left,←,0.5793991000391543,True,18
134M23,57,experiment,50,→,right,→,0.6190785001963377,True,18
134M23,58,experiment,59,↓,down,↓,0.5630950999911875,True,18
134M23,59,experiment,22,←,left,←,0.517769199796021,True,18
134M23,60,experiment,17,↓,down,↓,0.9258687000256032,True,18
134M23,61,experiment,52,↓,down,↓,0.5584623999893665,True,18
134M23,62,experiment,30,↓,down,↓,0.5164071000181139,True,18
134M23,63,experiment,42,↓,down,↓,0.5318014998920262,True,18
134M23,64,experiment,29,←,left,←,0.6030496000312269,True,18
134M23,65,experiment,33,→,right,→,0.47697359998710454,True,18
134M23,66,experiment,21,→,right,→,0.6597461998462677,True,18
134M23,67,experiment,37,↓,down,↓,0.49710440007038414,True,18
134M23,68,experiment,55,↓,down,↓,0.5690425999928266,True,18
134M23,69,experiment,60,↓,down,↓,0.5303736999630928,True,18
134M23,70,experiment,58,↓,down,↓,0.5030395998619497,True,18
134M23,71,experiment,35,↓,down,↓,0.5158913999330252,True,18
134M23,72,experiment,49,→,right,→,0.5184086000081152,True,18
134M23,73,experiment,53,←,left,←,0.5744004000443965,True,18
134M23,74,experiment,32,←,left,←,0.5063853000756353,True,18
134M23,75,experiment,28,↓,down,↓,0.5157850000541657,True,18
134M23,76,experiment,24,↑,up,↑,0.5750998998992145,True,18
134M23,77,experiment,25,→,right,→,1.3756902001332492,True,18
134M23,78,experiment,46,↑,up,↑,0.5784283000975847,True,18
134M23,79,experiment,47,↓,down,↓,0.556390100158751,True,18
134M23,80,experiment,14,→,right,→,0.8613082999363542,True,18
134M23,81,experiment,57,↑,up,↑,0.6295346000697464,True,18
134M23,82,experiment,45,↑,up,↑,0.5263754001352936,True,18
134M23,83,experiment,26,↑,up,↑,0.8564439001493156,True,18
134M23,84,experiment,23,↑,up,↑,0.743030000012368,True,18
134M23,85,experiment,27,→,right,→,0.6478329999372363,True,18
134M23,86,experiment,38,↑,up,↑,0.5644412999972701,True,18
134M23,87,experiment,18,→,right,→,0.7376642001327127,True,18
134M23,88,experiment,19,↑,up,↑,0.615696599939838,True,18
134M23,89,experiment,48,←,left,←,0.5270911999978125,True,18
134M23,90,experiment,36,→,right,→,0.5623657000251114,True,18
134M23,91,training,33,↓,down,↓,0.714400399941951,True,17
134M23,92,training,32,←,left,←,0.4722823000047356,True,17
134M23,93,experiment,39,↑,up,↑,0.6195820001885295,True,17
134M23,94,experiment,29,→,right,→,0.7116129999049008,True,17
134M23,95,experiment,28,↓,down,↓,0.5449600000865757,True,17
134M23,96,experiment,22,↓,down,↓,0.5648837999906391,True,17
134M23,97,experiment,53,←,left,←,0.618924800073728,True,17
134M23,98,experiment,55,↓,down,↓,0.5256260000169277,True,17
134M23,99,experiment,16,↑,down,↓,0.9663790999911726,False,17
134M23,100,experiment,49,↑,up,↑,0.5828488999977708,True,17
134M23,101,experiment,42,←,left,←,0.5320174000225961,True,17
134M23,102,experiment,59,←,left,←,0.5908962001558393,True,17
134M23,103,experiment,20,←,left,←,0.5703286998905241,True,17
134M23,104,experiment,44,←,left,←,0.5263235999736935,True,17
134M23,105,experiment,33,↓,right,→,0.5157051999121904,False,17
134M23,106,experiment,21,→,right,→,0.7129038998391479,True,17
134M23,107,experiment,36,↓,down,↓,0.6208889000117779,True,17
134M23,108,experiment,48,←,left,←,0.5323608999606222,True,17
134M23,109,experiment,56,↓,down,↓,0.6738169000018388,True,17
134M23,110,experiment,60,→,right,→,0.6068645000923425,True,17
134M23,111,experiment,27,→,right,→,0.556899799965322,True,17
134M23,112,experiment,25,→,right,→,0.5982054998166859,True,17
134M23,113,experiment,52,←,left,←,0.6277101999148726,True,17
134M23,114,experiment,58,↓,down,↓,0.6282842000946403,True,17
134M23,115,experiment,40,↓,down,↓,0.5768625000491738,True,17
134M23,116,experiment,23,→,right,→,0.7388951999600977,True,17
134M23,117,experiment,31,↓,down,↓,0.688873799983412,True,17
134M23,118,experiment,15,↑,down,↓,0.6515132999047637,False,17
134M23,119,experiment,14,→,right,→,0.6002128000836819,True,17
134M23,120,experiment,43,↓,down,↓,0.6195839999709278,True,17
134M23,121,experiment,51,↑,up,↑,0.6008403999730945,True,17
134M23,122,experiment,35,←,left,←,0.5775194000452757,True,17
134M23,123,experiment,30,↑,up,↑,0.5668748000171036,True,17
134M23,124,experiment,41,↑,up,↑,0.5408854000270367,True,17
134M23,125,experiment,34,→,left,←,0.632869099965319,False,17
134M23,126,experiment,18,↑,up,↑,0.5717567999381572,True,17
134M23,127,experiment,19,→,right,→,0.5202432000078261,True,17
134M23,128,experiment,13,→,right,→,0.49915209994651377,True,17
134M23,129,experiment,50,↓,down,↓,0.6615123001392931,True,17
134M23,130,experiment,57,↓,down,↓,0.613486599875614,True,17
134M23,131,experiment,24,→,right,→,0.6368831000290811,True,17
134M23,132,experiment,17,↓,down,↓,0.6242861999198794,True,17
134M23,133,experiment,26,→,right,→,0.6621516000013798,True,17
134M23,134,experiment,32,↑,up,↑,0.542886600131169,True,17
134M23,135,experiment,45,↓,down,↓,0.5875277000013739,True,17
134M23,136,experiment,47,↑,up,↑,0.468865699833259,True,17
134M23,137,experiment,37,↓,down,↓,0.5456298999488354,True,17
134M23,138,experiment,46,→,right,→,0.5336329001002014,True,17
134M23,139,experiment,38,↑,up,↑,0.41729120002128184,True,17
134M23,140,experiment,54,←,left,←,0.5455090999603271,True,17
134M23,141,training,55,←,left,←,0.5021848999895155,True,16
134M23,142,training,19,↓,down,↓,0.5974328999873251,True,16
134M23,143,experiment,34,↑,up,↑,0.44677490019239485,True,16
134M23,144,experiment,48,↓,down,↓,0.49274619994685054,True,16
134M23,145,experiment,41,↑,up,↑,0.4780726998578757,True,16
134M23,146,experiment,28,↓,down,↓,0.5047289000358433,True,16
134M23,147,experiment,54,→,right,→,0.6330311000347137,True,16
134M23,148,experiment,44,↑,up,↑,0.7140581000130624,True,16
134M23,149,experiment,52,↑,up,↑,0.6590160999912769,True,16
134M23,150,experiment,25,↑,up,↑,0.6080932000186294,True,16
134M23,151,experiment,49,↓,down,↓,0.6154982999432832,True,16
134M23,152,experiment,42,←,left,←,0.5547937001101673,True,16
134M23,153,experiment,19,↓,down,↓,0.6160901999101043,True,16
134M23,154,experiment,26,↑,up,↑,0.6303180998656899,True,16
134M23,155,experiment,59,↓,down,↓,0.6453911999706179,True,16
134M23,156,experiment,58,←,left,←,0.5493785000871867,True,16
134M23,157,experiment,47,→,right,→,0.5841252999380231,True,16
134M23,158,experiment,29,←,left,←,0.4693744999822229,True,16
134M23,159,experiment,16,↓,down,↓,0.5680413998197764,True,16
134M23,160,experiment,22,↓,down,↓,0.6428525000810623,True,16
134M23,161,experiment,56,←,left,←,0.6441422000061721,True,16
134M23,162,experiment,35,↓,down,↓,1.859379000030458,True,16
134M23,163,experiment,24,→,right,→,0.6013958998955786,True,16
134M23,164,experiment,17,←,left,←,0.6460365999955684,True,16
134M23,165,experiment,53,→,right,→,1.1695520000066608,True,16
134M23,166,experiment,27,↑,up,↑,0.7687712998595089,True,16
134M23,167,experiment,32,→,right,→,0.5807227999903262,True,16
134M23,168,experiment,18,→,right,→,0.6095156001392752,True,16
134M23,169,experiment,39,←,right,→,0.6313295001164079,False,16
134M23,170,experiment,21,↓,down,↓,0.5840073998551816,True,16
134M23,171,experiment,40,↓,down,↓,0.5340242001693696,True,16
134M23,172,experiment,15,↑,down,↓,0.7987100000027567,False,16
134M23,173,experiment,23,↑,up,↑,0.599368300056085,True,16
134M23,174,experiment,37,↓,down,↓,0.5747789999004453,True,16
134M23,175,experiment,36,→,right,→,0.5920311999507248,True,16
134M23,176,experiment,50,↓,down,↓,0.5513508999720216,True,16
134M23,177,experiment,14,→,right,→,0.5520500000566244,True,16
134M23,178,experiment,46,←,right,→,0.4753481999505311,False,16
134M23,179,experiment,33,↓,down,↓,0.6266880000475794,True,16
134M23,180,experiment,20,↑,up,↑,0.5245857001282275,True,16
134M23,181,experiment,31,→,right,→,0.5874492998700589,True,16
134M23,182,experiment,43,←,left,←,0.511317899916321,True,16
134M23,183,experiment,55,←,left,←,0.5587341000791639,True,16
134M23,184,experiment,30,←,left,←,0.45261569996364415,True,16
134M23,185,experiment,38,←,left,←,0.6733059000689536,True,16
134M23,186,experiment,51,↓,down,↓,0.5806795000098646,True,16
134M23,187,experiment,45,↑,up,↑,0.5032868001144379,True,16
134M23,188,experiment,57,←,left,←,0.5653888999950141,True,16
134M23,189,experiment,13,↓,down,↓,0.622025900054723,True,16
134M23,190,experiment,60,→,right,→,0.6533524999395013,True,16
134M23,191,training,14,↑,up,↑,0.43059769994579256,True,15
134M23,192,training,46,↓,down,↓,0.5266837000381202,True,15
134M23,193,experiment,54,←,left,←,0.6223709001205862,True,15
134M23,194,experiment,47,↓,down,↓,0.7580677000805736,True,15
134M23,195,experiment,56,←,left,←,0.5066593000665307,True,15
134M23,196,experiment,59,→,left,←,0.4554033000022173,False,15
134M23,197,experiment,23,↓,down,↓,0.6459659000393003,True,15
134M23,198,experiment,20,→,right,→,0.5272795998025686,True,15
134M23,199,experiment,34,↑,up,↑,0.5799585999920964,True,15
134M23,200,experiment,28,→,right,→,0.48202460003085434,True,15
134M23,201,experiment,31,↓,down,↓,0.7698879998642951,True,15
134M23,202,experiment,52,→,right,→,1.0646882997825742,True,15
134M23,203,experiment,40,→,left,←,0.5872913999482989,False,15
134M23,204,experiment,48,↓,down,↓,0.5880256998352706,True,15
134M23,205,experiment,17,←,left,←,0.5214160999748856,True,15
134M23,206,experiment,29,↓,down,↓,0.7212776998057961,True,15
134M23,207,experiment,22,←,right,→,0.7099815001711249,False,15
134M23,208,experiment,46,→,right,→,0.5552897998131812,True,15
134M23,209,experiment,13,→,left,←,0.7165912999771535,False,15
134M23,210,experiment,26,←,right,→,0.5267074999865144,False,15
134M23,211,experiment,25,←,right,→,0.5052428999915719,False,15
134M23,212,experiment,41,↓,down,↓,0.6258956000674516,True,15
134M23,213,experiment,15,↑,up,↑,0.5832559000700712,True,15
134M23,214,experiment,51,→,right,→,0.6139154999982566,True,15
134M23,215,experiment,18,↓,down,↓,0.569235899951309,True,15
134M23,216,experiment,44,↓,down,↓,0.4533863998949528,True,15
134M23,217,experiment,45,→,right,→,0.749252799898386,True,15
134M23,218,experiment,53,↓,down,↓,0.6839904000516981,True,15
134M23,219,experiment,36,→,right,→,0.5205783999990672,True,15
134M23,220,experiment,21,→,right,→,0.47792370012030005,True,15
134M23,221,experiment,37,←,right,→,0.570528200129047,False,15
134M23,222,experiment,38,↑,up,↑,0.5708529998082668,True,15
134M23,223,experiment,49,↑,up,↑,0.5392137998715043,True,15
134M23,224,experiment,24,←,left,←,0.558003299869597,True,15
134M23,225,experiment,30,↑,up,↑,0.5799379001837224,True,15
134M23,226,experiment,55,↑,up,↑,0.5365749998018146,True,15
134M23,227,experiment,35,→,right,→,0.4758927000220865,True,15
134M23,228,experiment,19,→,right,→,0.5007754000835121,True,15
134M23,229,experiment,39,←,left,←,0.6705827999394387,True,15
134M23,230,experiment,32,→,right,→,0.5987137001939118,True,15
134M23,231,experiment,14,←,left,←,0.5972114999312907,True,15
134M23,232,experiment,42,↓,down,↓,0.5931989001110196,True,15
134M23,233,experiment,60,↑,up,↑,0.474005299853161,True,15
134M23,234,experiment,50,↓,down,↓,0.6779714000876993,True,15
134M23,235,experiment,16,←,left,←,0.5925253999885172,True,15
134M23,236,experiment,57,→,right,→,0.4912129999138415,True,15
134M23,237,experiment,27,↓,down,↓,0.6299744001589715,True,15
134M23,238,experiment,43,→,right,→,0.5039100998546928,True,15
134M23,239,experiment,58,→,right,→,0.501270999899134,True,15
134M23,240,experiment,33,↑,up,↑,0.5312162998598069,True,15
134M23,241,training,29,↑,up,↑,0.5919294999912381,True,15
134M23,242,training,39,→,right,→,0.4465497999917716,True,15
134M23,243,experiment,35,←,right,→,0.6613290999084711,False,15
134M23,244,experiment,40,↓,down,↓,0.5765788999851793,True,15
134M23,245,experiment,17,←,left,←,0.5665180999785662,True,15
134M23,246,experiment,20,→,right,→,0.5864467001520097,True,15
134M23,247,experiment,32,→,right,→,0.7819179999642074,True,15
134M23,248,experiment,55,↑,up,↑,0.5218337001278996,True,15
134M23,249,experiment,49,↓,down,↓,0.6047652999404818,True,15
134M23,250,experiment,54,←,left,←,0.4885317999869585,True,15
134M23,251,experiment,22,←,left,←,0.6305663001257926,True,15
134M23,252,experiment,18,→,right,→,0.5851292000152171,True,15
134M23,253,experiment,39,↓,down,↓,0.5998160999733955,True,15
134M23,254,experiment,42,↓,down,↓,0.5318362999241799,True,15
134M23,255,experiment,29,←,left,←,0.523274099919945,True,15
134M23,256,experiment,16,↓,down,↓,0.5638248000759631,True,15
134M23,257,experiment,34,↓,down,↓,0.5665186000987887,True,15
134M23,258,experiment,33,↑,up,↑,1.1619073001202196,True,15
134M23,259,experiment,57,←,left,←,0.5498341999482363,True,15
134M23,260,experiment,36,↓,down,↓,0.5838722998742014,True,15
134M23,261,experiment,21,↑,up,↑,0.5624770999420434,True,15
134M23,262,experiment,47,↑,up,↑,0.5811014999635518,True,15
134M23,263,experiment,44,↓,down,↓,0.6564617999829352,True,15
134M23,264,experiment,51,→,right,→,0.5804628999903798,True,15
134M23,265,experiment,23,↑,up,↑,0.5818780001718551,True,15
134M23,266,experiment,13,→,right,→,0.5257757001090795,True,15
134M23,267,experiment,24,↓,down,↓,0.6570845001842827,True,15
134M23,268,experiment,19,↑,up,↑,0.5465047999750823,True,15
134M23,269,experiment,46,→,right,→,0.5417965000960976,True,15
134M23,270,experiment,41,↑,up,↑,0.541185500100255,True,15
134M23,271,experiment,28,↓,down,↓,0.5652244000229985,True,15
134M23,272,experiment,60,↑,up,↑,0.502483099931851,True,15
134M23,273,experiment,58,↑,up,↑,0.5880926998797804,True,15
134M23,274,experiment,50,↓,down,↓,0.5871237998362631,True,15
134M23,275,experiment,43,→,left,←,0.5031485001090914,False,15
134M23,276,experiment,56,↑,up,↑,0.5177249999251217,True,15
134M23,277,experiment,52,↓,up,↑,0.6142708000261337,False,15
134M23,278,experiment,14,↓,down,↓,0.772494199918583,True,15
134M23,279,experiment,45,↑,up,↑,0.4877379999961704,True,15
134M23,280,experiment,37,↑,up,↑,0.5877454001456499,True,15
134M23,281,experiment,26,↓,up,↑,0.6511748998891562,False,15
134M23,282,experiment,38,→,right,→,0.5280387999955565,True,15
134M23,283,experiment,25,→,right,→,0.5784146999940276,True,15
134M23,284,experiment,30,↑,up,↑,1.0959769999608397,True,15
134M23,285,experiment,53,↑,up,↑,0.4972008999902755,True,15
134M23,286,experiment,27,←,left,←,0.5871506000403315,True,15
134M23,287,experiment,48,↑,up,↑,0.7877100000623614,True,15
134M23,288,experiment,15,→,right,→,0.6343717998825014,True,15
134M23,289,experiment,59,←,left,←,0.5457506000529975,True,15
134M23,290,experiment,31,↑,up,↑,0.4958307999186218,True,15
134M23,291,training,27,→,right,→,1.5997385000810027,True,15
134M23,292,training,20,→,right,→,0.42650149995461106,True,15
134M23,293,experiment,33,→,right,→,0.5551603001076728,True,15
134M23,294,experiment,20,↑,up,↑,0.5277708999346942,True,15
134M23,295,experiment,58,→,right,→,1.1163981000427157,True,15
134M23,296,experiment,56,←,left,←,0.4746002999600023,True,15
134M23,297,experiment,22,↑,up,↑,0.46508509991690516,True,15
134M23,298,experiment,19,↑,up,↑,0.5059822001494467,True,15
134M23,299,experiment,27,↓,up,↑,0.5316525001544505,False,15
134M23,300,experiment,17,↓,down,↓,0.6191162001341581,True,15
134M23,301,experiment,23,←,right,→,0.491042000008747,False,15
134M23,302,experiment,32,↓,right,→,0.7624945999123156,False,15
134M23,303,experiment,39,↑,up,↑,0.4504561999347061,True,15
134M23,304,experiment,48,←,left,←,0.49644539994187653,True,15
134M23,305,experiment,52,↑,up,↑,0.4657411999069154,True,15
134M23,306,experiment,35,↓,down,↓,0.5037087998352945,True,15
134M23,307,experiment,53,↓,no_key,no_letter,-1.0,False,15
134M23,308,experiment,21,←,right,→,0.9337816000916064,False,15
134M23,309,experiment,40,↑,up,↑,0.49376320000737906,True,15
134M23,310,experiment,44,↓,down,↓,0.6290984000079334,True,15
134M23,311,experiment,15,←,left,←,0.8103451000060886,True,15
134M23,312,experiment,43,↓,down,↓,0.4778283000923693,True,15
134M23,313,experiment,51,→,right,→,0.45759940007701516,True,15
134M23,314,experiment,59,↑,up,↑,0.591596000129357,True,15
134M23,315,experiment,28,↑,up,↑,0.5016713999211788,True,15
134M23,316,experiment,46,↓,down,↓,0.5954438999760896,True,15
134M23,317,experiment,14,←,right,→,0.6103288000449538,False,15
134M23,318,experiment,13,↑,up,↑,0.5296800001524389,True,15
134M23,319,experiment,34,←,right,→,0.4538862998597324,False,15
134M23,320,experiment,49,↑,up,↑,0.651027100160718,True,15
134M23,321,experiment,18,↑,up,↑,0.5169921999331564,True,15
134M23,322,experiment,30,↓,up,↑,0.5963321998715401,False,15
134M23,323,experiment,36,←,left,←,0.5323063000105321,True,15
134M23,324,experiment,54,↑,up,↑,0.523043000139296,True,15
134M23,325,experiment,42,↓,up,↑,0.5304470998235047,False,15
134M23,326,experiment,50,←,left,←,0.5716430998872966,True,15
134M23,327,experiment,47,↑,up,↑,0.5660546999424696,True,15
134M23,328,experiment,57,→,right,→,0.5210136000532657,True,15
134M23,329,experiment,37,←,left,←,0.5076236999593675,True,15
134M23,330,experiment,60,←,left,←,0.5916528000961989,True,15
134M23,331,experiment,38,→,left,←,0.4949142998084426,False,15
134M23,332,experiment,41,↓,down,↓,0.6323198999743909,True,15
134M23,333,experiment,26,↑,up,↑,0.7976575999055058,True,15
134M23,334,experiment,24,↑,up,↑,0.6936574000865221,True,15
134M23,335,experiment,16,↓,down,↓,1.0076174999121577,True,15
134M23,336,experiment,29,↑,up,↑,0.5323340999893844,True,15
134M23,337,experiment,45,↑,up,↑,0.5450174999423325,True,15
134M23,338,experiment,31,↓,up,↑,0.6310254000127316,False,15
134M23,339,experiment,25,↑,up,↑,0.5569729001726955,True,15
134M23,340,experiment,55,↓,down,↓,0.6743059998843819,True,15
134M23,341,training,52,↓,down,↓,0.6229562000371516,True,15
134M23,342,training,42,→,right,→,0.6422542000655085,True,15
134M23,343,experiment,55,↑,up,↑,0.6042412000242621,True,15
134M23,344,experiment,20,↑,up,↑,0.48725469992496073,True,15
134M23,345,experiment,31,↓,down,↓,0.5349220000207424,True,15
134M23,346,experiment,48,↓,down,↓,0.6656754000578076,True,15
134M23,347,experiment,40,↑,down,↓,0.6762190998997539,False,15
134M23,348,experiment,39,↓,down,↓,0.5755334999412298,True,15
134M23,349,experiment,29,↑,up,↑,0.5416807997971773,True,15
134M23,350,experiment,25,↑,up,↑,0.5036120000295341,True,15
134M23,351,experiment,13,→,right,→,0.6349480000790209,True,15
134M23,352,experiment,57,↑,up,↑,0.5236619000788778,True,15
134M23,353,experiment,44,↓,down,↓,0.6735992000903934,True,15
134M23,354,experiment,46,↑,up,↑,0.46427699993364513,True,15
134M23,355,experiment,52,↓,down,↓,0.6748794999439269,True,15
134M23,356,experiment,53,↓,down,↓,0.5488090999424458,True,15
134M23,357,experiment,43,←,right,→,0.7542403999250382,False,15
134M23,358,experiment,33,↑,up,↑,0.9904388000722975,True,15
134M23,359,experiment,34,↓,down,↓,0.6162590000312775,True,15
134M23,360,experiment,17,↑,up,↑,0.5561952998396009,True,15
134M23,361,experiment,42,↓,down,↓,0.6742526998277754,True,15
134M23,362,experiment,16,←,left,←,0.5648453999310732,True,15
134M23,363,experiment,32,↓,left,←,0.8488703998737037,False,15
134M23,364,experiment,60,↑,up,↑,0.6151426997967064,True,15
134M23,365,experiment,15,↑,up,↑,0.8282031998969615,True,15
134M23,366,experiment,37,↓,down,↓,0.97889419994317,True,15
134M23,367,experiment,36,←,left,←,0.5402009000536054,True,15
134M23,368,experiment,27,←,left,←,0.6211076998151839,True,15
134M23,369,experiment,19,↓,down,↓,0.5115442001260817,True,15
134M23,370,experiment,49,↑,up,↑,0.6188322000671178,True,15
134M23,371,experiment,24,←,left,←,0.7301813000813127,True,15
134M23,372,experiment,30,←,left,←,0.6735484001692384,True,15
134M23,373,experiment,51,→,right,→,0.6128644000273198,True,15
134M23,374,experiment,21,→,right,→,0.6148360001388937,True,15
134M23,375,experiment,41,←,left,←,0.5548581001348794,True,15
134M23,376,experiment,54,→,right,→,0.560887899948284,True,15
134M23,377,experiment,59,←,left,←,0.48347549978643656,True,15
134M23,378,experiment,50,↑,right,→,0.384042700054124,False,15
134M23,379,experiment,56,↑,no_key,no_letter,-1.0,False,15
134M23,380,experiment,45,→,right,→,0.6068406999111176,True,15
134M23,381,experiment,47,←,right,→,0.4555516999680549,False,15
134M23,382,experiment,26,←,left,←,0.5246566000860184,True,15
134M23,383,experiment,28,→,right,→,0.532789499964565,True,15
134M23,384,experiment,18,→,right,→,0.5956517998129129,True,15
134M23,385,experiment,23,←,right,→,0.36734410002827644,False,15
134M23,386,experiment,22,←,right,→,0.5028615999035537,False,15
134M23,387,experiment,38,↑,up,↑,0.5614632999058813,True,15
134M23,388,experiment,35,←,left,←,0.49222889984957874,True,15
134M23,389,experiment,14,↑,up,↑,0.64742729999125,True,15
134M23,390,experiment,58,→,right,→,0.3680640000384301,True,15
134M23,391,training,58,←,left,←,0.4901980999857187,True,15
134M23,392,training,21,→,right,→,0.42487119999714196,True,15
134M23,393,experiment,17,←,left,←,0.6201035000849515,True,15
134M23,394,experiment,55,↑,up,↑,0.6068474999628961,True,15
134M23,395,experiment,52,↑,up,↑,0.46010490017943084,True,15
134M23,396,experiment,59,→,right,→,0.5387869998812675,True,15
134M23,397,experiment,25,↑,up,↑,0.5408212000038475,True,15
134M23,398,experiment,24,↑,up,↑,0.4875068000983447,True,15
134M23,399,experiment,53,→,right,→,0.4729198000859469,True,15
134M23,400,experiment,47,↓,down,↓,0.7027513000648469,True,15
134M23,401,experiment,32,→,right,→,0.5334054999984801,True,15
134M23,402,experiment,20,↑,up,↑,0.49071849999018013,True,15
134M23,403,experiment,54,→,right,→,0.4914210999850184,True,15
134M23,404,experiment,31,←,left,←,0.5074601001106203,True,15
134M23,405,experiment,30,↓,down,↓,0.5474269001279026,True,15
134M23,406,experiment,48,↑,up,↑,0.8060518000274897,True,15
134M23,407,experiment,29,↑,up,↑,0.5541598000563681,True,15
134M23,408,experiment,14,↓,up,↑,0.546860900009051,False,15
134M23,409,experiment,45,↑,up,↑,0.5427863001823425,True,15
134M23,410,experiment,46,↓,down,↓,0.6827308000065386,True,15
134M23,411,experiment,23,↑,up,↑,0.528053600108251,True,15
134M23,412,experiment,26,↓,down,↓,0.6181239001452923,True,15
134M23,413,experiment,22,↑,up,↑,0.5227177999913692,True,15
134M23,414,experiment,39,↓,down,↓,0.5483150999061763,True,15
134M23,415,experiment,57,↓,down,↓,0.6481723999604583,True,15
134M23,416,experiment,44,↓,down,↓,0.5527172998990864,True,15
134M23,417,experiment,43,↓,down,↓,0.654058399843052,True,15
134M23,418,experiment,51,←,right,→,0.514178599929437,False,15
134M23,419,experiment,38,←,right,→,0.5562463998794556,False,15
134M23,420,experiment,50,←,right,→,0.6848343000747263,False,15
134M23,421,experiment,21,←,left,←,0.6193163001444191,True,15
134M23,422,experiment,34,→,right,→,0.5400992999784648,True,15
134M23,423,experiment,33,→,right,→,0.5689743000548333,True,15
134M23,424,experiment,27,↑,up,↑,0.5841689000371844,True,15
134M23,425,experiment,60,→,right,→,0.6646811000537127,True,15
134M23,426,experiment,19,↑,down,↓,0.641321900067851,False,15
134M23,427,experiment,16,↓,down,↓,0.5733489999547601,True,15
134M23,428,experiment,18,←,left,←,0.6266583001706749,True,15
134M23,429,experiment,58,→,left,←,0.6916457999031991,False,15
134M23,430,experiment,36,←,left,←,0.552083799848333,True,15
134M23,431,experiment,15,→,left,←,0.591996599920094,False,15
134M23,432,experiment,35,←,left,←,0.6893537999130785,True,15
134M23,433,experiment,42,↑,down,↓,0.634002200094983,False,15
134M23,434,experiment,41,↓,down,↓,0.557327400194481,True,15
134M23,435,experiment,40,←,left,←,0.5886613000184298,True,15
134M23,436,experiment,49,←,left,←,0.6607053999323398,True,15
134M23,437,experiment,28,↑,up,↑,0.6721163999754936,True,15
134M23,438,experiment,56,↓,down,↓,0.5920686000026762,True,15
134M23,439,experiment,37,→,right,→,0.5280157998204231,True,15
134M23,440,experiment,13,↓,down,↓,0.5786434998735785,True,15
134M23,441,training,53,→,right,→,0.5732152999844402,True,15
134M23,442,training,22,↑,up,↑,0.6160410000011325,True,15
134M23,443,experiment,36,→,left,←,0.7032394001726061,False,15
134M23,444,experiment,25,↑,up,↑,0.466600300045684,True,15
134M23,445,experiment,27,↓,down,↓,0.6140687000006437,True,15
134M23,446,experiment,53,↑,up,↑,0.561905900016427,True,15
134M23,447,experiment,35,←,left,←,0.556544000050053,True,15
134M23,448,experiment,22,↑,up,↑,0.4479368000756949,True,15
134M23,449,experiment,51,→,right,→,0.4839145001024008,True,15
134M23,450,experiment,21,→,right,→,0.482502399943769,True,15
134M23,451,experiment,19,→,right,→,0.4505338000599295,True,15
134M23,452,experiment,47,↓,down,↓,0.6012965999543667,True,15
134M23,453,experiment,18,←,left,←,0.5173613000661135,True,15
134M23,454,experiment,50,←,left,←,0.5432661999948323,True,15
134M23,455,experiment,29,←,left,←,0.5266750000882894,True,15
134M23,456,experiment,58,←,left,←,0.49940999993123114,True,15
134M23,457,experiment,44,→,right,→,0.46588559984229505,True,15
134M23,458,experiment,45,↓,down,↓,0.5775510999374092,True,15
134M23,459,experiment,14,←,left,←,0.5533153000287712,True,15
134M23,460,experiment,13,←,left,←,0.634650900028646,True,15
134M23,461,experiment,46,←,left,←,0.5625390000641346,True,15
134M23,462,experiment,56,→,right,→,0.511232899967581,True,15
134M23,463,experiment,41,↓,down,↓,0.5598609000444412,True,15
134M23,464,experiment,49,←,right,→,0.5054748000111431,False,15
134M23,465,experiment,57,→,right,→,0.4955589999444783,True,15
134M23,466,experiment,55,→,left,←,0.5432488000951707,False,15
134M23,467,experiment,37,←,left,←,0.5851950999349356,True,15
134M23,468,experiment,28,→,right,→,0.5112677998840809,True,15
134M23,469,experiment,52,↓,down,↓,0.4965683000627905,True,15
134M23,470,experiment,15,↑,up,↑,0.6826136000454426,True,15
134M23,471,experiment,31,→,right,→,0.6266174002084881,True,15
134M23,472,experiment,39,→,right,→,0.6559035000391304,True,15
134M23,473,experiment,42,↓,down,↓,0.6018501999787986,True,15
134M23,474,experiment,54,↑,up,↑,0.6459453999996185,True,15
134M23,475,experiment,33,→,right,→,0.7105461999308318,True,15
134M23,476,experiment,17,↓,down,↓,0.5271828998811543,True,15
134M23,477,experiment,38,→,right,→,0.5932805000338703,True,15
134M23,478,experiment,30,↓,down,↓,0.5823667000513524,True,15
134M23,479,experiment,59,→,right,→,0.5831909999251366,True,15
134M23,480,experiment,40,↓,down,↓,0.485195399960503,True,15
134M23,481,experiment,20,←,left,←,0.5085130999796093,True,15
134M23,482,experiment,24,↓,down,↓,0.4245100000407547,True,15
134M23,483,experiment,48,↑,up,↑,0.5512526999227703,True,15
134M23,484,experiment,16,↑,up,↑,0.7344963999930769,True,15
134M23,485,experiment,32,←,left,←,0.5239236999768764,True,15
134M23,486,experiment,60,↓,down,↓,0.5831790000665933,True,15
134M23,487,experiment,43,↑,up,↑,0.507206000154838,True,15
134M23,488,experiment,26,→,right,→,0.5978208999149501,True,15
134M23,489,experiment,23,↑,up,↑,0.5024711000733078,True,15
134M23,490,experiment,34,↓,down,↓,0.5878775999881327,True,15
134M23,491,training,43,↓,down,↓,0.6485049000475556,True,15
134M23,492,training,46,↓,down,↓,0.45575389987789094,True,15
134M23,493,experiment,28,←,left,←,0.4197291999589652,True,15
134M23,494,experiment,36,↑,down,↓,0.6577721999492496,False,15
134M23,495,experiment,25,→,left,←,0.4793453000020236,False,15
134M23,496,experiment,31,↓,down,↓,0.5757501998450607,True,15
134M23,497,experiment,14,↓,down,↓,0.511728199897334,True,15
134M23,498,experiment,30,→,right,→,0.6317555999848992,True,15
134M23,499,experiment,23,↓,down,↓,0.447088599903509,True,15
134M23,500,experiment,37,→,right,→,0.3839825000613928,True,15
134M23,501,experiment,16,→,right,→,1.6497353999875486,True,15
134M23,502,experiment,15,↑,down,↓,0.7177539998665452,False,15
134M23,503,experiment,40,↑,up,↑,0.6306334999389946,True,15
134M23,504,experiment,57,↑,up,↑,0.5430731999222189,True,15
134M23,505,experiment,19,←,left,←,0.5890959000680596,True,15
134M23,506,experiment,53,↑,up,↑,0.5064205001108348,True,15
134M23,507,experiment,39,↓,up,↑,0.5404914999380708,False,15
134M23,508,experiment,42,→,right,→,0.49109689984470606,True,15
134M23,509,experiment,43,↓,up,↑,0.5470829999540001,False,15
134M23,510,experiment,56,→,right,→,0.5677253999747336,True,15
134M23,511,experiment,22,↓,down,↓,0.6343825999647379,True,15
134M23,512,experiment,46,←,left,←,0.5544726001098752,True,15
134M23,513,experiment,44,←,left,←,0.5270446999929845,True,15
134M23,514,experiment,34,↓,down,↓,0.6676996999885887,True,15
134M23,515,experiment,38,↓,down,↓,0.6477663000114262,True,15
134M23,516,experiment,29,↓,up,↑,0.6903949999250472,False,15
134M23,517,experiment,33,→,right,→,0.697075700154528,True,15
134M23,518,experiment,18,↓,up,↑,0.833022499922663,False,15
134M23,519,experiment,58,↑,up,↑,0.537230100017041,True,15
134M23,520,experiment,59,←,left,←,0.596394499996677,True,15
134M23,521,experiment,13,←,left,←,0.5883897999301553,True,15
134M23,522,experiment,52,↓,down,↓,0.6423149998299778,True,15
134M23,523,experiment,27,↑,up,↑,0.5910445000045002,True,15
134M23,524,experiment,24,→,right,→,0.5918509000912309,True,15
134M23,525,experiment,20,↓,up,↑,0.7390372999943793,False,15
134M23,526,experiment,45,←,left,←,0.5997012001462281,True,15
134M23,527,experiment,26,→,right,→,0.5504370999988168,True,15
134M23,528,experiment,35,←,left,←,0.48110270011238754,True,15
134M23,529,experiment,49,↑,up,↑,0.5810189000330865,True,15
134M23,530,experiment,51,←,left,←,0.6758149000816047,True,15
134M23,531,experiment,32,←,left,←,0.5236173998564482,True,15
134M23,532,experiment,55,↓,down,↓,0.7463675998151302,True,15
134M23,533,experiment,41,→,right,→,0.6170007002074271,True,15
134M23,534,experiment,50,↑,up,↑,0.5831371999811381,True,15
134M23,535,experiment,54,←,left,←,0.48367689992301166,True,15
134M23,536,experiment,60,↓,up,↑,0.48838269989937544,False,15
134M23,537,experiment,47,↑,up,↑,0.5176399999763817,True,15
134M23,538,experiment,21,↓,down,↓,0.6832595998421311,True,15
134M23,539,experiment,48,→,right,→,0.5436660000123084,True,15
134M23,540,experiment,17,←,left,←,0.5991113998461515,True,15
134M23,541,training,44,↑,up,↑,0.5416256999596953,True,15
134M23,542,training,51,↑,up,↑,0.4382634998764843,True,15
134M23,543,experiment,60,→,right,→,0.4769700998440385,True,15
134M23,544,experiment,41,↑,up,↑,0.47901699994690716,True,15
134M23,545,experiment,49,↓,down,↓,0.8275832999497652,True,15
134M23,546,experiment,13,←,left,←,0.5784037997946143,True,15
134M23,547,experiment,26,←,left,←,0.6344110001809895,True,15
134M23,548,experiment,27,→,no_key,no_letter,-1.0,False,15
134M23,549,experiment,21,→,right,→,0.49232529988512397,True,15
134M23,550,experiment,22,↓,down,↓,0.6902411000337452,True,15
134M23,551,experiment,48,→,right,→,0.42311959993094206,True,15
134M23,552,experiment,55,↓,down,↓,0.5369176000822335,True,15
134M23,553,experiment,16,↑,up,↑,0.5115819999482483,True,15
134M23,554,experiment,46,←,right,→,0.47691119997762144,False,15
134M23,555,experiment,20,↑,up,↑,0.6129142998252064,True,15
134M23,556,experiment,25,↑,up,↑,0.7882883998099715,True,15
134M23,557,experiment,35,↑,up,↑,0.44568829983472824,True,15
134M23,558,experiment,53,→,right,→,0.5208941001910716,True,15
134M23,559,experiment,36,↓,down,↓,0.7802323999349028,True,15
134M23,560,experiment,17,→,left,←,0.561617000028491,False,15
134M23,561,experiment,32,↑,up,↑,0.4222280001267791,True,15
134M23,562,experiment,57,→,right,→,0.6549597999546677,True,15
134M23,563,experiment,50,←,left,←,0.60365130007267,True,15
134M23,564,experiment,14,→,right,→,0.3839585999958217,True,15
134M23,565,experiment,15,↓,up,↑,0.6562928000930697,False,15
134M23,566,experiment,56,↑,up,↑,0.5610555000603199,True,15
134M23,567,experiment,59,→,right,→,0.45156110008247197,True,15
134M23,568,experiment,43,↑,up,↑,0.5809015000704676,True,15
134M23,569,experiment,44,→,right,→,0.5922463000752032,True,15
134M23,570,experiment,52,←,left,←,0.6781931000296026,True,15
134M23,571,experiment,24,→,left,←,0.4995403001084924,False,15
134M23,572,experiment,37,←,left,←,0.6469254000112414,True,15
134M23,573,experiment,54,↑,up,↑,0.5528659000992775,True,15
134M23,574,experiment,18,→,right,→,0.46286500012502074,True,15
134M23,575,experiment,47,→,right,→,0.5335313999094069,True,15
134M23,576,experiment,29,←,right,→,0.7808280000463128,False,15
134M23,577,experiment,39,↓,down,↓,0.7235471999738365,True,15
134M23,578,experiment,42,→,left,←,0.5548738001380116,False,15
134M23,579,experiment,51,↓,down,↓,0.7549409999046475,True,15
134M23,580,experiment,19,↓,down,↓,0.5602425998076797,True,15
134M23,581,experiment,33,←,left,←,0.6042222999967635,True,15
134M23,582,experiment,38,←,left,←,0.5869040999095887,True,15
134M23,583,experiment,30,←,left,←,0.5835707001388073,True,15
134M23,584,experiment,58,←,left,←,0.5777471999172121,True,15
134M23,585,experiment,31,←,left,←,0.47819100017659366,True,15
134M23,586,experiment,34,←,left,←,0.5969372000545263,True,15
134M23,587,experiment,45,→,right,→,0.5428981001023203,True,15
134M23,588,experiment,40,→,right,→,0.510897499974817,True,15
134M23,589,experiment,28,↑,up,↑,0.5922942999750376,True,15
134M23,590,experiment,23,←,left,←,0.6015591002069414,True,15
