PART_ID,Trial_no,Trial_type,CSI,Stim_letter,Key_pressed,letter_choose,Rt,Corr,Stimulus Time
136K22,1,training,60,←,no_key,no_letter,-1.0,False,30
136K22,2,training,60,→,no_key,no_letter,-1.0,False,30
136K22,3,training,60,←,no_key,no_letter,-1.0,False,30
136K22,4,training,60,↓,no_key,no_letter,-1.0,False,30
136K22,5,training,60,↓,no_key,no_letter,-1.0,False,30
136K22,6,training,60,←,no_key,no_letter,-1.0,False,30
136K22,7,training,60,←,no_key,no_letter,-1.0,False,30
136K22,8,training,60,→,no_key,no_letter,-1.0,False,30
136K22,9,training,60,←,no_key,no_letter,-1.0,False,30
136K22,10,training,60,→,no_key,no_letter,-1.0,False,30
136K22,11,training,60,→,no_key,no_letter,-1.0,False,30
136K22,12,training,60,→,right,→,1.171256200177595,True,30
136K22,13,training,60,↑,up,↑,1.284010399831459,True,30
136K22,14,training,60,↓,down,↓,1.055873999837786,True,30
136K22,15,training,60,←,left,←,1.0292868001852185,True,30
136K22,16,training,60,←,left,←,0.8593331000301987,True,30
136K22,17,training,60,↑,left,←,0.6340485999826342,False,30
136K22,18,training,60,↑,up,↑,0.7421442000195384,True,30
136K22,19,training,60,↑,up,↑,1.0318771998863667,True,30
136K22,20,training,60,↓,up,↑,1.3181139999069273,False,30
136K22,21,training,60,↑,up,↑,1.048554099863395,True,18
136K22,22,training,60,↑,up,↑,1.3738779001869261,True,18
136K22,23,training,60,↑,up,↑,0.8551215999759734,True,18
136K22,24,training,60,←,left,←,0.811851300066337,True,18
136K22,25,training,60,←,left,←,0.858500299975276,True,18
136K22,26,training,60,↓,no_key,no_letter,-1.0,False,18
136K22,27,training,60,→,right,→,0.8486034998204559,True,18
136K22,28,training,60,←,down,↓,1.9178485998418182,False,18
136K22,29,training,60,↓,right,→,1.0725887999869883,False,18
136K22,30,training,60,→,right,→,0.6451963998842984,True,18
136K22,31,training,60,↓,down,↓,1.298469000030309,True,18
136K22,32,training,60,→,right,→,0.6298185999039561,True,18
136K22,33,training,60,↓,right,→,1.0117528999689966,False,18
136K22,34,training,60,←,left,←,0.7786435999441892,True,18
136K22,35,training,60,↑,right,→,0.9946485001128167,False,18
136K22,36,training,60,←,right,→,0.8257436000276357,False,18
136K22,37,training,60,↓,right,→,0.8405100000090897,False,18
136K22,38,training,60,→,right,→,0.558417099993676,True,18
136K22,39,training,60,←,left,←,0.7201241999864578,True,18
136K22,40,training,60,↓,down,↓,0.978453200077638,True,18
136K22,41,training,28,→,right,→,0.8000110001303256,True,18
136K22,42,training,47,↓,right,→,1.1443429000210017,False,18
136K22,43,experiment,14,→,left,←,1.2096910001710057,False,18
136K22,44,experiment,30,←,left,←,1.0216754998546094,True,18
136K22,45,experiment,33,→,no_key,no_letter,-1.0,False,18
136K22,46,experiment,47,↓,right,→,1.5931293999310583,False,18
136K22,47,experiment,49,←,down,↓,1.2971867001615465,False,18
136K22,48,experiment,19,→,up,↑,1.656355099985376,False,18
136K22,49,experiment,42,→,right,→,0.9544377001002431,True,18
136K22,50,experiment,56,↓,down,↓,0.7750130000058562,True,18
136K22,51,experiment,27,→,right,→,0.9743941999040544,True,18
136K22,52,experiment,13,←,left,←,1.5270199000369757,True,18
136K22,53,experiment,24,↑,right,→,1.6504079001024365,False,18
136K22,54,experiment,60,↑,up,↑,0.8243788001127541,True,18
136K22,55,experiment,44,↓,down,↓,0.954314999980852,True,18
136K22,56,experiment,54,←,left,←,1.2884780999738723,True,18
136K22,57,experiment,16,↑,up,↑,0.8903987999074161,True,18
136K22,58,experiment,20,→,up,↑,1.0896964999847114,False,18
136K22,59,experiment,45,↑,down,↓,1.1923243999481201,False,18
136K22,60,experiment,57,↓,right,→,1.3549984998535365,False,18
136K22,61,experiment,52,↑,up,↑,0.7863808998372406,True,18
136K22,62,experiment,37,←,right,→,1.114340300206095,False,18
136K22,63,experiment,31,↓,down,↓,0.6649527999106795,True,18
136K22,64,experiment,50,→,right,→,0.5730535998009145,True,18
136K22,65,experiment,26,↓,down,↓,0.813033499987796,True,18
136K22,66,experiment,34,↑,left,←,1.1576547999866307,False,18
136K22,67,experiment,55,→,left,←,0.7629885000642389,False,18
136K22,68,experiment,41,↓,down,↓,0.9209627998061478,True,18
136K22,69,experiment,25,→,left,←,0.9398262999020517,False,18
136K22,70,experiment,21,↑,up,↑,0.7443234999664128,True,18
136K22,71,experiment,53,←,left,←,0.6876953998580575,True,18
136K22,72,experiment,22,←,left,←,0.781910999910906,True,18
136K22,73,experiment,18,←,left,←,0.8502789000049233,True,18
136K22,74,experiment,23,↓,up,↑,1.0411219999659806,False,18
136K22,75,experiment,38,↓,down,↓,0.822350800037384,True,18
136K22,76,experiment,28,↑,down,↓,1.0589328000787646,False,18
136K22,77,experiment,40,↓,left,←,0.8384877999778837,False,18
136K22,78,experiment,29,↓,down,↓,1.1296090001706034,True,18
136K22,79,experiment,43,→,left,←,0.8796256000641733,False,18
136K22,80,experiment,46,↓,down,↓,0.6056446000002325,True,18
136K22,81,experiment,35,↑,up,↑,0.9502486998680979,True,18
136K22,82,experiment,59,→,left,←,0.840937800006941,False,18
136K22,83,experiment,51,↓,up,↑,0.941633699927479,False,18
136K22,84,experiment,32,↑,down,↓,0.9228734001517296,False,18
136K22,85,experiment,17,↑,up,↑,0.8589192000217736,True,18
136K22,86,experiment,39,→,right,→,0.8229456001427025,True,18
136K22,87,experiment,58,←,down,↓,0.8236324999015778,False,18
136K22,88,experiment,36,↓,left,←,0.9108965999912471,False,18
136K22,89,experiment,48,↓,down,↓,0.6029087998904288,True,18
136K22,90,experiment,15,←,no_key,no_letter,-1.0,False,18
136K22,91,training,16,↑,left,←,0.9216175000183284,False,19
136K22,92,training,19,←,down,↓,0.7685494001489133,False,19
136K22,93,experiment,58,→,left,←,0.6509986000601202,False,19
136K22,94,experiment,52,←,down,↓,1.3502951001282781,False,19
136K22,95,experiment,22,↓,down,↓,0.6096020000986755,True,19
136K22,96,experiment,49,↓,down,↓,0.7769770999439061,True,19
136K22,97,experiment,41,↑,left,←,1.2148531000129879,False,19
136K22,98,experiment,43,→,left,←,0.9456082000397146,False,19
136K22,99,experiment,56,←,left,←,0.6787837001029402,True,19
136K22,100,experiment,15,←,left,←,1.090150099946186,True,19
136K22,101,experiment,46,↑,up,↑,0.7362372998613864,True,19
136K22,102,experiment,45,→,right,→,0.6929117999970913,True,19
136K22,103,experiment,48,←,left,←,0.6815237998962402,True,19
136K22,104,experiment,14,←,right,→,1.6688751999754459,False,19
136K22,105,experiment,29,→,right,→,0.7189155998639762,True,19
136K22,106,experiment,35,↓,down,↓,0.7628365000709891,True,19
136K22,107,experiment,31,←,left,←,0.7522035001311451,True,19
136K22,108,experiment,42,→,right,→,0.7982724998146296,True,19
136K22,109,experiment,55,←,left,←,0.5935638998635113,True,19
136K22,110,experiment,51,→,right,→,0.6242404000367969,True,19
136K22,111,experiment,16,←,left,←,1.3008193001151085,True,19
136K22,112,experiment,20,→,left,←,1.3395248998422176,False,19
136K22,113,experiment,17,↑,up,↑,0.6908225999213755,True,19
136K22,114,experiment,59,←,left,←,1.0642809001728892,True,19
136K22,115,experiment,47,←,left,←,1.4541569000575691,True,19
136K22,116,experiment,40,↑,left,←,0.6655965000391006,False,19
136K22,117,experiment,39,↑,up,↑,0.7810370998922735,True,19
136K22,118,experiment,37,↓,down,↓,0.7248044000007212,True,19
136K22,119,experiment,18,↓,down,↓,1.0601480000186712,True,19
136K22,120,experiment,28,←,left,←,1.4314601998776197,True,19
136K22,121,experiment,26,↓,down,↓,1.0608098001684994,True,19
136K22,122,experiment,19,←,left,←,0.6701426000799984,True,19
136K22,123,experiment,34,↑,up,↑,1.5168488000053912,True,19
136K22,124,experiment,30,←,left,←,1.2202490998897702,True,19
136K22,125,experiment,44,↓,down,↓,0.8222211999818683,True,19
136K22,126,experiment,32,→,down,↓,1.29617609991692,False,19
136K22,127,experiment,50,↓,down,↓,1.5155225000344217,True,19
136K22,128,experiment,53,↑,left,←,0.9874891999643296,False,19
136K22,129,experiment,23,↑,left,←,1.8127626997884363,False,19
136K22,130,experiment,54,←,left,←,0.8329223000910133,True,19
136K22,131,experiment,57,←,left,←,0.7534522998612374,True,19
136K22,132,experiment,27,←,left,←,0.8254420000594109,True,19
136K22,133,experiment,24,←,left,←,0.9527908000163734,True,19
136K22,134,experiment,13,↓,down,↓,0.9382564001716673,True,19
136K22,135,experiment,38,←,left,←,0.699432399822399,True,19
136K22,136,experiment,36,↓,down,↓,0.7837952999398112,True,19
136K22,137,experiment,60,→,right,→,0.7523135999217629,True,19
136K22,138,experiment,21,↓,down,↓,0.7001177999190986,True,19
136K22,139,experiment,33,↑,up,↑,0.6900953000877053,True,19
136K22,140,experiment,25,↑,left,←,1.4701374000869691,False,19
136K22,141,training,21,→,right,→,0.8535643999930471,True,19
136K22,142,training,16,→,right,→,0.7050085000228137,True,19
136K22,143,experiment,51,←,left,←,0.850750399986282,True,19
136K22,144,experiment,54,←,left,←,0.5168548000510782,True,19
136K22,145,experiment,39,←,up,↑,1.654078399995342,False,19
136K22,146,experiment,44,→,up,↑,1.2067871000617743,False,19
136K22,147,experiment,40,→,right,→,0.6201599000487477,True,19
136K22,148,experiment,56,↓,left,←,1.0540713001973927,False,19
136K22,149,experiment,60,←,left,←,0.58829339989461,True,19
136K22,150,experiment,58,→,right,→,0.8220588001422584,True,19
136K22,151,experiment,42,←,left,←,0.625394499860704,True,19
136K22,152,experiment,22,↑,up,↑,0.5622596999164671,True,19
136K22,153,experiment,32,↓,down,↓,0.5429105998482555,True,19
136K22,154,experiment,25,←,left,←,0.7207939000800252,True,19
136K22,155,experiment,34,→,right,→,0.5826929998584092,True,19
136K22,156,experiment,38,←,left,←,0.6687639998272061,True,19
136K22,157,experiment,27,→,left,←,1.1201003000605851,False,19
136K22,158,experiment,46,→,right,→,0.5729485999327153,True,19
136K22,159,experiment,31,→,left,←,0.7294121000450104,False,19
136K22,160,experiment,16,→,left,←,1.338095499901101,False,19
136K22,161,experiment,55,←,right,→,1.0081220001447946,False,19
136K22,162,experiment,53,←,left,←,0.9087884998880327,True,19
136K22,163,experiment,41,←,left,←,0.8933505997993052,True,19
136K22,164,experiment,36,↓,down,↓,0.9540252999868244,True,19
136K22,165,experiment,18,↑,left,←,1.5762779000215232,False,19
136K22,166,experiment,15,↑,up,↑,1.647653799969703,True,19
136K22,167,experiment,29,↓,left,←,1.2586203999817371,False,19
136K22,168,experiment,23,↑,no_key,no_letter,-1.0,False,19
136K22,169,experiment,49,↓,left,←,1.5527484000194818,False,19
136K22,170,experiment,47,↑,up,↑,1.1316180999856442,True,19
136K22,171,experiment,13,→,right,→,1.6534256997983903,True,19
136K22,172,experiment,20,↑,up,↑,0.5263169999234378,True,19
136K22,173,experiment,35,↓,up,↑,1.7700112001039088,False,19
136K22,174,experiment,30,↑,up,↑,0.8153693000786006,True,19
136K22,175,experiment,48,→,right,→,0.7106878999620676,True,19
136K22,176,experiment,33,←,up,↑,1.2367810001596808,False,19
136K22,177,experiment,37,↓,down,↓,0.6347010999452323,True,19
136K22,178,experiment,52,↓,down,↓,1.0146815001498908,True,19
136K22,179,experiment,59,←,left,←,0.7029875000007451,True,19
136K22,180,experiment,50,→,left,←,0.9693241000641137,False,19
136K22,181,experiment,14,↓,down,↓,1.0334217001218349,True,19
136K22,182,experiment,43,→,left,←,0.9233283000066876,False,19
136K22,183,experiment,26,↑,up,↑,1.1975376000627875,True,19
136K22,184,experiment,45,↑,left,←,0.951462300028652,False,19
136K22,185,experiment,19,→,up,↑,1.316683900076896,False,19
136K22,186,experiment,57,↓,down,↓,0.6020339999813586,True,19
136K22,187,experiment,28,←,no_key,no_letter,-1.0,False,19
136K22,188,experiment,24,↓,down,↓,0.6321463000494987,True,19
136K22,189,experiment,21,←,down,↓,0.9607163998298347,False,19
136K22,190,experiment,17,←,left,←,0.6872956999577582,True,19
136K22,191,training,37,↑,left,←,1.4193221000023186,False,19
136K22,192,training,58,↓,left,←,1.0201628000941128,False,19
136K22,193,experiment,31,←,up,↑,1.0306369001045823,False,19
136K22,194,experiment,16,↓,down,↓,0.6988280001096427,True,19
136K22,195,experiment,28,←,left,←,0.7002486998680979,True,19
136K22,196,experiment,46,→,right,→,0.7855628000106663,True,19
136K22,197,experiment,38,↓,down,↓,0.5767010001000017,True,19
136K22,198,experiment,29,↑,left,←,1.0387649999465793,False,19
136K22,199,experiment,37,↑,down,↓,1.036587400129065,False,19
136K22,200,experiment,30,→,right,→,0.6713296000380069,True,19
136K22,201,experiment,41,→,up,↑,1.3852909000124782,False,19
136K22,202,experiment,48,↓,down,↓,0.5779456999152899,True,19
136K22,203,experiment,15,←,left,←,0.6812899999786168,True,19
136K22,204,experiment,47,↓,down,↓,0.6865696001332253,True,19
136K22,205,experiment,45,↓,down,↓,0.6532810998614877,True,19
136K22,206,experiment,39,←,left,←,1.6732703000307083,True,19
136K22,207,experiment,56,↓,down,↓,0.9532880999613553,True,19
136K22,208,experiment,13,↑,up,↑,0.6106836998369545,True,19
136K22,209,experiment,33,→,right,→,0.5166011999826878,True,19
136K22,210,experiment,17,↑,up,↑,0.6446733998600394,True,19
136K22,211,experiment,58,←,left,←,0.9168633001390845,True,19
136K22,212,experiment,22,↓,up,↑,0.8492529999930412,False,19
136K22,213,experiment,59,↓,right,→,0.9279216001741588,False,19
136K22,214,experiment,57,→,down,↓,1.613238099962473,False,19
136K22,215,experiment,18,↑,down,↓,1.1206093998625875,False,19
136K22,216,experiment,19,↓,right,→,1.1915203998796642,False,19
136K22,217,experiment,35,↑,up,↑,0.624660300090909,True,19
136K22,218,experiment,20,↓,down,↓,0.8187036998569965,True,19
136K22,219,experiment,32,←,left,←,0.8844763999804854,True,19
136K22,220,experiment,26,→,right,→,0.7279759999364614,True,19
136K22,221,experiment,49,↑,up,↑,1.1306028999388218,True,19
136K22,222,experiment,42,↓,right,→,1.4411744000390172,False,19
136K22,223,experiment,53,→,right,→,0.8285264999140054,True,19
136K22,224,experiment,25,↑,left,←,1.251202299958095,False,19
136K22,225,experiment,23,↑,up,↑,0.9138698999304324,True,19
136K22,226,experiment,36,→,right,→,0.6132255999837071,True,19
136K22,227,experiment,34,→,right,→,0.5746029000729322,True,19
136K22,228,experiment,14,→,right,→,1.126618100097403,True,19
136K22,229,experiment,51,↑,up,↑,1.3124478999525309,True,19
136K22,230,experiment,40,↑,left,←,1.2252293999772519,False,19
136K22,231,experiment,50,←,left,←,1.0632753998506814,True,19
136K22,232,experiment,44,↓,down,↓,0.7671666999813169,True,19
136K22,233,experiment,27,↓,left,←,1.0785418001469225,False,19
136K22,234,experiment,21,↓,down,↓,0.6138140000402927,True,19
136K22,235,experiment,52,←,left,←,0.9785476999823004,True,19
136K22,236,experiment,60,←,left,←,0.7638584000524133,True,19
136K22,237,experiment,55,↓,left,←,0.6409329001326114,False,19
136K22,238,experiment,43,→,right,→,0.6110793999396265,True,19
136K22,239,experiment,24,↓,down,↓,0.6185050001367927,True,19
136K22,240,experiment,54,←,left,←,1.0539298998191953,True,19
136K22,241,training,33,↓,down,↓,1.4698741000611335,True,19
136K22,242,training,24,↑,left,←,0.899282299913466,False,19
136K22,243,experiment,17,←,left,←,0.7398719000630081,True,19
136K22,244,experiment,47,↑,up,↑,0.7272114001680166,True,19
136K22,245,experiment,13,←,left,←,0.665878799976781,True,19
136K22,246,experiment,46,←,left,←,0.6407211001496762,True,19
136K22,247,experiment,57,↑,left,←,1.0491466000676155,False,19
136K22,248,experiment,43,→,left,←,0.6585190000478178,False,19
136K22,249,experiment,39,→,right,→,1.0064765000715852,True,19
136K22,250,experiment,19,←,left,←,1.0337843999732286,True,19
136K22,251,experiment,45,↑,up,↑,0.6585083999671042,True,19
136K22,252,experiment,53,↑,down,↓,1.8851339998655021,False,19
136K22,253,experiment,44,→,left,←,0.6845348000060767,False,19
136K22,254,experiment,18,↑,up,↑,0.5811379998922348,True,19
136K22,255,experiment,23,→,no_key,no_letter,-1.0,False,19
136K22,256,experiment,36,←,left,←,0.6152102998457849,True,19
136K22,257,experiment,50,←,left,←,0.9650906000752002,True,19
136K22,258,experiment,60,↑,left,←,1.0304773000534624,False,19
136K22,259,experiment,49,←,left,←,0.7564582000486553,True,19
136K22,260,experiment,41,↓,left,←,1.0511696999892592,False,19
136K22,261,experiment,15,→,left,←,1.5270972000434995,False,19
136K22,262,experiment,26,→,up,↑,1.0171736001502723,False,19
136K22,263,experiment,42,↓,up,↑,0.8604953000321984,False,19
136K22,264,experiment,56,←,left,←,0.6531032000202686,True,19
136K22,265,experiment,32,↓,up,↑,1.1097670998424292,False,19
136K22,266,experiment,29,←,up,↑,1.3344310000538826,False,19
136K22,267,experiment,31,←,right,→,1.2124251001514494,False,19
136K22,268,experiment,20,↑,up,↑,1.7991661000996828,True,19
136K22,269,experiment,40,→,right,→,0.7165574999526143,True,19
136K22,270,experiment,48,↓,down,↓,0.5678424001671374,True,19
136K22,271,experiment,58,→,right,→,0.6184359998442233,True,19
136K22,272,experiment,34,↑,left,←,1.2271355001721531,False,19
136K22,273,experiment,55,→,down,↓,1.15775529993698,False,19
136K22,274,experiment,27,↑,up,↑,0.5979956998489797,True,19
136K22,275,experiment,28,→,right,→,0.6510642999783158,True,19
136K22,276,experiment,35,→,right,→,1.1057400000281632,True,19
136K22,277,experiment,16,↑,up,↑,1.2991329999640584,True,19
136K22,278,experiment,54,↓,down,↓,0.6271096998825669,True,19
136K22,279,experiment,33,→,right,→,0.6765001998282969,True,19
136K22,280,experiment,37,↓,down,↓,0.6650733998976648,True,19
136K22,281,experiment,59,↓,up,↑,1.223060900112614,False,19
136K22,282,experiment,22,↓,down,↓,0.8158078000415117,True,19
136K22,283,experiment,24,↑,down,↓,1.0711011998355389,False,19
136K22,284,experiment,51,←,left,←,0.6344650997780263,True,19
136K22,285,experiment,21,→,right,→,0.77917500003241,True,19
136K22,286,experiment,30,←,left,←,0.5923671000637114,True,19
136K22,287,experiment,14,↓,down,↓,0.5437146001495421,True,19
136K22,288,experiment,52,↓,down,↓,0.5597574999555945,True,19
136K22,289,experiment,38,→,down,↓,1.1445475001819432,False,19
136K22,290,experiment,25,↑,down,↓,1.3223262000828981,False,19
136K22,291,training,40,←,left,←,1.0210945999715477,True,19
136K22,292,training,58,→,right,→,0.8617348000407219,True,19
136K22,293,experiment,35,↓,down,↓,0.5244474001228809,True,19
136K22,294,experiment,27,→,right,→,0.7579692001454532,True,19
136K22,295,experiment,55,↓,left,←,1.3070184998214245,False,19
136K22,296,experiment,16,←,right,→,0.7724115001037717,False,19
136K22,297,experiment,58,→,right,→,0.5350466000381857,True,19
136K22,298,experiment,36,↑,up,↑,0.9776829001493752,True,19
136K22,299,experiment,45,↑,left,←,1.0612805001437664,False,19
136K22,300,experiment,17,↓,down,↓,0.6317350000608712,True,19
136K22,301,experiment,50,↑,up,↑,0.5332855000160635,True,19
136K22,302,experiment,49,→,right,→,0.6550496998243034,True,19
136K22,303,experiment,28,↑,up,↑,1.7542938999831676,True,19
136K22,304,experiment,29,↓,down,↓,0.5770785000640899,True,19
136K22,305,experiment,33,↓,up,↑,1.1324275000952184,False,19
136K22,306,experiment,51,→,right,→,0.6130393999628723,True,19
136K22,307,experiment,26,↓,down,↓,1.3230958001222461,True,19
136K22,308,experiment,48,←,right,→,1.2623155999463052,False,19
136K22,309,experiment,34,←,left,←,1.0938232999760658,True,19
136K22,310,experiment,59,↓,down,↓,1.195102500030771,True,19
136K22,311,experiment,41,→,right,→,0.7363042999058962,True,19
136K22,312,experiment,43,↓,up,↑,0.9903351000975817,False,19
136K22,313,experiment,18,→,down,↓,1.06721969996579,False,19
136K22,314,experiment,14,←,right,→,1.3269974999129772,False,19
136K22,315,experiment,24,→,right,→,0.586219800170511,True,19
136K22,316,experiment,22,↓,down,↓,0.996316600125283,True,19
136K22,317,experiment,20,↓,left,←,1.2076004999689758,False,19
136K22,318,experiment,46,←,left,←,0.7450341999065131,True,19
136K22,319,experiment,19,←,up,↑,1.134972999803722,False,19
136K22,320,experiment,38,↑,down,↓,1.1842949001584202,False,19
136K22,321,experiment,23,↑,up,↑,1.4576189999934286,True,19
136K22,322,experiment,56,↓,right,→,1.3063827999867499,False,19
136K22,323,experiment,39,→,right,→,0.7803291999734938,True,19
136K22,324,experiment,53,→,right,→,0.7862941999919713,True,19
136K22,325,experiment,25,←,left,←,1.0982710998505354,True,19
136K22,326,experiment,52,→,right,→,0.8116148000117391,True,19
136K22,327,experiment,54,←,up,↑,1.4156662002205849,False,19
136K22,328,experiment,13,←,left,←,0.9263597000390291,True,19
136K22,329,experiment,15,↓,right,→,0.8796140002086759,False,19
136K22,330,experiment,37,↓,down,↓,1.6362723000347614,True,19
136K22,331,experiment,47,←,left,←,0.979611000046134,True,19
136K22,332,experiment,60,↑,up,↑,0.9804775998927653,True,19
136K22,333,experiment,31,↓,down,↓,0.9284320999868214,True,19
136K22,334,experiment,40,↓,down,↓,0.840907400008291,True,19
136K22,335,experiment,42,→,right,→,1.1875924000050873,True,19
136K22,336,experiment,57,→,right,→,0.8782039999496192,True,19
136K22,337,experiment,30,←,left,←,0.8715093999635428,True,19
136K22,338,experiment,32,↓,down,↓,0.855664299800992,True,19
136K22,339,experiment,21,→,right,→,1.023579099914059,True,19
136K22,340,experiment,44,↓,down,↓,1.073678300017491,True,19
136K22,341,training,50,↓,down,↓,0.8589775001164526,True,19
136K22,342,training,55,←,left,←,0.8842896998394281,True,19
136K22,343,experiment,27,↑,down,↓,1.086901699891314,False,19
136K22,344,experiment,25,←,down,↓,0.9308573000598699,False,19
136K22,345,experiment,37,←,left,←,0.7568864000495523,True,19
136K22,346,experiment,16,←,left,←,0.8683305999729782,True,19
136K22,347,experiment,14,←,left,←,0.9202835999894887,True,19
136K22,348,experiment,33,↑,right,→,1.1335285999812186,False,19
136K22,349,experiment,35,↓,down,↓,0.8809668999165297,True,19
136K22,350,experiment,36,←,right,→,0.9816048999782652,False,19
136K22,351,experiment,24,↑,up,↑,0.7662822999991477,True,19
136K22,352,experiment,17,→,right,→,0.8842941999901086,True,19
136K22,353,experiment,20,↑,up,↑,0.771532200044021,True,19
136K22,354,experiment,50,→,right,→,0.8195913000963628,True,19
136K22,355,experiment,41,←,left,←,0.9195993000175804,True,19
136K22,356,experiment,29,↑,up,↑,0.895516499876976,True,19
136K22,357,experiment,13,↓,down,↓,0.8035069000907242,True,19
136K22,358,experiment,42,←,left,←,1.0555302000138909,True,19
136K22,359,experiment,15,→,no_key,no_letter,-1.0,False,19
136K22,360,experiment,48,↓,down,↓,1.7642240000423044,True,19
136K22,361,experiment,22,↓,down,↓,0.9109384000767022,True,19
136K22,362,experiment,54,→,right,→,0.742918899981305,True,19
136K22,363,experiment,47,↑,up,↑,0.9063205001875758,True,19
136K22,364,experiment,19,←,left,←,0.7135926999617368,True,19
136K22,365,experiment,55,↓,down,↓,0.5601415999699384,True,19
136K22,366,experiment,43,←,left,←,0.8215336999855936,True,19
136K22,367,experiment,58,←,right,→,0.5741453999653459,False,19
136K22,368,experiment,18,↑,up,↑,0.9637176999822259,True,19
136K22,369,experiment,46,→,right,→,0.8142113001085818,True,19
136K22,370,experiment,21,↑,right,→,1.1194792001042515,False,19
136K22,371,experiment,60,→,right,→,0.818811499979347,True,19
136K22,372,experiment,28,↑,up,↑,0.6715935000684112,True,19
136K22,373,experiment,31,↑,up,↑,0.6802258999086916,True,19
136K22,374,experiment,51,↓,down,↓,0.9309300000313669,True,19
136K22,375,experiment,39,↑,up,↑,0.6515754000283778,True,19
136K22,376,experiment,38,←,left,←,0.8241417999379337,True,19
136K22,377,experiment,49,↓,down,↓,0.6228272998705506,True,19
136K22,378,experiment,53,↑,up,↑,0.6828602999448776,True,19
136K22,379,experiment,52,↑,up,↑,0.8127864999696612,True,19
136K22,380,experiment,34,←,left,←,0.49405290000140667,True,19
136K22,381,experiment,40,←,left,←,0.5114670000039041,True,19
136K22,382,experiment,26,→,left,←,0.6981381000950933,False,19
136K22,383,experiment,30,←,left,←,0.7781525000464171,True,19
136K22,384,experiment,23,←,left,←,0.84409169992432,True,19
136K22,385,experiment,56,←,left,←,0.5897175001446158,True,19
136K22,386,experiment,32,←,no_key,no_letter,-1.0,False,19
136K22,387,experiment,44,←,left,←,0.6281620000954717,True,19
136K22,388,experiment,57,↓,up,↑,0.9254380001220852,False,19
136K22,389,experiment,59,←,left,←,0.721442700130865,True,19
136K22,390,experiment,45,↓,left,←,0.6230387999676168,False,19
136K22,391,training,58,←,right,→,0.9707307000644505,False,19
136K22,392,training,38,↓,up,↑,1.154928999952972,False,19
136K22,393,experiment,32,↓,down,↓,0.8394394000060856,True,19
136K22,394,experiment,18,←,left,←,0.5781696999911219,True,19
136K22,395,experiment,27,←,left,←,0.6655085000675172,True,19
136K22,396,experiment,23,↑,up,↑,0.8873606000561267,True,19
136K22,397,experiment,25,←,left,←,0.6034013000316918,True,19
136K22,398,experiment,16,←,left,←,0.6166414998006076,True,19
136K22,399,experiment,50,↓,right,→,0.7027439000084996,False,19
136K22,400,experiment,34,←,left,←,0.5563306999392807,True,19
136K22,401,experiment,53,←,left,←,0.6270632999949157,True,19
136K22,402,experiment,56,→,right,→,0.7090227000880986,True,19
136K22,403,experiment,59,↓,down,↓,0.7854412999004126,True,19
136K22,404,experiment,60,↑,up,↑,0.6660773002076894,True,19
136K22,405,experiment,19,←,right,→,1.1629482000134885,False,19
136K22,406,experiment,21,↑,down,↓,0.7987446999177337,False,19
136K22,407,experiment,51,→,right,→,0.8847709000110626,True,19
136K22,408,experiment,13,↓,down,↓,0.7847885999362916,True,19
136K22,409,experiment,26,↓,down,↓,0.600116099929437,True,19
136K22,410,experiment,33,←,left,←,0.666097000008449,True,19
136K22,411,experiment,30,→,right,→,0.627398099983111,True,19
136K22,412,experiment,58,↑,up,↑,0.6120713001582772,True,19
136K22,413,experiment,52,↑,up,↑,0.8415188000071794,True,19
136K22,414,experiment,55,←,left,←,0.8833854999393225,True,19
136K22,415,experiment,14,←,left,←,0.7827781001105905,True,19
136K22,416,experiment,49,↓,down,↓,0.5347504999954253,True,19
136K22,417,experiment,15,→,left,←,0.8314435000065714,False,19
136K22,418,experiment,28,←,left,←,0.811324100010097,True,19
136K22,419,experiment,39,←,left,←,0.7454563998617232,True,19
136K22,420,experiment,40,→,right,→,0.9293766999617219,True,19
136K22,421,experiment,42,↓,left,←,1.2167551000602543,False,19
136K22,422,experiment,29,←,left,←,1.0048642000183463,True,19
136K22,423,experiment,36,→,right,→,0.7566706000361592,True,19
136K22,424,experiment,35,↑,up,↑,0.7673718000296503,True,19
136K22,425,experiment,41,↓,down,↓,1.1093545001931489,True,19
136K22,426,experiment,22,↑,up,↑,0.7307468999642879,True,19
136K22,427,experiment,20,↑,up,↑,0.784011899959296,True,19
136K22,428,experiment,24,→,right,→,0.6167629999108613,True,19
136K22,429,experiment,57,↑,down,↓,0.7220473000779748,False,19
136K22,430,experiment,47,↑,up,↑,0.8380013999994844,True,19
136K22,431,experiment,46,→,right,→,0.8460418998729438,True,19
136K22,432,experiment,37,←,up,↑,1.0601998001802713,False,19
136K22,433,experiment,44,↑,up,↑,0.7727213001344353,True,19
136K22,434,experiment,54,↓,down,↓,0.714020699961111,True,19
136K22,435,experiment,45,↑,left,←,1.1434964998625219,False,19
136K22,436,experiment,38,←,left,←,0.7209387999027967,True,19
136K22,437,experiment,43,←,up,↑,1.1354402999859303,False,19
136K22,438,experiment,48,↓,down,↓,0.3842648998834193,True,19
136K22,439,experiment,31,↑,down,↓,0.9253698999527842,False,19
136K22,440,experiment,17,↓,left,←,0.6613445000257343,False,19
136K22,441,training,24,→,right,→,0.9414411999750882,True,19
136K22,442,training,58,←,no_key,no_letter,-1.0,False,19
136K22,443,experiment,45,←,no_key,no_letter,-1.0,False,19
136K22,444,experiment,47,↓,down,↓,0.9253239000681788,True,19
136K22,445,experiment,14,→,right,→,1.1194649001117796,True,19
136K22,446,experiment,49,↑,up,↑,0.738088599871844,True,19
136K22,447,experiment,56,↑,up,↑,0.6952843999024481,True,19
136K22,448,experiment,31,→,left,←,1.055291600059718,False,19
136K22,449,experiment,18,↓,down,↓,0.8972754999995232,True,19
136K22,450,experiment,38,↑,up,↑,1.0439730999059975,True,19
136K22,451,experiment,21,←,left,←,0.6527480999939144,True,19
136K22,452,experiment,30,↓,down,↓,0.8625688999891281,True,19
136K22,453,experiment,59,↑,down,↓,1.045248799957335,False,19
136K22,454,experiment,20,→,up,↑,1.0466900998726487,False,19
136K22,455,experiment,51,←,left,←,0.9946194000076503,True,19
136K22,456,experiment,42,↑,down,↓,1.1272555999457836,False,19
136K22,457,experiment,19,↑,up,↑,0.7259591000620276,True,19
136K22,458,experiment,23,↓,down,↓,0.8660359000787139,True,19
136K22,459,experiment,40,←,left,←,0.8046860999893397,True,19
136K22,460,experiment,27,↓,left,←,1.4346624000463635,False,19
136K22,461,experiment,13,↓,down,↓,1.1046945999842137,True,19
136K22,462,experiment,15,→,right,→,0.8505373999942094,True,19
136K22,463,experiment,37,←,left,←,0.8878527001943439,True,19
136K22,464,experiment,44,↑,up,↑,0.7033297000452876,True,19
136K22,465,experiment,36,↑,down,↓,0.971451599849388,False,19
136K22,466,experiment,26,→,right,→,0.69941550004296,True,19
136K22,467,experiment,58,←,left,←,0.8329044000711292,True,19
136K22,468,experiment,52,↓,down,↓,0.7966199999209493,True,19
136K22,469,experiment,46,↓,up,↑,0.9425701999571174,False,19
136K22,470,experiment,41,←,left,←,0.8778698001988232,True,19
136K22,471,experiment,33,↑,left,←,1.0131925998721272,False,19
136K22,472,experiment,57,←,right,→,0.9586123998742551,False,19
136K22,473,experiment,22,↓,down,↓,0.9139684999827296,True,19
136K22,474,experiment,43,→,right,→,0.7285496001131833,True,19
136K22,475,experiment,17,↓,right,→,0.8965300000272691,False,19
136K22,476,experiment,53,↑,up,↑,0.8332969001494348,True,19
136K22,477,experiment,48,←,left,←,0.7438775000628084,True,19
136K22,478,experiment,39,↓,down,↓,0.7366267000325024,True,19
136K22,479,experiment,32,←,left,←,0.7898109999950975,True,19
136K22,480,experiment,50,↑,up,↑,0.5971955999266356,True,19
136K22,481,experiment,16,←,left,←,1.0345311998389661,True,19
136K22,482,experiment,28,→,right,→,0.6625376001466066,True,19
136K22,483,experiment,24,↑,left,←,1.1806685000192374,False,19
136K22,484,experiment,35,↑,up,↑,0.8218694000970572,True,19
136K22,485,experiment,55,↑,up,↑,0.7605186000000685,True,19
136K22,486,experiment,34,←,down,↓,0.5799201999325305,False,19
136K22,487,experiment,54,→,right,→,0.9685108999256045,True,19
136K22,488,experiment,60,←,left,←,0.7138924000319093,True,19
136K22,489,experiment,29,↓,down,↓,0.7379580999258906,True,19
136K22,490,experiment,25,↓,down,↓,0.787939100060612,True,19
136K22,491,training,38,→,left,←,1.1679778997786343,False,19
136K22,492,training,57,↓,down,↓,0.7551881999243051,True,19
136K22,493,experiment,15,↑,up,↑,0.5471426998265088,True,19
136K22,494,experiment,50,↑,up,↑,0.49189369985833764,True,19
136K22,495,experiment,35,↓,down,↓,0.3339299999643117,True,19
136K22,496,experiment,33,←,left,←,0.5246689999476075,True,19
136K22,497,experiment,52,↑,up,↑,0.41729509993456304,True,19
136K22,498,experiment,18,↓,down,↓,0.4505787000525743,True,19
136K22,499,experiment,20,→,right,→,1.031833300134167,True,19
136K22,500,experiment,44,←,left,←,0.5772631999570876,True,19
136K22,501,experiment,34,→,right,→,0.7557840999215841,True,19
136K22,502,experiment,36,↓,down,↓,0.9259009999223053,True,19
136K22,503,experiment,28,↑,left,←,0.558786200126633,False,19
136K22,504,experiment,60,←,left,←,0.6004659999161959,True,19
136K22,505,experiment,46,↓,down,↓,0.6898431999143213,True,19
136K22,506,experiment,29,↑,up,↑,0.6031908998265862,True,19
136K22,507,experiment,24,←,right,→,0.6992375999689102,False,19
136K22,508,experiment,26,←,left,←,0.5578334000892937,True,19
136K22,509,experiment,56,↓,no_key,no_letter,-1.0,False,19
136K22,510,experiment,42,→,left,←,0.6071817998308688,False,19
136K22,511,experiment,14,↑,down,↓,0.9337895999196917,False,19
136K22,512,experiment,22,→,right,→,0.8337912999559194,True,19
136K22,513,experiment,43,↑,right,→,1.091952000046149,False,19
136K22,514,experiment,39,→,right,→,0.6465459000319242,True,19
136K22,515,experiment,40,←,left,←,0.6338586998172104,True,19
136K22,516,experiment,25,←,left,←,0.6160647000651807,True,19
136K22,517,experiment,45,←,left,←,0.7372002999763936,True,19
136K22,518,experiment,37,←,left,←,0.9790741000324488,True,19
136K22,519,experiment,17,↑,up,↑,0.9771191000472754,True,19
136K22,520,experiment,55,↓,right,→,1.0617617999669164,False,19
136K22,521,experiment,23,←,left,←,0.8207483000587672,True,19
136K22,522,experiment,48,↓,down,↓,0.6920470998156816,True,19
136K22,523,experiment,38,→,right,→,0.6792794999200851,True,19
136K22,524,experiment,19,↓,down,↓,0.9198625998105854,True,19
136K22,525,experiment,54,→,right,→,0.5992093000095338,True,19
136K22,526,experiment,16,↓,down,↓,0.7884519998915493,True,19
136K22,527,experiment,51,→,right,→,0.7393543999642134,True,19
136K22,528,experiment,57,←,left,←,0.8958336000796407,True,19
136K22,529,experiment,47,←,right,→,0.9250756001565605,False,19
136K22,530,experiment,41,→,left,←,0.9091088999994099,False,19
136K22,531,experiment,13,→,left,←,0.9363609000574797,False,19
136K22,532,experiment,32,←,left,←,0.757705399999395,True,19
136K22,533,experiment,30,↓,down,↓,1.2599315999541432,True,19
136K22,534,experiment,27,↑,up,↑,0.7118391999974847,True,19
136K22,535,experiment,49,→,right,→,0.787809900008142,True,19
136K22,536,experiment,58,↓,left,←,0.829298100201413,False,19
136K22,537,experiment,59,→,right,→,0.7491516000591218,True,19
136K22,538,experiment,21,↓,down,↓,0.7852738001383841,True,19
136K22,539,experiment,53,↓,down,↓,0.7584740000311285,True,19
136K22,540,experiment,31,←,left,←,0.755737200146541,True,19
136K22,541,training,51,←,right,→,1.1484381000045687,False,19
136K22,542,training,23,→,right,→,0.9671324999071658,True,19
136K22,543,experiment,41,→,down,↓,0.8210463998839259,False,19
136K22,544,experiment,60,→,right,→,0.7723763999529183,True,19
136K22,545,experiment,25,↑,up,↑,0.8053345000371337,True,19
136K22,546,experiment,28,↓,down,↓,0.8423500000499189,True,19
136K22,547,experiment,24,↑,up,↑,0.6890630000270903,True,19
136K22,548,experiment,50,↓,up,↑,1.028460699832067,False,19
136K22,549,experiment,51,↓,down,↓,0.8897629000712186,True,19
136K22,550,experiment,48,↓,down,↓,0.6543568000197411,True,19
136K22,551,experiment,54,↓,down,↓,0.7444114000536501,True,19
136K22,552,experiment,49,←,left,←,0.8983434999827296,True,19
136K22,553,experiment,21,→,right,→,0.7123585999943316,True,19
136K22,554,experiment,42,↑,up,↑,0.7923564999364316,True,19
136K22,555,experiment,30,→,right,→,0.7396611000876874,True,19
136K22,556,experiment,52,→,right,→,0.8516351000871509,True,19
136K22,557,experiment,15,→,right,→,0.6957719000056386,True,19
136K22,558,experiment,33,↑,up,↑,0.6864614000078291,True,19
136K22,559,experiment,31,←,left,←,1.046504900092259,True,19
136K22,560,experiment,26,→,right,→,0.7310303000267595,True,19
136K22,561,experiment,34,↑,up,↑,0.6392874999437481,True,19
136K22,562,experiment,46,→,right,→,0.7910873000510037,True,19
136K22,563,experiment,23,↓,down,↓,0.6803390001878142,True,19
136K22,564,experiment,37,↑,up,↑,0.8443483998999,True,19
136K22,565,experiment,58,←,left,←,0.668404099997133,True,19
136K22,566,experiment,43,↑,right,→,0.7491383999586105,False,19
136K22,567,experiment,29,↑,up,↑,0.8757044998928905,True,19
136K22,568,experiment,27,←,left,←,0.7029686998575926,True,19
136K22,569,experiment,20,→,right,→,0.7497324000578374,True,19
136K22,570,experiment,38,↑,down,↓,0.7504200998228043,False,19
136K22,571,experiment,55,↑,up,↑,0.8276754000689834,True,19
136K22,572,experiment,45,↑,up,↑,0.7251655000727624,True,19
136K22,573,experiment,35,→,right,→,0.6969572999514639,True,19
136K22,574,experiment,13,→,right,→,0.8289659998845309,True,19
136K22,575,experiment,19,→,right,→,0.7677142999600619,True,19
136K22,576,experiment,57,←,right,→,0.9629939999431372,False,19
136K22,577,experiment,17,→,right,→,0.6569789000786841,True,19
136K22,578,experiment,44,↑,up,↑,0.7856978999916464,True,19
136K22,579,experiment,14,↓,down,↓,0.7209346001036465,True,19
136K22,580,experiment,53,↑,up,↑,0.7689522998407483,True,19
136K22,581,experiment,59,↑,up,↑,0.4166961000300944,True,19
136K22,582,experiment,40,←,left,←,0.6309877000749111,True,19
136K22,583,experiment,16,←,left,←,1.1390287999529392,True,19
136K22,584,experiment,32,←,left,←,0.6242893000598997,True,19
136K22,585,experiment,47,←,left,←,0.8402833000291139,True,19
136K22,586,experiment,18,←,left,←,0.7869973999913782,True,19
136K22,587,experiment,36,→,right,→,0.811607199953869,True,19
136K22,588,experiment,56,←,left,←,0.870392199838534,True,19
136K22,589,experiment,39,←,left,←,0.8496024000924081,True,19
136K22,590,experiment,22,→,right,→,0.9129285998642445,True,19
