PART_ID,Trial_no,Trial_type,CSI,Stim_letter,Key_pressed,letter_choose,Rt,Corr,Stimulus Time
138M21,1,training,60,↓,no_key,no_letter,-1.0,False,30
138M21,2,training,60,↑,left,←,0.9861024999991059,False,30
138M21,3,training,60,↓,no_key,no_letter,-1.0,False,30
138M21,4,training,60,→,right,→,1.0507201999425888,True,30
138M21,5,training,60,↑,up,↑,1.0320238000713289,True,30
138M21,6,training,60,↑,up,↑,1.3260664001572877,True,30
138M21,7,training,60,←,left,←,0.6005134000442922,True,30
138M21,8,training,60,↑,up,↑,0.5499177000019699,True,30
138M21,9,training,60,↑,up,↑,0.6333590000867844,True,30
138M21,10,training,60,←,left,←,0.4343252000398934,True,30
138M21,11,training,60,↑,up,↑,0.7927041000220925,True,30
138M21,12,training,60,↓,down,↓,0.7046423000283539,True,30
138M21,13,training,60,↓,down,↓,0.6173774998169392,True,30
138M21,14,training,60,↑,up,↑,1.3221927001141012,True,30
138M21,15,training,60,←,left,←,0.5505407000891864,True,30
138M21,16,training,60,←,left,←,0.5339941000565886,True,30
138M21,17,training,60,↑,up,↑,0.5673324998933822,True,30
138M21,18,training,60,↑,down,↓,0.7345473999157548,False,30
138M21,19,training,60,→,right,→,0.6176048000343144,True,30
138M21,20,training,60,←,right,→,0.5173595000524074,False,30
138M21,21,training,60,→,right,→,0.5840096999891102,True,18
138M21,22,training,60,↓,down,↓,0.6882102999370545,True,18
138M21,23,training,60,↑,up,↑,0.8758855999913067,True,18
138M21,24,training,60,↓,down,↓,0.5605492000468075,True,18
138M21,25,training,60,←,left,←,0.5852731000632048,True,18
138M21,26,training,60,↑,up,↑,0.7372004999779165,True,18
138M21,27,training,60,←,left,←,0.6273487999569625,True,18
138M21,28,training,60,↓,down,↓,1.6494263999629766,True,18
138M21,29,training,60,↓,down,↓,1.1745947001036257,True,18
138M21,30,training,60,→,right,→,0.4951982998754829,True,18
138M21,31,training,60,↑,up,↑,0.7144784999545664,True,18
138M21,32,training,60,↓,down,↓,0.5092678999062628,True,18
138M21,33,training,60,↓,up,↑,0.7765215998515487,False,18
138M21,34,training,60,←,left,←,0.5687364002224058,True,18
138M21,35,training,60,→,right,→,0.6894406001083553,True,18
138M21,36,training,60,←,right,→,0.5493832000065595,False,18
138M21,37,training,60,↑,up,↑,0.6627597999759018,True,18
138M21,38,training,60,↓,down,↓,0.9630402999464422,True,18
138M21,39,training,60,↓,up,↑,0.6278287000022829,False,18
138M21,40,training,60,↓,down,↓,0.5777805000543594,True,18
138M21,41,training,49,↓,down,↓,1.5898910001851618,True,18
138M21,42,training,18,↓,down,↓,1.3144869001116604,True,18
138M21,43,experiment,14,→,right,→,0.6285971000324935,True,18
138M21,44,experiment,35,→,right,→,0.5804824999067932,True,18
138M21,45,experiment,16,↑,up,↑,1.1144415999297053,True,18
138M21,46,experiment,41,←,left,←,0.5785126001574099,True,18
138M21,47,experiment,57,←,right,→,0.6777530999388546,False,18
138M21,48,experiment,26,→,right,→,0.6498068000655621,True,18
138M21,49,experiment,28,←,left,←,0.6051120001357049,True,18
138M21,50,experiment,50,→,right,→,0.507737300125882,True,18
138M21,51,experiment,34,←,left,←,0.48133180011063814,True,18
138M21,52,experiment,27,→,right,→,1.1717629998456687,True,18
138M21,53,experiment,59,↑,up,↑,0.8217645999975502,True,18
138M21,54,experiment,55,↑,up,↑,1.3763554999604821,True,18
138M21,55,experiment,33,↑,up,↑,0.7077949000522494,True,18
138M21,56,experiment,39,↑,down,↓,0.8057111999951303,False,18
138M21,57,experiment,58,↓,down,↓,0.6792766000144184,True,18
138M21,58,experiment,40,←,left,←,0.569706300040707,True,18
138M21,59,experiment,15,←,right,→,0.48917379998601973,False,18
138M21,60,experiment,32,↑,up,↑,0.7603712999261916,True,18
138M21,61,experiment,23,←,right,→,0.6031011000741273,False,18
138M21,62,experiment,19,←,left,←,0.5663916999474168,True,18
138M21,63,experiment,54,→,right,→,0.43389460002072155,True,18
138M21,64,experiment,31,↓,down,↓,0.6217151000164449,True,18
138M21,65,experiment,56,→,right,→,0.6230601998977363,True,18
138M21,66,experiment,52,↓,down,↓,0.6757111998740584,True,18
138M21,67,experiment,46,←,left,←,0.7226154999807477,True,18
138M21,68,experiment,29,→,right,→,0.5704041998833418,True,18
138M21,69,experiment,24,↑,down,↓,0.47578930016607046,False,18
138M21,70,experiment,37,→,right,→,0.5919743000995368,True,18
138M21,71,experiment,60,↑,up,↑,0.632667199941352,True,18
138M21,72,experiment,17,←,left,←,0.6756205998826772,True,18
138M21,73,experiment,30,→,right,→,0.49326539994217455,True,18
138M21,74,experiment,44,→,right,→,1.5163628000300378,True,18
138M21,75,experiment,49,↑,up,↑,0.5510770999826491,True,18
138M21,76,experiment,38,←,right,→,0.4796502999961376,False,18
138M21,77,experiment,47,←,left,←,0.6693728000391275,True,18
138M21,78,experiment,13,←,right,→,0.7136806999333203,False,18
138M21,79,experiment,21,↑,down,↓,0.47922799992375076,False,18
138M21,80,experiment,43,↑,up,↑,0.6390058998949826,True,18
138M21,81,experiment,45,↑,down,↓,0.6317372999619693,False,18
138M21,82,experiment,53,→,right,→,1.17895990004763,True,18
138M21,83,experiment,51,↑,down,↓,0.8827221000101417,False,18
138M21,84,experiment,20,↓,down,↓,0.5624432000331581,True,18
138M21,85,experiment,25,↓,down,↓,0.6752718000207096,True,18
138M21,86,experiment,42,↓,down,↓,0.9402793999761343,True,18
138M21,87,experiment,22,↓,down,↓,0.6483346000313759,True,18
138M21,88,experiment,36,←,left,←,0.6703513998072594,True,18
138M21,89,experiment,18,↓,down,↓,0.7437195000238717,True,18
138M21,90,experiment,48,↓,down,↓,0.8103529000654817,True,18
138M21,91,training,32,↓,left,←,1.0690589998848736,False,18
138M21,92,training,32,→,right,→,0.6770391000900418,True,18
138M21,93,experiment,39,↓,down,↓,0.5043064001947641,True,18
138M21,94,experiment,52,→,right,→,0.6016287000384182,True,18
138M21,95,experiment,15,↓,no_key,no_letter,-1.0,False,18
138M21,96,experiment,35,↓,down,↓,0.4898270999547094,True,18
138M21,97,experiment,28,→,right,→,0.7398230000399053,True,18
138M21,98,experiment,24,↑,up,↑,0.7262788999360055,True,18
138M21,99,experiment,43,←,left,←,0.6210008999332786,True,18
138M21,100,experiment,44,←,left,←,0.6392345000058413,True,18
138M21,101,experiment,56,↓,down,↓,0.7206339999102056,True,18
138M21,102,experiment,27,→,right,→,0.5536396000534296,True,18
138M21,103,experiment,37,↑,down,↓,0.6508756000548601,False,18
138M21,104,experiment,41,→,right,→,0.5016352001111954,True,18
138M21,105,experiment,17,↑,up,↑,0.7662362998817116,True,18
138M21,106,experiment,59,←,left,←,0.6483599999919534,True,18
138M21,107,experiment,58,←,left,←,1.3276559000369161,True,18
138M21,108,experiment,54,←,left,←,0.9028974000830203,True,18
138M21,109,experiment,26,↓,down,↓,1.0416317998897284,True,18
138M21,110,experiment,31,←,left,←,0.9876268999651074,True,18
138M21,111,experiment,29,←,left,←,0.7289977001491934,True,18
138M21,112,experiment,42,→,right,→,0.5842740999069065,True,18
138M21,113,experiment,46,↓,down,↓,1.9463235000148416,True,18
138M21,114,experiment,33,↓,down,↓,0.47903999988920987,True,18
138M21,115,experiment,45,→,right,→,0.7415754999965429,True,18
138M21,116,experiment,53,←,left,←,0.548975600162521,True,18
138M21,117,experiment,40,↑,up,↑,0.5082674000877887,True,18
138M21,118,experiment,20,→,right,→,0.4988975999876857,True,18
138M21,119,experiment,18,↓,up,↑,1.0749136998783797,False,18
138M21,120,experiment,38,←,left,←,0.6468122999649495,True,18
138M21,121,experiment,19,←,left,←,0.8089417000301182,True,18
138M21,122,experiment,55,→,right,→,0.8124893000349402,True,18
138M21,123,experiment,48,↑,up,↑,0.7723856999073178,True,18
138M21,124,experiment,47,←,left,←,0.6622168000321835,True,18
138M21,125,experiment,22,←,left,←,0.5575965000316501,True,18
138M21,126,experiment,23,→,left,←,0.5122990000527352,False,18
138M21,127,experiment,21,↑,up,↑,0.758253299864009,True,18
138M21,128,experiment,34,→,right,→,0.6335486001335084,True,18
138M21,129,experiment,60,↓,down,↓,0.8002679999917746,True,18
138M21,130,experiment,36,←,left,←,1.1843031998723745,True,18
138M21,131,experiment,25,↓,up,↑,0.9122100998647511,False,18
138M21,132,experiment,16,←,left,←,0.9375531000550836,True,18
138M21,133,experiment,14,↑,up,↑,0.7869750000536442,True,18
138M21,134,experiment,57,↓,down,↓,0.6297836001031101,True,18
138M21,135,experiment,30,↓,down,↓,0.5208159999456257,True,18
138M21,136,experiment,49,←,left,←,0.6837516000960022,True,18
138M21,137,experiment,51,↓,down,↓,0.8142102998681366,True,18
138M21,138,experiment,13,↑,up,↑,0.6128775998950005,True,18
138M21,139,experiment,32,↑,up,↑,0.7595367999747396,True,18
138M21,140,experiment,50,↑,up,↑,0.7362180000636727,True,18
138M21,141,training,55,→,right,→,0.6215725999791175,True,18
138M21,142,training,16,↑,up,↑,0.6423009999562055,True,18
138M21,143,experiment,23,→,right,→,0.6334750999230891,True,18
138M21,144,experiment,18,←,left,←,0.5881914000492543,True,18
138M21,145,experiment,44,↑,up,↑,0.7035447000525892,True,18
138M21,146,experiment,60,↑,up,↑,0.6275047999806702,True,18
138M21,147,experiment,31,↓,down,↓,0.7902106998953968,True,18
138M21,148,experiment,28,←,left,←,0.756210999796167,True,18
138M21,149,experiment,21,↑,up,↑,0.6162384001072496,True,18
138M21,150,experiment,41,←,left,←,0.6602316000498831,True,18
138M21,151,experiment,40,↑,up,↑,0.6796440000180155,True,18
138M21,152,experiment,26,→,right,→,0.7068308000452816,True,18
138M21,153,experiment,50,↓,down,↓,0.5895404999610037,True,18
138M21,154,experiment,25,↓,left,←,0.5014899999368936,False,18
138M21,155,experiment,46,←,left,←,0.9229560999665409,True,18
138M21,156,experiment,51,←,left,←,0.5081631001085043,True,18
138M21,157,experiment,24,↓,down,↓,0.6004385999403894,True,18
138M21,158,experiment,55,↓,down,↓,0.6596802000422031,True,18
138M21,159,experiment,49,→,right,→,0.5930606999900192,True,18
138M21,160,experiment,39,↑,up,↑,0.8554849999491125,True,18
138M21,161,experiment,48,↑,down,↓,0.9494765000417829,False,18
138M21,162,experiment,17,↓,down,↓,0.5644592000171542,True,18
138M21,163,experiment,57,↓,down,↓,0.5114760999567807,True,18
138M21,164,experiment,36,←,left,←,0.5715562999248505,True,18
138M21,165,experiment,22,↓,down,↓,0.7821464000735432,True,18
138M21,166,experiment,53,↓,down,↓,0.5076102998573333,True,18
138M21,167,experiment,27,←,left,←,0.7415326999034733,True,18
138M21,168,experiment,58,→,no_key,no_letter,-1.0,False,18
138M21,169,experiment,15,←,left,←,0.5448374000843614,True,18
138M21,170,experiment,37,←,down,↓,1.7228284000884742,False,18
138M21,171,experiment,52,←,left,←,0.755567800020799,True,18
138M21,172,experiment,56,↓,left,←,1.4724603001959622,False,18
138M21,173,experiment,30,→,right,→,0.6495568000245839,True,18
138M21,174,experiment,13,↑,right,→,0.5827829001937062,False,18
138M21,175,experiment,20,←,right,→,0.2519433000124991,False,18
138M21,176,experiment,59,↓,right,→,0.2182190001476556,False,18
138M21,177,experiment,19,↑,right,→,0.5981391998939216,False,18
138M21,178,experiment,16,↓,right,→,0.3172524000983685,False,18
138M21,179,experiment,32,←,right,→,0.251751699950546,False,18
138M21,180,experiment,14,↑,up,↑,0.7156756999902427,True,18
138M21,181,experiment,45,→,right,→,0.6490589000750333,True,18
138M21,182,experiment,43,↓,up,↑,0.5381815999280661,False,18
138M21,183,experiment,33,↑,up,↑,0.630905499914661,True,18
138M21,184,experiment,54,↓,down,↓,0.6736804000101984,True,18
138M21,185,experiment,42,↓,down,↓,0.5467422001529485,True,18
138M21,186,experiment,29,←,right,→,0.5775886001065373,False,18
138M21,187,experiment,47,→,right,→,0.6435100000817329,True,18
138M21,188,experiment,35,↓,down,↓,0.522911700187251,True,18
138M21,189,experiment,34,↓,down,↓,1.0475830999203026,True,18
138M21,190,experiment,38,←,right,→,0.5721189000178128,False,18
138M21,191,training,47,→,right,→,0.5742126000113785,True,18
138M21,192,training,59,←,right,→,1.7920603000093251,False,18
138M21,193,experiment,53,←,left,←,0.7174017000943422,True,18
138M21,194,experiment,46,→,right,→,0.554126099916175,True,18
138M21,195,experiment,15,↑,up,↑,0.7219708000775427,True,18
138M21,196,experiment,33,→,right,→,0.5594159001484513,True,18
138M21,197,experiment,20,↓,no_key,no_letter,-1.0,False,18
138M21,198,experiment,30,→,right,→,0.657644199905917,True,18
138M21,199,experiment,17,↓,down,↓,0.995983500033617,True,18
138M21,200,experiment,43,←,right,→,0.9361091998871416,False,18
138M21,201,experiment,42,←,left,←,0.6467126999050379,True,18
138M21,202,experiment,39,→,right,→,0.5626435000449419,True,18
138M21,203,experiment,31,→,no_key,no_letter,-1.0,False,18
138M21,204,experiment,13,↑,down,↓,0.8327355999499559,False,18
138M21,205,experiment,54,↑,left,←,1.4516449000220746,False,18
138M21,206,experiment,52,←,left,←,1.102734599960968,True,18
138M21,207,experiment,29,→,down,↓,0.9593428000807762,False,18
138M21,208,experiment,49,↓,down,↓,0.6089980998076499,True,18
138M21,209,experiment,37,→,right,→,1.048048699973151,True,18
138M21,210,experiment,60,→,right,→,0.9899649999570101,True,18
138M21,211,experiment,24,↑,up,↑,0.7669222000986338,True,18
138M21,212,experiment,22,↓,down,↓,0.6974063999950886,True,18
138M21,213,experiment,48,→,right,→,0.5333986999467015,True,18
138M21,214,experiment,56,↓,down,↓,1.0265924998093396,True,18
138M21,215,experiment,36,↑,up,↑,1.0500577001366764,True,18
138M21,216,experiment,38,↑,up,↑,1.0786921000108123,True,18
138M21,217,experiment,50,←,left,←,0.6026600999757648,True,18
138M21,218,experiment,19,←,down,↓,0.582216199953109,False,18
138M21,219,experiment,40,←,right,→,0.251759999897331,False,18
138M21,220,experiment,59,↑,down,↓,0.7127062000799924,False,18
138M21,221,experiment,51,↑,up,↑,0.7465669000521302,True,18
138M21,222,experiment,14,←,left,←,0.5233320000115782,True,18
138M21,223,experiment,27,←,left,←,0.38386430009268224,True,18
138M21,224,experiment,23,←,left,←,0.36692889989353716,True,18
138M21,225,experiment,25,→,right,→,0.8054064998868853,True,18
138M21,226,experiment,16,↓,up,↑,0.9786408001091331,False,18
138M21,227,experiment,34,→,left,←,0.4772774998564273,False,18
138M21,228,experiment,58,→,left,←,0.5313212999608368,False,18
138M21,229,experiment,18,↓,right,→,0.8899751999415457,False,18
138M21,230,experiment,41,↑,up,↑,1.115343000041321,True,18
138M21,231,experiment,47,←,left,←,0.5436090000439435,True,18
138M21,232,experiment,44,←,right,→,0.5009692998137325,False,18
138M21,233,experiment,21,→,left,←,1.1466957000084221,False,18
138M21,234,experiment,55,→,right,→,0.6646318000275642,True,18
138M21,235,experiment,32,→,right,→,0.5606559000443667,True,18
138M21,236,experiment,45,↑,up,↑,0.756628000177443,True,18
138M21,237,experiment,35,↓,up,↑,0.6473987000063062,False,18
138M21,238,experiment,28,→,right,→,0.6427582001779228,True,18
138M21,239,experiment,26,←,right,→,0.8639519999269396,False,18
138M21,240,experiment,57,→,right,→,0.5753422998823225,True,18
138M21,241,training,50,→,left,←,0.3838672998826951,False,18
138M21,242,training,55,←,left,←,0.5972517000045627,True,18
138M21,243,experiment,34,↑,up,↑,0.5266418000683188,True,18
138M21,244,experiment,37,→,right,→,0.4733160000760108,True,18
138M21,245,experiment,35,→,right,→,0.6068917000666261,True,18
138M21,246,experiment,53,←,left,←,1.2353429000359029,True,18
138M21,247,experiment,60,←,right,→,0.4901736001484096,False,18
138M21,248,experiment,28,→,right,→,0.5962696999777108,True,18
138M21,249,experiment,52,→,right,→,1.3461070999037474,True,18
138M21,250,experiment,51,→,right,→,0.4987349999137223,True,18
138M21,251,experiment,27,→,right,→,0.4006312000565231,True,18
138M21,252,experiment,59,↑,right,→,1.220869599841535,False,18
138M21,253,experiment,22,→,right,→,1.7573925000615418,True,18
138M21,254,experiment,13,↓,up,↑,0.6146434999536723,False,18
138M21,255,experiment,21,↑,up,↑,0.5283816999290138,True,18
138M21,256,experiment,26,→,right,→,0.6980183001141995,True,18
138M21,257,experiment,31,↓,down,↓,0.7211924998555332,True,18
138M21,258,experiment,19,←,left,←,0.5119448001496494,True,18
138M21,259,experiment,41,→,right,→,0.8484595001209527,True,18
138M21,260,experiment,57,←,left,←,1.352585099870339,True,18
138M21,261,experiment,20,↓,up,↑,1.0052710000891238,False,18
138M21,262,experiment,16,↑,up,↑,0.5226606999058276,True,18
138M21,263,experiment,25,↑,up,↑,0.5495492999907583,True,18
138M21,264,experiment,44,→,up,↑,1.073897099820897,False,18
138M21,265,experiment,33,↓,up,↑,0.5214444999583066,False,18
138M21,266,experiment,42,→,right,→,1.2804757999256253,True,18
138M21,267,experiment,45,↑,up,↑,0.647241499973461,True,18
138M21,268,experiment,24,↓,down,↓,1.1493293999228626,True,18
138M21,269,experiment,14,↓,down,↓,0.5498524999711663,True,18
138M21,270,experiment,47,→,left,←,0.43402489996515214,False,18
138M21,271,experiment,43,↓,down,↓,0.5460397999268025,True,18
138M21,272,experiment,39,←,right,→,0.6426504000555724,False,18
138M21,273,experiment,40,→,left,←,0.41992040001787245,False,18
138M21,274,experiment,48,→,left,←,0.5013805001508445,False,18
138M21,275,experiment,30,↑,left,←,0.8052539001218975,False,18
138M21,276,experiment,17,↑,left,←,1.5698832999914885,False,18
138M21,277,experiment,23,↓,left,←,0.7959270998835564,False,18
138M21,278,experiment,32,←,left,←,1.0791989997960627,True,18
138M21,279,experiment,38,↑,up,↑,0.5792356000747532,True,18
138M21,280,experiment,54,←,right,→,0.5684974999167025,False,18
138M21,281,experiment,36,↓,down,↓,1.1139062999282032,True,18
138M21,282,experiment,15,←,left,←,0.9472042999695987,True,18
138M21,283,experiment,56,←,left,←,0.5279194000177085,True,18
138M21,284,experiment,18,→,right,→,0.5752759999595582,True,18
138M21,285,experiment,58,→,right,→,0.4738684999756515,True,18
138M21,286,experiment,46,↑,left,←,0.4174009000416845,False,18
138M21,287,experiment,50,←,right,→,0.6211458998732269,False,18
138M21,288,experiment,29,↓,up,↑,0.68142080004327,False,18
138M21,289,experiment,49,↑,up,↑,0.5334781999699771,True,18
138M21,290,experiment,55,↑,down,↓,0.5793920001015067,False,18
138M21,291,training,13,→,left,←,1.1371879000216722,False,18
138M21,292,training,18,→,left,←,0.38384420005604625,False,18
138M21,293,experiment,54,→,right,→,0.6838436000980437,True,18
138M21,294,experiment,22,↓,up,↑,0.9857948999851942,False,18
138M21,295,experiment,21,→,left,←,0.4006966999731958,False,18
138M21,296,experiment,29,→,left,←,0.4341947000939399,False,18
138M21,297,experiment,53,↓,up,↑,0.7871564999222755,False,18
138M21,298,experiment,32,←,left,←,0.5825990000739694,True,18
138M21,299,experiment,13,↑,up,↑,0.5106250999961048,True,18
138M21,300,experiment,52,↓,down,↓,0.7119154999963939,True,18
138M21,301,experiment,37,↑,up,↑,0.5231860999483615,True,18
138M21,302,experiment,59,↓,up,↑,0.623131399974227,False,18
138M21,303,experiment,60,↓,up,↑,0.9665826000273228,False,18
138M21,304,experiment,56,↑,up,↑,0.6744647999294102,True,18
138M21,305,experiment,47,↓,down,↓,0.8885351999197155,True,18
138M21,306,experiment,39,↑,up,↑,0.9153527999296784,True,18
138M21,307,experiment,16,→,right,→,0.7797838998958468,True,18
138M21,308,experiment,20,↑,up,↑,0.5914281001314521,True,18
138M21,309,experiment,51,→,right,→,0.742118600057438,True,18
138M21,310,experiment,23,←,left,←,0.5212549001444131,True,18
138M21,311,experiment,28,→,left,←,1.5298812000546604,False,18
138M21,312,experiment,38,→,right,→,0.7957954998128116,True,18
138M21,313,experiment,48,↑,left,←,1.0124470998998731,False,18
138M21,314,experiment,46,←,left,←,0.6620390000753105,True,18
138M21,315,experiment,50,←,left,←,0.5067464001476765,True,18
138M21,316,experiment,31,←,left,←,0.7538354999851435,True,18
138M21,317,experiment,25,↓,down,↓,0.8672638998832554,True,18
138M21,318,experiment,42,↓,down,↓,0.5965160001069307,True,18
138M21,319,experiment,19,→,right,→,0.767857100116089,True,18
138M21,320,experiment,15,↑,up,↑,0.6070861001498997,True,18
138M21,321,experiment,34,↓,down,↓,0.7364761999342591,True,18
138M21,322,experiment,45,↓,down,↓,0.9891071999445558,True,18
138M21,323,experiment,27,↑,up,↑,0.6037477001082152,True,18
138M21,324,experiment,33,→,right,→,0.5737860999070108,True,18
138M21,325,experiment,26,↓,down,↓,0.5737717000301927,True,18
138M21,326,experiment,24,←,right,→,0.4717437999788672,False,18
138M21,327,experiment,44,→,right,→,0.5024600999895483,True,18
138M21,328,experiment,49,←,left,←,0.7379995998926461,True,18
138M21,329,experiment,17,↓,down,↓,0.769025000045076,True,18
138M21,330,experiment,57,←,left,←,0.7724645999260247,True,18
138M21,331,experiment,43,→,right,→,0.49731140001676977,True,18
138M21,332,experiment,30,↓,down,↓,0.7612366999965161,True,18
138M21,333,experiment,58,↓,down,↓,0.7164787000510842,True,18
138M21,334,experiment,36,→,right,→,0.5919041000306606,True,18
138M21,335,experiment,14,↓,down,↓,0.5350605000276119,True,18
138M21,336,experiment,35,↓,down,↓,0.538395999930799,True,18
138M21,337,experiment,41,→,right,→,0.6257133998442441,True,18
138M21,338,experiment,18,↓,down,↓,0.6131295999512076,True,18
138M21,339,experiment,55,↑,down,↓,1.3597802999429405,False,18
138M21,340,experiment,40,→,right,→,1.2390566000249237,True,18
138M21,341,training,36,↑,down,↓,0.8005711999721825,False,18
138M21,342,training,36,←,left,←,0.6083851999137551,True,18
138M21,343,experiment,29,↑,left,←,0.31739989994093776,False,18
138M21,344,experiment,31,←,left,←,0.3005943999160081,True,18
138M21,345,experiment,39,↓,left,←,0.13525740010663867,False,18
138M21,346,experiment,58,←,right,→,0.5617376998998225,False,18
138M21,347,experiment,48,←,right,→,1.2356185000389814,False,18
138M21,348,experiment,40,→,right,→,0.40080590010620654,True,18
138M21,349,experiment,60,→,right,→,0.400940699968487,True,18
138M21,350,experiment,52,↑,down,↓,0.1517209999728948,False,18
138M21,351,experiment,42,↓,down,↓,0.3007398000918329,True,18
138M21,352,experiment,33,→,down,↓,0.13501519989222288,False,18
138M21,353,experiment,50,↓,down,↓,0.13475529989227653,True,18
138M21,354,experiment,37,←,down,↓,0.2170158999506384,False,18
138M21,355,experiment,20,→,down,↓,0.367332800058648,False,18
138M21,356,experiment,23,→,left,←,1.0549882999621332,False,18
138M21,357,experiment,14,→,right,→,0.54780020006001,True,18
138M21,358,experiment,47,←,right,→,0.417141699930653,False,18
138M21,359,experiment,51,→,left,←,0.43603399978019297,False,18
138M21,360,experiment,57,↑,down,↓,0.7709894999861717,False,18
138M21,361,experiment,56,↑,up,↑,0.5430523999966681,True,18
138M21,362,experiment,59,←,right,→,0.38332809996791184,False,18
138M21,363,experiment,44,→,left,←,0.517016900004819,False,18
138M21,364,experiment,25,↑,up,↑,0.5837336000986397,True,18
138M21,365,experiment,21,→,left,←,0.7383184998761863,False,18
138M21,366,experiment,34,↑,up,↑,0.9585525000002235,True,18
138M21,367,experiment,15,↑,up,↑,0.8310338000301272,True,18
138M21,368,experiment,45,↓,down,↓,0.6070751000661403,True,18
138M21,369,experiment,32,↑,down,↓,1.249652500031516,False,18
138M21,370,experiment,19,→,left,←,0.7390709999017417,False,18
138M21,371,experiment,17,↓,down,↓,0.618639700114727,True,18
138M21,372,experiment,46,↑,up,↑,0.7309560000430793,True,18
138M21,373,experiment,49,→,right,→,0.7734974999912083,True,18
138M21,374,experiment,16,↑,down,↓,0.892255200073123,False,18
138M21,375,experiment,13,→,right,→,0.7438374001067132,True,18
138M21,376,experiment,24,→,right,→,0.6504079999867827,True,18
138M21,377,experiment,26,↑,up,↑,0.6950022999662906,True,18
138M21,378,experiment,41,→,right,→,1.3283990998752415,True,18
138M21,379,experiment,54,↑,up,↑,0.7838707000482827,True,18
138M21,380,experiment,36,→,left,←,0.8163410001434386,False,18
138M21,381,experiment,22,↑,up,↑,0.8810372999869287,True,18
138M21,382,experiment,35,←,left,←,0.7102697999216616,True,18
138M21,383,experiment,53,←,left,←,0.5671069000381976,True,18
138M21,384,experiment,28,↑,up,↑,0.9096062001772225,True,18
138M21,385,experiment,18,↓,down,↓,0.8056258000433445,True,18
138M21,386,experiment,43,→,right,→,0.5769348000176251,True,18
138M21,387,experiment,30,↑,up,↑,1.422329599969089,True,18
138M21,388,experiment,38,↓,down,↓,0.6202539999503642,True,18
138M21,389,experiment,27,→,right,→,0.833711100043729,True,18
138M21,390,experiment,55,↓,down,↓,0.8115945002064109,True,18
138M21,391,training,53,↑,down,↓,0.8409427998121828,False,18
138M21,392,training,26,→,right,→,0.4942025998607278,True,18
138M21,393,experiment,45,↑,left,←,0.49297109991312027,False,18
138M21,394,experiment,34,↓,left,←,0.417321200016886,False,18
138M21,395,experiment,46,↑,down,↓,0.15178909990936518,False,18
138M21,396,experiment,23,↓,down,↓,0.2516775999683887,True,18
138M21,397,experiment,37,←,down,↓,0.10188500001095235,False,18
138M21,398,experiment,39,→,right,→,1.2208694000728428,True,18
138M21,399,experiment,21,→,right,→,1.2303875999059528,True,18
138M21,400,experiment,55,↓,down,↓,1.1281896999571472,True,18
138M21,401,experiment,15,→,right,→,0.545604299986735,True,18
138M21,402,experiment,29,←,left,←,0.5448997998610139,True,18
138M21,403,experiment,53,↑,left,←,0.40057709999382496,False,18
138M21,404,experiment,48,↑,up,↑,1.0236106999218464,True,18
138M21,405,experiment,33,→,right,→,1.0328919000457972,True,18
138M21,406,experiment,41,→,up,↑,0.48438160005025566,False,18
138M21,407,experiment,22,→,left,←,0.5142751999665052,False,18
138M21,408,experiment,24,←,right,→,0.5176281000021845,False,18
138M21,409,experiment,54,←,left,←,0.5250023999251425,True,18
138M21,410,experiment,26,→,right,→,0.4789462999906391,True,18
138M21,411,experiment,57,←,left,←,0.2517518999520689,True,18
138M21,412,experiment,42,↓,up,↑,0.7816226000431925,False,18
138M21,413,experiment,30,←,right,→,1.5553969000466168,False,18
138M21,414,experiment,40,→,down,↓,0.06824399996548891,False,18
138M21,415,experiment,49,←,up,↑,0.21768049988895655,False,18
138M21,416,experiment,18,↓,down,↓,0.8928745000157505,True,18
138M21,417,experiment,58,↑,left,←,0.4340071000624448,False,18
138M21,418,experiment,17,→,right,→,0.6695203001145273,True,18
138M21,419,experiment,16,↓,down,↓,0.824446499813348,True,18
138M21,420,experiment,20,→,right,→,0.8502122000791132,True,18
138M21,421,experiment,50,↑,up,↑,0.998941799858585,True,18
138M21,422,experiment,27,→,right,→,1.0848519999999553,True,18
138M21,423,experiment,52,→,right,→,0.719168399926275,True,18
138M21,424,experiment,44,↑,down,↓,1.1891234999056906,False,18
138M21,425,experiment,36,←,left,←,0.5015060999430716,True,18
138M21,426,experiment,60,↓,down,↓,0.6656466999556869,True,18
138M21,427,experiment,43,↑,right,→,1.3701947000809014,False,18
138M21,428,experiment,19,←,down,↓,0.6228956000413746,False,18
138M21,429,experiment,13,↓,down,↓,0.436853599967435,True,18
138M21,430,experiment,56,↓,left,←,0.03517160005867481,False,18
138M21,431,experiment,14,↓,right,→,0.25149350007995963,False,18
138M21,432,experiment,25,↑,left,←,0.68416430009529,False,18
138M21,433,experiment,47,←,left,←,0.21759710018523037,True,18
138M21,434,experiment,32,←,down,↓,0.7361571998335421,False,18
138M21,435,experiment,31,↑,left,←,0.23503939993679523,False,18
138M21,436,experiment,51,→,left,←,0.26810180000029504,False,18
138M21,437,experiment,35,→,left,←,0.7093762999866158,False,18
138M21,438,experiment,59,↓,up,↑,0.21833819989115,False,18
138M21,439,experiment,28,↑,right,→,0.13494009990245104,False,18
138M21,440,experiment,38,↓,up,↑,0.6775132000911981,False,18
138M21,441,training,22,←,left,←,0.10171680012717843,True,19
138M21,442,training,45,→,left,←,0.40057850000448525,False,19
138M21,443,experiment,53,→,down,↓,0.6175516999792308,False,19
138M21,444,experiment,45,↑,down,↓,0.6188070999924093,False,19
138M21,445,experiment,15,→,right,→,0.05164270009845495,True,19
138M21,446,experiment,39,↓,right,→,0.2850077000912279,False,19
138M21,447,experiment,58,↓,down,↓,0.9022772000171244,True,19
138M21,448,experiment,24,←,left,←,0.7301139999181032,True,19
138M21,449,experiment,18,←,down,↓,0.6174806000199169,False,19
138M21,450,experiment,22,→,up,↑,0.7621229998767376,False,19
138M21,451,experiment,54,→,up,↑,0.6400798999238759,False,19
138M21,452,experiment,43,↓,down,↓,0.9140465999953449,True,19
138M21,453,experiment,49,↓,down,↓,0.6448526000604033,True,19
138M21,454,experiment,40,↓,right,→,1.512789900181815,False,19
138M21,455,experiment,29,→,up,↑,0.4350031998474151,False,19
138M21,456,experiment,27,↓,right,→,0.7487568000797182,False,19
138M21,457,experiment,25,←,down,↓,1.0223187999799848,False,19
138M21,458,experiment,56,↓,left,←,0.23523430014029145,False,19
138M21,459,experiment,16,↑,left,←,0.03498090011999011,False,19
138M21,460,experiment,33,→,right,→,0.18506280006840825,True,19
138M21,461,experiment,37,↓,down,↓,0.21836649999022484,True,19
138M21,462,experiment,51,→,down,↓,1.4900801999028772,False,19
138M21,463,experiment,20,↓,down,↓,0.05178690003231168,True,19
138M21,464,experiment,32,↑,left,←,1.935421200003475,False,19
138M21,465,experiment,59,↓,left,←,0.2684500999748707,False,19
138M21,466,experiment,36,↓,up,↑,0.251695099985227,False,19
138M21,467,experiment,55,→,left,←,0.3503723000176251,False,19
138M21,468,experiment,48,←,down,↓,0.3008028999902308,False,19
138M21,469,experiment,42,↓,up,↑,1.213426100090146,False,19
138M21,470,experiment,38,←,down,↓,1.0595024998765439,False,19
138M21,471,experiment,57,↑,down,↓,1.6354636999312788,False,19
138M21,472,experiment,52,↑,up,↑,0.9357110999990255,True,19
138M21,473,experiment,23,↑,left,←,0.2686704001389444,False,19
138M21,474,experiment,47,←,up,↑,0.6067369999364018,False,19
138M21,475,experiment,50,→,left,←,0.7575235001277179,False,19
138M21,476,experiment,41,↓,down,↓,0.6519886997994035,True,19
138M21,477,experiment,35,↑,down,↓,1.6186963999643922,False,19
138M21,478,experiment,46,←,left,←,1.587398799834773,True,19
138M21,479,experiment,44,←,down,↓,0.8468073999974877,False,19
138M21,480,experiment,28,→,right,→,0.7380411999765784,True,19
138M21,481,experiment,13,←,up,↑,0.9960743000265211,False,19
138M21,482,experiment,21,→,down,↓,0.6387073998339474,False,19
138M21,483,experiment,19,→,left,←,0.41757640009745955,False,19
138M21,484,experiment,17,→,left,←,0.6600280997809023,False,19
138M21,485,experiment,31,↓,down,↓,0.31729989987798035,True,19
138M21,486,experiment,26,→,no_key,no_letter,-1.0,False,19
138M21,487,experiment,34,←,right,→,1.2967926999554038,False,19
138M21,488,experiment,30,↑,right,→,0.4340196999255568,False,19
138M21,489,experiment,14,↓,right,→,0.9014206000138074,False,19
138M21,490,experiment,60,↑,down,↓,1.0734126002062112,False,19
138M21,491,training,55,↓,right,→,0.5534324999898672,False,20
138M21,492,training,56,→,down,↓,0.1850092001259327,False,20
138M21,493,experiment,18,↑,left,←,0.2683774000033736,False,20
138M21,494,experiment,47,←,up,↑,0.23509400011971593,False,20
138M21,495,experiment,52,↓,right,→,1.4000090998597443,False,20
138M21,496,experiment,54,↓,down,↓,0.660034199943766,True,20
138M21,497,experiment,21,↑,left,←,0.8042655000463128,False,20
138M21,498,experiment,55,→,right,→,1.8792848999146372,True,20
138M21,499,experiment,19,↑,up,↑,0.6240175999701023,True,20
138M21,500,experiment,22,←,left,←,0.5206277000252157,True,20
138M21,501,experiment,16,→,left,←,0.5613482999615371,False,20
138M21,502,experiment,40,↑,up,↑,0.6007276000455022,True,20
138M21,503,experiment,28,↑,up,↑,0.6381479999981821,True,20
138M21,504,experiment,50,→,right,→,0.5315253001172096,True,20
138M21,505,experiment,57,↓,down,↓,0.8322370999958366,True,20
138M21,506,experiment,17,↓,down,↓,0.6753071998246014,True,20
138M21,507,experiment,26,↓,down,↓,0.5272454000078142,True,20
138M21,508,experiment,14,↓,down,↓,0.6093247998505831,True,20
138M21,509,experiment,20,←,left,←,0.5158851998858154,True,20
138M21,510,experiment,60,→,right,→,0.6553366999141872,True,20
138M21,511,experiment,24,↑,up,↑,0.7173550999723375,True,20
138M21,512,experiment,53,↓,down,↓,0.6853973001707345,True,20
138M21,513,experiment,37,→,right,→,0.6253700000233948,True,20
138M21,514,experiment,33,→,right,→,0.46784000005573034,True,20
138M21,515,experiment,13,→,down,↓,0.9346374000888318,False,20
138M21,516,experiment,44,↑,down,↓,0.8199378000572324,False,20
138M21,517,experiment,58,↓,up,↑,0.03502409998327494,False,20
138M21,518,experiment,38,↑,down,↓,0.21838450012728572,False,20
138M21,519,experiment,34,↓,down,↓,0.5539585000369698,True,20
138M21,520,experiment,29,↑,left,←,0.43398939981125295,False,20
138M21,521,experiment,31,→,right,→,0.2999348999001086,True,20
138M21,522,experiment,15,↓,left,←,0.18359349993988872,False,20
138M21,523,experiment,32,←,right,→,0.3339503000024706,False,20
138M21,524,experiment,43,→,left,←,0.43397040013223886,False,20
138M21,525,experiment,39,←,right,→,0.6413269001059234,False,20
138M21,526,experiment,36,→,down,↓,0.38507899991236627,False,20
138M21,527,experiment,51,←,right,→,0.03509050002321601,False,20
138M21,528,experiment,42,↑,left,←,0.9240315998904407,False,20
138M21,529,experiment,25,←,right,→,1.3665903999935836,False,20
138M21,530,experiment,45,→,right,→,0.5861043999902904,True,20
138M21,531,experiment,49,←,left,←,0.6420562998391688,True,20
138M21,532,experiment,46,↓,down,↓,0.697921099839732,True,20
138M21,533,experiment,41,→,right,→,0.6266355998814106,True,20
138M21,534,experiment,59,↓,down,↓,0.4668006000574678,True,20
138M21,535,experiment,56,↑,up,↑,0.7538886000402272,True,20
138M21,536,experiment,27,↑,up,↑,1.009903300087899,True,20
138M21,537,experiment,35,↓,no_key,no_letter,-1.0,False,20
138M21,538,experiment,23,↑,no_key,no_letter,-1.0,False,20
138M21,539,experiment,48,→,up,↑,1.2833557999692857,False,20
138M21,540,experiment,30,↓,no_key,no_letter,-1.0,False,20
138M21,541,training,38,↑,up,↑,1.1938565000891685,True,21
138M21,542,training,29,↓,up,↑,0.4674702000338584,False,21
138M21,543,experiment,33,↓,right,→,0.18479850003495812,False,21
138M21,544,experiment,17,→,down,↓,1.3965034999419004,False,21
138M21,545,experiment,42,←,up,↑,0.6086462000384927,False,21
138M21,546,experiment,43,←,down,↓,0.7320862000342458,False,21
138M21,547,experiment,53,↓,down,↓,1.395193099975586,True,21
138M21,548,experiment,49,↓,left,←,0.5231226999312639,False,21
138M21,549,experiment,36,→,up,↑,0.15160320000723004,False,21
138M21,550,experiment,19,←,up,↑,0.2517146999016404,False,21
138M21,551,experiment,48,→,left,←,0.40057039982639253,False,21
138M21,552,experiment,15,→,up,↑,0.6505897999741137,False,21
138M21,553,experiment,46,↓,up,↑,0.7044937000609934,False,21
138M21,554,experiment,54,↑,right,→,1.0407489000353962,False,21
138M21,555,experiment,25,↓,left,←,1.094543799990788,False,21
138M21,556,experiment,47,→,down,↓,0.7158492000307888,False,21
138M21,557,experiment,52,←,right,→,0.7485365001484752,False,21
138M21,558,experiment,22,↑,left,←,0.3339496999979019,False,21
138M21,559,experiment,45,→,left,←,0.001812600065022707,False,21
138M21,560,experiment,44,→,left,←,0.5445503001101315,False,21
138M21,561,experiment,27,←,left,←,1.2570352000184357,True,21
138M21,562,experiment,56,↑,down,↓,0.4838460001628846,False,21
138M21,563,experiment,24,←,down,↓,0.034942599944770336,False,21
138M21,564,experiment,16,↓,left,←,0.5891306998673826,False,21
138M21,565,experiment,51,↑,left,←,0.21844710013829172,False,21
138M21,566,experiment,14,↑,right,→,0.620480899931863,False,21
138M21,567,experiment,31,←,left,←,0.6472477000206709,True,21
138M21,568,experiment,35,↑,down,↓,1.165788099868223,False,21
138M21,569,experiment,32,↑,down,↓,0.18538579996675253,False,21
138M21,570,experiment,57,↑,down,↓,0.5900421000551432,False,21
138M21,571,experiment,37,↑,right,→,0.8057997999712825,False,21
138M21,572,experiment,40,→,left,←,0.40072889998555183,False,21
138M21,573,experiment,60,↑,left,←,0.4171347999945283,False,21
138M21,574,experiment,39,←,left,←,0.5673567000776529,True,21
138M21,575,experiment,59,←,left,←,1.7371354999486357,True,21
138M21,576,experiment,21,↑,left,←,0.18478600005619228,False,21
138M21,577,experiment,58,←,down,↓,0.9531182001810521,False,21
138M21,578,experiment,41,↓,left,←,0.034850699827075005,False,21
138M21,579,experiment,50,←,left,←,0.2517585998866707,True,21
138M21,580,experiment,13,←,left,←,1.3137538000009954,True,21
138M21,581,experiment,29,↓,up,↑,0.5937721999362111,False,21
138M21,582,experiment,23,↑,right,→,0.6912287001032382,False,21
138M21,583,experiment,26,→,down,↓,0.21890079998411238,False,21
138M21,584,experiment,18,→,down,↓,1.372431900119409,False,21
138M21,585,experiment,34,↑,up,↑,0.03509059990756214,True,21
138M21,586,experiment,28,→,up,↑,0.38346759998239577,False,21
138M21,587,experiment,38,↑,up,↑,0.13504699990153313,True,21
138M21,588,experiment,55,↑,up,↑,0.4009837000630796,True,21
138M21,589,experiment,20,↑,up,↑,0.31821539998054504,True,21
138M21,590,experiment,30,↓,up,↑,0.1685339999385178,False,21
