PART_ID,Trial_no,Trial_type,CSI,Stim_letter,Key_pressed,letter_choose,Rt,Corr,Stimulus Time
139M18,1,training,60,←,no_key,no_letter,-1.0,False,30
139M18,2,training,60,↑,up,↑,0.8809782001189888,True,30
139M18,3,training,60,↓,up,↑,0.6172747001983225,False,30
139M18,4,training,60,→,right,→,0.6986537999473512,True,30
139M18,5,training,60,←,left,←,0.5006400002166629,True,30
139M18,6,training,60,↑,right,→,0.5509790000505745,False,30
139M18,7,training,60,→,up,↑,0.40175319998525083,False,30
139M18,8,training,60,↑,right,→,0.5018659001216292,False,30
139M18,9,training,60,←,left,←,0.5842073000967503,True,30
139M18,10,training,60,←,left,←,0.7979996001813561,True,30
139M18,11,training,60,↓,down,↓,1.3091428999323398,True,30
139M18,12,training,60,↑,up,↑,0.7048294001724571,True,30
139M18,13,training,60,→,right,→,0.634156399872154,True,30
139M18,14,training,60,←,left,←,0.600562599953264,True,30
139M18,15,training,60,↑,up,↑,0.791886999970302,True,30
139M18,16,training,60,↑,up,↑,0.9118860999587923,True,30
139M18,17,training,60,↑,up,↑,0.7305662999860942,True,30
139M18,18,training,60,↑,up,↑,0.740593999857083,True,30
139M18,19,training,60,↓,down,↓,0.8624706999398768,True,30
139M18,20,training,60,↑,up,↑,0.7552597001194954,True,30
139M18,21,training,60,↓,down,↓,1.799365899991244,True,18
139M18,22,training,60,↑,up,↑,0.830514800036326,True,18
139M18,23,training,60,←,left,←,0.7884567999280989,True,18
139M18,24,training,60,↓,down,↓,0.9488054001703858,True,18
139M18,25,training,60,→,right,→,0.8380690000485629,True,18
139M18,26,training,60,→,right,→,0.692082499852404,True,18
139M18,27,training,60,←,right,→,0.9683864000253379,False,18
139M18,28,training,60,↓,down,↓,0.9284907998517156,True,18
139M18,29,training,60,↓,down,↓,0.7707451998721808,True,18
139M18,30,training,60,↑,up,↑,0.6750933998264372,True,18
139M18,31,training,60,←,left,←,0.767887800000608,True,18
139M18,32,training,60,↓,down,↓,0.7684575000312179,True,18
139M18,33,training,60,↓,down,↓,0.697184800170362,True,18
139M18,34,training,60,↑,up,↑,0.9006566000171006,True,18
139M18,35,training,60,→,right,→,0.575807899935171,True,18
139M18,36,training,60,↑,up,↑,0.6244175999891013,True,18
139M18,37,training,60,↑,up,↑,0.791028699837625,True,18
139M18,38,training,60,↑,up,↑,0.8151267000939697,True,18
139M18,39,training,60,→,right,→,0.5497624999843538,True,18
139M18,40,training,60,←,right,→,0.8391956000123173,False,18
139M18,41,training,41,↑,up,↑,0.5418515999335796,True,18
139M18,42,training,30,←,left,←,0.6284437000285834,True,18
139M18,43,experiment,28,→,right,→,0.48148069996386766,True,18
139M18,44,experiment,54,↑,up,↑,1.6016363000962883,True,18
139M18,45,experiment,46,↓,down,↓,0.6751424998510629,True,18
139M18,46,experiment,18,↑,up,↑,0.6126713000703603,True,18
139M18,47,experiment,42,↑,up,↑,0.6803788999095559,True,18
139M18,48,experiment,25,←,left,←,0.6047017001546919,True,18
139M18,49,experiment,40,↑,up,↑,0.5859733999241143,True,18
139M18,50,experiment,43,↑,up,↑,0.6777214000467211,True,18
139M18,51,experiment,38,↓,down,↓,0.8016882000956684,True,18
139M18,52,experiment,60,←,left,←,0.7057260000146925,True,18
139M18,53,experiment,35,→,right,→,1.3344433999154717,True,18
139M18,54,experiment,17,→,right,→,0.8146146999206394,True,18
139M18,55,experiment,27,←,left,←,0.7230394999496639,True,18
139M18,56,experiment,20,↓,down,↓,0.6892282001208514,True,18
139M18,57,experiment,41,↑,up,↑,0.6503409999422729,True,18
139M18,58,experiment,21,↓,down,↓,0.634307499974966,True,18
139M18,59,experiment,47,↑,up,↑,0.6976767000742257,True,18
139M18,60,experiment,53,↑,up,↑,0.7703785998746753,True,18
139M18,61,experiment,50,↓,down,↓,0.7623820998705924,True,18
139M18,62,experiment,22,↓,down,↓,0.7656980000901967,True,18
139M18,63,experiment,33,←,right,→,0.48094419995322824,False,18
139M18,64,experiment,19,↑,up,↑,0.9212195998989046,True,18
139M18,65,experiment,58,→,right,→,0.7816906999796629,True,18
139M18,66,experiment,24,↑,up,↑,0.6143379998393357,True,18
139M18,67,experiment,32,→,left,←,0.8003112999722362,False,18
139M18,68,experiment,45,↑,up,↑,0.5706003000959754,True,18
139M18,69,experiment,44,→,right,→,0.6863021000754088,True,18
139M18,70,experiment,37,←,up,↑,1.1945681998040527,False,18
139M18,71,experiment,55,→,right,→,0.7503028998617083,True,18
139M18,72,experiment,48,←,left,←,0.6805012000259012,True,18
139M18,73,experiment,29,↓,up,↑,1.0096115998458117,False,18
139M18,74,experiment,57,↑,up,↑,1.4837260998319834,True,18
139M18,75,experiment,52,↑,up,↑,0.6299765999428928,True,18
139M18,76,experiment,49,→,right,→,0.5636517000384629,True,18
139M18,77,experiment,39,→,left,←,0.9716171000618488,False,18
139M18,78,experiment,23,→,right,→,0.7015656000003219,True,18
139M18,79,experiment,31,←,left,←,0.684960599988699,True,18
139M18,80,experiment,59,↑,up,↑,0.6582839998882264,True,18
139M18,81,experiment,14,↓,up,↑,1.951260499889031,False,18
139M18,82,experiment,51,→,right,→,0.6792341000400484,True,18
139M18,83,experiment,34,↓,down,↓,0.7976071001030505,True,18
139M18,84,experiment,26,←,down,↓,1.2683474000077695,False,18
139M18,85,experiment,13,→,right,→,0.680912199895829,True,18
139M18,86,experiment,56,↑,up,↑,0.7202142998576164,True,18
139M18,87,experiment,30,↑,up,↑,0.6395809000823647,True,18
139M18,88,experiment,15,←,right,→,0.8123723999597132,False,18
139M18,89,experiment,16,↑,up,↑,0.8418042999692261,True,18
139M18,90,experiment,36,↑,up,↑,0.640431199921295,True,18
139M18,91,training,14,↑,up,↑,0.4996377998031676,True,18
139M18,92,training,51,↓,up,↑,0.8456981000490487,False,18
139M18,93,experiment,43,→,right,→,0.5677398999687284,True,18
139M18,94,experiment,39,→,right,→,0.7750067000743002,True,18
139M18,95,experiment,44,↓,down,↓,0.610930300084874,True,18
139M18,96,experiment,14,←,left,←,0.9615358000155538,True,18
139M18,97,experiment,35,↑,up,↑,0.6043049998115748,True,18
139M18,98,experiment,24,↓,down,↓,0.8442963000852615,True,18
139M18,99,experiment,45,←,left,←,0.5809732000343502,True,18
139M18,100,experiment,25,←,left,←,0.7972983999643475,True,18
139M18,101,experiment,22,←,left,←,0.8389908999670297,True,18
139M18,102,experiment,50,↑,up,↑,0.5803221000824124,True,18
139M18,103,experiment,18,↑,up,↑,0.6415552999824286,True,18
139M18,104,experiment,28,←,left,←,0.47749339998699725,True,18
139M18,105,experiment,33,←,right,→,0.6362067998852581,False,18
139M18,106,experiment,32,←,left,←,0.7258421999868006,True,18
139M18,107,experiment,40,↑,up,↑,0.7824248999822885,True,18
139M18,108,experiment,34,←,left,←,1.1442501998972148,True,18
139M18,109,experiment,37,↑,up,↑,1.0342089000623673,True,18
139M18,110,experiment,46,←,left,←,0.7621599000412971,True,18
139M18,111,experiment,19,↑,up,↑,0.6795372001361102,True,18
139M18,112,experiment,58,→,right,→,0.7502619000151753,True,18
139M18,113,experiment,51,←,left,←,0.7342052001040429,True,18
139M18,114,experiment,55,←,left,←,0.6122673000209033,True,18
139M18,115,experiment,20,←,left,←,0.4870229000225663,True,18
139M18,116,experiment,60,→,right,→,0.5157594999764115,True,18
139M18,117,experiment,13,←,right,→,0.814189399825409,False,18
139M18,118,experiment,30,↑,up,↑,0.561506099998951,True,18
139M18,119,experiment,17,↑,up,↑,0.7682048000860959,True,18
139M18,120,experiment,57,→,up,↑,0.94782520015724,False,18
139M18,121,experiment,36,↓,down,↓,0.8379741001408547,True,18
139M18,122,experiment,56,↑,up,↑,0.5668828999623656,True,18
139M18,123,experiment,52,→,right,→,0.6784499001223594,True,18
139M18,124,experiment,41,←,left,←,0.6955868999939412,True,18
139M18,125,experiment,54,↓,down,↓,1.2161671000067145,True,18
139M18,126,experiment,38,↑,up,↑,0.5822163000702858,True,18
139M18,127,experiment,47,→,right,→,0.7515277001075447,True,18
139M18,128,experiment,23,←,left,←,0.6822617999278009,True,18
139M18,129,experiment,21,←,left,←,0.7928485001903027,True,18
139M18,130,experiment,31,←,left,←,0.6448151001241058,True,18
139M18,131,experiment,42,↑,up,↑,0.6235865999478847,True,18
139M18,132,experiment,49,↓,up,↑,0.5584503000136465,False,18
139M18,133,experiment,26,→,left,←,0.5828162000980228,False,18
139M18,134,experiment,15,→,left,←,0.9337775998283178,False,18
139M18,135,experiment,53,←,left,←,0.5408094997983426,True,18
139M18,136,experiment,59,↓,down,↓,0.7122229000087827,True,18
139M18,137,experiment,27,↑,up,↑,0.5621502001304179,True,18
139M18,138,experiment,16,↓,down,↓,0.569567299913615,True,18
139M18,139,experiment,48,→,right,→,0.5948397000320256,True,18
139M18,140,experiment,29,←,left,←,0.6004043000284582,True,18
139M18,141,training,48,↑,up,↑,0.5788340999279171,True,18
139M18,142,training,23,←,left,←,0.6607956998050213,True,18
139M18,143,experiment,49,→,right,→,0.4821631999220699,True,18
139M18,144,experiment,31,↑,up,↑,0.5461190999485552,True,18
139M18,145,experiment,28,↑,up,↑,0.4981807000003755,True,18
139M18,146,experiment,52,→,right,→,0.6274002001155168,True,18
139M18,147,experiment,34,←,left,←,0.5401763000991195,True,18
139M18,148,experiment,56,←,left,←,0.5536423001904041,True,18
139M18,149,experiment,30,→,right,→,0.519552799873054,True,18
139M18,150,experiment,53,←,right,→,1.0554554001428187,False,18
139M18,151,experiment,44,↑,up,↑,0.552117699990049,True,18
139M18,152,experiment,48,↑,up,↑,0.5302675000857562,True,18
139M18,153,experiment,13,←,left,←,0.5081721001770347,True,18
139M18,154,experiment,15,←,left,←,0.5103750000707805,True,18
139M18,155,experiment,40,↓,down,↓,0.5834472000133246,True,18
139M18,156,experiment,60,←,left,←,0.512126199901104,True,18
139M18,157,experiment,22,→,right,→,0.845634900033474,True,18
139M18,158,experiment,33,↓,right,→,1.278367199935019,False,18
139M18,159,experiment,38,←,no_key,no_letter,-1.0,False,18
139M18,160,experiment,23,→,right,→,0.5967559998389333,True,18
139M18,161,experiment,57,↑,up,↑,0.8950808998197317,True,18
139M18,162,experiment,24,↑,up,↑,0.6436058001127094,True,18
139M18,163,experiment,54,→,right,→,0.5980785000137985,True,18
139M18,164,experiment,37,↓,down,↓,0.6455306001007557,True,18
139M18,165,experiment,47,←,right,→,0.8128170999698341,False,18
139M18,166,experiment,19,←,right,→,0.7120727999135852,False,18
139M18,167,experiment,59,↓,down,↓,0.6049765001516789,True,18
139M18,168,experiment,39,→,right,→,0.5626276999246329,True,18
139M18,169,experiment,41,→,up,↑,1.1054710000753403,False,18
139M18,170,experiment,14,→,up,↑,0.8920445998664945,False,18
139M18,171,experiment,17,↑,up,↑,0.5334767000749707,True,18
139M18,172,experiment,16,↑,up,↑,0.3006049001123756,True,18
139M18,173,experiment,43,↓,up,↑,0.8280437998473644,False,18
139M18,174,experiment,36,←,left,←,0.7473925000522286,True,18
139M18,175,experiment,45,↑,up,↑,0.9034756000619382,True,18
139M18,176,experiment,55,→,right,→,0.5107206001412123,True,18
139M18,177,experiment,25,→,right,→,0.8340602999087423,True,18
139M18,178,experiment,32,↑,no_key,no_letter,-1.0,False,18
139M18,179,experiment,50,↑,up,↑,0.6833937000483274,True,18
139M18,180,experiment,29,→,right,→,0.5247665999922901,True,18
139M18,181,experiment,46,→,right,→,0.43409749981947243,True,18
139M18,182,experiment,51,↓,up,↑,0.7333595999516547,False,18
139M18,183,experiment,27,→,right,→,0.6621154001913965,True,18
139M18,184,experiment,26,→,right,→,0.5466924998909235,True,18
139M18,185,experiment,58,←,right,→,0.74206000007689,False,18
139M18,186,experiment,18,↓,right,→,0.7006717999465764,False,18
139M18,187,experiment,21,→,right,→,0.7306794000323862,True,18
139M18,188,experiment,42,→,left,←,0.5296004000119865,False,18
139M18,189,experiment,20,↓,down,↓,0.5674048999790102,True,18
139M18,190,experiment,35,→,right,→,0.5373401001561433,True,18
139M18,191,training,23,↓,up,↑,0.7087437000591308,False,18
139M18,192,training,32,↑,up,↑,0.5715101999230683,True,18
139M18,193,experiment,59,→,right,→,0.5574805999640375,True,18
139M18,194,experiment,26,←,left,←,0.5020018999930471,True,18
139M18,195,experiment,42,→,right,→,0.6940005000215024,True,18
139M18,196,experiment,40,←,right,→,0.7600033001508564,False,18
139M18,197,experiment,37,←,left,←,0.4894244000315666,True,18
139M18,198,experiment,24,→,right,→,0.526347299804911,True,18
139M18,199,experiment,53,←,down,↓,0.9580049000214785,False,18
139M18,200,experiment,49,↑,down,↓,0.9515649999957532,False,18
139M18,201,experiment,20,←,down,↓,0.5159970999229699,False,18
139M18,202,experiment,28,←,down,↓,0.5966459000483155,False,18
139M18,203,experiment,38,↓,down,↓,0.6272942998912185,True,18
139M18,204,experiment,32,→,right,→,0.501331599894911,True,18
139M18,205,experiment,44,←,up,↑,1.0040825000032783,False,18
139M18,206,experiment,18,→,up,↑,0.7600523999426514,False,18
139M18,207,experiment,39,↑,up,↑,0.6239257999695837,True,18
139M18,208,experiment,46,↓,down,↓,0.7124820998869836,True,18
139M18,209,experiment,56,↓,left,←,1.175297699868679,False,18
139M18,210,experiment,54,←,left,←,0.8046542000956833,True,18
139M18,211,experiment,55,↓,up,↑,1.0959771000780165,False,18
139M18,212,experiment,51,→,right,→,0.5866678000893444,True,18
139M18,213,experiment,19,↓,down,↓,1.198696200037375,True,18
139M18,214,experiment,50,↓,down,↓,0.7332615000195801,True,18
139M18,215,experiment,21,→,right,→,0.569968800060451,True,18
139M18,216,experiment,43,↑,up,↑,0.8226878000423312,True,18
139M18,217,experiment,41,→,left,←,1.0345721999183297,False,18
139M18,218,experiment,57,←,left,←,0.5474982999730855,True,18
139M18,219,experiment,45,→,right,→,0.9352901999372989,True,18
139M18,220,experiment,25,←,left,←,0.5372554999776185,True,18
139M18,221,experiment,60,↑,up,↑,0.6200081000570208,True,18
139M18,222,experiment,30,→,right,→,0.4872806000057608,True,18
139M18,223,experiment,29,↓,down,↓,0.3499261001124978,True,18
139M18,224,experiment,36,→,right,→,0.9458965000230819,True,18
139M18,225,experiment,27,→,left,←,0.610843800008297,False,18
139M18,226,experiment,33,→,right,→,0.7247629999183118,True,18
139M18,227,experiment,31,↓,up,↑,1.1713241001125425,False,18
139M18,228,experiment,14,→,right,→,0.6833639000542462,True,18
139M18,229,experiment,47,↓,down,↓,0.4339070999994874,True,18
139M18,230,experiment,52,↑,up,↑,0.5000726000871509,True,18
139M18,231,experiment,34,↑,up,↑,0.7052605000790209,True,18
139M18,232,experiment,15,↑,up,↑,0.49124090000987053,True,18
139M18,233,experiment,13,←,no_key,no_letter,-1.0,False,18
139M18,234,experiment,17,←,right,→,0.5094687999226153,False,18
139M18,235,experiment,22,→,right,→,0.5465987999923527,True,18
139M18,236,experiment,48,↓,down,↓,1.1245566001161933,True,18
139M18,237,experiment,16,←,up,↑,0.7732392000034451,False,18
139M18,238,experiment,23,↓,down,↓,1.5033158999867737,True,18
139M18,239,experiment,35,←,right,→,1.0040698999073356,False,18
139M18,240,experiment,58,↑,up,↑,0.7331971998792142,True,18
139M18,241,training,24,→,right,→,0.6014688999857754,True,18
139M18,242,training,25,←,left,←,0.6807154000271112,True,18
139M18,243,experiment,25,←,up,↑,1.0124991000629961,False,18
139M18,244,experiment,45,↓,up,↑,0.7906186999753118,False,18
139M18,245,experiment,47,↑,no_key,no_letter,-1.0,False,18
139M18,246,experiment,44,←,right,→,0.49991109990514815,False,18
139M18,247,experiment,54,↑,up,↑,0.603932400001213,True,18
139M18,248,experiment,55,↑,right,→,0.8552166000008583,False,18
139M18,249,experiment,23,↓,down,↓,0.5899081998504698,True,18
139M18,250,experiment,21,↑,up,↑,0.48046129988506436,True,18
139M18,251,experiment,60,↓,down,↓,0.8052401000168175,True,18
139M18,252,experiment,30,→,down,↓,0.6651943000033498,False,18
139M18,253,experiment,59,↑,up,↑,0.5592529000714421,True,18
139M18,254,experiment,53,→,right,→,0.5978249998297542,True,18
139M18,255,experiment,19,↑,left,←,0.4185742998961359,False,18
139M18,256,experiment,56,←,left,←,0.4979163999669254,True,18
139M18,257,experiment,43,↓,down,↓,0.8173106000758708,True,18
139M18,258,experiment,26,↑,up,↑,0.5591795998625457,True,18
139M18,259,experiment,31,↑,up,↑,0.740573899820447,True,18
139M18,260,experiment,32,↑,up,↑,0.4978780001401901,True,18
139M18,261,experiment,27,↓,down,↓,0.5241078999824822,True,18
139M18,262,experiment,58,←,left,←,0.560469500022009,True,18
139M18,263,experiment,38,↓,right,→,0.5691573000513017,False,18
139M18,264,experiment,34,↓,down,↓,0.7718215000350028,True,18
139M18,265,experiment,36,→,right,→,0.49307189998216927,True,18
139M18,266,experiment,40,↓,down,↓,0.7353730001486838,True,18
139M18,267,experiment,51,↓,up,↑,0.783819800009951,False,18
139M18,268,experiment,48,→,right,→,0.5847586998715997,True,18
139M18,269,experiment,33,↓,down,↓,0.5711294999346137,True,18
139M18,270,experiment,22,↓,down,↓,0.5338204998988658,True,18
139M18,271,experiment,35,↑,up,↑,0.6171407999936491,True,18
139M18,272,experiment,39,↓,down,↓,1.758446300169453,True,18
139M18,273,experiment,57,↑,up,↑,0.6344908000901341,True,18
139M18,274,experiment,24,←,left,←,0.6091096000745893,True,18
139M18,275,experiment,14,←,left,←,0.5038850998971611,True,18
139M18,276,experiment,52,←,right,→,0.5771086998283863,False,18
139M18,277,experiment,50,←,right,→,0.4891965000424534,False,18
139M18,278,experiment,20,←,right,→,0.536434100009501,False,18
139M18,279,experiment,46,↑,up,↑,0.7405648999847472,True,18
139M18,280,experiment,15,↑,up,↑,0.7654226999729872,True,18
139M18,281,experiment,13,←,up,↑,0.9898628001101315,False,18
139M18,282,experiment,49,↓,left,←,0.7738273001741618,False,18
139M18,283,experiment,29,→,right,→,0.6998467999510467,True,18
139M18,284,experiment,18,↓,down,↓,0.604069699998945,True,18
139M18,285,experiment,42,↑,up,↑,0.5839029001072049,True,18
139M18,286,experiment,37,←,left,←,0.4958005000371486,True,18
139M18,287,experiment,17,→,right,→,1.0090858000330627,True,18
139M18,288,experiment,28,←,left,←,0.7505459999665618,True,18
139M18,289,experiment,41,→,right,→,0.5491145001724362,True,18
139M18,290,experiment,16,→,right,→,0.36747709987685084,True,18
139M18,291,training,37,←,left,←,1.3544995998963714,True,18
139M18,292,training,36,↑,up,↑,0.6524905001278967,True,18
139M18,293,experiment,28,↑,up,↑,0.5197570000309497,True,18
139M18,294,experiment,29,↓,down,↓,0.7517792999278754,True,18
139M18,295,experiment,39,→,right,→,0.5998442000709474,True,18
139M18,296,experiment,52,→,right,→,0.7891543000005186,True,18
139M18,297,experiment,48,↓,down,↓,0.9417000999674201,True,18
139M18,298,experiment,24,←,left,←,0.8564090998843312,True,18
139M18,299,experiment,37,↑,up,↑,0.8538476000539958,True,18
139M18,300,experiment,32,↑,up,↑,0.7344397001434118,True,18
139M18,301,experiment,55,↓,down,↓,0.7884025999810547,True,18
139M18,302,experiment,38,↓,down,↓,0.7403541000094265,True,18
139M18,303,experiment,34,→,down,↓,0.8557359001133591,False,18
139M18,304,experiment,49,→,right,→,0.6290651999879628,True,18
139M18,305,experiment,56,↓,down,↓,0.7030639001168311,True,18
139M18,306,experiment,17,↓,down,↓,0.8157514999620616,True,18
139M18,307,experiment,54,↓,down,↓,0.8271061999257654,True,18
139M18,308,experiment,42,←,left,←,0.9023210001178086,True,18
139M18,309,experiment,19,↓,left,←,1.3979662999045104,False,18
139M18,310,experiment,43,←,right,→,1.1930835000239313,False,18
139M18,311,experiment,60,↓,down,↓,0.8178822998888791,True,18
139M18,312,experiment,23,→,right,→,0.5218296002130955,True,18
139M18,313,experiment,33,↑,up,↑,0.6471606001723558,True,18
139M18,314,experiment,21,→,right,→,1.2550055000465363,True,18
139M18,315,experiment,26,←,left,←,0.7957342001609504,True,18
139M18,316,experiment,58,←,left,←,0.7817590001504868,True,18
139M18,317,experiment,20,→,left,←,0.7692917000968009,False,18
139M18,318,experiment,53,↑,up,↑,0.7753478998783976,True,18
139M18,319,experiment,46,→,right,→,0.6577363000251353,True,18
139M18,320,experiment,57,↑,up,↑,0.5538913998752832,True,18
139M18,321,experiment,27,→,right,→,0.6737488999497145,True,18
139M18,322,experiment,30,↓,down,↓,0.7390109999105334,True,18
139M18,323,experiment,35,←,left,←,1.654310300014913,True,18
139M18,324,experiment,51,↓,down,↓,0.6743244000244886,True,18
139M18,325,experiment,47,↑,up,↑,0.5846323999576271,True,18
139M18,326,experiment,15,←,right,→,0.9350075998809189,False,18
139M18,327,experiment,45,↓,down,↓,0.8196785999462008,True,18
139M18,328,experiment,36,→,left,←,0.7869986000005156,False,18
139M18,329,experiment,59,↑,down,↓,0.9723264998756349,False,18
139M18,330,experiment,31,↓,down,↓,0.7850852999836206,True,18
139M18,331,experiment,14,↓,down,↓,0.7044963000807911,True,18
139M18,332,experiment,40,←,left,←,0.7618836998008192,True,18
139M18,333,experiment,50,↑,up,↑,0.8345129999797791,True,18
139M18,334,experiment,25,↓,down,↓,0.7523393998853862,True,18
139M18,335,experiment,13,←,left,←,0.6337077999487519,True,18
139M18,336,experiment,16,↑,up,↑,0.7097578998655081,True,18
139M18,337,experiment,22,↓,down,↓,0.7152223000302911,True,18
139M18,338,experiment,41,→,right,→,0.6030106998514384,True,18
139M18,339,experiment,18,↓,left,←,0.7269945999141783,False,18
139M18,340,experiment,44,→,left,←,0.5010649000760168,False,18
139M18,341,training,51,↓,down,↓,0.5909795998595655,True,18
139M18,342,training,51,↓,down,↓,0.669634599937126,True,18
139M18,343,experiment,27,←,left,←,0.5370112999808043,True,18
139M18,344,experiment,52,↑,up,↑,0.7209401000291109,True,18
139M18,345,experiment,16,↑,up,↑,0.5136017999611795,True,18
139M18,346,experiment,44,↓,up,↑,0.8635503998957574,False,18
139M18,347,experiment,35,→,right,→,1.5976658000145108,True,18
139M18,348,experiment,15,←,left,←,0.5636363998055458,True,18
139M18,349,experiment,25,↓,down,↓,0.5804033000022173,True,18
139M18,350,experiment,47,→,right,→,0.6220074999146163,True,18
139M18,351,experiment,38,↑,up,↑,0.6516699001658708,True,18
139M18,352,experiment,13,↓,down,↓,0.6729562000837177,True,18
139M18,353,experiment,32,→,right,→,0.49696689983829856,True,18
139M18,354,experiment,51,←,left,←,0.6110931001603603,True,18
139M18,355,experiment,43,→,right,→,0.5342687999363989,True,18
139M18,356,experiment,40,↓,left,←,0.5265329999383539,False,18
139M18,357,experiment,48,→,right,→,0.641671999823302,True,18
139M18,358,experiment,36,↑,down,↓,0.4965499001555145,False,18
139M18,359,experiment,55,←,left,←,0.7035781000740826,True,18
139M18,360,experiment,26,→,right,→,0.48225190001539886,True,18
139M18,361,experiment,53,←,left,←,0.6355936999898404,True,18
139M18,362,experiment,46,→,right,→,0.6756108999252319,True,18
139M18,363,experiment,56,↑,up,↑,0.8755801999941468,True,18
139M18,364,experiment,57,↑,up,↑,0.6829228999558836,True,18
139M18,365,experiment,30,←,left,←,0.539682500064373,True,18
139M18,366,experiment,29,↓,down,↓,0.8029376000631601,True,18
139M18,367,experiment,31,←,left,←,0.78241530014202,True,18
139M18,368,experiment,45,→,right,→,0.553068800130859,True,18
139M18,369,experiment,49,↓,down,↓,0.6102611001115292,True,18
139M18,370,experiment,20,→,right,→,0.8049447000958025,True,18
139M18,371,experiment,60,→,right,→,0.637182499980554,True,18
139M18,372,experiment,33,↑,up,↑,0.9015728998929262,True,18
139M18,373,experiment,50,↓,down,↓,0.6964488001540303,True,18
139M18,374,experiment,39,→,right,→,0.5222704000771046,True,18
139M18,375,experiment,59,→,right,→,0.7263501000124961,True,18
139M18,376,experiment,58,→,right,→,0.5472091999836266,True,18
139M18,377,experiment,37,→,right,→,0.6209299000911415,True,18
139M18,378,experiment,23,→,right,→,0.532961199991405,True,18
139M18,379,experiment,17,←,left,←,0.6121900000143796,True,18
139M18,380,experiment,24,←,up,↑,1.5164826998952776,False,18
139M18,381,experiment,14,→,right,→,0.6542962999083102,True,18
139M18,382,experiment,21,↓,right,→,0.9182156000752002,False,18
139M18,383,experiment,22,→,right,→,0.858853799989447,True,18
139M18,384,experiment,41,↑,right,→,0.8295305999927223,False,18
139M18,385,experiment,34,←,right,→,0.6221944000571966,False,18
139M18,386,experiment,28,←,left,←,0.6111090001650155,True,18
139M18,387,experiment,18,→,right,→,0.6068492000922561,True,18
139M18,388,experiment,42,↓,down,↓,1.322775200009346,True,18
139M18,389,experiment,19,↓,down,↓,0.6735100999940187,True,18
139M18,390,experiment,54,↑,up,↑,0.7548598998691887,True,18
139M18,391,training,39,↑,up,↑,1.3581922999583185,True,18
139M18,392,training,52,↓,left,←,0.4342734001111239,False,18
139M18,393,experiment,51,↑,up,↑,1.193435600027442,True,18
139M18,394,experiment,37,→,right,→,0.5055140999611467,True,18
139M18,395,experiment,54,←,left,←,0.6336014999542385,True,18
139M18,396,experiment,56,↑,down,↓,0.915401800069958,False,18
139M18,397,experiment,17,↓,down,↓,0.7548076999373734,True,18
139M18,398,experiment,42,→,right,→,0.7208602998871356,True,18
139M18,399,experiment,24,→,right,→,0.6682297999504954,True,18
139M18,400,experiment,47,↑,up,↑,0.6823120000772178,True,18
139M18,401,experiment,22,→,right,→,0.6402143000159413,True,18
139M18,402,experiment,19,→,right,→,0.6341496000532061,True,18
139M18,403,experiment,58,↑,up,↑,0.6902441999409348,True,18
139M18,404,experiment,18,→,right,→,0.49879919993691146,True,18
139M18,405,experiment,25,↑,up,↑,0.47071860008873045,True,18
139M18,406,experiment,53,→,right,→,0.5674827001057565,True,18
139M18,407,experiment,41,←,left,←,0.509786400012672,True,18
139M18,408,experiment,48,↑,up,↑,0.6735650000628084,True,18
139M18,409,experiment,13,→,left,←,0.6621797999832779,False,18
139M18,410,experiment,45,↑,up,↑,0.6866155001334846,True,18
139M18,411,experiment,35,↑,up,↑,0.9475117998663336,True,18
139M18,412,experiment,32,←,left,←,0.7121745001059026,True,18
139M18,413,experiment,28,←,left,←,0.7774447000119835,True,18
139M18,414,experiment,38,→,right,→,0.5456004000734538,True,18
139M18,415,experiment,59,→,right,→,0.5807095000054687,True,18
139M18,416,experiment,16,↓,down,↓,1.4267724000383168,True,18
139M18,417,experiment,39,↓,up,↑,0.6561932999175042,False,18
139M18,418,experiment,33,←,left,←,0.6643821999896318,True,18
139M18,419,experiment,43,←,left,←,0.792834899853915,True,18
139M18,420,experiment,60,→,no_key,no_letter,-1.0,False,18
139M18,421,experiment,26,↑,up,↑,0.681471899850294,True,18
139M18,422,experiment,29,←,no_key,no_letter,-1.0,False,18
139M18,423,experiment,36,←,left,←,0.5482461999636143,True,18
139M18,424,experiment,14,←,left,←,0.7887279000133276,True,18
139M18,425,experiment,31,→,right,→,0.4167250001337379,True,18
139M18,426,experiment,50,↓,left,←,0.5101194998715073,False,18
139M18,427,experiment,23,↓,down,↓,0.5548256000038236,True,18
139M18,428,experiment,46,→,right,→,0.6140657998621464,True,18
139M18,429,experiment,30,↓,down,↓,0.6655023999046534,True,18
139M18,430,experiment,20,↑,up,↑,0.7373965000733733,True,18
139M18,431,experiment,40,→,down,↓,1.1934058999177068,False,18
139M18,432,experiment,57,→,right,→,0.6041554999537766,True,18
139M18,433,experiment,15,↓,left,←,1.698102599941194,False,18
139M18,434,experiment,55,↑,left,←,1.2255283000413328,False,18
139M18,435,experiment,52,→,right,→,1.470105400076136,True,18
139M18,436,experiment,44,↑,up,↑,0.902195299975574,True,18
139M18,437,experiment,34,↓,up,↑,0.9234209000132978,False,18
139M18,438,experiment,49,↑,up,↑,0.6702790998388082,True,18
139M18,439,experiment,21,↑,right,→,0.6453609999734908,False,18
139M18,440,experiment,27,←,left,←,0.5223503999877721,True,18
139M18,441,training,41,↓,down,↓,0.5128971999511123,True,18
139M18,442,training,54,←,left,←,0.5207233999390155,True,18
139M18,443,experiment,16,→,right,→,0.43396069994196296,True,18
139M18,444,experiment,49,↑,up,↑,0.6545814999844879,True,18
139M18,445,experiment,47,→,right,→,0.5254418000113219,True,18
139M18,446,experiment,39,←,left,←,0.5108018999453634,True,18
139M18,447,experiment,25,←,left,←,0.5300302000250667,True,18
139M18,448,experiment,32,↑,up,↑,0.4953191999811679,True,18
139M18,449,experiment,30,←,left,←,0.5440868998412043,True,18
139M18,450,experiment,28,↑,up,↑,0.6080302000045776,True,18
139M18,451,experiment,20,↑,up,↑,0.5627267002128065,True,18
139M18,452,experiment,36,←,left,←,0.5887920001987368,True,18
139M18,453,experiment,21,←,left,←,0.535416099941358,True,18
139M18,454,experiment,56,→,right,→,0.5329088000580668,True,18
139M18,455,experiment,17,→,left,←,0.5721903999801725,False,18
139M18,456,experiment,58,↓,down,↓,0.7828681000974029,True,18
139M18,457,experiment,35,→,left,←,0.5042882999405265,False,18
139M18,458,experiment,13,→,right,→,0.6354102999903262,True,18
139M18,459,experiment,42,←,left,←,0.9101582001894712,True,18
139M18,460,experiment,24,←,left,←,0.5861168999690562,True,18
139M18,461,experiment,57,→,right,→,1.468764299992472,True,18
139M18,462,experiment,29,→,right,→,0.5667601001914591,True,18
139M18,463,experiment,18,↓,down,↓,0.7400266998447478,True,18
139M18,464,experiment,23,↓,down,↓,0.7673061001114547,True,18
139M18,465,experiment,38,→,right,→,0.5676117001567036,True,18
139M18,466,experiment,34,→,right,→,0.826116600073874,True,18
139M18,467,experiment,44,←,left,←,0.7159842997789383,True,18
139M18,468,experiment,31,↓,down,↓,1.5626535001210868,True,18
139M18,469,experiment,55,→,right,→,0.8960201998706907,True,18
139M18,470,experiment,52,↓,down,↓,0.61024389998056,True,18
139M18,471,experiment,14,→,right,→,1.6249122999142855,True,18
139M18,472,experiment,40,→,right,→,0.6373352000955492,True,18
139M18,473,experiment,46,→,right,→,0.5414030998945236,True,18
139M18,474,experiment,15,←,left,←,0.5500499000772834,True,18
139M18,475,experiment,19,→,right,→,0.7072681998834014,True,18
139M18,476,experiment,26,←,left,←,0.5582021998707205,True,18
139M18,477,experiment,53,↓,down,↓,0.6606898999307305,True,18
139M18,478,experiment,41,←,left,←,0.6074037000071257,True,18
139M18,479,experiment,37,→,right,→,0.5128500999417156,True,18
139M18,480,experiment,51,↑,up,↑,0.5600184998475015,True,18
139M18,481,experiment,33,↓,down,↓,0.6285064998082817,True,18
139M18,482,experiment,60,↑,up,↑,1.1394966000225395,True,18
139M18,483,experiment,22,↑,left,←,0.9913594999816269,False,18
139M18,484,experiment,48,↓,down,↓,0.6880882000550628,True,18
139M18,485,experiment,27,←,left,←,0.6026268000714481,True,18
139M18,486,experiment,45,↑,up,↑,0.7166611000429839,True,18
139M18,487,experiment,43,↑,up,↑,0.5473215999081731,True,18
139M18,488,experiment,50,←,left,←,0.5959483999758959,True,18
139M18,489,experiment,59,↑,down,↓,0.5892946999520063,False,18
139M18,490,experiment,54,→,right,→,0.5859785999637097,True,18
139M18,491,training,42,↓,up,↑,0.674677399918437,False,17
139M18,492,training,51,↓,left,←,0.454541000071913,False,17
139M18,493,experiment,56,↓,down,↓,0.6943141000811011,True,17
139M18,494,experiment,50,↓,down,↓,0.6975881999824196,True,17
139M18,495,experiment,19,→,right,→,0.6245578001253307,True,17
139M18,496,experiment,42,↑,up,↑,0.6039273000787944,True,17
139M18,497,experiment,18,↓,down,↓,0.5679196999408305,True,17
139M18,498,experiment,41,←,left,←,0.5899042999371886,True,17
139M18,499,experiment,24,←,left,←,0.5826220000162721,True,17
139M18,500,experiment,59,↓,down,↓,0.5919073999393731,True,17
139M18,501,experiment,14,↓,down,↓,0.6712162001058459,True,17
139M18,502,experiment,52,←,left,←,0.5700600000564009,True,17
139M18,503,experiment,60,→,right,→,0.6352341999299824,True,17
139M18,504,experiment,20,→,right,→,0.724898099899292,True,17
139M18,505,experiment,38,→,right,→,0.6625264000613242,True,17
139M18,506,experiment,45,←,left,←,0.6625484998803586,True,17
139M18,507,experiment,27,↑,up,↑,0.7386092999950051,True,17
139M18,508,experiment,40,↑,up,↑,0.5945629000198096,True,17
139M18,509,experiment,32,↑,no_key,no_letter,-1.0,False,17
139M18,510,experiment,23,↓,up,↑,0.9606280999723822,False,17
139M18,511,experiment,34,↑,up,↑,0.4839361000340432,True,17
139M18,512,experiment,44,↓,down,↓,0.6112961999606341,True,17
139M18,513,experiment,58,←,left,←,0.604516200022772,True,17
139M18,514,experiment,13,←,left,←,1.947861700085923,True,17
139M18,515,experiment,17,↓,down,↓,0.7477360998746008,True,17
139M18,516,experiment,28,↑,up,↑,1.0897365000564605,True,17
139M18,517,experiment,21,←,left,←,0.5927458999212831,True,17
139M18,518,experiment,51,←,left,←,0.7272175999823958,True,17
139M18,519,experiment,35,→,right,→,0.6031983001157641,True,17
139M18,520,experiment,33,↑,up,↑,0.645192300202325,True,17
139M18,521,experiment,15,→,right,→,0.6738487998954952,True,17
139M18,522,experiment,47,→,right,→,0.7439433999825269,True,17
139M18,523,experiment,48,↓,up,↑,0.8745222999714315,False,17
139M18,524,experiment,49,←,left,←,0.7911842002067715,True,17
139M18,525,experiment,30,↓,up,↑,0.8438907999079674,False,17
139M18,526,experiment,46,↓,down,↓,0.6599231001455337,True,17
139M18,527,experiment,43,↓,left,←,0.6051994001027197,False,17
139M18,528,experiment,39,→,right,→,0.7632788999471813,True,17
139M18,529,experiment,53,↓,down,↓,0.705270699923858,True,17
139M18,530,experiment,57,→,right,→,0.7351738000288606,True,17
139M18,531,experiment,16,←,right,→,0.8794233999215066,False,17
139M18,532,experiment,26,↑,up,↑,0.7072454001754522,True,17
139M18,533,experiment,37,←,left,←,0.7585565999615937,True,17
139M18,534,experiment,22,→,left,←,1.1618392998352647,False,17
139M18,535,experiment,55,↑,up,↑,0.6712100999429822,True,17
139M18,536,experiment,54,←,left,←,0.6806246000342071,True,17
139M18,537,experiment,29,←,left,←,0.7138088999781758,True,17
139M18,538,experiment,25,→,right,→,0.7245390000753105,True,17
139M18,539,experiment,36,↑,up,↑,0.8799607001710683,True,17
139M18,540,experiment,31,↓,up,↑,0.8641184000298381,False,17
139M18,541,training,25,↓,down,↓,0.6278254999779165,True,17
139M18,542,training,48,↑,up,↑,0.6912720000836998,True,17
139M18,543,experiment,18,→,right,→,0.539826099993661,True,17
139M18,544,experiment,29,←,left,←,0.6672952999360859,True,17
139M18,545,experiment,33,←,left,←,0.4510652001481503,True,17
139M18,546,experiment,19,←,right,→,0.5472721999976784,False,17
139M18,547,experiment,16,↑,up,↑,0.5305629998911172,True,17
139M18,548,experiment,13,↑,up,↑,0.8205483998171985,True,17
139M18,549,experiment,28,←,left,←,0.7052384000271559,True,17
139M18,550,experiment,50,↓,down,↓,0.7238057998474687,True,17
139M18,551,experiment,31,→,right,→,0.5224864000920206,True,17
139M18,552,experiment,26,→,left,←,0.5005228999070823,False,17
139M18,553,experiment,49,↓,down,↓,0.575791799928993,True,17
139M18,554,experiment,34,→,left,←,0.45847780001349747,False,17
139M18,555,experiment,32,→,right,→,0.746341299964115,True,17
139M18,556,experiment,40,←,left,←,0.6977694001980126,True,17
139M18,557,experiment,43,→,right,→,0.6733808999415487,True,17
139M18,558,experiment,60,↓,down,↓,0.5426140001509339,True,17
139M18,559,experiment,35,←,right,→,0.7381037999875844,False,17
139M18,560,experiment,37,↑,up,↑,0.5878667000215501,True,17
139M18,561,experiment,15,↑,up,↑,0.5784269000869244,True,17
139M18,562,experiment,22,←,right,→,0.9091163999401033,False,17
139M18,563,experiment,42,→,right,→,0.7317226999439299,True,17
139M18,564,experiment,55,→,right,→,0.5297727000433952,True,17
139M18,565,experiment,58,←,left,←,0.7577900001779199,True,17
139M18,566,experiment,23,←,left,←,0.5123970001004636,True,17
139M18,567,experiment,21,↑,up,↑,0.6544735999777913,True,17
139M18,568,experiment,54,→,right,→,0.8965771000366658,True,17
139M18,569,experiment,51,↑,up,↑,0.6186079999897629,True,17
139M18,570,experiment,17,→,right,→,0.5743773998692632,True,17
139M18,571,experiment,45,→,right,→,0.6662929998710752,True,17
139M18,572,experiment,20,↓,down,↓,0.6577232999261469,True,17
139M18,573,experiment,48,↓,down,↓,0.5999592998996377,True,17
139M18,574,experiment,36,→,right,→,0.5757279000245035,True,17
139M18,575,experiment,57,↓,down,↓,0.6350986999459565,True,17
139M18,576,experiment,47,→,right,→,0.9304554001428187,True,17
139M18,577,experiment,27,←,up,↑,1.051179900066927,False,17
139M18,578,experiment,14,↑,up,↑,0.5519463999662548,True,17
139M18,579,experiment,46,↓,down,↓,0.7550388001836836,True,17
139M18,580,experiment,41,←,left,←,0.6498597001191229,True,17
139M18,581,experiment,24,←,left,←,0.6077225999906659,True,17
139M18,582,experiment,52,↓,down,↓,0.749057199805975,True,17
139M18,583,experiment,38,↑,up,↑,0.6857147000264376,True,17
139M18,584,experiment,44,↑,up,↑,0.6692484000232071,True,17
139M18,585,experiment,30,↓,down,↓,0.6384256000164896,True,17
139M18,586,experiment,53,↓,down,↓,0.5937320999801159,True,17
139M18,587,experiment,39,→,left,←,0.5365339000709355,False,17
139M18,588,experiment,25,→,right,→,0.5546006001532078,True,17
139M18,589,experiment,59,←,left,←,0.49309689993970096,True,17
139M18,590,experiment,56,←,right,→,0.6525649998802692,False,17
