PART_ID,Trial_no,Trial_type,CSI,Stim_letter,Key_pressed,letter_choose,Rt,Corr,Stimulus Time
144K21,1,training,60,↓,no_key,no_letter,-1.0,False,30
144K21,2,training,60,←,no_key,no_letter,-1.0,False,30
144K21,3,training,60,←,left,←,0.6943521001376212,True,30
144K21,4,training,60,↓,down,↓,0.7777519999071956,True,30
144K21,5,training,60,←,left,←,0.6179613000713289,True,30
144K21,6,training,60,←,right,→,0.46822809986770153,False,30
144K21,7,training,60,←,left,←,0.5844616000540555,True,30
144K21,8,training,60,↑,up,↑,0.817327699624002,True,30
144K21,9,training,60,↑,up,↑,0.5846282001584768,True,30
144K21,10,training,60,←,left,←,1.3586758999153972,True,30
144K21,11,training,60,↑,up,↑,0.5832165000028908,True,30
144K21,12,training,60,←,left,←,0.6173756998032331,True,30
144K21,13,training,60,↑,up,↑,0.4168451000005007,True,30
144K21,14,training,60,→,left,←,1.3206973997876048,False,30
144K21,15,training,60,↓,down,↓,0.6340075000189245,True,30
144K21,16,training,60,↑,up,↑,0.6001209001988173,True,30
144K21,17,training,60,→,right,→,0.7279006000608206,True,30
144K21,18,training,60,↑,up,↑,0.567147099878639,True,30
144K21,19,training,60,↓,down,↓,0.7776172002777457,True,30
144K21,20,training,60,←,left,←,0.5842079999856651,True,30
144K21,21,training,60,↓,down,↓,0.6547836000099778,True,18
144K21,22,training,60,↑,down,↓,0.5400102999992669,False,18
144K21,23,training,60,↓,down,↓,0.654033999890089,True,18
144K21,24,training,60,→,right,→,0.6753789996728301,True,18
144K21,25,training,60,↓,down,↓,0.5760123003274202,True,18
144K21,26,training,60,↑,up,↑,0.7199832000769675,True,18
144K21,27,training,60,↓,down,↓,0.6349846003577113,True,18
144K21,28,training,60,↑,up,↑,0.5129040996544063,True,18
144K21,29,training,60,↓,down,↓,0.6193097000941634,True,18
144K21,30,training,60,←,left,←,1.0422478998079896,True,18
144K21,31,training,60,↑,up,↑,0.5519154001958668,True,18
144K21,32,training,60,←,left,←,0.5533896000124514,True,18
144K21,33,training,60,↑,up,↑,0.5548761999234557,True,18
144K21,34,training,60,↓,down,↓,0.8200086001306772,True,18
144K21,35,training,60,↑,up,↑,0.6029214998707175,True,18
144K21,36,training,60,↑,up,↑,0.6500372998416424,True,18
144K21,37,training,60,→,right,→,0.5516936001367867,True,18
144K21,38,training,60,↓,down,↓,0.6009224001318216,True,18
144K21,39,training,60,←,left,←,0.7922592000104487,True,18
144K21,40,training,60,←,right,→,0.8479214999824762,False,18
144K21,41,training,58,↑,up,↑,0.5331795001402497,True,18
144K21,42,training,35,←,right,→,0.8646300998516381,False,18
144K21,43,experiment,25,↓,down,↓,0.9172621998004615,True,18
144K21,44,experiment,14,→,right,→,0.5432764999568462,True,18
144K21,45,experiment,49,↓,down,↓,0.6252933996729553,True,18
144K21,46,experiment,29,→,right,→,0.4340041000396013,True,18
144K21,47,experiment,60,↓,up,↑,0.6514972997829318,False,18
144K21,48,experiment,28,↓,down,↓,0.8386172000318766,True,18
144K21,49,experiment,21,→,up,↑,0.6072669001296163,False,18
144K21,50,experiment,19,↑,up,↑,0.5708040003664792,True,18
144K21,51,experiment,57,←,right,→,0.6779621997848153,False,18
144K21,52,experiment,54,↑,up,↑,0.5594635000452399,True,18
144K21,53,experiment,35,↓,down,↓,0.5938888001255691,True,18
144K21,54,experiment,51,↑,up,↑,0.712492199614644,True,18
144K21,55,experiment,15,↑,up,↑,0.594540299847722,True,18
144K21,56,experiment,16,←,left,←,0.7205571001395583,True,18
144K21,57,experiment,36,→,right,→,1.2759380000643432,True,18
144K21,58,experiment,59,←,left,←,0.43377930019050837,True,18
144K21,59,experiment,45,↓,down,↓,1.1778867999091744,True,18
144K21,60,experiment,33,←,left,←,0.6932125999592245,True,18
144K21,61,experiment,48,←,right,→,0.66589460009709,False,18
144K21,62,experiment,34,→,right,→,0.7365603996440768,True,18
144K21,63,experiment,30,↑,left,←,0.41721059987321496,False,18
144K21,64,experiment,17,→,right,→,0.41723989974707365,True,18
144K21,65,experiment,50,←,left,←,0.5279308999888599,True,18
144K21,66,experiment,55,→,right,→,0.5588394999504089,True,18
144K21,67,experiment,47,↓,down,↓,0.5132813998498023,True,18
144K21,68,experiment,44,↓,down,↓,0.5599869000725448,True,18
144K21,69,experiment,24,→,right,→,0.41724020009860396,True,18
144K21,70,experiment,20,→,left,←,0.49932519998401403,False,18
144K21,71,experiment,13,↓,down,↓,0.494654499925673,True,18
144K21,72,experiment,27,↓,right,→,0.5772553998976946,False,18
144K21,73,experiment,42,←,left,←,0.5186012000776827,True,18
144K21,74,experiment,40,↓,down,↓,0.6392363999038935,True,18
144K21,75,experiment,37,↓,down,↓,0.5892656999640167,True,18
144K21,76,experiment,31,↑,up,↑,0.5131874000653625,True,18
144K21,77,experiment,38,→,right,→,0.4672485999763012,True,18
144K21,78,experiment,58,←,left,←,0.6492771999910474,True,18
144K21,79,experiment,39,→,right,→,1.181229299865663,True,18
144K21,80,experiment,23,↑,up,↑,0.966662600170821,True,18
144K21,81,experiment,41,→,left,←,0.5325986999087036,False,18
144K21,82,experiment,26,↑,up,↑,0.5420002001337707,True,18
144K21,83,experiment,32,↑,up,↑,0.9231219999492168,True,18
144K21,84,experiment,18,→,right,→,0.4001475996337831,True,18
144K21,85,experiment,56,←,left,←,0.588503799866885,True,18
144K21,86,experiment,53,↑,up,↑,0.4342042999342084,True,18
144K21,87,experiment,46,←,right,→,1.089188499841839,False,18
144K21,88,experiment,43,↑,up,↑,1.0172752998769283,True,18
144K21,89,experiment,22,↑,up,↑,0.5778851001523435,True,18
144K21,90,experiment,52,→,right,→,0.7044794000685215,True,18
144K21,91,training,34,↑,up,↑,0.7131833001039922,True,18
144K21,92,training,39,↑,up,↑,0.8991562998853624,True,18
144K21,93,experiment,20,←,right,→,0.9217383000068367,False,18
144K21,94,experiment,43,←,left,←,0.40032760007306933,True,18
144K21,95,experiment,50,↑,up,↑,0.6144950999878347,True,18
144K21,96,experiment,24,↑,up,↑,0.5658060000278056,True,18
144K21,97,experiment,35,↑,up,↑,0.6321299001574516,True,18
144K21,98,experiment,29,↓,up,↑,0.5071708997711539,False,18
144K21,99,experiment,28,←,up,↑,0.6288200998678803,False,18
144K21,100,experiment,15,↑,up,↑,0.8660112000070512,True,18
144K21,101,experiment,34,→,right,→,0.48838880006223917,True,18
144K21,102,experiment,26,←,up,↑,0.7557763000950217,False,18
144K21,103,experiment,17,←,left,←,0.8504604999907315,True,18
144K21,104,experiment,47,←,left,←,0.7530984999611974,True,18
144K21,105,experiment,13,↑,left,←,0.43439870001748204,False,18
144K21,106,experiment,21,←,left,←,0.3839000998996198,True,18
144K21,107,experiment,45,←,left,←,0.5007430999539793,True,18
144K21,108,experiment,44,←,right,→,0.7952709002420306,False,18
144K21,109,experiment,55,→,right,→,0.368009100202471,True,18
144K21,110,experiment,40,←,right,→,0.5964342998340726,False,18
144K21,111,experiment,58,→,right,→,0.7337553999386728,True,18
144K21,112,experiment,14,↑,up,↑,0.6874787998385727,True,18
144K21,113,experiment,54,↓,up,↑,0.7679983000271022,False,18
144K21,114,experiment,25,←,left,←,0.4724412998184562,True,18
144K21,115,experiment,32,↑,up,↑,0.7117850999347866,True,18
144K21,116,experiment,57,↓,up,↑,0.5340309999883175,False,18
144K21,117,experiment,41,↓,down,↓,0.8293025000020862,True,18
144K21,118,experiment,18,←,left,←,0.6878581997007132,True,18
144K21,119,experiment,19,→,right,→,0.5198486996814609,True,18
144K21,120,experiment,31,→,right,→,0.7425567000173032,True,18
144K21,121,experiment,59,↓,up,↑,0.8260107999667525,False,18
144K21,122,experiment,52,↓,down,↓,0.910345499869436,True,18
144K21,123,experiment,39,↑,up,↑,0.7447168002836406,True,18
144K21,124,experiment,23,→,right,→,0.8444742998108268,True,18
144K21,125,experiment,60,↑,up,↑,0.6344320997595787,True,18
144K21,126,experiment,53,←,right,→,0.7018355000764132,False,18
144K21,127,experiment,48,→,up,↑,0.7218148997053504,False,18
144K21,128,experiment,46,←,up,↑,0.8147444999776781,False,18
144K21,129,experiment,16,↓,up,↑,1.291349200066179,False,18
144K21,130,experiment,33,↑,up,↑,0.8181163002736866,True,18
144K21,131,experiment,37,↓,up,↑,0.7764127003028989,False,18
144K21,132,experiment,51,↑,up,↑,0.5599001999944448,True,18
144K21,133,experiment,56,→,right,→,0.6126019000075758,True,18
144K21,134,experiment,27,↑,up,↑,0.6504005999304354,True,18
144K21,135,experiment,38,→,right,→,0.7111496003344655,True,18
144K21,136,experiment,36,←,right,→,0.9552062996663153,False,18
144K21,137,experiment,42,↑,up,↑,0.5370642002671957,True,18
144K21,138,experiment,22,↓,up,↑,1.0050482000224292,False,18
144K21,139,experiment,30,←,right,→,0.6410924000665545,False,18
144K21,140,experiment,49,←,up,↑,0.7510393001139164,False,18
144K21,141,training,21,↓,down,↓,0.6903805998153985,True,18
144K21,142,training,18,↑,up,↑,0.5636305999942124,True,18
144K21,143,experiment,53,↓,down,↓,0.7453681998886168,True,18
144K21,144,experiment,26,←,left,←,0.5303524001501501,True,18
144K21,145,experiment,17,↑,left,←,0.77777239959687,False,18
144K21,146,experiment,50,↓,up,↑,0.8176333997398615,False,18
144K21,147,experiment,23,→,right,→,0.9936855998821557,True,18
144K21,148,experiment,60,↓,down,↓,0.786385899875313,True,18
144K21,149,experiment,40,→,right,→,0.43427419988438487,True,18
144K21,150,experiment,41,↑,up,↑,0.7633435004390776,True,18
144K21,151,experiment,27,↑,up,↑,0.48298770003020763,True,18
144K21,152,experiment,54,←,left,←,1.1157223000191152,True,18
144K21,153,experiment,35,↓,up,↑,0.8476642002351582,False,18
144K21,154,experiment,42,←,left,←,0.6416361001320183,True,18
144K21,155,experiment,13,←,left,←,0.7197552998550236,True,18
144K21,156,experiment,15,↑,up,↑,0.6969401999376714,True,18
144K21,157,experiment,31,↓,up,↑,1.008292100392282,False,18
144K21,158,experiment,59,↓,down,↓,0.6889842003583908,True,18
144K21,159,experiment,33,↓,down,↓,0.5196941997855902,True,18
144K21,160,experiment,20,↓,down,↓,0.48670349968597293,True,18
144K21,161,experiment,25,↑,up,↑,0.7619080999866128,True,18
144K21,162,experiment,51,↓,down,↓,0.625963999889791,True,18
144K21,163,experiment,32,→,down,↓,0.5317183001898229,False,18
144K21,164,experiment,49,↓,up,↑,0.6696490999311209,False,18
144K21,165,experiment,37,↓,down,↓,0.6023577996529639,True,18
144K21,166,experiment,56,↑,down,↓,0.6129010003060102,False,18
144K21,167,experiment,47,↑,up,↑,0.733640099875629,True,18
144K21,168,experiment,46,↑,up,↑,1.2016785996966064,True,18
144K21,169,experiment,16,↓,down,↓,0.6710157999768853,True,18
144K21,170,experiment,28,←,right,→,0.8256614999845624,False,18
144K21,171,experiment,48,↓,down,↓,0.6571937003172934,True,18
144K21,172,experiment,38,↑,down,↓,0.8696120996028185,False,18
144K21,173,experiment,14,→,right,→,0.6975723998621106,True,18
144K21,174,experiment,36,↓,down,↓,0.7256566002033651,True,18
144K21,175,experiment,24,→,right,→,0.6650028000585735,True,18
144K21,176,experiment,29,←,left,←,0.691004500258714,True,18
144K21,177,experiment,55,↓,down,↓,0.7709367000497878,True,18
144K21,178,experiment,34,←,up,↑,1.0296050999313593,False,18
144K21,179,experiment,30,←,left,←,0.5049491999670863,True,18
144K21,180,experiment,43,→,right,→,0.6888091000728309,True,18
144K21,181,experiment,18,←,right,→,0.760997399687767,False,18
144K21,182,experiment,44,←,left,←,0.6217143996618688,True,18
144K21,183,experiment,22,↓,down,↓,0.750545300077647,True,18
144K21,184,experiment,19,←,left,←,0.5636766003444791,True,18
144K21,185,experiment,21,↓,right,→,1.0633115000091493,False,18
144K21,186,experiment,45,↑,up,↑,0.8543855003081262,True,18
144K21,187,experiment,52,←,right,→,0.8415807001292706,False,18
144K21,188,experiment,58,→,up,↑,0.7696103998459876,False,18
144K21,189,experiment,57,↑,up,↑,0.7011556997895241,True,18
144K21,190,experiment,39,→,right,→,0.9110703999176621,True,18
144K21,191,training,41,←,left,←,0.5232354998588562,True,18
144K21,192,training,22,↑,up,↑,0.5116110001690686,True,18
144K21,193,experiment,48,→,right,→,0.6838063998147845,True,18
144K21,194,experiment,21,↑,up,↑,0.514527800027281,True,18
144K21,195,experiment,38,←,up,↑,1.0363440001383424,False,18
144K21,196,experiment,50,↑,up,↑,1.3455518996343017,True,18
144K21,197,experiment,32,←,left,←,1.0869424999691546,True,18
144K21,198,experiment,55,←,left,←,0.5349270002916455,True,18
144K21,199,experiment,18,←,left,←,0.7736325999721885,True,18
144K21,200,experiment,20,←,left,←,0.5216949000023305,True,18
144K21,201,experiment,52,↑,up,↑,0.4340329999104142,True,18
144K21,202,experiment,15,↓,down,↓,0.598231100011617,True,18
144K21,203,experiment,27,←,left,←,0.7642497001215816,True,18
144K21,204,experiment,45,→,right,→,0.5999138001352549,True,18
144K21,205,experiment,60,←,left,←,0.7919810996390879,True,18
144K21,206,experiment,47,→,right,→,0.6252370998263359,True,18
144K21,207,experiment,42,↓,up,↑,0.7163967001251876,False,18
144K21,208,experiment,36,↓,down,↓,0.5515127000398934,True,18
144K21,209,experiment,33,↓,right,→,0.8996183997951448,False,18
144K21,210,experiment,30,←,left,←,0.9955786000937223,True,18
144K21,211,experiment,44,↑,up,↑,0.6468378999270499,True,18
144K21,212,experiment,28,→,right,→,0.8827427998185158,True,18
144K21,213,experiment,49,←,left,←,0.7182583999820054,True,18
144K21,214,experiment,51,→,right,→,0.5676615000702441,True,18
144K21,215,experiment,14,→,right,→,0.7516544000245631,True,18
144K21,216,experiment,29,→,right,→,0.702216099947691,True,18
144K21,217,experiment,43,↑,down,↓,0.9255164000205696,False,18
144K21,218,experiment,37,←,left,←,0.5042602000758052,True,18
144K21,219,experiment,26,↓,down,↓,0.7068360997363925,True,18
144K21,220,experiment,56,→,right,→,1.20154959987849,True,18
144K21,221,experiment,19,←,right,→,0.5728090000338852,False,18
144K21,222,experiment,25,↓,down,↓,1.2295065997168422,True,18
144K21,223,experiment,24,→,right,→,0.6280356999486685,True,18
144K21,224,experiment,39,←,right,→,0.6815039999783039,False,18
144K21,225,experiment,58,↓,down,↓,0.8395516998134553,True,18
144K21,226,experiment,17,→,right,→,0.5231353999115527,True,18
144K21,227,experiment,34,↓,down,↓,0.5995392999611795,True,18
144K21,228,experiment,40,←,left,←,1.0048085995949805,True,18
144K21,229,experiment,53,←,left,←,0.4735179003328085,True,18
144K21,230,experiment,57,↑,up,↑,0.7761960001662374,True,18
144K21,231,experiment,31,↑,down,↓,0.9167957003228366,False,18
144K21,232,experiment,16,↑,up,↑,0.6619140999391675,True,18
144K21,233,experiment,54,↑,up,↑,0.6717823999933898,True,18
144K21,234,experiment,23,→,right,→,0.7095452998764813,True,18
144K21,235,experiment,41,↓,down,↓,0.8301555998623371,True,18
144K21,236,experiment,22,→,right,→,0.5901852999813855,True,18
144K21,237,experiment,35,↓,up,↑,0.7594717000611126,False,18
144K21,238,experiment,59,←,left,←,1.122302500065416,True,18
144K21,239,experiment,13,↑,up,↑,0.6371467998251319,True,18
144K21,240,experiment,46,←,right,→,0.6289416998624802,False,18
144K21,241,training,41,↓,down,↓,0.8868829999119043,True,18
144K21,242,training,32,↑,up,↑,0.8221740000881255,True,18
144K21,243,experiment,57,←,left,←,0.47206309996545315,True,18
144K21,244,experiment,25,↓,down,↓,0.8994987001642585,True,18
144K21,245,experiment,18,→,right,→,0.5794579000212252,True,18
144K21,246,experiment,38,←,left,←,1.0348308002576232,True,18
144K21,247,experiment,46,←,right,→,0.6029245001263916,False,18
144K21,248,experiment,26,↓,down,↓,0.8494172999635339,True,18
144K21,249,experiment,21,↑,up,↑,0.5454465001821518,True,18
144K21,250,experiment,23,←,up,↑,0.8608173001557589,False,18
144K21,251,experiment,41,↓,up,↑,0.8314523003064096,False,18
144K21,252,experiment,52,↑,up,↑,0.5475091999396682,True,18
144K21,253,experiment,28,↓,up,↑,1.0988421998918056,False,18
144K21,254,experiment,47,↑,up,↑,0.5594285996630788,True,18
144K21,255,experiment,37,→,up,↑,1.1688109999522567,False,18
144K21,256,experiment,13,→,right,→,0.6974913999438286,True,18
144K21,257,experiment,33,↓,up,↑,0.7833754997700453,False,18
144K21,258,experiment,24,→,right,→,0.6401873002760112,True,18
144K21,259,experiment,31,→,right,→,0.5540920002385974,True,18
144K21,260,experiment,40,←,left,←,0.5538194002583623,True,18
144K21,261,experiment,44,→,right,→,0.4705857001245022,True,18
144K21,262,experiment,50,←,left,←,0.7376689999364316,True,18
144K21,263,experiment,32,↑,up,↑,0.7188298003748059,True,18
144K21,264,experiment,42,→,right,→,0.4173126998357475,True,18
144K21,265,experiment,43,←,up,↑,0.8162801996804774,False,18
144K21,266,experiment,51,↓,down,↓,0.6694114999845624,True,18
144K21,267,experiment,20,→,right,→,0.5975114000029862,True,18
144K21,268,experiment,29,←,left,←,0.7060112999752164,True,18
144K21,269,experiment,15,←,left,←,1.2200574004091322,True,18
144K21,270,experiment,59,→,right,→,0.5960554000921547,True,18
144K21,271,experiment,34,↓,down,↓,0.8135465998202562,True,18
144K21,272,experiment,55,←,left,←,0.7694417997263372,True,18
144K21,273,experiment,14,↓,up,↑,0.6960193002596498,False,18
144K21,274,experiment,19,→,right,→,0.6074844999238849,True,18
144K21,275,experiment,60,→,up,↑,0.8555028000846505,False,18
144K21,276,experiment,56,↓,down,↓,0.5360445003025234,True,18
144K21,277,experiment,54,←,left,←,0.7267252998426557,True,18
144K21,278,experiment,53,→,right,→,0.6467242003418505,True,18
144K21,279,experiment,49,→,right,→,1.0209759999997914,True,18
144K21,280,experiment,35,↑,up,↑,0.8127548000775278,True,18
144K21,281,experiment,36,→,right,→,0.6600929000414908,True,18
144K21,282,experiment,22,↑,up,↑,0.6993642002344131,True,18
144K21,283,experiment,16,↑,up,↑,0.7007144000381231,True,18
144K21,284,experiment,45,→,left,←,0.5306758000515401,False,18
144K21,285,experiment,17,↓,down,↓,0.7460512998513877,True,18
144K21,286,experiment,27,→,right,→,0.9379595001228154,True,18
144K21,287,experiment,58,←,left,←,0.434241299983114,True,18
144K21,288,experiment,48,←,right,→,0.4921262999996543,False,18
144K21,289,experiment,39,↓,left,←,0.4173204000107944,False,18
144K21,290,experiment,30,↑,down,↓,0.43411780009046197,False,18
144K21,291,training,36,←,right,→,0.6393534000962973,False,18
144K21,292,training,22,↓,up,↑,0.5038012997247279,False,18
144K21,293,experiment,59,→,right,→,0.43411390017718077,True,18
144K21,294,experiment,18,↑,down,↓,1.0060284999199212,False,18
144K21,295,experiment,57,→,right,→,0.6880925996229053,True,18
144K21,296,experiment,22,←,left,←,0.6699851001612842,True,18
144K21,297,experiment,20,↑,up,↑,0.5981069002300501,True,18
144K21,298,experiment,52,→,right,→,0.43397660041227937,True,18
144K21,299,experiment,24,↑,down,↓,0.90560910012573,False,18
144K21,300,experiment,47,→,right,→,1.0940375002101064,True,18
144K21,301,experiment,54,←,right,→,0.7907103002071381,False,18
144K21,302,experiment,17,↑,up,↑,0.7000243999063969,True,18
144K21,303,experiment,15,↑,down,↓,0.6540256002917886,False,18
144K21,304,experiment,13,↓,down,↓,0.5955377998761833,True,18
144K21,305,experiment,30,↓,up,↑,0.7040468999184668,False,18
144K21,306,experiment,19,↓,up,↑,0.927216200158,False,18
144K21,307,experiment,37,←,left,←,0.47410079976543784,True,18
144K21,308,experiment,34,→,right,→,0.6319869002327323,True,18
144K21,309,experiment,26,↓,down,↓,0.5173176997341216,True,18
144K21,310,experiment,48,←,left,←,0.6806251001544297,True,18
144K21,311,experiment,16,←,right,→,0.6506574000231922,False,18
144K21,312,experiment,44,↑,up,↑,0.7393048000521958,True,18
144K21,313,experiment,33,→,right,→,0.5201350999996066,True,18
144K21,314,experiment,38,→,right,→,0.49827919993549585,True,18
144K21,315,experiment,14,→,right,→,0.8366276999004185,True,18
144K21,316,experiment,46,←,left,←,0.49267870001494884,True,18
144K21,317,experiment,35,↑,up,↑,0.5382488998584449,True,18
144K21,318,experiment,55,←,left,←,0.5842443001456559,True,18
144K21,319,experiment,21,→,right,→,1.306753700133413,True,18
144K21,320,experiment,51,→,up,↑,1.268586799968034,False,18
144K21,321,experiment,58,←,left,←,0.5319795003160834,True,18
144K21,322,experiment,39,←,right,→,0.4838991998694837,False,18
144K21,323,experiment,36,→,right,→,0.7206131001003087,True,18
144K21,324,experiment,25,←,left,←,0.6912855999544263,True,18
144K21,325,experiment,49,←,left,←,0.6631543999537826,True,18
144K21,326,experiment,27,→,right,→,1.0588974999263883,True,18
144K21,327,experiment,45,↑,up,↑,0.6586667001247406,True,18
144K21,328,experiment,32,→,right,→,1.107440599706024,True,18
144K21,329,experiment,56,←,left,←,0.6259158002212644,True,18
144K21,330,experiment,40,↓,down,↓,0.510538499802351,True,18
144K21,331,experiment,28,→,right,→,0.47204830031841993,True,18
144K21,332,experiment,29,→,right,→,0.6412941999733448,True,18
144K21,333,experiment,43,↓,up,↑,1.0592585001140833,False,18
144K21,334,experiment,41,→,right,→,0.4940952002070844,True,18
144K21,335,experiment,31,→,right,→,0.5100220004096627,True,18
144K21,336,experiment,42,↑,up,↑,0.701910899952054,True,18
144K21,337,experiment,50,→,right,→,0.5445420001633465,True,18
144K21,338,experiment,23,↓,down,↓,0.5321064000017941,True,18
144K21,339,experiment,53,→,right,→,1.1232082000933588,True,18
144K21,340,experiment,60,←,right,→,0.5105968001298606,False,18
144K21,341,training,35,←,left,←,0.4988163001835346,True,18
144K21,342,training,56,↑,up,↑,0.41757839964702725,True,18
144K21,343,experiment,37,→,right,→,0.5751601001247764,True,18
144K21,344,experiment,30,↓,up,↑,0.7247530999593437,False,18
144K21,345,experiment,20,→,up,↑,0.610538300126791,False,18
144K21,346,experiment,23,→,right,→,0.667276999913156,True,18
144K21,347,experiment,41,←,up,↑,0.581525799818337,False,18
144K21,348,experiment,34,↓,down,↓,0.7512595998123288,True,18
144K21,349,experiment,53,↓,down,↓,0.5179248000495136,True,18
144K21,350,experiment,54,←,left,←,1.301332099828869,True,18
144K21,351,experiment,40,↑,up,↑,0.7028612000867724,True,18
144K21,352,experiment,48,↓,down,↓,0.40094950003549457,True,18
144K21,353,experiment,46,↓,down,↓,1.1232182001695037,True,18
144K21,354,experiment,44,→,left,←,0.6894509000703692,False,18
144K21,355,experiment,45,←,left,←,0.48013880010694265,True,18
144K21,356,experiment,25,→,right,→,0.5399142000824213,True,18
144K21,357,experiment,50,↓,down,↓,0.5092615000903606,True,18
144K21,358,experiment,47,↓,up,↑,0.6179396999068558,False,18
144K21,359,experiment,32,←,left,←,0.43391980044543743,True,18
144K21,360,experiment,60,↑,up,↑,0.5539241000078619,True,18
144K21,361,experiment,28,↓,down,↓,0.6093979002907872,True,18
144K21,362,experiment,39,←,left,←,0.7674072002992034,True,18
144K21,363,experiment,56,↓,left,←,0.6673096003942192,False,18
144K21,364,experiment,21,↓,down,↓,0.5865766000933945,True,18
144K21,365,experiment,49,→,right,→,0.5628788997419178,True,18
144K21,366,experiment,29,→,right,→,0.5374536998569965,True,18
144K21,367,experiment,19,←,right,→,0.775280499830842,False,18
144K21,368,experiment,58,←,right,→,0.5778765003196895,False,18
144K21,369,experiment,38,↑,up,↑,0.5788292000070214,True,18
144K21,370,experiment,26,→,right,→,0.561990600079298,True,18
144K21,371,experiment,17,↓,down,↓,0.6964973001740873,True,18
144K21,372,experiment,52,→,right,→,0.6339051998220384,True,18
144K21,373,experiment,35,←,left,←,0.6252611000090837,True,18
144K21,374,experiment,15,←,left,←,0.7267597001045942,True,18
144K21,375,experiment,22,↑,up,↑,0.9955315999686718,True,18
144K21,376,experiment,57,↓,down,↓,0.781814799644053,True,18
144K21,377,experiment,24,→,right,→,1.142656299751252,True,18
144K21,378,experiment,33,↓,down,↓,0.6351438001729548,True,18
144K21,379,experiment,42,↓,up,↑,0.6060198997147381,False,18
144K21,380,experiment,14,←,left,←,0.5805057999677956,True,18
144K21,381,experiment,51,←,left,←,0.6200806996785104,True,18
144K21,382,experiment,31,←,left,←,0.7107171001844108,True,18
144K21,383,experiment,16,↓,down,↓,0.8639797000214458,True,18
144K21,384,experiment,36,←,left,←,0.493200599681586,True,18
144K21,385,experiment,59,↓,down,↓,0.5947066997177899,True,18
144K21,386,experiment,18,↓,down,↓,0.6951452000066638,True,18
144K21,387,experiment,27,↓,down,↓,0.5537795000709593,True,18
144K21,388,experiment,55,←,left,←,0.4006822998635471,True,18
144K21,389,experiment,43,↓,left,←,0.9938821000978351,False,18
144K21,390,experiment,13,←,right,→,0.5460795001126826,False,18
144K21,391,training,28,←,left,←,0.3841047999449074,True,18
144K21,392,training,21,↑,down,↓,0.7384080998599529,False,18
144K21,393,experiment,28,→,right,→,0.5145493997260928,True,18
144K21,394,experiment,58,←,left,←,0.6232425002381206,True,18
144K21,395,experiment,27,←,left,←,0.5724093997851014,True,18
144K21,396,experiment,25,←,right,→,0.5091448999010026,False,18
144K21,397,experiment,56,→,right,→,0.4173087999224663,True,18
144K21,398,experiment,51,→,down,↓,1.2244238001294434,False,18
144K21,399,experiment,42,→,left,←,0.4340645996853709,False,18
144K21,400,experiment,20,→,right,→,0.4340272000990808,True,18
144K21,401,experiment,59,↓,right,→,0.5230745999142528,False,18
144K21,402,experiment,41,↑,down,↓,0.6910584000870585,False,18
144K21,403,experiment,24,↑,up,↑,0.8399292002432048,True,18
144K21,404,experiment,37,→,right,→,0.5897570000961423,True,18
144K21,405,experiment,43,↑,up,↑,0.6018047998659313,True,18
144K21,406,experiment,46,→,down,↓,0.8031343002803624,False,18
144K21,407,experiment,54,←,left,←,1.0150496996939182,True,18
144K21,408,experiment,39,←,right,→,0.5964901000261307,False,18
144K21,409,experiment,30,↑,up,↑,0.4964796002022922,True,18
144K21,410,experiment,47,←,left,←,0.5810234998352826,True,18
144K21,411,experiment,31,↑,up,↑,0.5290647000074387,True,18
144K21,412,experiment,55,→,right,→,1.055703999940306,True,18
144K21,413,experiment,49,→,right,→,0.4339042999781668,True,18
144K21,414,experiment,15,→,right,→,0.40059700002893806,True,18
144K21,415,experiment,32,↓,right,→,0.43399620009586215,False,18
144K21,416,experiment,57,→,right,→,0.48362679965794086,True,18
144K21,417,experiment,18,→,left,←,0.7720145997591317,False,18
144K21,418,experiment,16,↑,up,↑,0.4984861998818815,True,18
144K21,419,experiment,45,↓,down,↓,0.768677799962461,True,18
144K21,420,experiment,50,→,no_key,no_letter,-1.0,False,18
144K21,421,experiment,38,↓,down,↓,0.5045074997469783,True,18
144K21,422,experiment,36,←,right,→,0.5167302000336349,False,18
144K21,423,experiment,21,→,right,→,0.5376850999891758,True,18
144K21,424,experiment,33,↓,down,↓,0.6144997999072075,True,18
144K21,425,experiment,35,↑,up,↑,0.6863661999814212,True,18
144K21,426,experiment,34,↑,up,↑,0.604415699839592,True,18
144K21,427,experiment,22,↑,up,↑,0.5019410001114011,True,18
144K21,428,experiment,29,→,right,→,0.5503450003452599,True,18
144K21,429,experiment,19,→,right,→,0.36719049979001284,True,18
144K21,430,experiment,17,→,right,→,0.43451689975336194,True,18
144K21,431,experiment,13,←,right,→,0.8783038002438843,False,18
144K21,432,experiment,60,→,right,→,0.6519013000652194,True,18
144K21,433,experiment,23,←,left,←,0.5223989002406597,True,18
144K21,434,experiment,26,↓,up,↑,0.8684307998046279,False,18
144K21,435,experiment,48,↑,up,↑,0.617681700270623,True,18
144K21,436,experiment,44,↑,up,↑,0.6437270999886096,True,18
144K21,437,experiment,40,←,left,←,0.6876227003522217,True,18
144K21,438,experiment,52,←,left,←,0.6976426998153329,True,18
144K21,439,experiment,53,↓,down,↓,0.5623397999443114,True,18
144K21,440,experiment,14,←,left,←,0.47498869989067316,True,18
144K21,441,training,26,↑,up,↑,0.7457464998587966,True,18
144K21,442,training,58,←,left,←,0.5976670999079943,True,18
144K21,443,experiment,36,→,right,→,0.41727189999073744,True,18
144K21,444,experiment,25,→,right,→,0.4335823003202677,True,18
144K21,445,experiment,23,←,left,←,0.43385859997943044,True,18
144K21,446,experiment,49,↓,up,↑,0.607696000020951,False,18
144K21,447,experiment,27,↑,up,↑,0.7497566002421081,True,18
144K21,448,experiment,13,↑,up,↑,0.48700240021571517,True,18
144K21,449,experiment,21,↑,up,↑,0.5662247999571264,True,18
144K21,450,experiment,53,←,left,←,0.40116719994693995,True,18
144K21,451,experiment,54,↓,up,↑,0.615098100155592,False,18
144K21,452,experiment,24,→,right,→,0.41751870000734925,True,18
144K21,453,experiment,46,↑,up,↑,0.4005500003695488,True,18
144K21,454,experiment,19,↑,up,↑,0.6889522997662425,True,18
144K21,455,experiment,18,↓,down,↓,1.0096686002798378,True,18
144K21,456,experiment,33,↑,up,↑,0.3506908002309501,True,18
144K21,457,experiment,37,↑,up,↑,0.5804061000235379,True,18
144K21,458,experiment,35,→,right,→,0.41732180025428534,True,18
144K21,459,experiment,59,↓,up,↑,0.5490482002496719,False,18
144K21,460,experiment,32,↓,up,↑,0.5855904999189079,False,18
144K21,461,experiment,17,↑,up,↑,0.6713542002253234,True,18
144K21,462,experiment,42,→,right,→,0.6723929001018405,True,18
144K21,463,experiment,30,←,left,←,0.6818813998252153,True,18
144K21,464,experiment,51,→,right,→,0.5323612000793219,True,18
144K21,465,experiment,44,←,left,←,0.49773159995675087,True,18
144K21,466,experiment,55,←,left,←,0.5610201000235975,True,18
144K21,467,experiment,26,→,right,→,1.1455252999439836,True,18
144K21,468,experiment,39,←,right,→,0.5386228999122977,False,18
144K21,469,experiment,38,→,left,←,0.4331212001852691,False,18
144K21,470,experiment,16,↓,down,↓,0.6392357000149786,True,18
144K21,471,experiment,58,→,right,→,0.5271865003742278,True,18
144K21,472,experiment,29,←,left,←,0.8629362997598946,True,18
144K21,473,experiment,31,→,left,←,0.41724610002711415,False,18
144K21,474,experiment,57,→,right,→,0.4007182000204921,True,18
144K21,475,experiment,60,↑,up,↑,0.6715485001914203,True,18
144K21,476,experiment,20,↑,up,↑,0.6799170998856425,True,18
144K21,477,experiment,15,↑,up,↑,0.6509437998756766,True,18
144K21,478,experiment,40,←,left,←,0.7985244998708367,True,18
144K21,479,experiment,41,↓,down,↓,0.5231019002385437,True,18
144K21,480,experiment,22,←,down,↓,0.8557112999260426,False,18
144K21,481,experiment,28,↑,up,↑,0.46749209985136986,True,18
144K21,482,experiment,43,↓,right,→,0.4015982998535037,False,18
144K21,483,experiment,52,←,left,←,1.0159253999590874,True,18
144K21,484,experiment,48,↓,down,↓,0.6469335998408496,True,18
144K21,485,experiment,45,→,down,↓,0.5348967998288572,False,18
144K21,486,experiment,56,↓,down,↓,1.0523461000993848,True,18
144K21,487,experiment,50,↓,down,↓,0.47321589989587665,True,18
144K21,488,experiment,34,↑,up,↑,0.6468838998116553,True,18
144K21,489,experiment,14,↓,down,↓,0.5159818003885448,True,18
144K21,490,experiment,47,→,right,→,0.5835847998969257,True,18
144K21,491,training,23,↑,up,↑,0.6475728000514209,True,18
144K21,492,training,50,↓,down,↓,0.383857199922204,True,18
144K21,493,experiment,20,←,down,↓,1.0228665000759065,False,18
144K21,494,experiment,58,←,left,←,0.5118798003531992,True,18
144K21,495,experiment,44,→,right,→,0.5904111000709236,True,18
144K21,496,experiment,42,↑,up,↑,0.5951954000629485,True,18
144K21,497,experiment,56,↑,up,↑,0.4943269998766482,True,18
144K21,498,experiment,50,↓,down,↓,0.7138280002400279,True,18
144K21,499,experiment,16,←,left,←,1.0905245002359152,True,18
144K21,500,experiment,41,↑,up,↑,0.4836094998754561,True,18
144K21,501,experiment,27,↑,up,↑,0.774246399756521,True,18
144K21,502,experiment,52,→,right,→,0.5728255999274552,True,18
144K21,503,experiment,29,←,left,←,1.042835600208491,True,18
144K21,504,experiment,31,←,right,→,0.6448074001818895,False,18
144K21,505,experiment,14,→,up,↑,0.7784795998595655,False,18
144K21,506,experiment,54,↑,up,↑,0.7359080999158323,True,18
144K21,507,experiment,23,→,right,→,0.47482879972085357,True,18
144K21,508,experiment,33,←,left,←,0.6655407999642193,True,18
144K21,509,experiment,22,↓,down,↓,0.59227060014382,True,18
144K21,510,experiment,39,↓,left,←,0.5348068000748754,False,18
144K21,511,experiment,40,←,left,←,0.6388322003185749,True,18
144K21,512,experiment,17,↑,up,↑,0.5142803001217544,True,18
144K21,513,experiment,51,↑,up,↑,0.46791750006377697,True,18
144K21,514,experiment,53,←,left,←,0.5808643000200391,True,18
144K21,515,experiment,30,↑,up,↑,0.51387959998101,True,18
144K21,516,experiment,15,←,left,←,0.9148991000838578,True,18
144K21,517,experiment,25,↑,up,↑,0.7095025000162423,True,18
144K21,518,experiment,38,→,right,→,0.4016065998002887,True,18
144K21,519,experiment,21,←,left,←,0.7209912999533117,True,18
144K21,520,experiment,24,→,right,→,0.4176373998634517,True,18
144K21,521,experiment,34,→,up,↑,1.1561921001411974,False,18
144K21,522,experiment,60,←,left,←,0.47082170005887747,True,18
144K21,523,experiment,36,→,right,→,0.6349019999615848,True,18
144K21,524,experiment,47,↑,down,↓,0.714193900115788,False,18
144K21,525,experiment,32,↓,down,↓,0.4801088999956846,True,18
144K21,526,experiment,49,→,right,→,0.43330899998545647,True,18
144K21,527,experiment,45,→,right,→,0.47611119970679283,True,18
144K21,528,experiment,13,↓,right,→,0.5764170996844769,False,18
144K21,529,experiment,59,→,down,↓,0.6903437003493309,False,18
144K21,530,experiment,57,↑,up,↑,0.6888028001412749,True,18
144K21,531,experiment,28,→,right,→,1.370852000080049,True,18
144K21,532,experiment,55,→,right,→,1.3914729999378324,True,18
144K21,533,experiment,46,↑,up,↑,0.6415050001814961,True,18
144K21,534,experiment,26,←,left,←,1.1029286002740264,True,18
144K21,535,experiment,19,↓,down,↓,0.7261780998669565,True,18
144K21,536,experiment,48,→,down,↓,0.9134737998247147,False,18
144K21,537,experiment,37,↓,down,↓,0.6282382998615503,True,18
144K21,538,experiment,35,←,left,←,0.676127600017935,True,18
144K21,539,experiment,43,→,right,→,0.9248653999529779,True,18
144K21,540,experiment,18,↓,down,↓,0.6921149999834597,True,18
144K21,541,training,25,←,left,←,0.416730800177902,True,18
144K21,542,training,24,↑,up,↑,0.623256899882108,True,18
144K21,543,experiment,21,↓,down,↓,0.4962814999744296,True,18
144K21,544,experiment,51,←,left,←,0.4173558000475168,True,18
144K21,545,experiment,49,↑,down,↓,0.6484767999500036,False,18
144K21,546,experiment,39,↑,up,↑,1.1960968999192119,True,18
144K21,547,experiment,40,↓,down,↓,0.49772770004346967,True,18
144K21,548,experiment,20,←,right,→,0.6880577998235822,False,18
144K21,549,experiment,41,↑,up,↑,0.6174343000166118,True,18
144K21,550,experiment,17,←,left,←,0.5094888000749052,True,18
144K21,551,experiment,44,→,up,↑,0.700072499923408,False,18
144K21,552,experiment,25,→,right,→,0.5436579999513924,True,18
144K21,553,experiment,52,←,left,←,0.6474641999229789,True,18
144K21,554,experiment,18,→,right,→,0.6413933001458645,True,18
144K21,555,experiment,37,↓,up,↑,0.7356163002550602,False,18
144K21,556,experiment,53,↑,up,↑,0.6307530999183655,True,18
144K21,557,experiment,32,→,right,→,0.8162973998114467,True,18
144K21,558,experiment,36,↓,down,↓,0.552024899981916,True,18
144K21,559,experiment,15,←,left,←,0.5914542996324599,True,18
144K21,560,experiment,55,←,left,←,0.6914988998323679,True,18
144K21,561,experiment,26,↓,down,↓,0.6790736997500062,True,18
144K21,562,experiment,42,←,left,←,0.632196499966085,True,18
144K21,563,experiment,48,↑,up,↑,0.478691800031811,True,18
144K21,564,experiment,27,←,left,←,0.47340269992128015,True,18
144K21,565,experiment,56,↓,down,↓,0.6649966002441943,True,18
144K21,566,experiment,14,→,right,→,0.4333430998958647,True,18
144K21,567,experiment,29,↓,down,↓,0.6636133999563754,True,18
144K21,568,experiment,16,↑,down,↓,0.762043199967593,False,18
144K21,569,experiment,38,→,right,→,1.0187686001881957,True,18
144K21,570,experiment,57,↓,down,↓,0.5722771002911031,True,18
144K21,571,experiment,28,→,right,→,0.834761600010097,True,18
144K21,572,experiment,60,→,right,→,0.7377243000082672,True,18
144K21,573,experiment,54,←,left,←,0.49610069999471307,True,18
144K21,574,experiment,58,↑,up,↑,0.7493751998990774,True,18
144K21,575,experiment,24,←,left,←,0.7033635000698268,True,18
144K21,576,experiment,43,↓,down,↓,0.6788890003226697,True,18
144K21,577,experiment,30,→,right,→,0.5760268997400999,True,18
144K21,578,experiment,47,↑,up,↑,0.6101198000833392,True,18
144K21,579,experiment,34,↓,down,↓,0.6594969998113811,True,18
144K21,580,experiment,35,↑,up,↑,0.69804049981758,True,18
144K21,581,experiment,46,↓,up,↑,0.8393777003511786,False,18
144K21,582,experiment,23,→,up,↑,0.7747305002994835,False,18
144K21,583,experiment,33,←,left,←,0.41726259980350733,True,18
144K21,584,experiment,19,←,right,→,0.9720395002514124,False,18
144K21,585,experiment,50,←,left,←,1.444035999942571,True,18
144K21,586,experiment,13,↓,down,↓,0.6906528999097645,True,18
144K21,587,experiment,59,↑,up,↑,0.47192119993269444,True,18
144K21,588,experiment,45,↑,up,↑,0.47050710022449493,True,18
144K21,589,experiment,22,↑,up,↑,1.091965800151229,True,18
144K21,590,experiment,31,→,right,→,0.6201949999667704,True,18
