PART_ID,Trial_no,Trial_type,CSI,Stim_letter,Key_pressed,letter_choose,Rt,Corr,Stimulus Time
146M21,1,training,60,↑,no_key,no_letter,-1.0,False,30
146M21,2,training,60,↑,up,↑,2.0248916996642947,True,30
146M21,3,training,60,→,right,→,0.600335500203073,True,30
146M21,4,training,60,←,left,←,0.7372123999521136,True,30
146M21,5,training,60,↓,down,↓,0.7650529001839459,True,30
146M21,6,training,60,↓,down,↓,0.6791670001111925,True,30
146M21,7,training,60,↓,down,↓,0.7010526997037232,True,30
146M21,8,training,60,↑,up,↑,0.7061628000810742,True,30
146M21,9,training,60,←,left,←,0.8631168003194034,True,30
146M21,10,training,60,↓,down,↓,0.7009892002679408,True,30
146M21,11,training,60,→,right,→,0.705984799657017,True,30
146M21,12,training,60,→,right,→,0.702842999715358,True,30
146M21,13,training,60,↓,down,↓,0.7164842002093792,True,30
146M21,14,training,60,←,left,←,0.776328899897635,True,30
146M21,15,training,60,→,right,→,0.682042199652642,True,30
146M21,16,training,60,↓,down,↓,0.6875269999727607,True,30
146M21,17,training,60,←,left,←,0.5838607000187039,True,30
146M21,18,training,60,←,left,←,0.5836906996555626,True,30
146M21,19,training,60,↑,up,↑,0.7111086002551019,True,30
146M21,20,training,60,←,left,←,0.5501636997796595,True,30
146M21,21,training,60,↓,down,↓,0.8063614997081459,True,18
146M21,22,training,60,←,left,←,0.6070254002697766,True,18
146M21,23,training,60,←,left,←,0.6634840997867286,True,18
146M21,24,training,60,←,left,←,0.509765800088644,True,18
146M21,25,training,60,↓,down,↓,0.8019294999539852,True,18
146M21,26,training,60,←,left,←,0.7069501997902989,True,18
146M21,27,training,60,↑,up,↑,0.5117836999706924,True,18
146M21,28,training,60,←,left,←,0.5318126999773085,True,18
146M21,29,training,60,↑,up,↑,0.6316905999556184,True,18
146M21,30,training,60,←,left,←,0.5911433999426663,True,18
146M21,31,training,60,↑,up,↑,0.5367038999684155,True,18
146M21,32,training,60,→,right,→,0.5720986002124846,True,18
146M21,33,training,60,←,right,→,0.5666811000555754,False,18
146M21,34,training,60,↑,up,↑,0.5124846999533474,True,18
146M21,35,training,60,←,left,←,0.8127156998962164,True,18
146M21,36,training,60,↑,up,↑,0.4773194999434054,True,18
146M21,37,training,60,↑,up,↑,0.5305313998833299,True,18
146M21,38,training,60,↑,up,↑,0.6303297998383641,True,18
146M21,39,training,60,↑,up,↑,0.5417217998765409,True,18
146M21,40,training,60,↑,up,↑,0.5132893999107182,True,18
146M21,41,training,24,←,left,←,0.5971771003678441,True,18
146M21,42,training,48,↓,down,↓,0.630188999697566,True,18
146M21,43,experiment,28,↑,up,↑,0.5066749998368323,True,18
146M21,44,experiment,13,↑,up,↑,0.5906575000844896,True,18
146M21,45,experiment,26,↑,up,↑,0.5348082999698818,True,18
146M21,46,experiment,38,↓,no_key,no_letter,-1.0,False,18
146M21,47,experiment,43,←,left,←,0.48743380000814795,True,18
146M21,48,experiment,46,→,right,→,0.606160500086844,True,18
146M21,49,experiment,31,↑,no_key,no_letter,-1.0,False,18
146M21,50,experiment,29,↓,down,↓,0.5618201000615954,True,18
146M21,51,experiment,14,→,right,→,0.48334049992263317,True,18
146M21,52,experiment,50,←,left,←,0.47133650025352836,True,18
146M21,53,experiment,54,→,right,→,0.489206800237298,True,18
146M21,54,experiment,52,→,right,→,0.7401644000783563,True,18
146M21,55,experiment,40,←,left,←,0.5889146998524666,True,18
146M21,56,experiment,49,→,right,→,0.5021093999966979,True,18
146M21,57,experiment,51,↑,right,→,0.5770033001899719,False,18
146M21,58,experiment,39,↑,up,↑,0.633103400003165,True,18
146M21,59,experiment,58,←,left,←,0.40074760001152754,True,18
146M21,60,experiment,44,↓,right,→,1.437209800351411,False,18
146M21,61,experiment,56,←,left,←,0.5278582000173628,True,18
146M21,62,experiment,30,←,right,→,0.7198904999531806,False,18
146M21,63,experiment,32,←,no_key,no_letter,-1.0,False,18
146M21,64,experiment,41,→,left,←,0.5505662998184562,False,18
146M21,65,experiment,17,↑,up,↑,0.6616950002498925,True,18
146M21,66,experiment,34,↑,up,↑,0.5260449997149408,True,18
146M21,67,experiment,47,↓,up,↑,0.57109190011397,False,18
146M21,68,experiment,60,←,left,←,0.493525099940598,True,18
146M21,69,experiment,22,↓,down,↓,0.6199385998770595,True,18
146M21,70,experiment,20,←,left,←,0.5670428997837007,True,18
146M21,71,experiment,53,←,left,←,0.5659403000026941,True,18
146M21,72,experiment,55,→,right,→,0.5393660999834538,True,18
146M21,73,experiment,37,↑,no_key,no_letter,-1.0,False,18
146M21,74,experiment,57,←,no_key,no_letter,-1.0,False,18
146M21,75,experiment,18,→,right,→,0.6102314000017941,True,18
146M21,76,experiment,24,↑,up,↑,0.6907798000611365,True,18
146M21,77,experiment,35,↓,down,↓,0.5211885999888182,True,18
146M21,78,experiment,19,→,right,→,0.6243252004496753,True,18
146M21,79,experiment,36,↓,up,↑,0.6008375999517739,False,18
146M21,80,experiment,15,↓,up,↑,0.7835564003325999,False,18
146M21,81,experiment,45,←,left,←,0.5311708999797702,True,18
146M21,82,experiment,21,↓,down,↓,0.8246149001643062,True,18
146M21,83,experiment,48,→,right,→,0.5770458001643419,True,18
146M21,84,experiment,33,→,right,→,0.6530233002267778,True,18
146M21,85,experiment,25,↑,up,↑,0.5391430002637208,True,18
146M21,86,experiment,16,←,left,←,0.5800665998831391,True,18
146M21,87,experiment,23,←,left,←,0.5108197000809014,True,18
146M21,88,experiment,27,←,right,→,0.7298860000446439,False,18
146M21,89,experiment,42,→,right,→,0.5129153998568654,True,18
146M21,90,experiment,59,←,right,→,0.6058789999224246,False,18
146M21,91,training,49,←,no_key,no_letter,-1.0,False,18
146M21,92,training,27,←,left,←,0.5920926001854241,True,18
146M21,93,experiment,47,→,left,←,0.6742910998873413,False,18
146M21,94,experiment,16,→,right,→,0.6058943001553416,True,18
146M21,95,experiment,25,↓,down,↓,0.5017431997694075,True,18
146M21,96,experiment,17,↑,up,↑,0.4790782001800835,True,18
146M21,97,experiment,38,↑,up,↑,0.8594988002441823,True,18
146M21,98,experiment,18,↓,right,→,0.7504420997574925,False,18
146M21,99,experiment,24,←,left,←,0.5930192996747792,True,18
146M21,100,experiment,13,←,right,→,0.5856050997972488,False,18
146M21,101,experiment,20,↓,down,↓,0.5019964999519289,True,18
146M21,102,experiment,56,↓,down,↓,0.5173702999018133,True,18
146M21,103,experiment,36,↓,down,↓,0.5216936003416777,True,18
146M21,104,experiment,52,↑,up,↑,0.5631551998667419,True,18
146M21,105,experiment,31,↑,no_key,no_letter,-1.0,False,18
146M21,106,experiment,48,←,left,←,0.46893860027194023,True,18
146M21,107,experiment,41,↑,up,↑,0.5507121998816729,True,18
146M21,108,experiment,49,←,left,←,0.7289665001444519,True,18
146M21,109,experiment,53,↓,down,↓,0.5620633000507951,True,18
146M21,110,experiment,19,→,right,→,0.5358831002376974,True,18
146M21,111,experiment,33,←,right,→,0.589709599968046,False,18
146M21,112,experiment,14,→,right,→,0.6544917998835444,True,18
146M21,113,experiment,54,↓,down,↓,0.5283702001906931,True,18
146M21,114,experiment,23,←,left,←,0.5092701003886759,True,18
146M21,115,experiment,40,←,right,→,0.75955790001899,False,18
146M21,116,experiment,29,←,right,→,0.6230700998567045,False,18
146M21,117,experiment,55,→,right,→,0.5948712001554668,True,18
146M21,118,experiment,35,↓,down,↓,0.5810700003057718,True,18
146M21,119,experiment,59,→,right,→,0.5114997997879982,True,18
146M21,120,experiment,44,↑,up,↑,0.4949623001739383,True,18
146M21,121,experiment,57,←,left,←,0.870516300201416,True,18
146M21,122,experiment,32,↑,up,↑,0.4953358001075685,True,18
146M21,123,experiment,30,↑,up,↑,0.6491398997604847,True,18
146M21,124,experiment,43,↑,up,↑,0.7793832998722792,True,18
146M21,125,experiment,51,↓,up,↑,0.6837503002025187,False,18
146M21,126,experiment,58,→,right,→,0.594881999772042,True,18
146M21,127,experiment,27,→,right,→,0.5301351002417505,True,18
146M21,128,experiment,26,←,left,←,0.5164471999742091,True,18
146M21,129,experiment,22,↑,up,↑,0.4736995999701321,True,18
146M21,130,experiment,34,←,right,→,0.7284365999512374,False,18
146M21,131,experiment,50,↑,up,↑,0.5314617999829352,True,18
146M21,132,experiment,45,→,left,←,1.1061396999284625,False,18
146M21,133,experiment,28,←,left,←,0.5636193999089301,True,18
146M21,134,experiment,42,↓,down,↓,0.5618624999187887,True,18
146M21,135,experiment,46,←,left,←,0.6301386002451181,True,18
146M21,136,experiment,21,↓,right,→,0.6078560003079474,False,18
146M21,137,experiment,37,↓,up,↑,0.5598031999543309,False,18
146M21,138,experiment,15,↓,down,↓,0.5924579002894461,True,18
146M21,139,experiment,39,↑,up,↑,0.6238691001199186,True,18
146M21,140,experiment,60,←,left,←,0.560871799942106,True,18
146M21,141,training,37,←,left,←,1.3622662001289427,True,18
146M21,142,training,13,↓,right,→,0.8600897998549044,False,18
146M21,143,experiment,59,←,no_key,no_letter,-1.0,False,18
146M21,144,experiment,20,↑,up,↑,0.6254720999859273,True,18
146M21,145,experiment,21,↑,up,↑,0.5156728001311421,True,18
146M21,146,experiment,26,←,left,←,0.4860460003837943,True,18
146M21,147,experiment,14,↑,up,↑,0.6102432003244758,True,18
146M21,148,experiment,50,←,left,←,1.1377008999697864,True,18
146M21,149,experiment,45,↓,down,↓,0.5677303997799754,True,18
146M21,150,experiment,28,↑,up,↑,0.5590707003138959,True,18
146M21,151,experiment,17,↑,up,↑,0.47859990037977695,True,18
146M21,152,experiment,55,↑,up,↑,0.5433306000195444,True,18
146M21,153,experiment,39,↑,up,↑,0.5210158997215331,True,18
146M21,154,experiment,33,↑,up,↑,0.5033724000677466,True,18
146M21,155,experiment,40,↑,up,↑,0.8501941999420524,True,18
146M21,156,experiment,32,↑,up,↑,0.7148934002034366,True,18
146M21,157,experiment,60,↓,down,↓,0.7034374000504613,True,18
146M21,158,experiment,31,←,left,←,0.5838239998556674,True,18
146M21,159,experiment,35,↑,up,↑,0.5057835001498461,True,18
146M21,160,experiment,22,←,left,←,0.5598229998722672,True,18
146M21,161,experiment,49,←,right,→,0.5622416003607213,False,18
146M21,162,experiment,30,↑,up,↑,0.577031200286001,True,18
146M21,163,experiment,56,↓,up,↑,0.5182038997299969,False,18
146M21,164,experiment,36,↓,down,↓,0.8901010998524725,True,18
146M21,165,experiment,13,→,right,→,0.5829278999008238,True,18
146M21,166,experiment,47,↓,up,↑,0.537192199844867,False,18
146M21,167,experiment,42,→,right,→,0.6890851999633014,True,18
146M21,168,experiment,24,→,left,←,0.8061792002990842,False,18
146M21,169,experiment,34,→,right,→,0.5525080999359488,True,18
146M21,170,experiment,27,↑,up,↑,0.553893500007689,True,18
146M21,171,experiment,57,→,left,←,0.6303710998035967,False,18
146M21,172,experiment,19,←,left,←,0.577278200071305,True,18
146M21,173,experiment,15,↓,down,↓,0.6334309997037053,True,18
146M21,174,experiment,58,→,right,→,0.5703377998434007,True,18
146M21,175,experiment,16,↑,down,↓,0.9616378000937402,False,18
146M21,176,experiment,52,→,right,→,1.715796499978751,True,18
146M21,177,experiment,51,↑,up,↑,0.6209084000438452,True,18
146M21,178,experiment,23,↑,up,↑,1.3418394001200795,True,18
146M21,179,experiment,29,↑,up,↑,0.5101699000224471,True,18
146M21,180,experiment,44,↑,up,↑,0.813930899836123,True,18
146M21,181,experiment,18,←,left,←,0.6179130999371409,True,18
146M21,182,experiment,48,←,left,←,1.058539300225675,True,18
146M21,183,experiment,37,→,right,→,0.664610699750483,True,18
146M21,184,experiment,38,←,right,→,0.8936514998786151,False,18
146M21,185,experiment,43,↓,down,↓,0.5745590999722481,True,18
146M21,186,experiment,41,↓,down,↓,1.0695280996151268,True,18
146M21,187,experiment,46,↓,down,↓,0.8856705999933183,True,18
146M21,188,experiment,53,←,right,→,0.5601011998951435,False,18
146M21,189,experiment,25,←,left,←,0.6020612996071577,True,18
146M21,190,experiment,54,↓,down,↓,0.591246800031513,True,18
146M21,191,training,21,↓,down,↓,0.5366140999831259,True,18
146M21,192,training,43,↑,up,↑,0.6559710004366934,True,18
146M21,193,experiment,60,↓,down,↓,0.6144962999969721,True,18
146M21,194,experiment,44,↑,down,↓,0.6975496998056769,False,18
146M21,195,experiment,41,↓,up,↑,0.6430291999131441,False,18
146M21,196,experiment,13,→,right,→,0.5858530001714826,True,18
146M21,197,experiment,17,←,left,←,0.7760899998247623,True,18
146M21,198,experiment,37,↓,down,↓,0.6813645996153355,True,18
146M21,199,experiment,39,↑,down,↓,0.5891897999681532,False,18
146M21,200,experiment,31,←,left,←,0.7061209999956191,True,18
146M21,201,experiment,20,→,right,→,0.5532798999920487,True,18
146M21,202,experiment,32,→,down,↓,0.8471748000010848,False,18
146M21,203,experiment,47,→,right,→,0.5187335000373423,True,18
146M21,204,experiment,55,→,right,→,0.5744187999516726,True,18
146M21,205,experiment,18,→,right,→,0.7082592002116144,True,18
146M21,206,experiment,52,↑,up,↑,0.5188772999681532,True,18
146M21,207,experiment,40,↓,down,↓,0.6244763000868261,True,18
146M21,208,experiment,49,↑,up,↑,0.5120920999906957,True,18
146M21,209,experiment,45,↓,right,→,0.5670981002040207,False,18
146M21,210,experiment,19,↑,down,↓,0.8361259000375867,False,18
146M21,211,experiment,42,↑,up,↑,0.5278360997326672,True,18
146M21,212,experiment,48,↑,up,↑,1.212109399959445,True,18
146M21,213,experiment,27,←,right,→,0.5551598002202809,False,18
146M21,214,experiment,57,↑,down,↓,0.6242894995957613,False,18
146M21,215,experiment,16,→,right,→,0.5337952002882957,True,18
146M21,216,experiment,34,→,right,→,0.5864167003892362,True,18
146M21,217,experiment,28,↓,down,↓,0.569215300027281,True,18
146M21,218,experiment,36,→,right,→,0.5073937000706792,True,18
146M21,219,experiment,50,↓,down,↓,1.2152905999682844,True,18
146M21,220,experiment,58,←,down,↓,0.8810558002442122,False,18
146M21,221,experiment,14,←,left,←,0.6456532999873161,True,18
146M21,222,experiment,23,→,right,→,0.5018438999541104,True,18
146M21,223,experiment,30,↑,up,↑,0.7181416996754706,True,18
146M21,224,experiment,46,↑,up,↑,0.7878355998545885,True,18
146M21,225,experiment,21,←,left,←,0.703179799951613,True,18
146M21,226,experiment,51,↑,up,↑,0.5864101001061499,True,18
146M21,227,experiment,15,↑,up,↑,0.5539629999548197,True,18
146M21,228,experiment,24,→,right,→,0.5166641999967396,True,18
146M21,229,experiment,59,↓,down,↓,0.6017372999340296,True,18
146M21,230,experiment,29,↑,up,↑,0.6231580004096031,True,18
146M21,231,experiment,35,←,left,←,0.5360536999069154,True,18
146M21,232,experiment,54,→,right,→,0.5357055999338627,True,18
146M21,233,experiment,22,→,right,→,0.6362475003115833,True,18
146M21,234,experiment,25,→,right,→,0.4833049001172185,True,18
146M21,235,experiment,43,←,left,←,0.6680113999173045,True,18
146M21,236,experiment,33,←,left,←,0.46863120002672076,True,18
146M21,237,experiment,56,↑,right,→,0.43318279972299933,False,18
146M21,238,experiment,53,→,right,→,0.5361581002362072,True,18
146M21,239,experiment,38,↑,up,↑,0.5782456998713315,True,18
146M21,240,experiment,26,↓,down,↓,0.7149962997063994,True,18
146M21,241,training,52,↑,up,↑,0.5139214000664651,True,18
146M21,242,training,52,←,right,→,0.5715626999735832,False,18
146M21,243,experiment,38,↑,up,↑,0.5645153000950813,True,18
146M21,244,experiment,55,←,right,→,0.6738932998850942,False,18
146M21,245,experiment,53,←,left,←,0.5249478998593986,True,18
146M21,246,experiment,20,↑,up,↑,0.5559156001545489,True,18
146M21,247,experiment,54,←,left,←,0.6588261998258531,True,18
146M21,248,experiment,32,→,right,→,0.6122251003980637,True,18
146M21,249,experiment,18,↑,up,↑,0.5373118999414146,True,18
146M21,250,experiment,24,↑,up,↑,0.5962656000629067,True,18
146M21,251,experiment,31,↓,down,↓,1.7045417004264891,True,18
146M21,252,experiment,41,→,right,→,0.5548346000723541,True,18
146M21,253,experiment,16,→,right,→,0.6107001998461783,True,18
146M21,254,experiment,36,↓,down,↓,0.5395959001034498,True,18
146M21,255,experiment,15,↓,down,↓,0.5408511999994516,True,18
146M21,256,experiment,57,→,right,→,0.6424861000850797,True,18
146M21,257,experiment,51,↑,up,↑,0.7521262001246214,True,18
146M21,258,experiment,43,↑,down,↓,0.5186103000305593,False,18
146M21,259,experiment,26,↓,down,↓,0.8013006998226047,True,18
146M21,260,experiment,33,↑,up,↑,0.508525500074029,True,18
146M21,261,experiment,35,↓,down,↓,0.5856987000443041,True,18
146M21,262,experiment,48,↓,down,↓,0.5396063001826406,True,18
146M21,263,experiment,47,↑,up,↑,0.5435792999342084,True,18
146M21,264,experiment,34,→,right,→,0.47632599994540215,True,18
146M21,265,experiment,30,→,up,↑,0.4941818998195231,False,18
146M21,266,experiment,52,→,right,→,0.6729434002190828,True,18
146M21,267,experiment,59,↑,up,↑,0.6641488000750542,True,18
146M21,268,experiment,25,↓,up,↑,0.8136261003091931,False,18
146M21,269,experiment,17,←,left,←,0.6504583000205457,True,18
146M21,270,experiment,46,→,right,→,0.49079819954931736,True,18
146M21,271,experiment,49,↑,up,↑,0.5438212999142706,True,18
146M21,272,experiment,19,→,right,→,0.518158100079745,True,18
146M21,273,experiment,42,→,right,→,0.5909724002704024,True,18
146M21,274,experiment,39,→,left,←,0.6940000001341105,False,18
146M21,275,experiment,58,→,right,→,0.5970852999016643,True,18
146M21,276,experiment,37,←,left,←,0.4937217002734542,True,18
146M21,277,experiment,27,→,right,→,0.5687234997749329,True,18
146M21,278,experiment,60,→,right,→,0.5312722004018724,True,18
146M21,279,experiment,21,→,left,←,0.6966725001111627,False,18
146M21,280,experiment,45,↑,up,↑,0.6073405002243817,True,18
146M21,281,experiment,14,↑,up,↑,0.6148353000171483,True,18
146M21,282,experiment,23,←,left,←,0.6955487001687288,True,18
146M21,283,experiment,22,→,right,→,0.5586294997483492,True,18
146M21,284,experiment,29,↑,left,←,0.4858919996768236,False,18
146M21,285,experiment,56,↓,down,↓,0.6780918003059924,True,18
146M21,286,experiment,44,←,left,←,0.6311588999815285,True,18
146M21,287,experiment,50,←,left,←,0.6375353001058102,True,18
146M21,288,experiment,13,↓,up,↑,0.9324009995907545,False,18
146M21,289,experiment,28,↑,up,↑,0.5811652997508645,True,18
146M21,290,experiment,40,↑,up,↑,0.5960880997590721,True,18
146M21,291,training,43,→,right,→,0.959298700094223,True,18
146M21,292,training,29,←,left,←,0.5111774997785687,True,18
146M21,293,experiment,52,↑,up,↑,0.5132437003776431,True,18
146M21,294,experiment,24,↑,up,↑,0.47067040018737316,True,18
146M21,295,experiment,23,↓,down,↓,0.516263899859041,True,18
146M21,296,experiment,54,→,right,→,1.5483384998515248,True,18
146M21,297,experiment,44,↑,up,↑,0.49067230010405183,True,18
146M21,298,experiment,36,→,right,→,1.1519894003868103,True,18
146M21,299,experiment,16,↑,up,↑,0.6162621998228133,True,18
146M21,300,experiment,57,←,left,←,0.7626188998110592,True,18
146M21,301,experiment,21,↑,right,→,0.8473789999261498,False,18
146M21,302,experiment,15,↓,down,↓,0.5717560001648962,True,18
146M21,303,experiment,48,→,right,→,0.49414619989693165,True,18
146M21,304,experiment,50,→,right,→,0.7142282002605498,True,18
146M21,305,experiment,29,↑,up,↑,0.7470370996743441,True,18
146M21,306,experiment,37,↓,down,↓,0.525460600387305,True,18
146M21,307,experiment,59,↓,down,↓,0.5544684999622405,True,18
146M21,308,experiment,53,↓,down,↓,0.5862141000106931,True,18
146M21,309,experiment,31,←,left,←,0.6869691000320017,True,18
146M21,310,experiment,22,→,right,→,0.5739267999306321,True,18
146M21,311,experiment,40,→,right,→,0.5573078999295831,True,18
146M21,312,experiment,38,←,right,→,1.6146466000936925,False,18
146M21,313,experiment,35,↑,up,↑,0.5681187002919614,True,18
146M21,314,experiment,49,←,left,←,0.7859105998650193,True,18
146M21,315,experiment,28,↓,down,↓,0.5366326998919249,True,18
146M21,316,experiment,43,→,right,→,0.5277404002845287,True,18
146M21,317,experiment,41,←,left,←,0.5923049999400973,True,18
146M21,318,experiment,45,↓,down,↓,0.65993080008775,True,18
146M21,319,experiment,17,↓,down,↓,0.6398565000854433,True,18
146M21,320,experiment,30,↓,down,↓,0.5388723998330534,True,18
146M21,321,experiment,42,↑,up,↑,0.6987187000922859,True,18
146M21,322,experiment,33,↑,up,↑,0.7295307000167668,True,18
146M21,323,experiment,14,↑,up,↑,0.788105099927634,True,18
146M21,324,experiment,58,↑,up,↑,0.5914035001769662,True,18
146M21,325,experiment,20,↑,up,↑,0.6195622999221087,True,18
146M21,326,experiment,46,↓,down,↓,0.7095226999372244,True,18
146M21,327,experiment,51,↑,up,↑,0.6479878998361528,True,18
146M21,328,experiment,55,←,left,←,0.730279800016433,True,18
146M21,329,experiment,18,↑,up,↑,0.6498846001923084,True,18
146M21,330,experiment,56,←,left,←,0.5240491000004113,True,18
146M21,331,experiment,26,←,left,←,0.8863501003943384,True,18
146M21,332,experiment,32,↑,up,↑,0.6227522003464401,True,18
146M21,333,experiment,13,→,right,→,0.7179672997444868,True,18
146M21,334,experiment,47,↓,down,↓,0.6512599000707269,True,18
146M21,335,experiment,60,→,left,←,0.5700805000960827,False,18
146M21,336,experiment,25,↓,down,↓,0.7155948998406529,True,18
146M21,337,experiment,34,→,right,→,0.529267500154674,True,18
146M21,338,experiment,19,←,left,←,0.8006961001083255,True,18
146M21,339,experiment,27,→,right,→,0.5594408996403217,True,18
146M21,340,experiment,39,↓,up,↑,1.0804977999068797,False,18
146M21,341,training,16,→,left,←,0.49686559988185763,False,17
146M21,342,training,24,←,left,←,0.6054385001771152,True,17
146M21,343,experiment,52,→,left,←,0.5636852998286486,False,17
146M21,344,experiment,34,↓,no_key,no_letter,-1.0,False,17
146M21,345,experiment,60,↓,right,→,1.2112249000929296,False,17
146M21,346,experiment,57,↓,down,↓,0.5826007998548448,True,17
146M21,347,experiment,23,→,right,→,0.5284802000969648,True,17
146M21,348,experiment,47,→,right,→,0.5814271001145244,True,17
146M21,349,experiment,48,↑,up,↑,0.5512079000473022,True,17
146M21,350,experiment,56,←,left,←,0.556698199827224,True,17
146M21,351,experiment,21,←,right,→,0.5214662998914719,False,17
146M21,352,experiment,31,←,left,←,0.48896329989656806,True,17
146M21,353,experiment,35,↑,up,↑,0.4872678997926414,True,17
146M21,354,experiment,50,→,right,→,0.46736619994044304,True,17
146M21,355,experiment,43,→,left,←,0.5411072997376323,False,17
146M21,356,experiment,41,→,right,→,0.5815634997561574,True,17
146M21,357,experiment,58,→,right,→,1.1041374001652002,True,17
146M21,358,experiment,49,←,left,←,0.6205312996171415,True,17
146M21,359,experiment,37,↑,up,↑,0.5241943998262286,True,17
146M21,360,experiment,13,←,left,←,0.703758199699223,True,17
146M21,361,experiment,39,→,right,→,0.5627440996468067,True,17
146M21,362,experiment,53,↓,down,↓,0.5701729999855161,True,17
146M21,363,experiment,28,↓,down,↓,0.5536381001584232,True,17
146M21,364,experiment,26,←,left,←,1.0590180000290275,True,17
146M21,365,experiment,18,↑,up,↑,0.8542447998188436,True,17
146M21,366,experiment,55,↓,down,↓,0.656332400161773,True,17
146M21,367,experiment,27,↑,up,↑,0.5497853001579642,True,17
146M21,368,experiment,46,→,right,→,0.5935444999486208,True,17
146M21,369,experiment,14,↓,down,↓,0.625878700055182,True,17
146M21,370,experiment,19,←,right,→,0.6532455999404192,False,17
146M21,371,experiment,38,←,right,→,1.018564600031823,False,17
146M21,372,experiment,22,←,left,←,0.6842116001062095,True,17
146M21,373,experiment,32,←,left,←,0.556630099657923,True,17
146M21,374,experiment,44,↓,down,↓,0.5700659002177417,True,17
146M21,375,experiment,40,↓,down,↓,0.6978167002089322,True,17
146M21,376,experiment,51,↑,up,↑,0.5486082001589239,True,17
146M21,377,experiment,25,↑,up,↑,0.6950822998769581,True,17
146M21,378,experiment,29,→,right,→,0.6492221998050809,True,17
146M21,379,experiment,20,↓,down,↓,0.5784852998331189,True,17
146M21,380,experiment,16,→,right,→,0.4993058000691235,True,17
146M21,381,experiment,59,→,right,→,0.7435925002209842,True,17
146M21,382,experiment,33,↑,up,↑,0.8211560002528131,True,17
146M21,383,experiment,36,↓,down,↓,0.5015447996556759,True,17
146M21,384,experiment,54,→,right,→,0.5904468996450305,True,17
146M21,385,experiment,24,←,left,←,0.5838296003639698,True,17
146M21,386,experiment,17,←,left,←,0.6139825000427663,True,17
146M21,387,experiment,30,←,left,←,0.6579503999091685,True,17
146M21,388,experiment,42,→,right,→,0.7254177001304924,True,17
146M21,389,experiment,15,↑,down,↓,0.8551441999152303,False,17
146M21,390,experiment,45,→,right,→,0.7441360997036099,True,17
146M21,391,training,31,←,right,→,0.4819372999481857,False,17
146M21,392,training,34,↑,up,↑,0.5447709001600742,True,17
146M21,393,experiment,20,↑,up,↑,0.5827190997079015,True,17
146M21,394,experiment,32,↑,up,↑,0.5789454998448491,True,17
146M21,395,experiment,43,←,left,←,0.6003064000979066,True,17
146M21,396,experiment,23,←,left,←,0.5537922000512481,True,17
146M21,397,experiment,60,←,left,←,0.5810517999343574,True,17
146M21,398,experiment,58,↓,down,↓,0.7920284001156688,True,17
146M21,399,experiment,41,↑,up,↑,0.5181232001632452,True,17
146M21,400,experiment,59,↑,up,↑,0.4992211000062525,True,17
146M21,401,experiment,55,↑,up,↑,0.5875421999953687,True,17
146M21,402,experiment,33,↑,up,↑,0.47124300012364984,True,17
146M21,403,experiment,38,↑,up,↑,1.3720835000276566,True,17
146M21,404,experiment,18,←,right,→,0.7944554998539388,False,17
146M21,405,experiment,26,→,right,→,0.6184719000011683,True,17
146M21,406,experiment,13,←,left,←,0.6178280999884009,True,17
146M21,407,experiment,19,→,right,→,0.5494784000329673,True,17
146M21,408,experiment,25,←,left,←,0.5353518999181688,True,17
146M21,409,experiment,46,←,left,←,0.9565783999860287,True,17
146M21,410,experiment,36,↓,down,↓,0.6475049001164734,True,17
146M21,411,experiment,51,↓,down,↓,0.5804882999509573,True,17
146M21,412,experiment,15,↑,up,↑,0.5399233996868134,True,17
146M21,413,experiment,16,→,right,→,0.48438649997115135,True,17
146M21,414,experiment,44,→,right,→,0.48476820020005107,True,17
146M21,415,experiment,50,↑,up,↑,0.48096829978749156,True,17
146M21,416,experiment,49,→,right,→,0.5180236999876797,True,17
146M21,417,experiment,45,→,right,→,0.556330299936235,True,17
146M21,418,experiment,24,→,right,→,0.6148475999943912,True,17
146M21,419,experiment,14,→,left,←,0.7098360997624695,False,17
146M21,420,experiment,22,↑,up,↑,0.6355752004310489,True,17
146M21,421,experiment,30,→,right,→,0.6393583002500236,True,17
146M21,422,experiment,31,↑,up,↑,0.6263879002071917,True,17
146M21,423,experiment,27,↑,up,↑,0.6081750998273492,True,17
146M21,424,experiment,56,↑,up,↑,0.6280370000749826,True,17
146M21,425,experiment,40,↓,down,↓,0.6897528995759785,True,17
146M21,426,experiment,28,←,left,←,0.5645242999307811,True,17
146M21,427,experiment,37,→,left,←,0.646087700035423,False,17
146M21,428,experiment,47,→,left,←,0.5421607000753284,False,17
146M21,429,experiment,34,↓,down,↓,0.619284600019455,True,17
146M21,430,experiment,54,↑,up,↑,0.5672883996739984,True,17
146M21,431,experiment,21,→,right,→,0.6353428000584245,True,17
146M21,432,experiment,57,←,left,←,0.6692456002347171,True,17
146M21,433,experiment,35,↓,down,↓,0.6840774999000132,True,17
146M21,434,experiment,17,←,left,←,0.590103100053966,True,17
146M21,435,experiment,53,↑,down,↓,0.6287682997062802,False,17
146M21,436,experiment,42,↑,down,↓,1.0170599999837577,False,17
146M21,437,experiment,39,↑,up,↑,0.6634283997118473,True,17
146M21,438,experiment,52,→,right,→,0.5390550000593066,True,17
146M21,439,experiment,29,↑,down,↓,0.7712758998386562,False,17
146M21,440,experiment,48,↑,down,↓,0.8132948996499181,False,17
146M21,441,training,34,↑,up,↑,0.4922893000766635,True,17
146M21,442,training,39,↑,up,↑,0.5275878002867103,True,17
146M21,443,experiment,22,→,right,→,0.5649537998251617,True,17
146M21,444,experiment,13,→,left,←,0.7108366996981204,False,17
146M21,445,experiment,32,←,left,←,0.5898400000296533,True,17
146M21,446,experiment,49,←,left,←,0.7667088001035154,True,17
146M21,447,experiment,51,←,left,←,0.7671905998140574,True,17
146M21,448,experiment,48,↓,down,↓,0.5136945997364819,True,17
146M21,449,experiment,46,→,right,→,0.5191938001662493,True,17
146M21,450,experiment,28,↓,down,↓,0.6246944000013173,True,17
146M21,451,experiment,54,↓,down,↓,0.5972476997412741,True,17
146M21,452,experiment,36,←,left,←,0.6058730999939144,True,17
146M21,453,experiment,15,→,right,→,0.6368836998008192,True,17
146M21,454,experiment,47,←,left,←,0.5650849998928607,True,17
146M21,455,experiment,56,↓,down,↓,0.5542105999775231,True,17
146M21,456,experiment,23,→,left,←,0.6853208998218179,False,17
146M21,457,experiment,57,→,right,→,0.5652044997550547,True,17
146M21,458,experiment,60,↓,right,→,0.5836117998696864,False,17
146M21,459,experiment,26,←,left,←,0.6235583000816405,True,17
146M21,460,experiment,38,←,left,←,0.4785037999972701,True,17
146M21,461,experiment,55,→,right,→,0.648343900218606,True,17
146M21,462,experiment,39,↓,down,↓,0.8132579997181892,True,17
146M21,463,experiment,44,←,left,←,0.5200200998224318,True,17
146M21,464,experiment,59,↑,up,↑,0.5970975998789072,True,17
146M21,465,experiment,30,↓,up,↑,0.9380111000500619,False,17
146M21,466,experiment,31,→,right,→,0.4970927000977099,True,17
146M21,467,experiment,29,↓,down,↓,0.4822867000475526,True,17
146M21,468,experiment,27,←,left,←,0.6057508001103997,True,17
146M21,469,experiment,35,↓,down,↓,0.5192317999899387,True,17
146M21,470,experiment,50,↑,up,↑,0.5065110996365547,True,17
146M21,471,experiment,45,←,left,←,0.48932750010862947,True,17
146M21,472,experiment,58,↓,down,↓,1.6081157000735402,True,17
146M21,473,experiment,52,↑,down,↓,0.758980399928987,False,17
146M21,474,experiment,42,↓,down,↓,0.6141915996558964,True,17
146M21,475,experiment,53,→,left,←,0.6269836002029479,False,17
146M21,476,experiment,21,→,left,←,0.8452652003616095,False,17
146M21,477,experiment,25,↓,down,↓,0.5399512997828424,True,17
146M21,478,experiment,16,↓,down,↓,0.6528095998801291,True,17
146M21,479,experiment,34,↑,up,↑,0.5407966999337077,True,17
146M21,480,experiment,18,↓,up,↑,0.6522806999273598,False,17
146M21,481,experiment,41,↓,down,↓,0.623840400017798,True,17
146M21,482,experiment,19,↑,down,↓,1.1233239998109639,False,17
146M21,483,experiment,43,←,left,←,0.5313690998591483,True,17
146M21,484,experiment,33,→,right,→,0.49677269998937845,True,17
146M21,485,experiment,24,↑,up,↑,0.6856509000062943,True,17
146M21,486,experiment,37,←,left,←,0.5064489003270864,True,17
146M21,487,experiment,17,↑,up,↑,0.6517655998468399,True,17
146M21,488,experiment,20,←,left,←,0.5250222999602556,True,17
146M21,489,experiment,14,↑,up,↑,0.567956100217998,True,17
146M21,490,experiment,40,↑,up,↑,0.7755170003511012,True,17
146M21,491,training,50,↓,down,↓,0.5740747000090778,True,17
146M21,492,training,18,→,right,→,0.5239848997443914,True,17
146M21,493,experiment,39,↑,down,↓,0.6622009999118745,False,17
146M21,494,experiment,57,→,right,→,0.607209499925375,True,17
146M21,495,experiment,31,→,right,→,0.5876787002198398,True,17
146M21,496,experiment,30,↑,up,↑,0.5447480999864638,True,17
146M21,497,experiment,50,←,left,←,0.4913778002373874,True,17
146M21,498,experiment,29,↓,up,↑,0.5578989996574819,False,17
146M21,499,experiment,46,↑,up,↑,0.5214231996797025,True,17
146M21,500,experiment,15,↑,up,↑,0.4996607997454703,True,17
146M21,501,experiment,48,→,right,→,0.49644090002402663,True,17
146M21,502,experiment,19,→,left,←,0.4813326997682452,False,17
146M21,503,experiment,42,↓,right,→,0.8506451998837292,False,17
146M21,504,experiment,25,↓,down,↓,0.5848427000455558,True,17
146M21,505,experiment,52,↓,down,↓,0.48778289975598454,True,17
146M21,506,experiment,45,→,right,→,0.5435625999234617,True,17
146M21,507,experiment,34,←,left,←,0.7323680999688804,True,17
146M21,508,experiment,17,↑,up,↑,0.7483220002613962,True,17
146M21,509,experiment,14,←,left,←,0.7580210999585688,True,17
146M21,510,experiment,53,←,left,←,0.6937954002059996,True,17
146M21,511,experiment,58,→,right,→,0.45310730021446943,True,17
146M21,512,experiment,27,↓,down,↓,0.5447937999852002,True,17
146M21,513,experiment,47,→,right,→,0.629080199636519,True,17
146M21,514,experiment,49,↑,up,↑,0.5642299000173807,True,17
146M21,515,experiment,54,→,right,→,0.5386357000097632,True,17
146M21,516,experiment,38,←,left,←,0.5967225995846093,True,17
146M21,517,experiment,56,←,left,←,0.7133518001064658,True,17
146M21,518,experiment,59,↑,up,↑,0.5020264997147024,True,17
146M21,519,experiment,40,↑,up,↑,0.48019809974357486,True,17
146M21,520,experiment,43,↓,down,↓,0.6570208999328315,True,17
146M21,521,experiment,13,←,right,→,0.6391752995550632,False,17
146M21,522,experiment,18,→,right,→,0.5869148001074791,True,17
146M21,523,experiment,33,→,left,←,0.5265968004241586,False,17
146M21,524,experiment,44,←,left,←,0.4531929004006088,True,17
146M21,525,experiment,21,←,left,←,0.4536456000059843,True,17
146M21,526,experiment,28,→,left,←,0.4563127998262644,False,17
146M21,527,experiment,24,↓,down,↓,0.5589356003329158,True,17
146M21,528,experiment,41,←,left,←,0.4625458000227809,True,17
146M21,529,experiment,55,↑,up,↑,0.5197938997298479,True,17
146M21,530,experiment,36,↑,down,↓,0.8279506997205317,False,17
146M21,531,experiment,35,←,right,→,0.6289443001151085,False,17
146M21,532,experiment,20,↓,down,↓,0.9835270000621676,True,17
146M21,533,experiment,23,↑,up,↑,0.5942979999817908,True,17
146M21,534,experiment,37,←,left,←,1.3869777000509202,True,17
146M21,535,experiment,16,→,right,→,0.7940473998896778,True,17
146M21,536,experiment,26,↑,up,↑,0.5301725999452174,True,17
146M21,537,experiment,32,↑,up,↑,0.5049619995988905,True,17
146M21,538,experiment,51,↑,up,↑,0.6119032995775342,True,17
146M21,539,experiment,60,↑,up,↑,1.237084399908781,True,17
146M21,540,experiment,22,↑,up,↑,0.5100930002517998,True,17
146M21,541,training,44,←,right,→,1.0075929001905024,False,17
146M21,542,training,29,→,right,→,0.4854627996683121,True,17
146M21,543,experiment,19,↑,up,↑,0.6940422998741269,True,17
146M21,544,experiment,24,←,left,←,0.5955743002705276,True,17
146M21,545,experiment,41,→,right,→,0.6736494000069797,True,17
146M21,546,experiment,28,↓,up,↑,0.5810560001991689,False,17
146M21,547,experiment,50,→,left,←,0.6533967000432312,False,17
146M21,548,experiment,49,→,right,→,0.619974400382489,True,17
146M21,549,experiment,26,↓,down,↓,0.5788749000057578,True,17
146M21,550,experiment,54,←,left,←,0.6252097999677062,True,17
146M21,551,experiment,22,↓,down,↓,0.5704874000512064,True,17
146M21,552,experiment,36,→,left,←,0.6605929001234472,False,17
146M21,553,experiment,35,←,left,←,0.6686586001887918,True,17
146M21,554,experiment,31,↑,up,↑,0.5739753004163504,True,17
146M21,555,experiment,47,→,left,←,0.6808549999259412,False,17
146M21,556,experiment,38,→,right,→,0.6771669001318514,True,17
146M21,557,experiment,13,↑,down,↓,0.8902915995568037,False,17
146M21,558,experiment,60,→,right,→,0.7284236000850797,True,17
146M21,559,experiment,16,→,right,→,0.6895602000877261,True,17
146M21,560,experiment,58,←,left,←,0.5046713999472558,True,17
146M21,561,experiment,51,→,right,→,0.619819600135088,True,17
146M21,562,experiment,29,↓,down,↓,0.5766608999110758,True,17
146M21,563,experiment,48,↓,up,↑,0.6189079000614583,False,17
146M21,564,experiment,55,↑,up,↑,0.7906663999892771,True,17
146M21,565,experiment,53,←,left,←,0.5010025002993643,True,17
146M21,566,experiment,32,←,left,←,0.5726516996510327,True,17
146M21,567,experiment,14,↑,up,↑,0.5652498002164066,True,17
146M21,568,experiment,40,↓,down,↓,0.5408749999478459,True,17
146M21,569,experiment,23,←,left,←,0.5928706000559032,True,17
146M21,570,experiment,56,→,left,←,0.5650432999245822,False,17
146M21,571,experiment,43,→,left,←,0.5708417999558151,False,17
146M21,572,experiment,34,→,right,→,0.5581439998932183,True,17
146M21,573,experiment,30,↓,down,↓,0.6369851003400981,True,17
146M21,574,experiment,15,←,right,→,1.2665691999718547,False,17
146M21,575,experiment,39,↓,down,↓,0.5831329999491572,True,17
146M21,576,experiment,46,←,left,←,0.5301143997348845,True,17
146M21,577,experiment,27,→,right,→,0.5632376000285149,True,17
146M21,578,experiment,33,←,right,→,0.4876859001815319,False,17
146M21,579,experiment,45,→,left,←,0.4635009001940489,False,17
146M21,580,experiment,25,→,right,→,0.5083790002390742,True,17
146M21,581,experiment,42,←,left,←,0.5734900003299117,True,17
146M21,582,experiment,18,↑,up,↑,0.5875162999145687,True,17
146M21,583,experiment,20,↓,down,↓,0.6314552002586424,True,17
146M21,584,experiment,37,←,right,→,0.65312679996714,False,17
146M21,585,experiment,57,↓,up,↑,0.5739969997666776,False,17
146M21,586,experiment,59,↓,down,↓,0.6333459997549653,True,17
146M21,587,experiment,52,↑,up,↑,0.670161799993366,True,17
146M21,588,experiment,44,↑,up,↑,0.48713060002774,True,17
146M21,589,experiment,17,←,left,←,0.6170332999899983,True,17
146M21,590,experiment,21,→,right,→,0.46705029997974634,True,17
