PART_ID,Trial_no,Trial_type,CSI,Stim_letter,Key_pressed,letter_choose,Rt,Corr,Stimulus Time
147K25,1,training,60,←,left,←,1.1782658002339303,True,30
147K25,2,training,60,↑,up,↑,1.7642036001197994,True,30
147K25,3,training,60,→,right,→,0.6947101997211576,True,30
147K25,4,training,60,→,no_key,no_letter,-1.0,False,30
147K25,5,training,60,←,left,←,1.2787981000728905,True,30
147K25,6,training,60,←,left,←,1.3166322000324726,True,30
147K25,7,training,60,←,left,←,1.2091494998894632,True,30
147K25,8,training,60,↑,up,↑,1.2018725997768342,True,30
147K25,9,training,60,↓,down,↓,1.32275400031358,True,30
147K25,10,training,60,↓,down,↓,1.0793560002930462,True,30
147K25,11,training,60,↑,up,↑,1.1813475000672042,True,30
147K25,12,training,60,↑,up,↑,1.1913148001767695,True,30
147K25,13,training,60,→,right,→,1.1608386002480984,True,30
147K25,14,training,60,↓,down,↓,1.059439199976623,True,30
147K25,15,training,60,→,right,→,1.1781255998648703,True,30
147K25,16,training,60,↓,down,↓,1.1239120000973344,True,30
147K25,17,training,60,↓,down,↓,1.0884258998557925,True,30
147K25,18,training,60,↓,down,↓,1.0060224002227187,True,30
147K25,19,training,60,←,left,←,1.079053399618715,True,30
147K25,20,training,60,↑,up,↑,1.0128226997330785,True,30
147K25,21,training,60,↑,up,↑,0.7880340996198356,True,18
147K25,22,training,60,←,left,←,0.9338046996854246,True,18
147K25,23,training,60,←,left,←,0.8814659002237022,True,18
147K25,24,training,60,↓,down,↓,0.9513524998910725,True,18
147K25,25,training,60,←,up,↑,1.4900379995815456,False,18
147K25,26,training,60,→,right,→,0.8799549997784197,True,18
147K25,27,training,60,→,right,→,1.1096816002391279,True,18
147K25,28,training,60,→,right,→,1.098188000265509,True,18
147K25,29,training,60,→,down,↓,1.3996705999597907,False,18
147K25,30,training,60,←,left,←,0.7606954998336732,True,18
147K25,31,training,60,→,right,→,0.8591983998194337,True,18
147K25,32,training,60,→,right,→,0.745579699985683,True,18
147K25,33,training,60,→,left,←,1.2684889999218285,False,18
147K25,34,training,60,↓,down,↓,0.8108482998795807,True,18
147K25,35,training,60,←,right,→,1.0114041999913752,False,18
147K25,36,training,60,→,left,←,0.8436039001680911,False,18
147K25,37,training,60,→,down,↓,1.1707591000013053,False,18
147K25,38,training,60,←,left,←,0.8131077997386456,True,18
147K25,39,training,60,→,left,←,0.8454431002028286,False,18
147K25,40,training,60,→,left,←,0.7087423000484705,False,18
147K25,41,training,57,←,left,←,0.7922810995951295,True,18
147K25,42,training,54,↓,down,↓,0.6139580002054572,True,18
147K25,43,experiment,29,→,down,↓,0.8266288000158966,False,18
147K25,44,experiment,34,←,left,←,0.6282878001220524,True,18
147K25,45,experiment,40,←,left,←,0.7779783997684717,True,18
147K25,46,experiment,36,←,left,←,0.8364097001031041,True,18
147K25,47,experiment,38,↓,down,↓,1.1865886999294162,True,18
147K25,48,experiment,33,↓,up,↑,0.9676558999344707,False,18
147K25,49,experiment,28,←,left,←,0.6700889002531767,True,18
147K25,50,experiment,59,↑,up,↑,1.0451428000815213,True,18
147K25,51,experiment,20,↑,down,↓,0.9433256001211703,False,18
147K25,52,experiment,53,↑,up,↑,0.663765300065279,True,18
147K25,53,experiment,15,→,up,↑,1.2998657003045082,False,18
147K25,54,experiment,25,↓,down,↓,0.7925227996893227,True,18
147K25,55,experiment,44,←,left,←,0.6848792000673711,True,18
147K25,56,experiment,32,←,left,←,1.0931469001807272,True,18
147K25,57,experiment,49,↑,up,↑,0.6820982997305691,True,18
147K25,58,experiment,22,↑,up,↑,0.9128966997377574,True,18
147K25,59,experiment,45,↑,up,↑,0.8641973999328911,True,18
147K25,60,experiment,54,↑,up,↑,0.7464688997715712,True,18
147K25,61,experiment,30,↑,up,↑,0.7459516003727913,True,18
147K25,62,experiment,24,↓,up,↑,1.101231100037694,False,18
147K25,63,experiment,48,←,left,←,0.9701352999545634,True,18
147K25,64,experiment,13,↓,down,↓,1.6357713001780212,True,18
147K25,65,experiment,42,→,right,→,0.6477089999243617,True,18
147K25,66,experiment,50,←,left,←,0.5576994000002742,True,18
147K25,67,experiment,23,→,right,→,0.6888363002799451,True,18
147K25,68,experiment,31,←,left,←,0.6421820996329188,True,18
147K25,69,experiment,26,↑,down,↓,1.2561107999645174,False,18
147K25,70,experiment,56,→,right,→,0.8181206998415291,True,18
147K25,71,experiment,60,↑,up,↑,0.7383385999128222,True,18
147K25,72,experiment,27,↑,up,↑,0.5321877002716064,True,18
147K25,73,experiment,43,↑,up,↑,0.9070359002798796,True,18
147K25,74,experiment,37,→,down,↓,1.1433063000440598,False,18
147K25,75,experiment,55,→,left,←,1.206551100127399,False,18
147K25,76,experiment,41,←,left,←,0.5323416003957391,True,18
147K25,77,experiment,58,↑,up,↑,0.8893594001419842,True,18
147K25,78,experiment,21,↓,down,↓,0.9532766002230346,True,18
147K25,79,experiment,46,→,right,→,1.0536237000487745,True,18
147K25,80,experiment,39,←,right,→,0.8985573998652399,False,18
147K25,81,experiment,14,↑,up,↑,0.8539885003119707,True,18
147K25,82,experiment,19,↓,left,←,1.2564913001842797,False,18
147K25,83,experiment,35,←,left,←,1.12020910019055,True,18
147K25,84,experiment,17,←,left,←,0.8571784999221563,True,18
147K25,85,experiment,18,←,left,←,0.8520782999694347,True,18
147K25,86,experiment,16,↑,up,↑,0.5359197999350727,True,18
147K25,87,experiment,52,↑,down,↓,0.9130182000808418,False,18
147K25,88,experiment,51,↑,up,↑,0.6361671001650393,True,18
147K25,89,experiment,47,←,left,←,0.7406815001741052,True,18
147K25,90,experiment,57,←,up,↑,1.1063137999735773,False,18
147K25,91,training,22,←,left,←,0.7474178001284599,True,18
147K25,92,training,29,←,up,↑,0.6752045000903308,False,18
147K25,93,experiment,48,→,right,→,0.7934914003126323,True,18
147K25,94,experiment,22,↑,up,↑,0.6762443999759853,True,18
147K25,95,experiment,44,→,up,↑,0.6532755000516772,False,18
147K25,96,experiment,60,↓,up,↑,0.7321004001423717,False,18
147K25,97,experiment,47,↓,up,↑,0.7767231999896467,False,18
147K25,98,experiment,23,↓,down,↓,1.7636363003402948,True,18
147K25,99,experiment,20,→,up,↑,1.0488824001513422,False,18
147K25,100,experiment,41,←,left,←,0.6524710999801755,True,18
147K25,101,experiment,40,→,up,↑,0.7606259998865426,False,18
147K25,102,experiment,57,↑,up,↑,0.5261049000546336,True,18
147K25,103,experiment,46,→,right,→,0.7479396997950971,True,18
147K25,104,experiment,36,↓,down,↓,0.7743400996550918,True,18
147K25,105,experiment,19,↑,down,↓,1.148084499873221,False,18
147K25,106,experiment,32,↑,up,↑,0.4818045999854803,True,18
147K25,107,experiment,35,↑,down,↓,1.0319106001406908,False,18
147K25,108,experiment,49,←,left,←,0.6069320002570748,True,18
147K25,109,experiment,31,→,down,↓,0.97930150013417,False,18
147K25,110,experiment,42,↓,down,↓,0.7208807999268174,True,18
147K25,111,experiment,16,→,left,←,0.9063090002164245,False,18
147K25,112,experiment,39,↓,down,↓,0.8214568002149463,True,18
147K25,113,experiment,15,↑,up,↑,0.6276638996787369,True,18
147K25,114,experiment,18,←,left,←,0.6798534002155066,True,18
147K25,115,experiment,33,←,left,←,0.5520546999759972,True,18
147K25,116,experiment,38,←,left,←,0.5135424002073705,True,18
147K25,117,experiment,21,↑,up,↑,0.38393420027568936,True,18
147K25,118,experiment,34,←,left,←,0.5537104997783899,True,18
147K25,119,experiment,14,←,up,↑,0.8428078996948898,False,18
147K25,120,experiment,45,→,up,↑,1.1888145999982953,False,18
147K25,121,experiment,13,↓,down,↓,0.7977502997964621,True,18
147K25,122,experiment,24,↑,up,↑,0.5265996996313334,True,18
147K25,123,experiment,26,→,right,→,0.6413994999602437,True,18
147K25,124,experiment,25,↑,up,↑,0.8242317000404,True,18
147K25,125,experiment,56,↓,down,↓,0.8751495000906289,True,18
147K25,126,experiment,54,→,up,↑,0.9737809002399445,False,18
147K25,127,experiment,37,↓,up,↑,0.8155680997297168,False,18
147K25,128,experiment,43,←,up,↑,0.9870118000544608,False,18
147K25,129,experiment,27,↓,down,↓,1.122653900180012,True,18
147K25,130,experiment,29,←,left,←,0.6517055998556316,True,18
147K25,131,experiment,17,↓,down,↓,0.719782100059092,True,18
147K25,132,experiment,59,↑,up,↑,0.48448750004172325,True,18
147K25,133,experiment,30,↑,down,↓,1.0459210998378694,False,18
147K25,134,experiment,58,←,left,←,0.7822785996831954,True,18
147K25,135,experiment,28,↑,up,↑,0.5414783000014722,True,18
147K25,136,experiment,51,→,right,→,0.7828432000242174,True,18
147K25,137,experiment,52,←,left,←,0.717936800327152,True,18
147K25,138,experiment,50,←,right,→,0.6971756001003087,False,18
147K25,139,experiment,55,←,up,↑,0.7536149001680315,False,18
147K25,140,experiment,53,←,up,↑,0.87332470016554,False,18
147K25,141,training,54,←,left,←,0.5349872000515461,True,18
147K25,142,training,41,↓,down,↓,0.6870616995729506,True,18
147K25,143,experiment,16,↓,down,↓,0.6340954997576773,True,18
147K25,144,experiment,27,←,up,↑,1.2713251998648047,False,18
147K25,145,experiment,46,↓,down,↓,0.4161922000348568,True,18
147K25,146,experiment,43,↓,down,↓,1.0984097002074122,True,18
147K25,147,experiment,49,→,right,→,0.71069739991799,True,18
147K25,148,experiment,33,→,down,↓,0.9019467001780868,False,18
147K25,149,experiment,35,↑,up,↑,1.4273327998816967,True,18
147K25,150,experiment,34,←,right,→,0.9892144999466836,False,18
147K25,151,experiment,59,←,left,←,1.15177830029279,True,18
147K25,152,experiment,39,→,down,↓,1.049465799704194,False,18
147K25,153,experiment,20,↓,up,↑,0.3840283998288214,False,18
147K25,154,experiment,29,↑,down,↓,0.9920021998696029,False,18
147K25,155,experiment,21,←,left,←,0.507719200104475,True,18
147K25,156,experiment,37,↓,down,↓,0.679812999907881,True,18
147K25,157,experiment,47,←,down,↓,0.9421163001097739,False,18
147K25,158,experiment,31,↓,down,↓,0.8853468997403979,True,18
147K25,159,experiment,56,→,right,→,0.5657728998921812,True,18
147K25,160,experiment,26,↑,up,↑,0.5665935999713838,True,18
147K25,161,experiment,15,↓,down,↓,0.7343828999437392,True,18
147K25,162,experiment,53,→,right,→,0.5270836995914578,True,18
147K25,163,experiment,57,↓,up,↑,0.6533471997827291,False,18
147K25,164,experiment,18,→,right,→,0.5279660997912288,True,18
147K25,165,experiment,51,↑,up,↑,0.5464296997524798,True,18
147K25,166,experiment,22,↑,down,↓,0.8151610000059009,False,18
147K25,167,experiment,42,←,left,←,0.579634000081569,True,18
147K25,168,experiment,25,↓,down,↓,0.5891309999860823,True,18
147K25,169,experiment,54,←,left,←,1.1623801998794079,True,18
147K25,170,experiment,58,→,down,↓,0.8866143003106117,False,18
147K25,171,experiment,24,←,down,↓,1.0599786001257598,False,18
147K25,172,experiment,45,↑,down,↓,0.9412131998687983,False,18
147K25,173,experiment,30,↓,up,↑,1.2527726995758712,False,18
147K25,174,experiment,44,↑,right,→,1.1667853998951614,False,18
147K25,175,experiment,38,↓,down,↓,0.7440947000868618,True,18
147K25,176,experiment,41,→,right,→,0.6321454998105764,True,18
147K25,177,experiment,40,↓,down,↓,0.5094308000989258,True,18
147K25,178,experiment,19,↑,up,↑,0.5250944001600146,True,18
147K25,179,experiment,55,←,down,↓,0.8128967001102865,False,18
147K25,180,experiment,52,→,right,→,0.5467142998240888,True,18
147K25,181,experiment,50,→,right,→,0.9411613000556827,True,18
147K25,182,experiment,13,→,right,→,0.912020799703896,True,18
147K25,183,experiment,32,↑,up,↑,1.0717555000446737,True,18
147K25,184,experiment,14,→,right,→,0.5883061001077294,True,18
147K25,185,experiment,28,←,left,←,1.7554806000553071,True,18
147K25,186,experiment,48,→,right,→,0.6389362998306751,True,18
147K25,187,experiment,17,↓,down,↓,0.6668941997922957,True,18
147K25,188,experiment,23,←,left,←,0.5058983997441828,True,18
147K25,189,experiment,60,↓,down,↓,0.6948928004130721,True,18
147K25,190,experiment,36,→,right,→,0.9644285999238491,True,18
147K25,191,training,40,↑,left,←,1.420849499758333,False,18
147K25,192,training,55,←,left,←,0.5607859999872744,True,18
147K25,193,experiment,16,↑,up,↑,0.48103349981829524,True,18
147K25,194,experiment,58,→,right,→,0.8237564000301063,True,18
147K25,195,experiment,27,↓,down,↓,0.6302784001454711,True,18
147K25,196,experiment,38,↓,up,↑,0.4341239999048412,False,18
147K25,197,experiment,20,↓,down,↓,0.48668459989130497,True,18
147K25,198,experiment,30,→,right,→,0.7196539002470672,True,18
147K25,199,experiment,52,→,right,→,0.7533672996796668,True,18
147K25,200,experiment,23,↑,down,↓,0.9007925996556878,False,18
147K25,201,experiment,55,→,right,→,1.1576817003078759,True,18
147K25,202,experiment,19,→,right,→,0.9157031998038292,True,18
147K25,203,experiment,59,↓,down,↓,0.7931491998024285,True,18
147K25,204,experiment,51,→,right,→,0.5448682000860572,True,18
147K25,205,experiment,54,↑,up,↑,0.5525768003426492,True,18
147K25,206,experiment,37,↑,up,↑,0.5947044999338686,True,18
147K25,207,experiment,48,↑,up,↑,0.41641429997980595,True,18
147K25,208,experiment,41,↓,left,←,1.176380000077188,False,18
147K25,209,experiment,39,↓,down,↓,0.6727996999397874,True,18
147K25,210,experiment,47,↓,down,↓,0.631814899854362,True,18
147K25,211,experiment,31,↑,down,↓,0.7388769001699984,False,18
147K25,212,experiment,13,↓,down,↓,0.5734684998169541,True,18
147K25,213,experiment,25,↑,up,↑,1.727014200296253,True,18
147K25,214,experiment,57,↓,down,↓,0.8299908000044525,True,18
147K25,215,experiment,36,↓,up,↑,1.1026081000454724,False,18
147K25,216,experiment,42,↑,up,↑,0.6392461997456849,True,18
147K25,217,experiment,22,→,right,→,0.5681758997961879,True,18
147K25,218,experiment,26,↓,down,↓,0.5767915998585522,True,18
147K25,219,experiment,18,↑,up,↑,1.2791253002360463,True,18
147K25,220,experiment,35,↓,down,↓,0.5740935998037457,True,18
147K25,221,experiment,15,→,right,→,1.1343260002322495,True,18
147K25,222,experiment,34,↑,up,↑,0.5234818002209067,True,18
147K25,223,experiment,43,↑,down,↓,0.8353297999128699,False,18
147K25,224,experiment,24,→,left,←,0.7945858999155462,False,18
147K25,225,experiment,14,↑,up,↑,0.47458009980618954,True,18
147K25,226,experiment,49,→,right,→,0.4954610001295805,True,18
147K25,227,experiment,46,→,right,→,1.0382572999224067,True,18
147K25,228,experiment,56,↑,up,↑,0.41749460017308593,True,18
147K25,229,experiment,44,→,right,→,0.9706035000272095,True,18
147K25,230,experiment,45,→,right,→,1.1670209001749754,True,18
147K25,231,experiment,40,↓,down,↓,0.694736999925226,True,18
147K25,232,experiment,33,←,right,→,1.726482200436294,False,18
147K25,233,experiment,53,→,right,→,0.9277345999144018,True,18
147K25,234,experiment,60,↑,up,↑,0.5082368003204465,True,18
147K25,235,experiment,28,↑,up,↑,0.5824898001737893,True,18
147K25,236,experiment,21,↓,down,↓,0.6739668999798596,True,18
147K25,237,experiment,50,↑,up,↑,0.9510640995576978,True,18
147K25,238,experiment,29,↓,down,↓,0.6227319999597967,True,18
147K25,239,experiment,17,↓,down,↓,0.43373210029676557,True,18
147K25,240,experiment,32,↓,down,↓,0.3833253998309374,True,18
147K25,241,training,60,↑,down,↓,0.9971155999228358,False,18
147K25,242,training,18,→,right,→,0.9219446000643075,True,18
147K25,243,experiment,41,←,up,↑,1.1949621001258492,False,18
147K25,244,experiment,43,↑,up,↑,0.5283333999104798,True,18
147K25,245,experiment,23,↓,down,↓,0.6049568001180887,True,18
147K25,246,experiment,45,↓,up,↑,1.2001192001625896,False,18
147K25,247,experiment,49,↓,down,↓,0.58434720011428,True,18
147K25,248,experiment,58,↓,down,↓,0.9474871996790171,True,18
147K25,249,experiment,18,↑,up,↑,1.5785738001577556,True,18
147K25,250,experiment,31,↓,down,↓,1.0164902000688016,True,18
147K25,251,experiment,25,←,left,←,0.5441469997167587,True,18
147K25,252,experiment,35,↑,up,↑,0.6923890002071857,True,18
147K25,253,experiment,42,←,right,→,0.8060322999954224,False,18
147K25,254,experiment,52,←,down,↓,0.7325138999149203,False,18
147K25,255,experiment,47,→,right,→,0.6488049002364278,True,18
147K25,256,experiment,15,↓,down,↓,0.6533706998452544,True,18
147K25,257,experiment,29,→,right,→,0.6408462002873421,True,18
147K25,258,experiment,19,←,left,←,0.5718005001544952,True,18
147K25,259,experiment,51,↓,down,↓,0.5721028996631503,True,18
147K25,260,experiment,53,↓,down,↓,0.5551976002752781,True,18
147K25,261,experiment,24,↑,left,←,1.00562039995566,False,18
147K25,262,experiment,48,→,down,↓,1.455003899987787,False,18
147K25,263,experiment,36,↑,up,↑,0.47830270044505596,True,18
147K25,264,experiment,28,→,left,←,0.9288294999860227,False,18
147K25,265,experiment,13,←,left,←,0.6685649999417365,True,18
147K25,266,experiment,20,←,up,↑,0.9571521999314427,False,18
147K25,267,experiment,40,↑,up,↑,0.5737183000892401,True,18
147K25,268,experiment,33,→,right,→,0.5538857001811266,True,18
147K25,269,experiment,16,↑,up,↑,0.5536902998574078,True,18
147K25,270,experiment,59,↑,up,↑,1.6937235998921096,True,18
147K25,271,experiment,14,→,right,→,0.6102593997493386,True,18
147K25,272,experiment,54,→,left,←,0.9909232999198139,False,18
147K25,273,experiment,32,→,up,↑,0.931243299972266,False,18
147K25,274,experiment,57,←,down,↓,0.8254993003793061,False,18
147K25,275,experiment,17,↓,down,↓,0.7740826001390815,True,18
147K25,276,experiment,37,←,right,→,0.8719013999216259,False,18
147K25,277,experiment,50,←,up,↑,0.7407714002765715,False,18
147K25,278,experiment,56,→,left,←,0.6351843997836113,False,18
147K25,279,experiment,60,↑,up,↑,0.5389785999432206,True,18
147K25,280,experiment,30,→,right,→,0.53879479970783,True,18
147K25,281,experiment,27,↓,down,↓,1.50018100021407,True,18
147K25,282,experiment,44,←,left,←,0.3834458002820611,True,18
147K25,283,experiment,46,←,left,←,0.6784186996519566,True,18
147K25,284,experiment,34,→,right,→,0.6379257999360561,True,18
147K25,285,experiment,55,↑,down,↓,0.8967526000924408,False,18
147K25,286,experiment,39,←,left,←,0.6038270001299679,True,18
147K25,287,experiment,21,↓,up,↑,1.1346963997930288,False,18
147K25,288,experiment,26,↓,down,↓,1.049383099656552,True,18
147K25,289,experiment,38,↑,down,↓,0.7268101000227034,False,18
147K25,290,experiment,22,←,left,←,0.6682363003492355,True,18
147K25,291,training,28,→,right,→,0.4994381000287831,True,18
147K25,292,training,54,→,right,→,0.5645029000006616,True,18
147K25,293,experiment,56,↑,left,←,0.8656158000230789,False,18
147K25,294,experiment,44,↓,down,↓,0.5383584001101553,True,18
147K25,295,experiment,57,↑,down,↓,0.9044523001648486,False,18
147K25,296,experiment,31,↓,up,↑,1.0405445001088083,False,18
147K25,297,experiment,42,↑,up,↑,0.8440796001814306,True,18
147K25,298,experiment,36,↑,right,→,0.9717310001142323,False,18
147K25,299,experiment,32,↓,down,↓,0.43393039982765913,True,18
147K25,300,experiment,38,↑,left,←,1.0143741997890174,False,18
147K25,301,experiment,15,→,down,↓,0.8366906000301242,False,18
147K25,302,experiment,37,↓,down,↓,0.8117092996835709,True,18
147K25,303,experiment,54,→,right,→,0.47367329988628626,True,18
147K25,304,experiment,23,↑,up,↑,0.63079380011186,True,18
147K25,305,experiment,53,→,right,→,0.4990449002943933,True,18
147K25,306,experiment,14,↑,down,↓,0.7902485001832247,False,18
147K25,307,experiment,27,↑,down,↓,0.9338465998880565,False,18
147K25,308,experiment,49,↑,up,↑,0.5770682999864221,True,18
147K25,309,experiment,55,←,left,←,0.582886700052768,True,18
147K25,310,experiment,24,↑,right,→,1.3601063997484744,False,18
147K25,311,experiment,19,↑,up,↑,0.7267986000515521,True,18
147K25,312,experiment,35,↓,left,←,0.79566890001297,False,18
147K25,313,experiment,29,←,down,↓,0.5779377003200352,False,18
147K25,314,experiment,40,↑,right,→,0.6175457998178899,False,18
147K25,315,experiment,58,↑,up,↑,0.8192312996834517,True,18
147K25,316,experiment,59,↓,down,↓,1.7401705998927355,True,18
147K25,317,experiment,30,→,right,→,1.1402377001941204,True,18
147K25,318,experiment,20,→,right,→,0.9387475000694394,True,18
147K25,319,experiment,48,↑,up,↑,0.5504570002667606,True,18
147K25,320,experiment,28,↑,right,→,0.8304691999219358,False,18
147K25,321,experiment,46,↓,up,↑,0.7995043001137674,False,18
147K25,322,experiment,43,↓,up,↑,0.9244542000815272,False,18
147K25,323,experiment,21,↑,up,↑,0.7544292998500168,True,18
147K25,324,experiment,50,↓,down,↓,0.7078326996415854,True,18
147K25,325,experiment,51,↑,up,↑,0.5429730000905693,True,18
147K25,326,experiment,45,↑,down,↓,0.9647268000990152,False,18
147K25,327,experiment,26,←,up,↑,0.8146335002966225,False,18
147K25,328,experiment,39,↑,up,↑,0.8038621000014246,True,18
147K25,329,experiment,22,←,right,→,0.9099607998505235,False,18
147K25,330,experiment,41,↑,up,↑,0.920048899948597,True,18
147K25,331,experiment,34,→,up,↑,1.3656427999958396,False,18
147K25,332,experiment,13,↓,down,↓,0.7753206002525985,True,18
147K25,333,experiment,52,→,right,→,0.678973900154233,True,18
147K25,334,experiment,17,←,left,←,0.5619853003881872,True,18
147K25,335,experiment,33,↓,down,↓,1.062508599832654,True,18
147K25,336,experiment,18,←,right,→,0.7288684998638928,False,18
147K25,337,experiment,16,←,left,←,1.1545363999903202,True,18
147K25,338,experiment,47,↑,down,↓,0.8943755002692342,False,18
147K25,339,experiment,60,←,left,←,0.8361126002855599,True,18
147K25,340,experiment,25,↑,left,←,0.9232413000427186,False,18
147K25,341,training,20,←,left,←,1.5681565003469586,True,19
147K25,342,training,52,↑,left,←,0.544391100294888,False,19
147K25,343,experiment,39,↑,right,→,0.7301427000202239,False,19
147K25,344,experiment,24,↓,down,↓,1.1333657000213861,True,19
147K25,345,experiment,57,↑,right,→,0.8833473999984562,False,19
147K25,346,experiment,14,←,left,←,0.783511099871248,True,19
147K25,347,experiment,32,←,left,←,0.7557839998044074,True,19
147K25,348,experiment,28,↓,down,↓,0.8038536002859473,True,19
147K25,349,experiment,20,↑,down,↓,0.9514492996968329,False,19
147K25,350,experiment,19,↑,down,↓,0.9415555000305176,False,19
147K25,351,experiment,42,←,left,←,0.8534488999284804,True,19
147K25,352,experiment,30,↓,right,→,0.9521924001164734,False,19
147K25,353,experiment,55,↓,down,↓,1.1350126001052558,True,19
147K25,354,experiment,23,←,left,←,0.563283400144428,True,19
147K25,355,experiment,34,↓,left,←,0.6228715996257961,False,19
147K25,356,experiment,58,↑,down,↓,0.8162949001416564,False,19
147K25,357,experiment,49,→,right,→,0.5121805998496711,True,19
147K25,358,experiment,29,←,left,←,1.177586399950087,True,19
147K25,359,experiment,22,←,right,→,0.8293573996052146,False,19
147K25,360,experiment,35,↓,down,↓,0.8058989001438022,True,19
147K25,361,experiment,53,↓,down,↓,0.6833784999325871,True,19
147K25,362,experiment,56,↑,down,↓,0.7640288998372853,False,19
147K25,363,experiment,16,←,left,←,0.6511758998967707,True,19
147K25,364,experiment,51,↓,down,↓,0.5844232002273202,True,19
147K25,365,experiment,15,↓,down,↓,0.7278523999266326,True,19
147K25,366,experiment,60,↓,down,↓,0.7243237001821399,True,19
147K25,367,experiment,52,←,down,↓,0.9901073998771608,False,19
147K25,368,experiment,54,↑,up,↑,0.931807600427419,True,19
147K25,369,experiment,43,↓,down,↓,0.674838200211525,True,19
147K25,370,experiment,27,↑,up,↑,0.6232359004206955,True,19
147K25,371,experiment,46,→,right,→,0.9850971000269055,True,19
147K25,372,experiment,21,↓,down,↓,0.8043413003906608,True,19
147K25,373,experiment,40,↓,down,↓,0.7705500000156462,True,19
147K25,374,experiment,41,→,right,→,0.8336356999352574,True,19
147K25,375,experiment,37,→,right,→,0.5525442999787629,True,19
147K25,376,experiment,59,→,right,→,0.6442072000354528,True,19
147K25,377,experiment,38,↑,up,↑,0.8667715000919998,True,19
147K25,378,experiment,44,↑,up,↑,0.9875052999705076,True,19
147K25,379,experiment,33,↓,down,↓,1.1112401001155376,True,19
147K25,380,experiment,13,←,left,←,0.6834944002330303,True,19
147K25,381,experiment,25,←,left,←,0.5684984000399709,True,19
147K25,382,experiment,18,↑,down,↓,0.8946287003345788,False,19
147K25,383,experiment,17,←,up,↑,0.832504800055176,False,19
147K25,384,experiment,31,→,right,→,0.90772939985618,True,19
147K25,385,experiment,36,↑,right,→,1.5127515997737646,False,19
147K25,386,experiment,48,↑,up,↑,0.7423279997892678,True,19
147K25,387,experiment,47,→,right,→,0.8263046997599304,True,19
147K25,388,experiment,50,↓,down,↓,0.7533552995882928,True,19
147K25,389,experiment,45,→,right,→,0.5506464000791311,True,19
147K25,390,experiment,26,↓,left,←,0.5518294000066817,False,19
147K25,391,training,24,↑,up,↑,0.9042561003006995,True,19
147K25,392,training,56,←,down,↓,0.8081918000243604,False,19
147K25,393,experiment,35,↑,up,↑,0.6494486001320183,True,19
147K25,394,experiment,47,←,left,←,1.1210529999807477,True,19
147K25,395,experiment,56,↑,right,→,0.7286000000312924,False,19
147K25,396,experiment,37,→,up,↑,0.4841281003318727,False,19
147K25,397,experiment,60,↓,left,←,0.9852227000519633,False,19
147K25,398,experiment,13,→,right,→,0.537895199842751,True,19
147K25,399,experiment,55,→,right,→,0.4891335996799171,True,19
147K25,400,experiment,25,↑,down,↓,1.0532336002215743,False,19
147K25,401,experiment,16,↓,down,↓,0.8254780997522175,True,19
147K25,402,experiment,52,→,right,→,0.6952471998520195,True,19
147K25,403,experiment,33,↓,down,↓,0.766909800004214,True,19
147K25,404,experiment,26,→,right,→,0.4503190000541508,True,19
147K25,405,experiment,14,←,right,→,1.332029199693352,False,19
147K25,406,experiment,29,↑,up,↑,0.7965551000088453,True,19
147K25,407,experiment,27,↑,left,←,0.8842184999957681,False,19
147K25,408,experiment,17,↑,up,↑,0.9263963997364044,True,19
147K25,409,experiment,54,→,right,→,0.7830171999521554,True,19
147K25,410,experiment,38,↓,down,↓,0.8631992000155151,True,19
147K25,411,experiment,42,↑,up,↑,0.5375645998865366,True,19
147K25,412,experiment,15,←,left,←,0.5548542998731136,True,19
147K25,413,experiment,31,→,left,←,0.6332430997863412,False,19
147K25,414,experiment,57,↑,down,↓,0.8427577000111341,False,19
147K25,415,experiment,23,↑,up,↑,0.611399999819696,True,19
147K25,416,experiment,59,↓,right,→,0.8289139000698924,False,19
147K25,417,experiment,34,↓,left,←,1.0547815999016166,False,19
147K25,418,experiment,39,→,right,→,0.4916384997777641,True,19
147K25,419,experiment,41,↑,up,↑,0.6129317996092141,True,19
147K25,420,experiment,48,←,left,←,0.605307700112462,True,19
147K25,421,experiment,51,↑,down,↓,0.7965496000833809,False,19
147K25,422,experiment,58,↓,down,↓,0.6870166002772748,True,19
147K25,423,experiment,32,↑,down,↓,0.7190034002996981,False,19
147K25,424,experiment,30,→,right,→,0.6952374000102282,True,19
147K25,425,experiment,20,→,right,→,0.5116213001310825,True,19
147K25,426,experiment,18,→,right,→,1.2400877997279167,True,19
147K25,427,experiment,22,→,right,→,1.3771812999621034,True,19
147K25,428,experiment,43,↓,down,↓,0.6551471999846399,True,19
147K25,429,experiment,36,↑,up,↑,0.5102210999466479,True,19
147K25,430,experiment,21,↑,up,↑,0.5649529998190701,True,19
147K25,431,experiment,46,↑,up,↑,0.6404605996794999,True,19
147K25,432,experiment,50,↓,left,←,0.894896799698472,False,19
147K25,433,experiment,24,↓,down,↓,0.8204450001940131,True,19
147K25,434,experiment,53,↓,down,↓,0.8499011998064816,True,19
147K25,435,experiment,28,←,left,←,0.5256551001220942,True,19
147K25,436,experiment,45,↓,down,↓,0.8918082001619041,True,19
147K25,437,experiment,40,↓,right,→,1.3354551000520587,False,19
147K25,438,experiment,49,↓,left,←,0.5864153997972608,False,19
147K25,439,experiment,19,↑,up,↑,0.7272465000860393,True,19
147K25,440,experiment,44,←,right,→,0.6941974000073969,False,19
147K25,441,training,30,↑,up,↑,0.676170099992305,True,19
147K25,442,training,56,←,left,←,0.6369544002227485,True,19
147K25,443,experiment,52,→,left,←,0.8017631000839174,False,19
147K25,444,experiment,37,←,left,←,0.9382778001017869,True,19
147K25,445,experiment,17,↑,right,→,0.7941709002479911,False,19
147K25,446,experiment,34,↓,down,↓,0.7011452000588179,True,19
147K25,447,experiment,32,↑,down,↓,0.8446680000051856,False,19
147K25,448,experiment,46,↓,up,↑,1.0300206998363137,False,19
147K25,449,experiment,48,→,down,↓,0.4498132998123765,False,19
147K25,450,experiment,24,↓,down,↓,0.6519655003212392,True,19
147K25,451,experiment,18,←,left,←,0.5104224001988769,True,19
147K25,452,experiment,15,→,left,←,0.9291306999512017,False,19
147K25,453,experiment,14,↓,up,↑,1.1393188000656664,False,19
147K25,454,experiment,30,→,right,→,0.4989582998678088,True,19
147K25,455,experiment,41,←,left,←,0.6765338000841439,True,19
147K25,456,experiment,59,→,right,→,0.9156213998794556,True,19
147K25,457,experiment,27,←,left,←,0.5579455997794867,True,19
147K25,458,experiment,58,↑,left,←,0.5862850998528302,False,19
147K25,459,experiment,39,→,left,←,0.5940446997992694,False,19
147K25,460,experiment,56,→,right,→,0.5504621001891792,True,19
147K25,461,experiment,26,←,left,←,0.5836839000694454,True,19
147K25,462,experiment,40,→,right,→,0.7988052000291646,True,19
147K25,463,experiment,45,→,right,→,0.5538444998674095,True,19
147K25,464,experiment,53,←,no_key,no_letter,-1.0,False,19
147K25,465,experiment,54,↑,up,↑,1.1916700000874698,True,19
147K25,466,experiment,35,↑,left,←,0.9942924003116786,False,19
147K25,467,experiment,22,←,left,←,0.8211942003108561,True,19
147K25,468,experiment,21,↓,down,↓,0.671412399969995,True,19
147K25,469,experiment,20,↓,down,↓,0.8163438001647592,True,19
147K25,470,experiment,57,←,left,←,0.4906131997704506,True,19
147K25,471,experiment,25,↓,down,↓,0.5585864000022411,True,19
147K25,472,experiment,19,←,left,←,0.596836700104177,True,19
147K25,473,experiment,38,↑,up,↑,0.5162121998146176,True,19
147K25,474,experiment,60,→,right,→,0.616658499930054,True,19
147K25,475,experiment,49,←,left,←,0.7281800000928342,True,19
147K25,476,experiment,28,→,right,→,0.6260420996695757,True,19
147K25,477,experiment,33,→,left,←,0.6199159999378026,False,19
147K25,478,experiment,36,→,right,→,0.9166323998942971,True,19
147K25,479,experiment,16,↓,up,↑,1.0778900999575853,False,19
147K25,480,experiment,13,→,right,→,1.2194163999520242,True,19
147K25,481,experiment,42,↑,up,↑,0.5839697998017073,True,19
147K25,482,experiment,29,↓,down,↓,1.053917100187391,True,19
147K25,483,experiment,43,↓,right,→,0.5844781002961099,False,19
147K25,484,experiment,50,←,right,→,0.8086908999830484,False,19
147K25,485,experiment,55,↓,right,→,0.5332511998713017,False,19
147K25,486,experiment,23,↑,up,↑,0.5695877997204661,True,19
147K25,487,experiment,47,←,left,←,0.524222900159657,True,19
147K25,488,experiment,51,↓,up,↑,0.8224528999999166,False,19
147K25,489,experiment,44,↑,up,↑,0.5147687001153827,True,19
147K25,490,experiment,31,↓,left,←,0.6812839000485837,False,19
147K25,491,training,55,←,left,←,0.7658293000422418,True,19
147K25,492,training,17,↑,up,↑,0.804779399652034,True,19
147K25,493,experiment,31,↑,up,↑,0.5930420001968741,True,19
147K25,494,experiment,56,←,left,←,1.3010900001972914,True,19
147K25,495,experiment,18,→,right,→,0.5261876997537911,True,19
147K25,496,experiment,35,→,right,→,0.5311831999570131,True,19
147K25,497,experiment,24,↓,down,↓,0.7345543000847101,True,19
147K25,498,experiment,59,↓,down,↓,0.8509235000237823,True,19
147K25,499,experiment,58,→,right,→,0.8913472997955978,True,19
147K25,500,experiment,46,→,right,→,0.6504293996840715,True,19
147K25,501,experiment,33,↓,left,←,1.1874265000224113,False,19
147K25,502,experiment,21,←,left,←,0.6392677999101579,True,19
147K25,503,experiment,50,↑,right,→,0.5735953999683261,False,19
147K25,504,experiment,20,↓,down,↓,1.0504258000291884,True,19
147K25,505,experiment,48,←,left,←,0.7852952000685036,True,19
147K25,506,experiment,29,→,right,→,0.5597725999541581,True,19
147K25,507,experiment,52,↓,up,↑,0.7279491000808775,False,19
147K25,508,experiment,23,↑,up,↑,0.580659800209105,True,19
147K25,509,experiment,51,→,right,→,0.8365978999063373,True,19
147K25,510,experiment,38,↑,right,→,0.683738199993968,False,19
147K25,511,experiment,49,←,left,←,0.43383899983018637,True,19
147K25,512,experiment,39,↓,down,↓,0.6206041998229921,True,19
147K25,513,experiment,26,↓,down,↓,0.6755602001212537,True,19
147K25,514,experiment,60,↑,down,↓,1.2900153999216855,False,19
147K25,515,experiment,53,↓,down,↓,0.6124877999536693,True,19
147K25,516,experiment,44,↓,down,↓,0.5124486000277102,True,19
147K25,517,experiment,32,→,right,→,0.4879561001434922,True,19
147K25,518,experiment,13,↓,down,↓,0.5548075996339321,True,19
147K25,519,experiment,30,←,left,←,0.6418397999368608,True,19
147K25,520,experiment,42,→,right,→,0.7574022002518177,True,19
147K25,521,experiment,14,↑,right,→,1.1589604001492262,False,19
147K25,522,experiment,37,↓,down,↓,0.6813535997644067,True,19
147K25,523,experiment,15,←,left,←,0.7487444002181292,True,19
147K25,524,experiment,40,→,right,→,0.8534303000196815,True,19
147K25,525,experiment,34,↑,up,↑,0.485833500046283,True,19
147K25,526,experiment,55,→,down,↓,0.6457929001189768,False,19
147K25,527,experiment,28,↑,right,→,0.4332035998813808,False,19
147K25,528,experiment,41,→,right,→,0.48573620012030005,True,19
147K25,529,experiment,47,↓,down,↓,0.6434434000402689,True,19
147K25,530,experiment,43,→,right,→,0.5426320997066796,True,19
147K25,531,experiment,54,→,right,→,1.366031600162387,True,19
147K25,532,experiment,19,←,right,→,0.8120132000185549,False,19
147K25,533,experiment,22,↑,up,↑,0.9182528997771442,True,19
147K25,534,experiment,57,←,left,←,0.7486276999115944,True,19
147K25,535,experiment,45,→,right,→,0.6415243996307254,True,19
147K25,536,experiment,25,↑,up,↑,0.6403394998051226,True,19
147K25,537,experiment,27,→,right,→,0.5658648000098765,True,19
147K25,538,experiment,17,↑,up,↑,0.5886250003241003,True,19
147K25,539,experiment,36,↑,up,↑,0.4869465995579958,True,19
147K25,540,experiment,16,↓,down,↓,0.5843544998206198,True,19
147K25,541,training,42,→,left,←,0.5925465999171138,False,19
147K25,542,training,22,↓,down,↓,0.6515223002061248,True,19
147K25,543,experiment,23,↑,right,→,0.538660999853164,False,19
147K25,544,experiment,49,←,right,→,0.7017014999873936,False,19
147K25,545,experiment,45,→,up,↑,1.1006666999310255,False,19
147K25,546,experiment,24,←,left,←,0.48962049977853894,True,19
147K25,547,experiment,31,↑,right,→,0.5704404003918171,False,19
147K25,548,experiment,60,↑,up,↑,0.5644413996487856,True,19
147K25,549,experiment,52,↑,right,→,0.8999034999869764,False,19
147K25,550,experiment,34,←,left,←,0.41734870010986924,True,19
147K25,551,experiment,35,←,up,↑,1.1622855998575687,False,19
147K25,552,experiment,25,→,right,→,0.7569137997925282,True,19
147K25,553,experiment,37,↑,left,←,0.8150507002137601,False,19
147K25,554,experiment,56,→,right,→,0.6503895996138453,True,19
147K25,555,experiment,15,←,left,←,0.911209300160408,True,19
147K25,556,experiment,32,↑,up,↑,0.638561200350523,True,19
147K25,557,experiment,18,↓,down,↓,0.6660509998910129,True,19
147K25,558,experiment,33,↑,up,↑,0.5703692999668419,True,19
147K25,559,experiment,38,→,right,→,0.5551958000287414,True,19
147K25,560,experiment,16,←,right,→,0.6660037999972701,False,19
147K25,561,experiment,13,→,down,↓,0.8791596996597946,False,19
147K25,562,experiment,50,→,right,→,0.5721860001794994,True,19
147K25,563,experiment,53,↓,down,↓,0.595195499714464,True,19
147K25,564,experiment,54,↑,up,↑,0.8569885999895632,True,19
147K25,565,experiment,48,↓,right,→,0.6242229999043047,False,19
147K25,566,experiment,14,←,left,←,1.070933900307864,True,19
147K25,567,experiment,28,←,left,←,1.3705707998014987,True,19
147K25,568,experiment,44,←,left,←,0.4878001003526151,True,19
147K25,569,experiment,41,↓,right,→,0.8812377997674048,False,19
147K25,570,experiment,20,←,left,←,0.5699439998716116,True,19
147K25,571,experiment,29,↑,down,↓,0.808267000131309,False,19
147K25,572,experiment,27,↑,up,↑,0.6233679996803403,True,19
147K25,573,experiment,47,↓,down,↓,0.6563543998636305,True,19
147K25,574,experiment,17,↓,left,←,0.6275450997054577,False,19
147K25,575,experiment,59,↑,down,↓,0.8606769000180066,False,19
147K25,576,experiment,21,↓,right,→,1.1737405001185834,False,19
147K25,577,experiment,46,↓,down,↓,0.6736927996389568,True,19
147K25,578,experiment,43,↑,up,↑,0.49897259986028075,True,19
147K25,579,experiment,51,↑,left,←,0.6062004999257624,False,19
147K25,580,experiment,26,↓,left,←,0.6617283001542091,False,19
147K25,581,experiment,55,←,left,←,0.5118299000896513,True,19
147K25,582,experiment,22,→,right,→,0.9901302000507712,True,19
147K25,583,experiment,19,↑,up,↑,0.6029952997341752,True,19
147K25,584,experiment,39,↑,up,↑,0.44991880003362894,True,19
147K25,585,experiment,36,↑,down,↓,0.951872400008142,False,19
147K25,586,experiment,30,↑,down,↓,0.7670916002243757,False,19
147K25,587,experiment,57,↑,up,↑,0.5472762999124825,True,19
147K25,588,experiment,40,↑,right,→,0.39979640021920204,False,19
147K25,589,experiment,42,→,left,←,1.2237466000951827,False,19
147K25,590,experiment,58,↑,down,↓,1.4497409001924098,False,19
