PART_ID,Trial_no,Trial_type,CSI,Stim_letter,Key_pressed,letter_choose,Rt,Corr,Stimulus Time
149K25,1,training,60,←,left,←,1.8711230996996164,True,30
149K25,2,training,60,↓,no_key,no_letter,-1.0,False,30
149K25,3,training,60,←,down,↓,1.860524300020188,False,30
149K25,4,training,60,↑,down,↓,1.7056896002031863,False,30
149K25,5,training,60,↑,up,↑,1.7644646000117064,True,30
149K25,6,training,60,→,right,→,1.6771390000358224,True,30
149K25,7,training,60,↑,up,↑,1.121258500032127,True,30
149K25,8,training,60,→,right,→,1.0759641001932323,True,30
149K25,9,training,60,↓,down,↓,0.9844663999974728,True,30
149K25,10,training,60,→,right,→,0.912472500000149,True,30
149K25,11,training,60,→,right,→,0.8194818003103137,True,30
149K25,12,training,60,↓,down,↓,0.9377247001975775,True,30
149K25,13,training,60,→,right,→,0.7399270003661513,True,30
149K25,14,training,60,↓,down,↓,0.9099735002964735,True,30
149K25,15,training,60,↓,down,↓,0.9288527998141944,True,30
149K25,16,training,60,←,left,←,0.9544468997046351,True,30
149K25,17,training,60,→,right,→,0.755804100073874,True,30
149K25,18,training,60,↓,down,↓,0.8133400003425777,True,30
149K25,19,training,60,↓,down,↓,0.7238686000928283,True,30
149K25,20,training,60,↑,down,↓,0.9029047996737063,False,30
149K25,21,training,60,↑,down,↓,0.7597062001004815,False,18
149K25,22,training,60,↓,down,↓,0.9043433000333607,True,18
149K25,23,training,60,↑,left,←,1.2275885003618896,False,18
149K25,24,training,60,←,down,↓,1.265690099913627,False,18
149K25,25,training,60,↓,down,↓,1.0063427998684347,True,18
149K25,26,training,60,←,left,←,0.9097730000503361,True,18
149K25,27,training,60,→,left,←,1.0804802002385259,False,18
149K25,28,training,60,→,down,↓,1.044528099708259,False,18
149K25,29,training,60,↑,up,↑,0.9376643998548388,True,18
149K25,30,training,60,↓,down,↓,0.8356595998629928,True,18
149K25,31,training,60,↓,down,↓,0.817658900283277,True,18
149K25,32,training,60,↑,down,↓,0.944296000059694,False,18
149K25,33,training,60,→,left,←,0.6497917999513447,False,18
149K25,34,training,60,↑,up,↑,0.8392154998145998,True,18
149K25,35,training,60,←,left,←,0.7969998996704817,True,18
149K25,36,training,60,→,left,←,0.796371900010854,False,18
149K25,37,training,60,←,left,←,0.747802599798888,True,18
149K25,38,training,60,↑,up,↑,0.8851598999463022,True,18
149K25,39,training,60,↓,down,↓,0.9209147999063134,True,18
149K25,40,training,60,↓,left,←,1.8515714998356998,False,18
149K25,41,training,59,↑,left,←,0.7528745997697115,False,18
149K25,42,training,24,↓,no_key,no_letter,-1.0,False,18
149K25,43,experiment,25,↓,up,↑,0.8196449000388384,False,18
149K25,44,experiment,14,→,left,←,1.1298602996394038,False,18
149K25,45,experiment,20,→,left,←,0.9915347001515329,False,18
149K25,46,experiment,55,↑,up,↑,0.6835728003643453,True,18
149K25,47,experiment,22,↓,down,↓,0.7455734997056425,True,18
149K25,48,experiment,50,←,left,←,0.8027709000743926,True,18
149K25,49,experiment,53,←,left,←,0.551666900049895,True,18
149K25,50,experiment,15,→,left,←,1.015573900192976,False,18
149K25,51,experiment,56,→,right,→,0.8417882998473942,True,18
149K25,52,experiment,49,↓,down,↓,0.951532700099051,True,18
149K25,53,experiment,41,←,left,←,0.7821793998591602,True,18
149K25,54,experiment,44,↑,up,↑,0.7217287002131343,True,18
149K25,55,experiment,51,→,right,→,0.8511776002123952,True,18
149K25,56,experiment,54,↑,down,↓,1.3887494001537561,False,18
149K25,57,experiment,13,→,left,←,1.5570856998674572,False,18
149K25,58,experiment,23,←,right,→,0.7118206000886858,False,18
149K25,59,experiment,16,↓,down,↓,0.912867299746722,True,18
149K25,60,experiment,39,→,right,→,1.035015200264752,True,18
149K25,61,experiment,17,↑,down,↓,1.2783929998986423,False,18
149K25,62,experiment,18,↑,up,↑,0.7434769999235868,True,18
149K25,63,experiment,36,↑,down,↓,1.0102197001688182,False,18
149K25,64,experiment,21,↓,down,↓,0.6363635002635419,True,18
149K25,65,experiment,24,←,left,←,0.6750807999633253,True,18
149K25,66,experiment,52,↑,no_key,no_letter,-1.0,False,18
149K25,67,experiment,29,→,left,←,0.5314762997440994,False,18
149K25,68,experiment,42,←,right,→,0.6024118000641465,False,18
149K25,69,experiment,33,←,left,←,0.5483585996553302,True,18
149K25,70,experiment,35,↑,up,↑,0.5188508997671306,True,18
149K25,71,experiment,58,↓,left,←,0.5074549000710249,False,18
149K25,72,experiment,32,←,right,→,0.4901588000357151,False,18
149K25,73,experiment,57,→,left,←,0.681109800003469,False,18
149K25,74,experiment,19,↑,right,→,0.6409108000807464,False,18
149K25,75,experiment,30,↓,down,↓,1.1717787999659777,True,18
149K25,76,experiment,40,→,right,→,0.4983112998306751,True,18
149K25,77,experiment,31,↓,right,→,0.9537174999713898,False,18
149K25,78,experiment,34,→,left,←,0.5729585001245141,False,18
149K25,79,experiment,27,↑,left,←,0.6681773001328111,False,18
149K25,80,experiment,37,↓,down,↓,0.6810111999511719,True,18
149K25,81,experiment,26,↓,down,↓,0.5163207002915442,True,18
149K25,82,experiment,47,→,right,→,0.6401500003412366,True,18
149K25,83,experiment,48,↑,left,←,0.3834645999595523,False,18
149K25,84,experiment,60,←,left,←,0.417901000007987,True,18
149K25,85,experiment,43,↓,down,↓,1.0170440999791026,True,18
149K25,86,experiment,46,↓,left,←,0.6493536001071334,False,18
149K25,87,experiment,45,↓,down,↓,1.0494515001773834,True,18
149K25,88,experiment,38,↓,down,↓,0.5823927000164986,True,18
149K25,89,experiment,59,←,right,→,0.4874434000812471,False,18
149K25,90,experiment,28,↑,right,→,0.7214170000515878,False,18
149K25,91,training,50,↑,left,←,0.5034224996343255,False,19
149K25,92,training,49,↑,down,↓,0.13526069978252053,False,19
149K25,93,experiment,24,↓,right,→,0.16870940010994673,False,19
149K25,94,experiment,56,←,up,↑,0.5163632002659142,False,19
149K25,95,experiment,23,↑,right,→,0.6802709000185132,False,19
149K25,96,experiment,39,←,left,←,0.43422790011391044,True,19
149K25,97,experiment,15,↓,down,↓,0.5428646001964808,True,19
149K25,98,experiment,30,↑,left,←,0.20029579987749457,False,19
149K25,99,experiment,17,→,right,→,1.469772499985993,True,19
149K25,100,experiment,57,↑,up,↑,0.6769147999584675,True,19
149K25,101,experiment,29,←,right,→,0.7029369999654591,False,19
149K25,102,experiment,44,↓,left,←,0.49339049961417913,False,19
149K25,103,experiment,38,↑,up,↑,0.560372999869287,True,19
149K25,104,experiment,60,↓,down,↓,0.7225791998207569,True,19
149K25,105,experiment,47,←,no_key,no_letter,-1.0,False,19
149K25,106,experiment,53,←,left,←,0.5236243000254035,True,19
149K25,107,experiment,14,←,right,→,0.5096787000074983,False,19
149K25,108,experiment,52,→,no_key,no_letter,-1.0,False,19
149K25,109,experiment,16,↑,up,↑,1.2850279998965561,True,19
149K25,110,experiment,40,↓,down,↓,0.9187326999381185,True,19
149K25,111,experiment,50,→,left,←,0.5769328000023961,False,19
149K25,112,experiment,25,↑,up,↑,0.585669900290668,True,19
149K25,113,experiment,43,→,right,→,0.5255798003636301,True,19
149K25,114,experiment,28,←,right,→,0.6780311996117234,False,19
149K25,115,experiment,13,→,right,→,0.6909723998978734,True,19
149K25,116,experiment,36,→,right,→,0.5913947001099586,True,19
149K25,117,experiment,49,→,right,→,0.6793663999997079,True,19
149K25,118,experiment,27,↓,down,↓,0.7229528999887407,True,19
149K25,119,experiment,42,↑,up,↑,0.8581861001439393,True,19
149K25,120,experiment,51,→,up,↑,1.1422581002116203,False,19
149K25,121,experiment,54,↓,left,←,1.2766774999909103,False,19
149K25,122,experiment,20,→,right,→,0.6767315999604762,True,19
149K25,123,experiment,18,↑,no_key,no_letter,-1.0,False,19
149K25,124,experiment,26,→,left,←,0.5334259001538157,False,19
149K25,125,experiment,59,←,left,←,0.680959299672395,True,19
149K25,126,experiment,45,→,right,→,1.287807899992913,True,19
149K25,127,experiment,19,→,right,→,0.5992792001925409,True,19
149K25,128,experiment,58,↑,left,←,0.5528652998618782,False,19
149K25,129,experiment,41,←,left,←,0.4879284999333322,True,19
149K25,130,experiment,48,←,left,←,0.4334009001031518,True,19
149K25,131,experiment,34,↓,down,↓,0.6428660000674427,True,19
149K25,132,experiment,32,↑,up,↑,0.516073300037533,True,19
149K25,133,experiment,35,↑,up,↑,0.615991999860853,True,19
149K25,134,experiment,37,←,left,←,0.646888299845159,True,19
149K25,135,experiment,21,→,right,→,0.5506586004048586,True,19
149K25,136,experiment,46,←,left,←,0.3667175001464784,True,19
149K25,137,experiment,55,↓,left,←,0.5419771997258067,False,19
149K25,138,experiment,22,↑,up,↑,0.6181802996434271,True,19
149K25,139,experiment,33,→,left,←,0.5875095003284514,False,19
149K25,140,experiment,31,→,right,→,0.5357135003432631,True,19
149K25,141,training,57,→,right,→,0.5899820998311043,True,19
149K25,142,training,14,←,right,→,0.5495720999315381,False,19
149K25,143,experiment,27,←,left,←,0.5015189996920526,True,19
149K25,144,experiment,55,←,right,→,0.485472499858588,False,19
149K25,145,experiment,57,↓,left,←,0.28417199989780784,False,19
149K25,146,experiment,20,→,right,→,0.5526942000724375,True,19
149K25,147,experiment,43,→,left,←,0.5099573000334203,False,19
149K25,148,experiment,48,→,down,↓,0.43417409993708134,False,19
149K25,149,experiment,41,→,right,→,0.4504907997325063,True,19
149K25,150,experiment,40,↓,right,→,0.5593649996444583,False,19
149K25,151,experiment,33,←,left,←,0.33345589973032475,True,19
149K25,152,experiment,14,↓,right,→,0.6599352997727692,False,19
149K25,153,experiment,52,↓,right,→,0.5272389999590814,False,19
149K25,154,experiment,24,↑,down,↓,0.5227116998285055,False,19
149K25,155,experiment,25,↓,down,↓,0.4004365000873804,True,19
149K25,156,experiment,46,↓,down,↓,0.26704789977520704,True,19
149K25,157,experiment,42,↑,left,←,1.1892520999535918,False,19
149K25,158,experiment,38,←,left,←,0.5648815999738872,True,19
149K25,159,experiment,39,→,up,↑,1.2600014000199735,False,19
149K25,160,experiment,30,↑,left,←,0.5099344998598099,False,19
149K25,161,experiment,47,↓,down,↓,0.858706200029701,True,19
149K25,162,experiment,22,↑,up,↑,0.5141602996736765,True,19
149K25,163,experiment,15,←,left,←,1.3713859003037214,True,19
149K25,164,experiment,53,↓,left,←,1.2336184000596404,False,19
149K25,165,experiment,16,→,down,↓,0.9811903997324407,False,19
149K25,166,experiment,21,←,right,→,0.655961100012064,False,19
149K25,167,experiment,54,↓,right,→,0.5941759999841452,False,19
149K25,168,experiment,58,↑,up,↑,0.524134200066328,True,19
149K25,169,experiment,34,←,left,←,0.6965613001957536,True,19
149K25,170,experiment,56,↓,down,↓,1.3755540996789932,True,19
149K25,171,experiment,37,↓,left,←,1.279986099805683,False,19
149K25,172,experiment,51,←,right,→,0.5864842003211379,False,19
149K25,173,experiment,29,↑,up,↑,0.5281317997723818,True,19
149K25,174,experiment,36,↓,left,←,1.22741419961676,False,19
149K25,175,experiment,18,↑,up,↑,0.8146881000138819,True,19
149K25,176,experiment,23,→,right,→,0.6224854001775384,True,19
149K25,177,experiment,45,↓,down,↓,0.8560007000342011,True,19
149K25,178,experiment,31,←,down,↓,1.1772842998616397,False,19
149K25,179,experiment,60,↑,up,↑,0.5786338001489639,True,19
149K25,180,experiment,32,↑,up,↑,0.4871302996762097,True,19
149K25,181,experiment,19,→,left,←,0.6219277000054717,False,19
149K25,182,experiment,28,←,left,←,0.626785000320524,True,19
149K25,183,experiment,35,→,right,→,0.5066304001957178,True,19
149K25,184,experiment,13,→,right,→,0.5899503999389708,True,19
149K25,185,experiment,26,→,right,→,0.4335759002715349,True,19
149K25,186,experiment,59,→,right,→,0.3504705000668764,True,19
149K25,187,experiment,44,↓,right,→,0.5678928000852466,False,19
149K25,188,experiment,49,↓,down,↓,0.9367563999257982,True,19
149K25,189,experiment,50,↑,up,↑,0.5457714996300638,True,19
149K25,190,experiment,17,←,left,←,0.5045928996987641,True,19
149K25,191,training,29,↑,up,↑,0.86657420033589,True,20
149K25,192,training,19,←,left,←,0.5873146997764707,True,20
149K25,193,experiment,25,←,right,→,1.5393869001418352,False,20
149K25,194,experiment,33,→,left,←,1.072219599969685,False,20
149K25,195,experiment,55,↓,down,↓,0.6567605999298394,True,20
149K25,196,experiment,57,←,left,←,0.6724809999577701,True,20
149K25,197,experiment,40,←,left,←,0.5798333999700844,True,20
149K25,198,experiment,26,↓,down,↓,1.0191310001537204,True,20
149K25,199,experiment,54,→,down,↓,0.7427864000201225,False,20
149K25,200,experiment,24,←,down,↓,0.8652822002768517,False,20
149K25,201,experiment,13,←,left,←,1.1978068999014795,True,20
149K25,202,experiment,30,↓,down,↓,0.8020480000413954,True,20
149K25,203,experiment,32,↓,down,↓,0.6927225003018975,True,20
149K25,204,experiment,52,→,right,→,0.5264962003566325,True,20
149K25,205,experiment,56,↑,up,↑,0.6844561998732388,True,20
149K25,206,experiment,23,←,left,←,0.513790600001812,True,20
149K25,207,experiment,48,→,right,→,0.5337302000261843,True,20
149K25,208,experiment,46,→,right,→,0.641525300219655,True,20
149K25,209,experiment,50,←,right,→,0.5032832999713719,False,20
149K25,210,experiment,35,↓,down,↓,0.18522260012105107,True,20
149K25,211,experiment,16,↑,left,←,0.5868106996640563,False,20
149K25,212,experiment,44,↑,up,↑,0.5023003998212516,True,20
149K25,213,experiment,37,←,right,→,0.3841396002098918,False,20
149K25,214,experiment,58,↓,down,↓,0.7539747999981046,True,20
149K25,215,experiment,28,→,down,↓,0.7851118999533355,False,20
149K25,216,experiment,17,↑,up,↑,0.6463824003003538,True,20
149K25,217,experiment,14,↓,down,↓,0.9634139002300799,True,20
149K25,218,experiment,38,→,right,→,0.5232859998941422,True,20
149K25,219,experiment,41,←,left,←,0.64312560018152,True,20
149K25,220,experiment,43,←,left,←,0.6692472998984158,True,20
149K25,221,experiment,29,←,down,↓,0.9271513000130653,False,20
149K25,222,experiment,51,↑,down,↓,0.760634200181812,False,20
149K25,223,experiment,21,→,down,↓,1.0528522999957204,False,20
149K25,224,experiment,19,↑,left,←,1.150010199751705,False,20
149K25,225,experiment,15,→,right,→,0.5659817000851035,True,20
149K25,226,experiment,22,←,right,→,0.6246358999051154,False,20
149K25,227,experiment,49,↓,down,↓,0.6471700998954475,True,20
149K25,228,experiment,27,↓,down,↓,0.771104599814862,True,20
149K25,229,experiment,34,→,right,→,0.8779945997521281,True,20
149K25,230,experiment,39,→,right,→,0.5290892999619246,True,20
149K25,231,experiment,53,↑,left,←,0.625138099770993,False,20
149K25,232,experiment,31,↑,right,→,0.5559688000939786,False,20
149K25,233,experiment,47,→,down,↓,0.20052600000053644,False,20
149K25,234,experiment,36,↑,up,↑,0.569102399982512,True,20
149K25,235,experiment,20,↑,up,↑,0.6451114001683891,True,20
149K25,236,experiment,18,→,right,→,0.5043359003029764,True,20
149K25,237,experiment,42,→,right,→,0.7670992002822459,True,20
149K25,238,experiment,59,↑,up,↑,0.6572066000662744,True,20
149K25,239,experiment,45,↑,left,←,1.4894010000862181,False,20
149K25,240,experiment,60,↑,up,↑,0.5663624997250736,True,20
149K25,241,training,44,↑,up,↑,0.7213344997726381,True,20
149K25,242,training,29,↓,right,→,0.4341914998367429,False,20
149K25,243,experiment,17,→,right,→,0.6999600003473461,True,20
149K25,244,experiment,18,→,right,→,0.4168329001404345,True,20
149K25,245,experiment,49,→,right,→,0.5940224002115428,True,20
149K25,246,experiment,21,←,right,→,0.7648848998360336,False,20
149K25,247,experiment,58,→,right,→,0.503587500192225,True,20
149K25,248,experiment,38,→,right,→,1.8570364001207054,True,20
149K25,249,experiment,24,→,right,→,0.6792834997177124,True,20
149K25,250,experiment,39,→,right,→,0.6743800998665392,True,20
149K25,251,experiment,60,→,right,→,0.9917115997523069,True,20
149K25,252,experiment,20,→,right,→,0.7310768002644181,True,20
149K25,253,experiment,52,→,right,→,0.5150671000592411,True,20
149K25,254,experiment,43,↑,up,↑,0.7619940997101367,True,20
149K25,255,experiment,15,←,up,↑,0.9536302001215518,False,20
149K25,256,experiment,53,↓,down,↓,1.0247030998580158,True,20
149K25,257,experiment,28,→,right,→,0.8933145999908447,True,20
149K25,258,experiment,27,↓,down,↓,0.7037663999944925,True,20
149K25,259,experiment,41,↑,up,↑,0.6963733998127282,True,20
149K25,260,experiment,32,←,left,←,0.5029867002740502,True,20
149K25,261,experiment,19,↓,right,→,0.5576499002054334,False,20
149K25,262,experiment,42,←,left,←,0.7637432999908924,True,20
149K25,263,experiment,30,↓,down,↓,0.7377045000903308,True,20
149K25,264,experiment,33,↑,up,↑,0.8298824997618794,True,20
149K25,265,experiment,56,←,left,←,0.7351057999767363,True,20
149K25,266,experiment,35,←,left,←,1.8585939998738468,True,20
149K25,267,experiment,45,→,right,→,0.6025697998702526,True,20
149K25,268,experiment,46,→,left,←,0.5877275001257658,False,20
149K25,269,experiment,51,→,right,→,0.6585034998133779,True,20
149K25,270,experiment,37,↑,up,↑,0.5277692996896803,True,20
149K25,271,experiment,31,←,left,←,1.4143130998127162,True,20
149K25,272,experiment,29,↓,left,←,0.6022923998534679,False,20
149K25,273,experiment,14,→,right,→,0.5849872999824584,True,20
149K25,274,experiment,57,←,right,→,0.5636214995756745,False,20
149K25,275,experiment,48,↓,down,↓,0.9490092000924051,True,20
149K25,276,experiment,55,↓,down,↓,0.6903089000843465,True,20
149K25,277,experiment,47,↑,up,↑,0.5046075996942818,True,20
149K25,278,experiment,40,↓,down,↓,1.0323550002649426,True,20
149K25,279,experiment,36,↓,right,→,0.5111825000494719,False,20
149K25,280,experiment,59,↓,down,↓,0.5472393999807537,True,20
149K25,281,experiment,44,↓,down,↓,0.7204226003959775,True,20
149K25,282,experiment,23,←,right,→,0.2517573996447027,False,20
149K25,283,experiment,26,↓,right,→,0.565591000020504,False,20
149K25,284,experiment,13,↓,down,↓,0.8782386998645961,True,20
149K25,285,experiment,22,↑,down,↓,0.7490783999674022,False,20
149K25,286,experiment,16,→,right,→,0.5967633002437651,True,20
149K25,287,experiment,50,→,up,↑,0.6037671999074519,False,20
149K25,288,experiment,25,↓,down,↓,0.642930299974978,True,20
149K25,289,experiment,54,→,right,→,0.613832900300622,True,20
149K25,290,experiment,34,←,left,←,0.5344994999468327,True,20
149K25,291,training,17,↓,down,↓,0.6018908000551164,True,20
149K25,292,training,58,↑,down,↓,0.3338644001632929,False,20
149K25,293,experiment,24,←,right,→,0.5891664000228047,False,20
149K25,294,experiment,38,↑,up,↑,0.5405067997053266,True,20
149K25,295,experiment,14,→,right,→,0.5177333997562528,True,20
149K25,296,experiment,13,↓,up,↑,0.7522347001358867,False,20
149K25,297,experiment,20,→,right,→,0.4674973995424807,True,20
149K25,298,experiment,59,←,left,←,0.5705042998306453,True,20
149K25,299,experiment,41,↓,down,↓,0.7444837000221014,True,20
149K25,300,experiment,52,↓,down,↓,0.5604833997786045,True,20
149K25,301,experiment,16,→,no_key,no_letter,-1.0,False,20
149K25,302,experiment,46,→,right,→,0.6971575999632478,True,20
149K25,303,experiment,33,↓,down,↓,0.7428969996981323,True,20
149K25,304,experiment,44,↑,up,↑,0.5322871999815106,True,20
149K25,305,experiment,37,↓,down,↓,0.46728539979085326,True,20
149K25,306,experiment,34,↓,down,↓,0.7645131996832788,True,20
149K25,307,experiment,54,↓,down,↓,0.7936513000167906,True,20
149K25,308,experiment,55,↓,down,↓,0.5418131998740137,True,20
149K25,309,experiment,18,←,left,←,0.5082260998897254,True,20
149K25,310,experiment,19,→,no_key,no_letter,-1.0,False,20
149K25,311,experiment,39,→,right,→,0.569228199776262,True,20
149K25,312,experiment,49,↑,down,↓,0.8739376999437809,False,20
149K25,313,experiment,27,↑,up,↑,0.5169359003193676,True,20
149K25,314,experiment,45,←,left,←,0.5622517000883818,True,20
149K25,315,experiment,32,→,right,→,0.7269362998194993,True,20
149K25,316,experiment,30,↓,down,↓,0.7983563998714089,True,20
149K25,317,experiment,29,↑,no_key,no_letter,-1.0,False,20
149K25,318,experiment,42,↓,down,↓,0.6630501002073288,True,20
149K25,319,experiment,31,↑,right,→,1.1357437004335225,False,20
149K25,320,experiment,25,→,right,→,0.577882899902761,True,20
149K25,321,experiment,35,→,right,→,0.6917495001107454,True,20
149K25,322,experiment,28,←,left,←,0.5175371998921037,True,20
149K25,323,experiment,23,↑,up,↑,0.6337896003387868,True,20
149K25,324,experiment,58,→,right,→,0.7535213003866374,True,20
149K25,325,experiment,53,↓,down,↓,1.3203761000186205,True,20
149K25,326,experiment,22,↓,down,↓,0.9648876003921032,True,20
149K25,327,experiment,60,←,left,←,0.5503658000379801,True,20
149K25,328,experiment,21,←,right,→,0.6108023002743721,False,20
149K25,329,experiment,51,←,left,←,0.5123079000040889,True,20
149K25,330,experiment,17,↓,down,↓,0.6885204999707639,True,20
149K25,331,experiment,56,←,right,→,0.7675900999456644,False,20
149K25,332,experiment,48,→,right,→,0.6647927998565137,True,20
149K25,333,experiment,43,↑,up,↑,0.6734714000485837,True,20
149K25,334,experiment,57,↓,right,→,0.5688448003493249,False,20
149K25,335,experiment,36,↑,up,↑,0.6824631001800299,True,20
149K25,336,experiment,40,←,left,←,0.9082960998639464,True,20
149K25,337,experiment,47,→,right,→,1.9770873999223113,True,20
149K25,338,experiment,50,→,right,→,0.6168948002159595,True,20
149K25,339,experiment,15,→,right,→,0.7264364999718964,True,20
149K25,340,experiment,26,←,left,←,0.5924571002833545,True,20
149K25,341,training,41,→,right,→,1.789739899802953,True,20
149K25,342,training,42,→,right,→,0.5863478998653591,True,20
149K25,343,experiment,54,→,left,←,0.7347934003919363,False,20
149K25,344,experiment,21,↓,down,↓,0.7555244001559913,True,20
149K25,345,experiment,36,←,left,←,1.1815839000046253,True,20
149K25,346,experiment,26,→,right,→,0.6689093001186848,True,20
149K25,347,experiment,19,↑,up,↑,0.6376738999970257,True,20
149K25,348,experiment,35,↑,up,↑,0.5250799995847046,True,20
149K25,349,experiment,40,↑,up,↑,1.5174577999860048,True,20
149K25,350,experiment,32,↓,down,↓,0.9237374998629093,True,20
149K25,351,experiment,46,↓,down,↓,0.8320021000690758,True,20
149K25,352,experiment,60,↓,down,↓,0.750778800342232,True,20
149K25,353,experiment,58,↓,down,↓,0.6821765997447073,True,20
149K25,354,experiment,52,←,left,←,0.5720716002397239,True,20
149K25,355,experiment,49,→,right,→,0.5407937001436949,True,20
149K25,356,experiment,28,↑,up,↑,0.7893488998524845,True,20
149K25,357,experiment,59,→,right,→,1.93414940033108,True,20
149K25,358,experiment,37,↓,down,↓,0.7844429998658597,True,20
149K25,359,experiment,51,←,down,↓,0.36749350000172853,False,20
149K25,360,experiment,48,→,right,→,0.28504510037600994,True,20
149K25,361,experiment,18,↓,right,→,1.0862687001936138,False,20
149K25,362,experiment,30,↓,down,↓,0.5907033998519182,True,20
149K25,363,experiment,17,←,left,←,1.4201098997145891,True,20
149K25,364,experiment,31,←,left,←,0.5907946000806987,True,20
149K25,365,experiment,22,↓,down,↓,0.7849596999585629,True,20
149K25,366,experiment,16,←,left,←,0.6070276000536978,True,20
149K25,367,experiment,34,→,left,←,0.704167100135237,False,20
149K25,368,experiment,20,→,right,→,0.6309098000638187,True,20
149K25,369,experiment,14,↓,down,↓,0.5643422002904117,True,20
149K25,370,experiment,43,↑,up,↑,0.8007437000051141,True,20
149K25,371,experiment,56,↓,down,↓,0.763357900083065,True,20
149K25,372,experiment,27,←,left,←,0.8830158999189734,True,20
149K25,373,experiment,29,↓,down,↓,1.108147700317204,True,20
149K25,374,experiment,42,↓,down,↓,0.668159699998796,True,20
149K25,375,experiment,44,↑,up,↑,0.7163587999530137,True,20
149K25,376,experiment,38,↑,down,↓,0.6620108000934124,False,20
149K25,377,experiment,23,←,left,←,0.5170328002423048,True,20
149K25,378,experiment,13,←,left,←,1.599388400092721,True,20
149K25,379,experiment,57,↓,down,↓,0.6574744000099599,True,20
149K25,380,experiment,47,↑,up,↑,0.5680592996068299,True,20
149K25,381,experiment,24,→,right,→,0.60938989976421,True,20
149K25,382,experiment,15,↑,no_key,no_letter,-1.0,False,20
149K25,383,experiment,25,←,right,→,0.5508519001305103,False,20
149K25,384,experiment,53,↓,left,←,0.3674703002907336,False,20
149K25,385,experiment,50,→,right,→,1.9969453001394868,True,20
149K25,386,experiment,39,↓,no_key,no_letter,-1.0,False,20
149K25,387,experiment,55,←,right,→,0.7101151999086142,False,20
149K25,388,experiment,41,↑,down,↓,0.5194606999866664,False,20
149K25,389,experiment,33,→,right,→,0.6441545998677611,True,20
149K25,390,experiment,45,→,right,→,0.7567362999543548,True,20
149K25,391,training,48,→,right,→,0.7113810000009835,True,20
149K25,392,training,43,→,right,→,0.5268337000161409,True,20
149K25,393,experiment,24,↓,down,↓,0.5301840999163687,True,20
149K25,394,experiment,46,←,right,→,0.5982875996269286,False,20
149K25,395,experiment,41,→,left,←,1.5948601001873612,False,20
149K25,396,experiment,25,←,right,→,0.7066754000261426,False,20
149K25,397,experiment,29,↓,down,↓,1.1235911003313959,True,20
149K25,398,experiment,50,←,no_key,no_letter,-1.0,False,20
149K25,399,experiment,58,←,left,←,0.550898200366646,True,20
149K25,400,experiment,57,↑,up,↑,0.682761300355196,True,20
149K25,401,experiment,27,↓,down,↓,0.7334798001684248,True,20
149K25,402,experiment,47,←,left,←,0.4670363999903202,True,20
149K25,403,experiment,15,↑,right,→,0.7554235998541117,False,20
149K25,404,experiment,34,→,no_key,no_letter,-1.0,False,20
149K25,405,experiment,30,↑,up,↑,0.5147090000100434,True,20
149K25,406,experiment,56,↑,right,→,0.6808219002559781,False,20
149K25,407,experiment,32,←,left,←,0.6082490999251604,True,20
149K25,408,experiment,21,←,left,←,0.5462200003676116,True,20
149K25,409,experiment,17,↑,up,↑,0.6332229999825358,True,20
149K25,410,experiment,37,↑,left,←,0.5673706000670791,False,20
149K25,411,experiment,48,→,right,→,0.624970399774611,True,20
149K25,412,experiment,13,↑,up,↑,0.6233494998887181,True,20
149K25,413,experiment,42,←,left,←,0.5626538000069559,True,20
149K25,414,experiment,35,↑,right,→,0.5808552000671625,False,20
149K25,415,experiment,19,↓,down,↓,0.5848998995497823,True,20
149K25,416,experiment,44,↑,up,↑,0.5079318000935018,True,20
149K25,417,experiment,53,←,left,←,1.7721632001921535,True,20
149K25,418,experiment,33,←,right,→,0.6393646998330951,False,20
149K25,419,experiment,59,↑,up,↑,0.4672477003186941,True,20
149K25,420,experiment,20,→,down,↓,0.7903892998583615,False,20
149K25,421,experiment,51,↓,no_key,no_letter,-1.0,False,20
149K25,422,experiment,23,→,right,→,0.5973772001452744,True,20
149K25,423,experiment,45,→,right,→,0.4672981998883188,True,20
149K25,424,experiment,22,←,right,→,0.5493501001037657,False,20
149K25,425,experiment,40,←,left,←,0.6288693002425134,True,20
149K25,426,experiment,28,↓,right,→,0.729568200185895,False,20
149K25,427,experiment,55,→,right,→,0.7279475997202098,True,20
149K25,428,experiment,54,→,right,→,0.8395643997937441,True,20
149K25,429,experiment,60,→,right,→,0.5181904998607934,True,20
149K25,430,experiment,26,↓,down,↓,0.5281201000325382,True,20
149K25,431,experiment,52,→,right,→,0.5845007998868823,True,20
149K25,432,experiment,18,→,right,→,0.581315899733454,True,20
149K25,433,experiment,14,↑,down,↓,1.1808327999897301,False,20
149K25,434,experiment,38,←,left,←,0.5241085002198815,True,20
149K25,435,experiment,31,↑,left,←,0.5226445998996496,False,20
149K25,436,experiment,16,↓,right,→,0.41734480019658804,False,20
149K25,437,experiment,39,→,left,←,0.5439147995784879,False,20
149K25,438,experiment,49,→,up,↑,0.4669444002211094,False,20
149K25,439,experiment,36,↑,up,↑,0.23495079996064305,True,20
149K25,440,experiment,43,→,down,↓,0.21735669998452067,False,20
149K25,441,training,17,←,left,←,1.436560499947518,True,21
149K25,442,training,59,→,right,→,0.5401260000653565,True,21
149K25,443,experiment,46,←,right,→,0.5922134001739323,False,21
149K25,444,experiment,31,←,left,←,0.5241107000038028,True,21
149K25,445,experiment,24,↓,left,←,0.5908893002197146,False,21
149K25,446,experiment,55,←,left,←,0.4668819000944495,True,21
149K25,447,experiment,26,←,left,←,0.4508600998669863,True,21
149K25,448,experiment,36,↓,down,↓,0.8354441002011299,True,21
149K25,449,experiment,32,↓,down,↓,0.7887459001503885,True,21
149K25,450,experiment,39,→,right,→,0.5553852999582887,True,21
149K25,451,experiment,20,↓,right,→,0.6799568999558687,False,21
149K25,452,experiment,17,←,down,↓,0.5613104999065399,False,21
149K25,453,experiment,57,↓,down,↓,0.5493451999500394,True,21
149K25,454,experiment,21,←,left,←,0.6171927996911108,True,21
149K25,455,experiment,28,←,left,←,0.4499189998023212,True,21
149K25,456,experiment,14,←,left,←,0.5460902997292578,True,21
149K25,457,experiment,35,→,left,←,0.416936700232327,False,21
149K25,458,experiment,54,↓,left,←,0.5678512998856604,False,21
149K25,459,experiment,19,↓,down,↓,0.6446977001614869,True,21
149K25,460,experiment,27,↓,down,↓,0.3335119001567364,True,21
149K25,461,experiment,38,→,right,→,0.23391800001263618,True,21
149K25,462,experiment,25,↑,left,←,0.2685425002127886,False,21
149K25,463,experiment,42,→,left,←,1.3454256998375058,False,21
149K25,464,experiment,16,←,left,←,0.5931846001185477,True,21
149K25,465,experiment,41,←,left,←,0.3003646000288427,True,21
149K25,466,experiment,29,↑,left,←,0.30070839961990714,False,21
149K25,467,experiment,23,→,left,←,0.8399671004153788,False,21
149K25,468,experiment,50,↑,up,↑,0.7576280003413558,True,21
149K25,469,experiment,48,←,right,→,0.3669612002559006,False,21
149K25,470,experiment,49,→,right,→,0.384143800009042,True,21
149K25,471,experiment,34,←,left,←,0.41839149966835976,True,21
149K25,472,experiment,53,↓,down,↓,0.6278475001454353,True,21
149K25,473,experiment,33,→,right,→,0.38363560009747744,True,21
149K25,474,experiment,56,↓,down,↓,0.5359813999384642,True,21
149K25,475,experiment,47,→,right,→,0.5475122001953423,True,21
149K25,476,experiment,60,←,left,←,0.43397670006379485,True,21
149K25,477,experiment,22,→,right,→,1.372573500033468,True,21
149K25,478,experiment,37,←,left,←,0.5891487998887897,True,21
149K25,479,experiment,52,↑,up,↑,0.5872093001380563,True,21
149K25,480,experiment,40,→,up,↑,0.350605399813503,False,21
149K25,481,experiment,18,↓,down,↓,1.238499800208956,True,21
149K25,482,experiment,59,↓,right,→,0.7036486002616584,False,21
149K25,483,experiment,30,→,right,→,0.417520800139755,True,21
149K25,484,experiment,51,↓,down,↓,0.6346590998582542,True,21
149K25,485,experiment,13,↑,up,↑,0.45041789999231696,True,21
149K25,486,experiment,44,→,right,→,0.5527532999403775,True,21
149K25,487,experiment,15,↓,down,↓,0.5286257998086512,True,21
149K25,488,experiment,43,↑,up,↑,0.7747901999391615,True,21
149K25,489,experiment,58,←,left,←,1.8972685001790524,True,21
149K25,490,experiment,45,→,left,←,0.6872107000090182,False,21
149K25,491,training,53,→,right,→,0.4339964003302157,True,21
149K25,492,training,58,↑,up,↑,0.5304635995998979,True,21
149K25,493,experiment,25,→,no_key,no_letter,-1.0,False,21
149K25,494,experiment,37,→,right,→,0.5474518998526037,True,21
149K25,495,experiment,19,←,left,←,0.5607096999883652,True,21
149K25,496,experiment,24,↑,up,↑,0.5544421998783946,True,21
149K25,497,experiment,31,→,right,→,0.5279373000375926,True,21
149K25,498,experiment,34,↓,down,↓,0.811914199963212,True,21
149K25,499,experiment,48,↓,down,↓,0.7159259999170899,True,21
149K25,500,experiment,18,↓,left,←,1.3711423999629915,False,21
149K25,501,experiment,32,→,no_key,no_letter,-1.0,False,21
149K25,502,experiment,16,↓,down,↓,0.676021299790591,True,21
149K25,503,experiment,17,→,right,→,0.9740263996645808,True,21
149K25,504,experiment,14,←,left,←,0.6703834002837539,True,21
149K25,505,experiment,22,→,right,→,0.7005149996839464,True,21
149K25,506,experiment,53,←,left,←,0.4500714996829629,True,21
149K25,507,experiment,47,↑,down,↓,0.7073534000664949,False,21
149K25,508,experiment,49,↓,down,↓,0.734428399708122,True,21
149K25,509,experiment,43,→,right,→,1.8044908000156283,True,21
149K25,510,experiment,39,↓,down,↓,0.8584666000679135,True,21
149K25,511,experiment,46,↓,down,↓,0.6977952998131514,True,21
149K25,512,experiment,59,↑,up,↑,0.8146929000504315,True,21
149K25,513,experiment,30,→,left,←,0.9617122001945972,False,21
149K25,514,experiment,40,↓,down,↓,0.5371186002157629,True,21
149K25,515,experiment,58,↑,up,↑,0.6850569001398981,True,21
149K25,516,experiment,51,←,left,←,0.48452810011804104,True,21
149K25,517,experiment,23,↓,down,↓,0.5643933000974357,True,21
149K25,518,experiment,42,↑,down,↓,0.625993900001049,False,21
149K25,519,experiment,41,↓,down,↓,0.5419874996878207,True,21
149K25,520,experiment,60,↓,right,→,0.8325051995925605,False,21
149K25,521,experiment,15,↑,up,↑,1.477029399946332,True,21
149K25,522,experiment,26,↓,right,→,0.4008587999269366,False,21
149K25,523,experiment,52,↑,left,←,0.28516090009361506,False,21
149K25,524,experiment,44,↓,up,↑,0.2516920999623835,False,21
149K25,525,experiment,13,↑,up,↑,0.43407850014045835,True,21
149K25,526,experiment,55,↓,up,↑,0.7493278998881578,False,21
149K25,527,experiment,29,→,right,→,0.7318094000220299,True,21
149K25,528,experiment,36,←,left,←,1.5266432003118098,True,21
149K25,529,experiment,57,←,left,←,0.4503039000555873,True,21
149K25,530,experiment,38,↑,left,←,0.4330843002535403,False,21
149K25,531,experiment,56,↓,up,↑,0.4832717999815941,False,21
149K25,532,experiment,28,↓,down,↓,0.809960899874568,True,21
149K25,533,experiment,21,←,no_key,no_letter,-1.0,False,21
149K25,534,experiment,33,→,right,→,0.5730650001205504,True,21
149K25,535,experiment,35,↓,down,↓,0.6164042996242642,True,21
149K25,536,experiment,50,←,left,←,0.4673048001714051,True,21
149K25,537,experiment,54,→,right,→,0.5181427001953125,True,21
149K25,538,experiment,45,↑,left,←,0.31860739970579743,False,21
149K25,539,experiment,27,↓,down,↓,0.6423172000795603,True,21
149K25,540,experiment,20,↓,down,↓,0.9236881001852453,True,21
149K25,541,training,15,←,right,→,0.6965536996722221,False,21
149K25,542,training,19,↓,down,↓,0.591866500210017,True,21
149K25,543,experiment,42,→,right,→,0.6125966999679804,True,21
149K25,544,experiment,37,→,left,←,0.3829961000010371,False,21
149K25,545,experiment,34,↑,down,↓,0.7570596998557448,False,21
149K25,546,experiment,20,↑,up,↑,0.4506847998127341,True,21
149K25,547,experiment,30,↑,up,↑,0.38389059994369745,True,21
149K25,548,experiment,33,↓,down,↓,0.8529494004324079,True,21
149K25,549,experiment,28,↓,right,→,0.816314899828285,False,21
149K25,550,experiment,17,↑,up,↑,1.4603538000956178,True,21
149K25,551,experiment,14,←,right,→,0.6410440001636744,False,21
149K25,552,experiment,56,↑,down,↓,0.8985557002015412,False,21
149K25,553,experiment,58,↓,right,→,0.8238834999501705,False,21
149K25,554,experiment,24,↑,left,←,1.1592196002602577,False,21
149K25,555,experiment,52,→,right,→,0.6943463999778032,True,21
149K25,556,experiment,39,↓,down,↓,0.6949729998596013,True,21
149K25,557,experiment,54,→,right,→,0.575713699683547,True,21
149K25,558,experiment,35,→,right,→,0.64187530009076,True,21
149K25,559,experiment,60,→,right,→,0.48365719988942146,True,21
149K25,560,experiment,16,↓,down,↓,0.714222100097686,True,21
149K25,561,experiment,49,↓,left,←,1.2371920999139547,False,21
149K25,562,experiment,45,↑,down,↓,0.9976095999591053,False,21
149K25,563,experiment,43,←,right,→,0.6732161999680102,False,21
149K25,564,experiment,48,→,right,→,1.622463600244373,True,21
149K25,565,experiment,53,←,right,→,0.5222809002734721,False,21
149K25,566,experiment,46,→,right,→,0.6543084001168609,True,21
149K25,567,experiment,26,↓,down,↓,0.6909916000440717,True,21
149K25,568,experiment,38,↓,right,→,1.4463080000132322,False,21
149K25,569,experiment,21,↑,down,↓,0.6223431001417339,False,21
149K25,570,experiment,55,←,right,→,0.41749370004981756,False,21
149K25,571,experiment,36,↑,down,↓,0.9275936000049114,False,21
149K25,572,experiment,51,→,right,→,0.5289314002729952,True,21
149K25,573,experiment,41,→,right,→,0.46708570001646876,True,21
149K25,574,experiment,44,←,no_key,no_letter,-1.0,False,21
149K25,575,experiment,32,←,left,←,0.46745390025898814,True,21
149K25,576,experiment,50,→,right,→,0.5181191000156105,True,21
149K25,577,experiment,29,↓,down,↓,0.8764952998608351,True,21
149K25,578,experiment,59,↓,down,↓,0.5223558000288904,True,21
149K25,579,experiment,19,→,right,→,0.5205145003274083,True,21
149K25,580,experiment,22,→,down,↓,1.1402440997771919,False,21
149K25,581,experiment,57,↑,right,→,0.6009109998121858,False,21
149K25,582,experiment,40,↓,down,↓,0.7664340999908745,True,21
149K25,583,experiment,27,→,right,→,1.8859735000878572,True,21
149K25,584,experiment,15,→,right,→,0.5604472002014518,True,21
149K25,585,experiment,47,→,right,→,1.4833553000353277,True,21
149K25,586,experiment,23,↑,right,→,0.7203073999844491,False,21
149K25,587,experiment,13,↓,down,↓,0.5871508000418544,True,21
149K25,588,experiment,25,↑,up,↑,0.5473538003861904,True,21
149K25,589,experiment,31,↓,down,↓,0.6242327000945807,True,21
149K25,590,experiment,18,←,no_key,no_letter,-1.0,False,21
