PART_ID,Trial_no,Trial_type,CSI,Stim_letter,Key_pressed,letter_choose,Rt,Corr,Stimulus Time
16K23,1,training,60,←,no_key,no_letter,-1.0,False,30
16K23,2,training,60,↓,down,↓,1.0231805000221357,True,30
16K23,3,training,60,←,left,←,0.7196842000121251,True,30
16K23,4,training,60,←,left,←,0.6336179000209086,True,30
16K23,5,training,60,↑,up,↑,0.8428094999981113,True,30
16K23,6,training,60,→,right,→,0.9617517999722622,True,30
16K23,7,training,60,↑,up,↑,0.7881846000091173,True,30
16K23,8,training,60,↓,down,↓,0.8938694999669679,True,30
16K23,9,training,60,↑,up,↑,0.7628891000058502,True,30
16K23,10,training,60,←,left,←,0.5836950999801047,True,30
16K23,11,training,60,→,no_key,no_letter,-1.0,False,30
16K23,12,training,60,↑,up,↑,0.7130840999889188,True,30
16K23,13,training,60,→,right,→,1.1015122000244446,True,30
16K23,14,training,60,↑,up,↑,1.5064474999671802,True,30
16K23,15,training,60,↓,down,↓,0.7999228000408038,True,30
16K23,16,training,60,→,left,←,0.5669442999642342,False,30
16K23,17,training,60,→,right,→,0.7863580000121146,True,30
16K23,18,training,60,→,right,→,0.8120464999810793,True,30
16K23,19,training,60,↓,down,↓,0.7723153000115417,True,30
16K23,20,training,60,→,right,→,0.7348849000409245,True,30
16K23,21,training,60,↓,down,↓,0.5033923000446521,True,18
16K23,22,training,60,↓,down,↓,0.5402024000068195,True,18
16K23,23,training,60,→,right,→,0.5678200999973342,True,18
16K23,24,training,60,↑,up,↑,0.6502220000256784,True,18
16K23,25,training,60,→,right,→,0.5048457000521012,True,18
16K23,26,training,60,↑,up,↑,0.6297457999899052,True,18
16K23,27,training,60,↓,down,↓,0.5732987999799661,True,18
16K23,28,training,60,←,right,→,1.2075787999783643,False,18
16K23,29,training,60,↓,down,↓,0.7367272999836132,True,18
16K23,30,training,60,↑,up,↑,0.5803173999884166,True,18
16K23,31,training,60,→,left,←,0.8538310999865644,False,18
16K23,32,training,60,←,left,←,0.6608879999839701,True,18
16K23,33,training,60,→,right,→,0.763232400000561,True,18
16K23,34,training,60,→,right,→,0.7654704000451602,True,18
16K23,35,training,60,↑,up,↑,0.5758360999752767,True,18
16K23,36,training,60,↓,down,↓,0.7936390999821015,True,18
16K23,37,training,60,↑,up,↑,0.706388299993705,True,18
16K23,38,training,60,↓,down,↓,0.5593215999542736,True,18
16K23,39,training,60,→,right,→,0.6974985999986529,True,18
16K23,40,training,60,→,no_key,no_letter,-1.0,False,18
16K23,41,training,55,↓,up,↑,1.4313719000201672,False,18
16K23,42,training,29,←,left,←,0.6279219000134617,True,18
16K23,43,experiment,17,↑,right,→,0.8566706000128761,False,18
16K23,44,experiment,37,→,right,→,0.5829504000139423,True,18
16K23,45,experiment,31,↑,up,↑,0.6038920999853872,True,18
16K23,46,experiment,58,→,right,→,0.5901245000422932,True,18
16K23,47,experiment,14,↑,up,↑,1.0385704999789596,True,18
16K23,48,experiment,57,←,left,←,0.40052040002774447,True,18
16K23,49,experiment,23,↓,down,↓,0.728841400006786,True,18
16K23,50,experiment,48,→,right,→,0.43371740001020953,True,18
16K23,51,experiment,36,↓,down,↓,0.5632569000008516,True,18
16K23,52,experiment,60,↑,up,↑,0.5977629999979399,True,18
16K23,53,experiment,50,→,no_key,no_letter,-1.0,False,18
16K23,54,experiment,13,→,right,→,1.0873795000370592,True,18
16K23,55,experiment,55,↑,no_key,no_letter,-1.0,False,18
16K23,56,experiment,19,←,right,→,0.80683090002276,False,18
16K23,57,experiment,33,↑,up,↑,0.5456776000210084,True,18
16K23,58,experiment,22,↑,up,↑,0.742416900000535,True,18
16K23,59,experiment,46,↑,up,↑,0.8033585000084713,True,18
16K23,60,experiment,52,←,left,←,0.6179441999993287,True,18
16K23,61,experiment,27,←,no_key,no_letter,-1.0,False,18
16K23,62,experiment,20,↑,down,↓,0.8934548000106588,False,18
16K23,63,experiment,47,↑,up,↑,0.6118330999743193,True,18
16K23,64,experiment,18,↓,down,↓,0.6166511999908835,True,18
16K23,65,experiment,34,↓,down,↓,0.5140904000145383,True,18
16K23,66,experiment,16,↓,down,↓,0.5234065999975428,True,18
16K23,67,experiment,56,↑,up,↑,1.7386041000136174,True,18
16K23,68,experiment,28,←,left,←,0.587834500009194,True,18
16K23,69,experiment,38,→,right,→,0.4920624000369571,True,18
16K23,70,experiment,30,↑,up,↑,0.5575598000432365,True,18
16K23,71,experiment,41,↓,down,↓,0.5651043999823742,True,18
16K23,72,experiment,53,←,left,←,0.5160100999637507,True,18
16K23,73,experiment,49,↑,up,↑,0.4171335999853909,True,18
16K23,74,experiment,21,←,left,←,0.9209855000372045,True,18
16K23,75,experiment,15,←,right,→,0.5471850999747403,False,18
16K23,76,experiment,59,←,left,←,1.8068576999939978,True,18
16K23,77,experiment,25,→,right,→,0.5915192000102252,True,18
16K23,78,experiment,32,↓,up,↑,0.7077499000006355,False,18
16K23,79,experiment,29,←,left,←,0.5812722000409849,True,18
16K23,80,experiment,51,→,left,←,0.49296760000288486,False,18
16K23,81,experiment,45,←,left,←,0.4766580000286922,True,18
16K23,82,experiment,24,↓,left,←,0.49793599999975413,False,18
16K23,83,experiment,26,↓,left,←,1.38949870003853,False,18
16K23,84,experiment,43,←,left,←,0.5631672000163235,True,18
16K23,85,experiment,39,↓,up,↑,0.8109567000064999,False,18
16K23,86,experiment,35,→,right,→,1.4283707999857143,True,18
16K23,87,experiment,44,←,left,←,0.5038499999791384,True,18
16K23,88,experiment,40,↑,up,↑,0.7059372999938205,True,18
16K23,89,experiment,42,←,left,←,1.6512647999916226,True,18
16K23,90,experiment,54,←,left,←,1.2945009999675676,True,18
16K23,91,training,50,←,left,←,0.5424639999982901,True,18
16K23,92,training,17,→,left,←,0.5104148000245914,False,18
16K23,93,experiment,47,↓,right,→,0.4170956999878399,False,18
16K23,94,experiment,60,→,right,→,0.5796214999863878,True,18
16K23,95,experiment,52,↓,down,↓,1.2745033000246622,True,18
16K23,96,experiment,21,←,left,←,0.7869642000296153,True,18
16K23,97,experiment,34,↓,down,↓,0.7579211000120267,True,18
16K23,98,experiment,51,↑,up,↑,1.1270948000019416,True,18
16K23,99,experiment,23,↑,up,↑,0.6681488000322133,True,18
16K23,100,experiment,19,↓,down,↓,0.6534002000116743,True,18
16K23,101,experiment,29,↓,down,↓,0.5290439000236802,True,18
16K23,102,experiment,48,↓,down,↓,0.5092332999920473,True,18
16K23,103,experiment,37,←,right,→,0.473433000035584,False,18
16K23,104,experiment,56,←,left,←,0.8657113999943249,True,18
16K23,105,experiment,55,→,right,→,0.6116469000116922,True,18
16K23,106,experiment,42,↑,up,↑,0.5045121999573894,True,18
16K23,107,experiment,28,←,left,←,0.6506520999828354,True,18
16K23,108,experiment,26,↓,down,↓,0.9440290000056848,True,18
16K23,109,experiment,16,←,left,←,0.6889913000050001,True,18
16K23,110,experiment,38,←,left,←,0.5492466000141576,True,18
16K23,111,experiment,53,↑,up,↑,0.6929200000013225,True,18
16K23,112,experiment,14,→,left,←,0.5449913000338711,False,18
16K23,113,experiment,32,←,left,←,0.6871154000400566,True,18
16K23,114,experiment,50,↓,up,↑,0.6194872999913059,False,18
16K23,115,experiment,46,→,right,→,0.7250061000231653,True,18
16K23,116,experiment,54,↑,up,↑,1.0537121000234038,True,18
16K23,117,experiment,58,→,right,→,0.7021778000053018,True,18
16K23,118,experiment,49,←,down,↓,1.1224901999812573,False,18
16K23,119,experiment,15,↓,down,↓,1.388755499967374,True,18
16K23,120,experiment,45,→,left,←,0.9607410000171512,False,18
16K23,121,experiment,39,↑,right,→,0.5858809999772348,False,18
16K23,122,experiment,41,↑,up,↑,0.5280487999552861,True,18
16K23,123,experiment,18,↓,no_key,no_letter,-1.0,False,18
16K23,124,experiment,44,←,left,←,1.0137101999716833,True,18
16K23,125,experiment,27,↑,up,↑,0.6520338999689557,True,18
16K23,126,experiment,57,←,right,→,0.7891372000449337,False,18
16K23,127,experiment,13,→,right,→,0.4942119999905117,True,18
16K23,128,experiment,22,→,right,→,0.40040380001300946,True,18
16K23,129,experiment,20,↓,down,↓,0.5272634000284597,True,18
16K23,130,experiment,30,↑,up,↑,0.591351900016889,True,18
16K23,131,experiment,24,←,left,←,0.6728650000295602,True,18
16K23,132,experiment,36,←,left,←,0.567108899995219,True,18
16K23,133,experiment,33,↑,up,↑,0.6351156000164337,True,18
16K23,134,experiment,40,→,right,→,0.41701560001820326,True,18
16K23,135,experiment,59,→,right,→,0.6404626999865286,True,18
16K23,136,experiment,35,↓,down,↓,0.5208382999990135,True,18
16K23,137,experiment,17,↑,up,↑,0.6413414999842644,True,18
16K23,138,experiment,25,↑,up,↑,0.5282350999768823,True,18
16K23,139,experiment,43,↑,up,↑,0.6236904000397772,True,18
16K23,140,experiment,31,↑,up,↑,0.5712413999717683,True,18
16K23,141,training,21,→,right,→,1.215150400006678,True,18
16K23,142,training,46,↓,down,↓,0.5612588999792933,True,18
16K23,143,experiment,36,→,right,→,1.7799269000533968,True,18
16K23,144,experiment,57,←,left,←,0.6243825000128709,True,18
16K23,145,experiment,20,↑,right,→,0.6508903999929316,False,18
16K23,146,experiment,21,↓,right,→,1.251680999994278,False,18
16K23,147,experiment,13,→,right,→,1.226087599992752,True,18
16K23,148,experiment,28,↑,right,→,1.5439429000252858,False,18
16K23,149,experiment,52,←,left,←,1.0893109000171535,True,18
16K23,150,experiment,35,→,right,→,0.4336751999799162,True,18
16K23,151,experiment,58,→,right,→,0.5601463000057265,True,18
16K23,152,experiment,32,↓,up,↑,0.8137217000476085,False,18
16K23,153,experiment,38,←,left,←,0.5486832000315189,True,18
16K23,154,experiment,44,↓,down,↓,0.5702795999823138,True,18
16K23,155,experiment,18,→,right,→,0.6962766000069678,True,18
16K23,156,experiment,41,→,right,→,0.690446599968709,True,18
16K23,157,experiment,22,↓,down,↓,0.6093381000100635,True,18
16K23,158,experiment,49,↑,up,↑,0.6416578000062145,True,18
16K23,159,experiment,19,←,left,←,0.812333400011994,True,18
16K23,160,experiment,54,↓,down,↓,0.47282810002798215,True,18
16K23,161,experiment,33,↑,up,↑,0.5603314000181854,True,18
16K23,162,experiment,60,←,left,←,0.4678451999789104,True,18
16K23,163,experiment,45,←,left,←,0.6109626000397839,True,18
16K23,164,experiment,23,↓,down,↓,0.748376699979417,True,18
16K23,165,experiment,27,→,right,→,1.3730871000443585,True,18
16K23,166,experiment,26,→,right,→,0.51836850005202,True,18
16K23,167,experiment,15,↓,down,↓,0.9524581999867223,True,18
16K23,168,experiment,46,→,left,←,0.6208349000080489,False,18
16K23,169,experiment,51,↑,up,↑,0.6672623000340536,True,18
16K23,170,experiment,55,↑,up,↑,0.5809249000158161,True,18
16K23,171,experiment,43,↓,down,↓,0.6178509999881499,True,18
16K23,172,experiment,14,↑,up,↑,0.7845421999809332,True,18
16K23,173,experiment,59,→,right,→,0.4990788000286557,True,18
16K23,174,experiment,40,→,right,→,0.7492361000040546,True,18
16K23,175,experiment,30,↑,left,←,0.8681773000280373,False,18
16K23,176,experiment,42,←,left,←,0.4171269999933429,True,18
16K23,177,experiment,25,↑,down,↓,0.8612763999844901,False,18
16K23,178,experiment,34,↑,up,↑,0.6055392000125721,True,18
16K23,179,experiment,50,↓,down,↓,0.5332126000430435,True,18
16K23,180,experiment,39,→,right,→,0.41704210004536435,True,18
16K23,181,experiment,31,↑,up,↑,0.625494800042361,True,18
16K23,182,experiment,17,→,down,↓,1.3582375000114553,False,18
16K23,183,experiment,16,↑,up,↑,0.6706724999821745,True,18
16K23,184,experiment,47,←,left,←,0.8457020000205375,True,18
16K23,185,experiment,24,↑,up,↑,0.6528704999946058,True,18
16K23,186,experiment,37,↓,down,↓,0.7389728000271134,True,18
16K23,187,experiment,56,↓,down,↓,0.6012015999876894,True,18
16K23,188,experiment,48,↓,up,↑,1.3303027999936603,False,18
16K23,189,experiment,29,↑,down,↓,0.6106151000130922,False,18
16K23,190,experiment,53,←,left,←,0.6644459000090137,True,18
16K23,191,training,17,←,left,←,0.5064080000156537,True,18
16K23,192,training,43,→,left,←,0.5546185999992304,False,18
16K23,193,experiment,37,→,right,→,0.5808884999714792,True,18
16K23,194,experiment,50,→,right,→,1.1730407000286505,True,18
16K23,195,experiment,32,↓,down,↓,0.6185852999915369,True,18
16K23,196,experiment,14,↑,up,↑,0.7209013999672607,True,18
16K23,197,experiment,59,↓,down,↓,0.43370200000936165,True,18
16K23,198,experiment,60,↓,down,↓,0.3177867000340484,True,18
16K23,199,experiment,38,↑,up,↑,0.5264516000170261,True,18
16K23,200,experiment,16,←,left,←,0.5838221000158228,True,18
16K23,201,experiment,44,←,left,←,0.5641085000243038,True,18
16K23,202,experiment,58,→,right,→,0.5677585000521503,True,18
16K23,203,experiment,25,↑,right,→,0.7772440999979153,False,18
16K23,204,experiment,47,←,right,→,0.6203277999884449,False,18
16K23,205,experiment,30,↑,up,↑,0.5444117999868467,True,18
16K23,206,experiment,45,←,no_key,no_letter,-1.0,False,18
16K23,207,experiment,20,←,right,→,0.6194460999686271,False,18
16K23,208,experiment,17,←,right,→,1.656144700013101,False,18
16K23,209,experiment,48,↓,down,↓,0.5199101000325754,True,18
16K23,210,experiment,35,↑,up,↑,0.7966375999967568,True,18
16K23,211,experiment,26,→,no_key,no_letter,-1.0,False,18
16K23,212,experiment,22,↓,right,→,0.6401030999841169,False,18
16K23,213,experiment,42,←,left,←,0.4337900000391528,True,18
16K23,214,experiment,33,→,right,→,0.5005360000068322,True,18
16K23,215,experiment,56,←,up,↑,0.5802421999978833,False,18
16K23,216,experiment,36,↑,left,←,0.15155850001610816,False,18
16K23,217,experiment,28,←,right,→,0.8236310000065714,False,18
16K23,218,experiment,15,↑,up,↑,0.6139516999828629,True,18
16K23,219,experiment,52,↓,down,↓,0.4995250999927521,True,18
16K23,220,experiment,51,←,right,→,0.4170542000210844,False,18
16K23,221,experiment,41,↑,left,←,0.2839024999993853,False,18
16K23,222,experiment,54,↑,right,→,0.35052799998084083,False,18
16K23,223,experiment,24,←,up,↑,0.5254826999735087,False,18
16K23,224,experiment,43,↑,no_key,no_letter,-1.0,False,18
16K23,225,experiment,53,↓,right,→,0.669039900007192,False,18
16K23,226,experiment,18,→,no_key,no_letter,-1.0,False,18
16K23,227,experiment,55,→,right,→,0.5331972999847494,True,18
16K23,228,experiment,27,↑,up,↑,0.47861670004203916,True,18
16K23,229,experiment,21,→,right,→,0.6460692000109702,True,18
16K23,230,experiment,23,↑,up,↑,0.4338137999875471,True,18
16K23,231,experiment,31,←,right,→,0.5035717000137083,False,18
16K23,232,experiment,29,→,right,→,0.9051087999832816,True,18
16K23,233,experiment,46,←,left,←,0.5914700000430457,True,18
16K23,234,experiment,40,←,left,←,0.4171108999871649,True,18
16K23,235,experiment,49,→,right,→,0.47715880000032485,True,18
16K23,236,experiment,39,→,right,→,0.4171084999688901,True,18
16K23,237,experiment,57,→,right,→,0.7303258000174537,True,18
16K23,238,experiment,13,↓,down,↓,1.7490965999895707,True,18
16K23,239,experiment,34,←,left,←,0.6897759000421502,True,18
16K23,240,experiment,19,↓,down,↓,0.5306260999641381,True,18
16K23,241,training,32,↓,down,↓,0.8277353000012226,True,18
16K23,242,training,42,↓,right,→,0.4338040999718942,False,18
16K23,243,experiment,14,←,left,←,0.41699930001050234,True,18
16K23,244,experiment,55,→,right,→,0.4882897000061348,True,18
16K23,245,experiment,50,→,right,→,0.41704059997573495,True,18
16K23,246,experiment,45,→,right,→,0.6141011000145227,True,18
16K23,247,experiment,43,↑,right,→,0.7538915000041015,False,18
16K23,248,experiment,56,↑,up,↑,0.6394170999992639,True,18
16K23,249,experiment,33,←,no_key,no_letter,-1.0,False,18
16K23,250,experiment,17,↑,right,→,0.5923377999570221,False,18
16K23,251,experiment,38,←,left,←,0.7925807999563403,True,18
16K23,252,experiment,18,↓,down,↓,0.5262306000222452,True,18
16K23,253,experiment,44,→,right,→,0.5090201999992132,True,18
16K23,254,experiment,41,←,left,←,0.40032389998668805,True,18
16K23,255,experiment,27,↓,left,←,0.4336800000164658,False,18
16K23,256,experiment,24,←,right,→,0.5872749999980442,False,18
16K23,257,experiment,48,↓,down,↓,0.7488680999958888,True,18
16K23,258,experiment,36,↑,up,↑,0.7040365000138991,True,18
16K23,259,experiment,49,←,left,←,0.48414840002078563,True,18
16K23,260,experiment,23,↓,down,↓,0.5142962000099942,True,18
16K23,261,experiment,30,↑,up,↑,0.4744455000036396,True,18
16K23,262,experiment,40,←,right,→,0.5251889000064693,False,18
16K23,263,experiment,19,→,no_key,no_letter,-1.0,False,18
16K23,264,experiment,42,↑,up,↑,0.7155933000030927,True,18
16K23,265,experiment,51,→,right,→,0.4169932000222616,True,18
16K23,266,experiment,53,↓,up,↑,0.8344098000088707,False,18
16K23,267,experiment,59,←,left,←,0.7146377000026405,True,18
16K23,268,experiment,35,→,left,←,0.5916210999712348,False,18
16K23,269,experiment,13,↑,up,↑,1.4885687999776565,True,18
16K23,270,experiment,54,↓,up,↑,1.010328300006222,False,18
16K23,271,experiment,28,↑,right,→,1.1290560999768786,False,18
16K23,272,experiment,34,←,left,←,0.4859231000300497,True,18
16K23,273,experiment,47,↑,up,↑,0.812126399949193,True,18
16K23,274,experiment,37,↓,up,↑,1.4037930000340566,False,18
16K23,275,experiment,26,→,left,←,0.9796090999734588,False,18
16K23,276,experiment,16,←,left,←,0.4337555000092834,True,18
16K23,277,experiment,21,↓,down,↓,0.5952504000160843,True,18
16K23,278,experiment,39,↓,right,→,0.7387052000267431,False,18
16K23,279,experiment,22,←,left,←,0.5835138999973424,True,18
16K23,280,experiment,31,→,left,←,0.5724295999971218,False,18
16K23,281,experiment,60,↑,up,↑,0.6948469000053592,True,18
16K23,282,experiment,52,↓,down,↓,0.7697991000022739,True,18
16K23,283,experiment,58,↑,up,↑,0.6216783999698237,True,18
16K23,284,experiment,32,←,left,←,0.6244879000005312,True,18
16K23,285,experiment,29,←,left,←,0.3835191000252962,True,18
16K23,286,experiment,25,←,left,←,0.5093600999680348,True,18
16K23,287,experiment,20,→,no_key,no_letter,-1.0,False,18
16K23,288,experiment,46,↑,up,↑,0.5930863000103272,True,18
16K23,289,experiment,15,→,right,→,0.5205668000271544,True,18
16K23,290,experiment,57,↑,up,↑,0.8066380000091158,True,18
16K23,291,training,36,↑,up,↑,0.6269695999799296,True,18
16K23,292,training,38,↓,up,↑,0.5859613999491557,False,18
16K23,293,experiment,26,→,left,←,1.1059854000341147,False,18
16K23,294,experiment,51,↓,down,↓,0.7812947000493295,True,18
16K23,295,experiment,57,↑,left,←,0.49705740000354126,False,18
16K23,296,experiment,41,↓,down,↓,0.9066050999681465,True,18
16K23,297,experiment,56,←,left,←,0.6184066000278108,True,18
16K23,298,experiment,39,←,left,←,0.6646802999894135,True,18
16K23,299,experiment,30,←,left,←,1.2267558999592438,True,18
16K23,300,experiment,45,←,left,←,0.4170577999902889,True,18
16K23,301,experiment,54,→,up,↑,0.929720800020732,False,18
16K23,302,experiment,59,↓,down,↓,0.5096550000016578,True,18
16K23,303,experiment,52,→,right,→,0.4719580999808386,True,18
16K23,304,experiment,22,↓,down,↓,0.9665377999772318,True,18
16K23,305,experiment,13,→,right,→,1.2960377000272274,True,18
16K23,306,experiment,17,←,left,←,0.5699140999931842,True,18
16K23,307,experiment,15,←,left,←,0.7458975000190549,True,18
16K23,308,experiment,19,→,right,→,0.7201097999932244,True,18
16K23,309,experiment,35,←,up,↑,0.8849627000163309,False,18
16K23,310,experiment,33,→,right,→,1.2364826000411995,True,18
16K23,311,experiment,40,↑,up,↑,0.5858648999710567,True,18
16K23,312,experiment,53,↑,up,↑,1.176165700017009,True,18
16K23,313,experiment,42,→,left,←,0.5987953000003472,False,18
16K23,314,experiment,18,↓,right,→,1.0514775000046939,False,18
16K23,315,experiment,25,↑,up,↑,0.6338611000101082,True,18
16K23,316,experiment,49,→,right,→,0.6167294000042602,True,18
16K23,317,experiment,60,↑,up,↑,0.7851132999639958,True,18
16K23,318,experiment,23,↓,right,→,0.8592986000003293,False,18
16K23,319,experiment,43,→,no_key,no_letter,-1.0,False,18
16K23,320,experiment,46,↑,right,→,1.20208110002568,False,18
16K23,321,experiment,29,↑,up,↑,0.6079129999852739,True,18
16K23,322,experiment,16,←,left,←,1.077893599984236,True,18
16K23,323,experiment,31,→,up,↑,0.8235326000140049,False,18
16K23,324,experiment,37,→,left,←,0.5993376000551507,False,18
16K23,325,experiment,58,↓,left,←,1.169591300014872,False,18
16K23,326,experiment,24,←,right,→,0.8760597999789752,False,18
16K23,327,experiment,28,←,no_key,no_letter,-1.0,False,18
16K23,328,experiment,14,→,right,→,0.41699250001693144,True,18
16K23,329,experiment,44,←,no_key,no_letter,-1.0,False,18
16K23,330,experiment,47,→,left,←,0.8148844999959692,False,18
16K23,331,experiment,32,↑,up,↑,0.41714700002921745,True,18
16K23,332,experiment,21,←,left,←,0.3837518999935128,True,18
16K23,333,experiment,50,←,left,←,0.4170884999912232,True,18
16K23,334,experiment,34,←,right,→,0.47540930000832304,False,18
16K23,335,experiment,38,↑,up,↑,0.5036500000278465,True,18
16K23,336,experiment,36,→,left,←,0.3503916999907233,False,18
16K23,337,experiment,48,↓,down,↓,0.574631399998907,True,18
16K23,338,experiment,55,←,left,←,0.5324352000025101,True,18
16K23,339,experiment,27,←,right,→,0.5817538999835961,False,18
16K23,340,experiment,20,←,left,←,1.2817450999864377,True,18
16K23,341,training,39,→,right,→,0.6287377999979071,True,18
16K23,342,training,37,→,right,→,0.4169148000073619,True,18
16K23,343,experiment,28,→,right,→,0.3837426000391133,True,18
16K23,344,experiment,19,↓,down,↓,0.46928460005437955,True,18
16K23,345,experiment,18,←,left,←,0.351169400033541,True,18
16K23,346,experiment,55,→,right,→,0.9070936000207439,True,18
16K23,347,experiment,27,↓,right,→,1.2298967999522574,False,18
16K23,348,experiment,51,←,left,←,1.3721267000073567,True,18
16K23,349,experiment,56,↓,down,↓,0.7773621999658644,True,18
16K23,350,experiment,26,→,no_key,no_letter,-1.0,False,18
16K23,351,experiment,53,←,left,←,0.6020392999635078,True,18
16K23,352,experiment,30,→,left,←,1.0548469999921508,False,18
16K23,353,experiment,31,→,right,→,0.561383799999021,True,18
16K23,354,experiment,58,↑,down,↓,0.9259108999976888,False,18
16K23,355,experiment,35,↓,down,↓,0.5306148999952711,True,18
16K23,356,experiment,23,←,left,←,0.6945821999688633,True,18
16K23,357,experiment,13,↑,up,↑,0.49130749999312684,True,18
16K23,358,experiment,21,↓,left,←,0.4987085000029765,False,18
16K23,359,experiment,48,→,right,→,0.5916188999544829,True,18
16K23,360,experiment,22,→,right,→,0.6667725000297651,True,18
16K23,361,experiment,46,→,left,←,0.35016520001227036,False,18
16K23,362,experiment,36,↑,up,↑,0.5481134000001475,True,18
16K23,363,experiment,39,←,left,←,0.4770067999488674,True,18
16K23,364,experiment,60,←,left,←,0.674651300010737,True,18
16K23,365,experiment,34,←,left,←,0.383736299991142,True,18
16K23,366,experiment,50,↓,down,↓,0.6978236999711953,True,18
16K23,367,experiment,33,→,right,→,0.7287473999895155,True,18
16K23,368,experiment,16,→,right,→,0.5301538999774493,True,18
16K23,369,experiment,32,↓,down,↓,0.7201620999840088,True,18
16K23,370,experiment,57,→,right,→,0.3838990000076592,True,18
16K23,371,experiment,43,→,right,→,0.3670945999911055,True,18
16K23,372,experiment,59,→,left,←,0.7091249999939464,False,18
16K23,373,experiment,24,←,left,←,0.6259525999776088,True,18
16K23,374,experiment,29,↑,up,↑,0.5988528000307269,True,18
16K23,375,experiment,37,←,left,←,0.6709793999907561,True,18
16K23,376,experiment,20,→,no_key,no_letter,-1.0,False,18
16K23,377,experiment,41,↓,down,↓,0.4793165000155568,True,18
16K23,378,experiment,14,↑,up,↑,0.6834871000028215,True,18
16K23,379,experiment,49,↑,down,↓,0.6163258000160567,False,18
16K23,380,experiment,54,↓,down,↓,0.5007908999687061,True,18
16K23,381,experiment,38,↑,up,↑,0.7602825000067241,True,18
16K23,382,experiment,45,↑,up,↑,0.4772800999926403,True,18
16K23,383,experiment,17,↑,up,↑,0.4334514999645762,True,18
16K23,384,experiment,47,→,left,←,0.7989465999999084,False,18
16K23,385,experiment,25,↑,down,↓,0.8950347999925725,False,18
16K23,386,experiment,40,↑,no_key,no_letter,-1.0,False,18
16K23,387,experiment,15,↓,up,↑,0.7147955000400543,False,18
16K23,388,experiment,42,↓,down,↓,0.531094399979338,True,18
16K23,389,experiment,52,↓,up,↑,0.764298299967777,False,18
16K23,390,experiment,44,↓,right,→,1.0890139000257477,False,18
16K23,391,training,51,↑,up,↑,1.9064461999805644,True,18
16K23,392,training,56,↑,up,↑,0.7307784000295214,True,18
16K23,393,experiment,45,↓,down,↓,0.520483799977228,True,18
16K23,394,experiment,41,→,no_key,no_letter,-1.0,False,18
16K23,395,experiment,34,↑,left,←,0.8216248999815434,False,18
16K23,396,experiment,52,→,no_key,no_letter,-1.0,False,18
16K23,397,experiment,32,→,left,←,0.8248100999626331,False,18
16K23,398,experiment,16,←,left,←,0.41710540000349283,True,18
16K23,399,experiment,13,←,left,←,0.684854399994947,True,18
16K23,400,experiment,24,→,right,→,1.402248199970927,True,18
16K23,401,experiment,47,→,right,→,0.5563228000537492,True,18
16K23,402,experiment,20,↑,up,↑,1.729719800001476,True,18
16K23,403,experiment,17,←,left,←,0.5303717000060715,True,18
16K23,404,experiment,27,→,right,→,0.7957706000306644,True,18
16K23,405,experiment,18,→,no_key,no_letter,-1.0,False,18
16K23,406,experiment,49,↓,down,↓,0.547629099979531,True,18
16K23,407,experiment,33,→,right,→,0.48090100003173575,True,18
16K23,408,experiment,38,↑,up,↑,0.86053169996012,True,18
16K23,409,experiment,59,←,left,←,0.38386599998921156,True,18
16K23,410,experiment,15,←,right,→,0.931051799969282,False,18
16K23,411,experiment,43,↑,up,↑,0.48205410002265126,True,18
16K23,412,experiment,28,←,right,→,0.5489382999949157,False,18
16K23,413,experiment,46,↓,down,↓,0.5211922000162303,True,18
16K23,414,experiment,36,→,right,→,0.6293362000142224,True,18
16K23,415,experiment,14,↓,left,←,0.8273451999993995,False,18
16K23,416,experiment,48,↑,up,↑,0.2014570999890566,True,18
16K23,417,experiment,21,→,left,←,0.6983566000126302,False,18
16K23,418,experiment,30,←,no_key,no_letter,-1.0,False,18
16K23,419,experiment,31,→,left,←,1.7133647000300698,False,18
16K23,420,experiment,44,←,left,←,0.5368339999695309,True,18
16K23,421,experiment,54,←,left,←,0.4004891000222415,True,18
16K23,422,experiment,57,↓,down,↓,0.602784699993208,True,18
16K23,423,experiment,35,→,right,→,0.5003945000353269,True,18
16K23,424,experiment,60,→,right,→,0.5613899999880232,True,18
16K23,425,experiment,40,↓,down,↓,0.617599599994719,True,18
16K23,426,experiment,56,↓,down,↓,0.6927067000069655,True,18
16K23,427,experiment,58,←,left,←,0.5956482000183314,True,18
16K23,428,experiment,51,↑,right,→,0.6427174000418745,False,18
16K23,429,experiment,23,←,up,↑,0.6834580999566242,False,18
16K23,430,experiment,26,←,left,←,0.6230272999964654,True,18
16K23,431,experiment,50,↓,down,↓,0.6299983999924734,True,18
16K23,432,experiment,29,→,left,←,0.41709000000264496,False,18
16K23,433,experiment,39,→,right,→,0.39999589999206364,True,18
16K23,434,experiment,55,↑,down,↓,0.7953056000405923,False,18
16K23,435,experiment,37,↓,down,↓,0.5083282999694347,True,18
16K23,436,experiment,42,→,right,→,0.7010711000184529,True,18
16K23,437,experiment,25,←,left,←,0.5134288999834098,True,18
16K23,438,experiment,53,→,right,→,0.4985715000075288,True,18
16K23,439,experiment,22,→,no_key,no_letter,-1.0,False,18
16K23,440,experiment,19,→,right,→,1.2624767000088468,True,18
16K23,441,training,33,↓,up,↑,1.7358302000211552,False,18
16K23,442,training,13,←,left,←,0.43379010003991425,True,18
16K23,443,experiment,33,←,left,←,0.4170622000237927,True,18
16K23,444,experiment,24,←,left,←,0.571086700016167,True,18
16K23,445,experiment,48,↓,up,↑,0.9494157999870367,False,18
16K23,446,experiment,40,←,left,←,1.4620417000260204,True,18
16K23,447,experiment,51,→,right,→,0.738489200011827,True,18
16K23,448,experiment,13,↑,up,↑,0.4932013999787159,True,18
16K23,449,experiment,44,↑,up,↑,0.781479199999012,True,18
16K23,450,experiment,43,↓,down,↓,0.9945612999727018,True,18
16K23,451,experiment,22,←,left,←,0.533579999988433,True,18
16K23,452,experiment,50,↓,left,←,0.9040302999783307,False,18
16K23,453,experiment,42,→,right,→,0.49717909999890253,True,18
16K23,454,experiment,53,↓,down,↓,0.7625109999789856,True,18
16K23,455,experiment,14,↓,right,→,0.7078587000141852,False,18
16K23,456,experiment,16,↓,down,↓,0.7099911999539472,True,18
16K23,457,experiment,28,←,left,←,0.5841799000045285,True,18
16K23,458,experiment,30,↑,right,→,0.8137803000281565,False,18
16K23,459,experiment,35,↑,up,↑,0.710590599977877,True,18
16K23,460,experiment,59,→,left,←,0.5325343000004068,False,18
16K23,461,experiment,46,↓,down,↓,0.48136640002485365,True,18
16K23,462,experiment,47,↑,up,↑,0.5035391999990679,True,18
16K23,463,experiment,15,→,right,→,0.6501818000106141,True,18
16K23,464,experiment,37,↑,up,↑,0.8884977999841794,True,18
16K23,465,experiment,60,←,left,←,1.742561899998691,True,18
16K23,466,experiment,25,→,no_key,no_letter,-1.0,False,18
16K23,467,experiment,45,←,left,←,0.4336917000473477,True,18
16K23,468,experiment,32,→,right,→,0.7120946999639273,True,18
16K23,469,experiment,38,→,right,→,0.4916018999647349,True,18
16K23,470,experiment,23,↑,down,↓,0.5457929000258446,False,18
16K23,471,experiment,27,←,down,↓,0.21815809997497126,False,18
16K23,472,experiment,58,↑,right,→,0.41710600000806153,False,18
16K23,473,experiment,29,→,left,←,0.18502050003735349,False,18
16K23,474,experiment,19,←,left,←,0.6767606000066735,True,18
16K23,475,experiment,31,↑,up,↑,1.3263164999661967,True,18
16K23,476,experiment,26,←,left,←,0.5934583000489511,True,18
16K23,477,experiment,39,↓,down,↓,0.6490421000053175,True,18
16K23,478,experiment,41,↑,up,↑,0.5005432000034489,True,18
16K23,479,experiment,17,←,left,←,0.6379894000128843,True,18
16K23,480,experiment,49,←,left,←,0.5729413999943063,True,18
16K23,481,experiment,36,↓,down,↓,0.7271744000026956,True,18
16K23,482,experiment,54,←,left,←,0.8955427000182681,True,18
16K23,483,experiment,21,↓,down,↓,0.6784120000083931,True,18
16K23,484,experiment,55,←,left,←,0.4961784000042826,True,18
16K23,485,experiment,57,→,right,→,0.4871848999755457,True,18
16K23,486,experiment,52,←,left,←,0.40038050001021475,True,18
16K23,487,experiment,34,↑,up,↑,0.6755381000111811,True,18
16K23,488,experiment,56,→,right,→,0.7005930999876,True,18
16K23,489,experiment,20,→,right,→,0.46869920002063736,True,18
16K23,490,experiment,18,↓,down,↓,0.5734694999991916,True,18
16K23,491,training,32,←,left,←,1.6828186999773607,True,18
16K23,492,training,27,↓,down,↓,0.5027809999883175,True,18
16K23,493,experiment,41,←,left,←,0.40025150001747534,True,18
16K23,494,experiment,53,↑,up,↑,1.397225900029298,True,18
16K23,495,experiment,34,↑,up,↑,0.5198516999953426,True,18
16K23,496,experiment,36,↑,right,→,0.7240472999983467,False,18
16K23,497,experiment,48,←,left,←,0.48037440003827214,True,18
16K23,498,experiment,37,→,right,→,0.49324460001662374,True,18
16K23,499,experiment,32,↑,up,↑,0.5093936999910511,True,18
16K23,500,experiment,40,↑,up,↑,0.5596361000207253,True,18
16K23,501,experiment,26,↓,right,→,0.8329319999902509,False,18
16K23,502,experiment,38,←,left,←,1.575291900022421,True,18
16K23,503,experiment,19,↓,down,↓,0.5012495999690145,True,18
16K23,504,experiment,21,↑,up,↑,0.4007728000287898,True,18
16K23,505,experiment,39,↓,right,→,0.690051699988544,False,18
16K23,506,experiment,17,→,right,→,1.6840771000133827,True,18
16K23,507,experiment,30,↓,up,↑,0.3172733999672346,False,18
16K23,508,experiment,60,←,left,←,0.6657109999796376,True,18
16K23,509,experiment,22,↓,left,←,0.48908319999463856,False,18
16K23,510,experiment,50,↑,up,↑,0.4338020000141114,True,18
16K23,511,experiment,52,→,right,→,0.4817782000172883,True,18
16K23,512,experiment,59,↓,no_key,no_letter,-1.0,False,18
16K23,513,experiment,46,↓,down,↓,0.6523955999873579,True,18
16K23,514,experiment,35,←,left,←,1.2838369999662973,True,18
16K23,515,experiment,51,←,left,←,0.5599028000142425,True,18
16K23,516,experiment,55,←,left,←,0.526290700014215,True,18
16K23,517,experiment,33,↓,down,↓,0.6604698000010103,True,18
16K23,518,experiment,49,↓,down,↓,0.6027669999748468,True,18
16K23,519,experiment,20,←,left,←,0.5103365000104532,True,18
16K23,520,experiment,15,←,no_key,no_letter,-1.0,False,18
16K23,521,experiment,56,↑,down,↓,0.6706322000245564,False,18
16K23,522,experiment,57,→,right,→,0.5510030000004917,True,18
16K23,523,experiment,29,→,right,→,0.5103712999843992,True,18
16K23,524,experiment,24,↑,up,↑,0.5311349999974482,True,18
16K23,525,experiment,16,→,right,→,0.8518536999472417,True,18
16K23,526,experiment,27,↓,down,↓,0.6647009000298567,True,18
16K23,527,experiment,31,→,left,←,0.7223044999991544,False,18
16K23,528,experiment,54,←,left,←,0.5947211000020616,True,18
16K23,529,experiment,44,←,down,↓,0.40064389997860417,False,18
16K23,530,experiment,47,↑,down,↓,0.28387410001596436,False,18
16K23,531,experiment,18,↑,up,↑,0.6163609999930486,True,18
16K23,532,experiment,25,↑,up,↑,0.5118606999749318,True,18
16K23,533,experiment,42,↑,up,↑,1.1927791999769397,True,18
16K23,534,experiment,14,↑,up,↑,0.6011262999963947,True,18
16K23,535,experiment,28,↓,up,↑,0.5913963000057265,False,18
16K23,536,experiment,58,↑,down,↓,0.3002379999961704,False,18
16K23,537,experiment,23,→,right,→,0.5269112000241876,True,18
16K23,538,experiment,43,↑,up,↑,0.7663620000239462,True,18
16K23,539,experiment,13,→,right,→,0.41722459997981787,True,18
16K23,540,experiment,45,↓,down,↓,0.48966249998193234,True,18
16K23,541,training,16,←,down,↓,1.6374240999575704,False,18
16K23,542,training,35,←,right,→,0.05164169997442514,False,18
16K23,543,experiment,24,↓,down,↓,0.4828509999788366,True,18
16K23,544,experiment,32,↓,down,↓,0.38369970000348985,True,18
16K23,545,experiment,17,→,up,↑,0.5922454000101425,False,18
16K23,546,experiment,40,↑,right,→,0.5272537000128068,False,18
16K23,547,experiment,29,↑,up,↑,0.48789180000312626,True,18
16K23,548,experiment,21,→,left,←,0.6155715999775566,False,18
16K23,549,experiment,52,→,right,→,0.5570359000121243,True,18
16K23,550,experiment,43,←,down,↓,0.20123559999046847,False,18
16K23,551,experiment,53,↑,right,→,0.7807087000110187,False,18
16K23,552,experiment,58,↓,down,↓,0.4878430000389926,True,18
16K23,553,experiment,41,←,left,←,0.4980622000293806,True,18
16K23,554,experiment,22,←,left,←,0.592084200005047,True,18
16K23,555,experiment,23,↓,down,↓,0.5142884000088088,True,18
16K23,556,experiment,35,→,right,→,0.47895230003632605,True,18
16K23,557,experiment,34,↑,up,↑,0.5097818000358529,True,18
16K23,558,experiment,30,↑,no_key,no_letter,-1.0,False,18
16K23,559,experiment,36,↓,down,↓,0.673485699982848,True,18
16K23,560,experiment,56,←,left,←,0.6986275999806821,True,18
16K23,561,experiment,33,↑,left,←,0.8094038999988697,False,18
16K23,562,experiment,48,←,left,←,0.706542800005991,True,18
16K23,563,experiment,50,↑,up,↑,0.6781327000353485,True,18
16K23,564,experiment,16,→,right,→,0.47370489995228127,True,18
16K23,565,experiment,18,↑,up,↑,0.43369829998118803,True,18
16K23,566,experiment,54,←,left,←,0.3835065999883227,True,18
16K23,567,experiment,28,←,left,←,0.36673619999783114,True,18
16K23,568,experiment,14,↓,right,→,0.6278344000456855,False,18
16K23,569,experiment,13,→,left,←,1.115094400011003,False,18
16K23,570,experiment,26,↑,up,↑,0.35033530002692714,True,18
16K23,571,experiment,20,→,down,↓,1.250861199980136,False,18
16K23,572,experiment,59,↓,down,↓,0.8430073999916203,True,18
16K23,573,experiment,27,→,right,→,0.33322400000179186,True,18
16K23,574,experiment,46,←,left,←,0.572760000010021,True,18
16K23,575,experiment,45,→,up,↑,0.9210757999680936,False,18
16K23,576,experiment,25,↓,down,↓,0.9965760000050068,True,18
16K23,577,experiment,19,→,left,←,0.9288311999989673,False,18
16K23,578,experiment,51,←,left,←,0.49867230001837015,True,18
16K23,579,experiment,38,↓,right,→,0.13496269995812327,False,18
16K23,580,experiment,42,←,left,←,0.433740200009197,True,18
16K23,581,experiment,15,→,right,→,0.10024699999485165,True,18
16K23,582,experiment,60,→,right,→,0.7685296999989077,True,18
16K23,583,experiment,37,→,down,↓,0.3001170000061393,False,18
16K23,584,experiment,39,→,left,←,0.13484989997232333,False,18
16K23,585,experiment,55,↓,left,←,0.3015069999964908,False,18
16K23,586,experiment,57,→,up,↑,0.17020920000504702,False,18
16K23,587,experiment,44,↑,left,←,1.1535090999677777,False,18
16K23,588,experiment,49,↑,right,→,0.21807649999391288,False,18
16K23,589,experiment,47,→,left,←,0.5141808000043966,False,18
16K23,590,experiment,31,→,right,→,0.8577465999987908,True,18
