PART_ID,Trial_no,Trial_type,CSI,Stim_letter,Key_pressed,letter_choose,Rt,Corr,Stimulus Time
25M34,1,training,60,↓,no_key,no_letter,-1.0,False,30
25M34,2,training,60,→,no_key,no_letter,-1.0,False,30
25M34,3,training,60,↑,no_key,no_letter,-1.0,False,30
25M34,4,training,60,←,right,→,1.9259696999797598,False,30
25M34,5,training,60,←,right,→,1.3366953000077046,False,30
25M34,6,training,60,↑,down,↓,1.5626326999627054,False,30
25M34,7,training,60,↓,right,→,1.331433699990157,False,30
25M34,8,training,60,↑,up,↑,1.245272499974817,True,30
25M34,9,training,60,←,up,↑,1.1785226999782026,False,30
25M34,10,training,60,←,left,←,0.9866188000305556,True,30
25M34,11,training,60,→,right,→,1.0506556000327691,True,30
25M34,12,training,60,↑,up,↑,1.1599070000229403,True,30
25M34,13,training,60,↓,down,↓,1.2084986999980174,True,30
25M34,14,training,60,↓,down,↓,1.0879025000031106,True,30
25M34,15,training,60,←,left,←,0.7319233000162058,True,30
25M34,16,training,60,→,right,→,0.7659355000359938,True,30
25M34,17,training,60,↑,down,↓,1.0467541000107303,False,30
25M34,18,training,60,→,right,→,0.8679098999709822,True,30
25M34,19,training,60,↓,down,↓,1.256543600000441,True,30
25M34,20,training,60,→,right,→,0.7259554999764077,True,30
25M34,21,training,60,←,left,←,0.7252220999798737,True,18
25M34,22,training,60,←,right,→,0.623798499989789,False,18
25M34,23,training,60,↑,left,←,1.093879599997308,False,18
25M34,24,training,60,↓,down,↓,0.8651630000094883,True,18
25M34,25,training,60,↓,left,←,1.0778084000339732,False,18
25M34,26,training,60,↓,right,→,0.6497898999950849,False,18
25M34,27,training,60,←,left,←,0.751087800017558,True,18
25M34,28,training,60,→,right,→,0.7844176999642514,True,18
25M34,29,training,60,↑,up,↑,0.8564112999592908,True,18
25M34,30,training,60,←,right,→,0.7178046000190079,False,18
25M34,31,training,60,→,right,→,0.792469699983485,True,18
25M34,32,training,60,←,right,→,0.8245613999897614,False,18
25M34,33,training,60,→,right,→,0.7590797999873757,True,18
25M34,34,training,60,↓,right,→,0.8406453999923542,False,18
25M34,35,training,60,→,left,←,0.8303087999811396,False,18
25M34,36,training,60,←,left,←,0.6524244000320323,True,18
25M34,37,training,60,←,left,←,0.64172710001003,True,18
25M34,38,training,60,↑,left,←,0.8558089000289328,False,18
25M34,39,training,60,↑,up,↑,0.9092438999796286,True,18
25M34,40,training,60,↑,up,↑,0.8325488000409678,True,18
25M34,41,training,20,↓,down,↓,1.1838356999796815,True,18
25M34,42,training,48,↓,right,→,1.2163880000007339,False,18
25M34,43,experiment,54,←,down,↓,0.9877852999488823,False,18
25M34,44,experiment,38,↓,right,→,1.1630470000091009,False,18
25M34,45,experiment,18,↑,down,↓,1.056421599991154,False,18
25M34,46,experiment,56,→,right,→,0.7609926000004634,True,18
25M34,47,experiment,35,↑,up,↑,1.0196433000382967,True,18
25M34,48,experiment,17,↑,right,→,1.0236703000264242,False,18
25M34,49,experiment,30,↑,up,↑,0.795031099987682,True,18
25M34,50,experiment,45,↓,down,↓,0.5016871999832802,True,18
25M34,51,experiment,26,↑,right,→,1.064261700026691,False,18
25M34,52,experiment,16,→,right,→,0.971033499983605,True,18
25M34,53,experiment,27,←,left,←,0.8183081999886781,True,18
25M34,54,experiment,28,→,right,→,0.7669653999619186,True,18
25M34,55,experiment,43,→,right,→,0.6916960999951698,True,18
25M34,56,experiment,52,↑,up,↑,0.8056094000348821,True,18
25M34,57,experiment,50,←,left,←,0.5483714999863878,True,18
25M34,58,experiment,22,↓,down,↓,1.8236344999750145,True,18
25M34,59,experiment,24,←,left,←,0.5510154999792576,True,18
25M34,60,experiment,19,↓,right,→,1.5082650000113063,False,18
25M34,61,experiment,49,↑,right,→,1.0796747000422329,False,18
25M34,62,experiment,55,→,right,→,0.6636603000224568,True,18
25M34,63,experiment,53,←,left,←,0.6021061000064947,True,18
25M34,64,experiment,32,←,left,←,0.6764250999549404,True,18
25M34,65,experiment,20,↓,right,→,1.084391099982895,False,18
25M34,66,experiment,59,→,right,→,0.8417440000339411,True,18
25M34,67,experiment,39,←,right,→,0.8863887999905273,False,18
25M34,68,experiment,15,↓,down,↓,0.8569438999984413,True,18
25M34,69,experiment,34,↓,left,←,1.1924676000489853,False,18
25M34,70,experiment,42,↑,up,↑,1.788976999989245,True,18
25M34,71,experiment,29,↓,left,←,0.5223577999859117,False,18
25M34,72,experiment,23,↓,down,↓,0.9903290999936871,True,18
25M34,73,experiment,40,←,right,→,0.8203389999689534,False,18
25M34,74,experiment,51,←,up,↑,1.8256099999998696,False,18
25M34,75,experiment,33,→,right,→,1.954984300013166,True,18
25M34,76,experiment,44,↓,no_key,no_letter,-1.0,False,18
25M34,77,experiment,47,↓,right,→,1.2416411000303924,False,18
25M34,78,experiment,57,→,right,→,1.0583188999444246,True,18
25M34,79,experiment,60,→,right,→,0.7765665000188164,True,18
25M34,80,experiment,37,→,no_key,no_letter,-1.0,False,18
25M34,81,experiment,25,→,right,→,0.529761400015559,True,18
25M34,82,experiment,48,←,left,←,0.6042026999639347,True,18
25M34,83,experiment,41,↑,up,↑,1.3448858000338078,True,18
25M34,84,experiment,13,→,right,→,0.8589639000128955,True,18
25M34,85,experiment,31,←,right,→,0.9084194999886677,False,18
25M34,86,experiment,14,→,right,→,0.6949292999925092,True,18
25M34,87,experiment,36,→,down,↓,1.7715411999961361,False,18
25M34,88,experiment,21,↑,up,↑,0.6711623999872245,True,18
25M34,89,experiment,58,↑,up,↑,0.6615311999921687,True,18
25M34,90,experiment,46,→,right,→,0.636995000008028,True,18
25M34,91,training,41,↓,down,↓,0.7089119000011124,True,18
25M34,92,training,47,↓,down,↓,0.5855822000303306,True,18
25M34,93,experiment,31,→,right,→,0.6537746000103652,True,18
25M34,94,experiment,27,→,down,↓,1.6815376000013202,False,18
25M34,95,experiment,56,→,left,←,1.4489427999942563,False,18
25M34,96,experiment,54,↓,down,↓,0.6748518999665976,True,18
25M34,97,experiment,33,↑,up,↑,0.5784164000069723,True,18
25M34,98,experiment,47,↑,up,↑,0.5325397999840789,True,18
25M34,99,experiment,19,↑,right,→,0.9227897999808192,False,18
25M34,100,experiment,16,↓,up,↑,1.6911679999902844,False,18
25M34,101,experiment,50,↑,left,←,1.870429000002332,False,18
25M34,102,experiment,48,↓,up,↑,1.5637225000537,False,18
25M34,103,experiment,57,→,right,→,0.5588988000527024,True,18
25M34,104,experiment,36,↑,left,←,1.28887869999744,False,18
25M34,105,experiment,25,←,left,←,1.7568670999608003,True,18
25M34,106,experiment,46,→,right,→,0.6963384000118822,True,18
25M34,107,experiment,18,→,no_key,no_letter,-1.0,False,18
25M34,108,experiment,59,↓,no_key,no_letter,-1.0,False,18
25M34,109,experiment,58,←,left,←,0.6294003999792039,True,18
25M34,110,experiment,39,↓,down,↓,0.754131999972742,True,18
25M34,111,experiment,38,↑,no_key,no_letter,-1.0,False,18
25M34,112,experiment,49,←,left,←,0.675487799977418,True,18
25M34,113,experiment,22,↓,down,↓,0.6660788000444882,True,18
25M34,114,experiment,35,→,left,←,1.6641278000315651,False,18
25M34,115,experiment,44,→,left,←,1.7841073999879882,False,18
25M34,116,experiment,53,←,no_key,no_letter,-1.0,False,18
25M34,117,experiment,45,↑,up,↑,0.8888817000552081,True,18
25M34,118,experiment,34,↑,right,→,1.8468687999993563,False,18
25M34,119,experiment,14,→,left,←,1.3636838999809697,False,18
25M34,120,experiment,17,↑,up,↑,0.8335533000063151,True,18
25M34,121,experiment,20,↓,down,↓,0.6589057000237517,True,18
25M34,122,experiment,51,↑,no_key,no_letter,-1.0,False,18
25M34,123,experiment,30,↓,down,↓,1.5882595999864861,True,18
25M34,124,experiment,32,↓,down,↓,0.6154818999930285,True,18
25M34,125,experiment,13,↑,right,→,1.510177800024394,False,18
25M34,126,experiment,15,←,no_key,no_letter,-1.0,False,18
25M34,127,experiment,37,↑,up,↑,0.6487473999732174,True,18
25M34,128,experiment,43,↑,up,↑,0.9541048000101,True,18
25M34,129,experiment,60,↓,right,→,1.2440624000155367,False,18
25M34,130,experiment,42,→,down,↓,1.6630142999929376,False,18
25M34,131,experiment,40,↑,up,↑,1.3854214000166394,True,18
25M34,132,experiment,23,↑,right,→,1.5547815000172704,False,18
25M34,133,experiment,21,↓,down,↓,0.6868370000156574,True,18
25M34,134,experiment,26,↑,right,→,1.3541221999912523,False,18
25M34,135,experiment,29,↑,no_key,no_letter,-1.0,False,18
25M34,136,experiment,28,←,right,→,1.5835244999616407,False,18
25M34,137,experiment,55,→,right,→,0.8274583999882452,True,18
25M34,138,experiment,52,↑,up,↑,0.7361955000087619,True,18
25M34,139,experiment,24,→,right,→,0.6187721000169404,True,18
25M34,140,experiment,41,→,right,→,0.6069967999937944,True,18
25M34,141,training,33,↓,down,↓,0.7927474000025541,True,19
25M34,142,training,20,↓,right,→,1.308124500035774,False,19
25M34,143,experiment,35,←,down,↓,0.5127317999722436,False,19
25M34,144,experiment,40,↑,no_key,no_letter,-1.0,False,19
25M34,145,experiment,22,←,left,←,0.4003808000124991,True,19
25M34,146,experiment,54,→,right,→,0.5667067999602295,True,19
25M34,147,experiment,32,←,left,←,0.5870278000365943,True,19
25M34,148,experiment,42,→,right,→,0.8713699000072666,True,19
25M34,149,experiment,17,←,left,←,0.6813578000292182,True,19
25M34,150,experiment,38,↓,down,↓,1.3246998999966308,True,19
25M34,151,experiment,37,↓,right,→,1.2554315999732353,False,19
25M34,152,experiment,52,↓,left,←,0.5707724000094458,False,19
25M34,153,experiment,51,↑,left,←,1.8259750999859534,False,19
25M34,154,experiment,49,→,no_key,no_letter,-1.0,False,19
25M34,155,experiment,25,↑,down,↓,1.624940899957437,False,19
25M34,156,experiment,16,↑,no_key,no_letter,-1.0,False,19
25M34,157,experiment,19,→,no_key,no_letter,-1.0,False,19
25M34,158,experiment,43,←,left,←,1.4935660000192001,True,19
25M34,159,experiment,47,↓,down,↓,0.6907120000105351,True,19
25M34,160,experiment,44,↓,down,↓,1.4739099000580609,True,19
25M34,161,experiment,39,←,left,←,0.5657286000205204,True,19
25M34,162,experiment,28,↓,down,↓,0.5560025000013411,True,19
25M34,163,experiment,13,←,left,←,1.7333301000180654,True,19
25M34,164,experiment,23,→,left,←,1.6246746000251733,False,19
25M34,165,experiment,57,↓,no_key,no_letter,-1.0,False,19
25M34,166,experiment,53,↓,left,←,0.4341124999918975,False,19
25M34,167,experiment,48,↓,no_key,no_letter,-1.0,False,19
25M34,168,experiment,46,→,right,→,0.5514512000372633,True,19
25M34,169,experiment,60,↑,down,↓,1.529188099957537,False,19
25M34,170,experiment,59,↑,up,↑,0.7493950999923982,True,19
25M34,171,experiment,34,→,right,→,0.5765754000167362,True,19
25M34,172,experiment,26,↑,up,↑,0.7128245999920182,True,19
25M34,173,experiment,33,↑,up,↑,0.6386755999992602,True,19
25M34,174,experiment,58,↑,no_key,no_letter,-1.0,False,19
25M34,175,experiment,31,→,right,→,0.5386852999799885,True,19
25M34,176,experiment,41,↓,down,↓,0.8419224999961443,True,19
25M34,177,experiment,36,↑,up,↑,0.7445070000248961,True,19
25M34,178,experiment,18,↓,down,↓,0.711312800005544,True,19
25M34,179,experiment,55,↓,up,↑,0.6469082999974489,False,19
25M34,180,experiment,50,↑,down,↓,0.7074814999941736,False,19
25M34,181,experiment,29,↓,down,↓,0.5880241999984719,True,19
25M34,182,experiment,56,↑,up,↑,0.6072888000053354,True,19
25M34,183,experiment,20,↑,up,↑,0.8273195999790914,True,19
25M34,184,experiment,27,←,right,→,0.9994902000180446,False,19
25M34,185,experiment,45,↓,right,→,0.9375734999775887,False,19
25M34,186,experiment,15,↑,up,↑,0.6738944000098854,True,19
25M34,187,experiment,21,←,right,→,0.6732578999944963,False,19
25M34,188,experiment,14,↓,down,↓,0.5414302000426687,True,19
25M34,189,experiment,30,↑,up,↑,1.027923899993766,True,19
25M34,190,experiment,24,→,right,→,0.6353054000064731,True,19
25M34,191,training,40,↓,down,↓,0.848124900017865,True,20
25M34,192,training,20,↑,down,↓,0.8485042999964207,False,20
25M34,193,experiment,16,→,right,→,0.547935199982021,True,20
25M34,194,experiment,17,←,left,←,0.5789045999990776,True,20
25M34,195,experiment,53,←,left,←,0.6405359999625944,True,20
25M34,196,experiment,22,↑,up,↑,0.624560600030236,True,20
25M34,197,experiment,50,↑,up,↑,0.7825914000277407,True,20
25M34,198,experiment,36,↑,left,←,0.8872842999990098,False,20
25M34,199,experiment,32,→,right,→,1.1185576999559999,True,20
25M34,200,experiment,33,→,left,←,0.7001196999917738,False,20
25M34,201,experiment,56,←,left,←,0.7465919000096619,True,20
25M34,202,experiment,37,↑,up,↑,0.6039505999651738,True,20
25M34,203,experiment,48,↑,up,↑,1.8917982999701053,True,20
25M34,204,experiment,57,→,right,→,0.8107409000513144,True,20
25M34,205,experiment,60,↑,left,←,0.9228143999935128,False,20
25M34,206,experiment,29,←,left,←,0.5626702000154182,True,20
25M34,207,experiment,40,←,right,→,0.9138418000075035,False,20
25M34,208,experiment,49,←,no_key,no_letter,-1.0,False,20
25M34,209,experiment,20,↓,up,↑,1.1912178000202402,False,20
25M34,210,experiment,14,↑,no_key,no_letter,-1.0,False,20
25M34,211,experiment,31,↑,right,→,0.9539148000185378,False,20
25M34,212,experiment,34,←,left,←,0.685207000002265,True,20
25M34,213,experiment,15,↑,up,↑,1.1518335999571718,True,20
25M34,214,experiment,13,→,right,→,0.6252212999970652,True,20
25M34,215,experiment,35,↑,up,↑,0.633252099971287,True,20
25M34,216,experiment,47,↑,up,↑,0.6005968999816105,True,20
25M34,217,experiment,46,→,right,→,1.481858299986925,True,20
25M34,218,experiment,52,↑,up,↑,0.9878477000165731,True,20
25M34,219,experiment,26,→,right,→,0.715406899980735,True,20
25M34,220,experiment,59,↓,up,↑,1.1112034000107087,False,20
25M34,221,experiment,24,↓,down,↓,0.6992049000109546,True,20
25M34,222,experiment,39,←,left,←,0.6375186999794096,True,20
25M34,223,experiment,21,→,right,→,0.5578231000108644,True,20
25M34,224,experiment,45,→,right,→,0.5618522999575362,True,20
25M34,225,experiment,38,→,right,→,0.6104485999676399,True,20
25M34,226,experiment,25,→,right,→,0.5217491000075825,True,20
25M34,227,experiment,43,↓,left,←,0.9687205000082031,False,20
25M34,228,experiment,51,←,left,←,0.5277466999832541,True,20
25M34,229,experiment,41,←,no_key,no_letter,-1.0,False,20
25M34,230,experiment,44,↑,right,→,1.402782799967099,False,20
25M34,231,experiment,55,↑,up,↑,0.6938327000243589,True,20
25M34,232,experiment,27,→,right,→,0.5045058999676257,True,20
25M34,233,experiment,54,→,right,→,0.6398067999980412,True,20
25M34,234,experiment,19,↑,up,↑,0.6181025999831036,True,20
25M34,235,experiment,18,↓,left,←,1.6451116999960504,False,20
25M34,236,experiment,58,←,right,→,1.5971582000493072,False,20
25M34,237,experiment,28,↓,down,↓,0.7305569999734871,True,20
25M34,238,experiment,42,→,right,→,1.0730868999962695,True,20
25M34,239,experiment,23,←,left,←,0.6792231000144966,True,20
25M34,240,experiment,30,←,left,←,0.6324416999705136,True,20
25M34,241,training,37,←,left,←,1.158441599982325,True,20
25M34,242,training,58,↓,down,↓,1.385820599971339,True,20
25M34,243,experiment,16,↓,left,←,0.7838544000405818,False,20
25M34,244,experiment,21,↓,down,↓,1.3384864999679849,True,20
25M34,245,experiment,55,←,right,→,0.6564545000437647,False,20
25M34,246,experiment,20,↑,up,↑,0.5853282000171021,True,20
25M34,247,experiment,13,←,left,←,0.5210030000307597,True,20
25M34,248,experiment,22,→,right,→,1.165830499958247,True,20
25M34,249,experiment,51,↑,up,↑,0.5250941999838687,True,20
25M34,250,experiment,18,↓,left,←,1.0525480000069365,False,20
25M34,251,experiment,48,↓,down,↓,0.6984186000190675,True,20
25M34,252,experiment,23,↑,up,↑,0.6150273000239395,True,20
25M34,253,experiment,45,↑,down,↓,2.0004060000064783,False,20
25M34,254,experiment,54,↑,up,↑,0.7245126999914646,True,20
25M34,255,experiment,36,↓,right,→,0.9517256999970414,False,20
25M34,256,experiment,52,↑,left,←,1.1591351999668404,False,20
25M34,257,experiment,31,→,right,→,0.6045033000409603,True,20
25M34,258,experiment,49,→,right,→,0.6437163999653421,True,20
25M34,259,experiment,37,↑,up,↑,0.6097059999592602,True,20
25M34,260,experiment,26,→,right,→,0.6724457999807782,True,20
25M34,261,experiment,14,↓,up,↑,1.26836419996107,False,20
25M34,262,experiment,34,←,left,←,0.4507037999574095,True,20
25M34,263,experiment,41,↑,up,↑,0.6133068000199273,True,20
25M34,264,experiment,60,←,left,←,0.4667087999987416,True,20
25M34,265,experiment,40,←,left,←,0.9583547000074759,True,20
25M34,266,experiment,27,←,up,↑,0.45069769996916875,False,20
25M34,267,experiment,50,→,up,↑,1.2262688999762759,False,20
25M34,268,experiment,29,↓,left,←,0.5183279999764636,False,20
25M34,269,experiment,17,←,no_key,no_letter,-1.0,False,20
25M34,270,experiment,30,←,left,←,0.9144729999825358,True,20
25M34,271,experiment,53,→,down,↓,0.7223516999511048,False,20
25M34,272,experiment,33,→,right,→,1.5996662999968976,True,20
25M34,273,experiment,59,→,down,↓,1.0163491000421345,False,20
25M34,274,experiment,28,←,no_key,no_letter,-1.0,False,20
25M34,275,experiment,47,↓,left,←,0.5897249999688938,False,20
25M34,276,experiment,38,↓,no_key,no_letter,-1.0,False,20
25M34,277,experiment,32,↑,left,←,1.0076748999999836,False,20
25M34,278,experiment,24,↓,down,↓,0.5919746999861673,True,20
25M34,279,experiment,46,↑,up,↑,0.6977358000003733,True,20
25M34,280,experiment,56,→,right,→,0.7043257000041194,True,20
25M34,281,experiment,43,→,down,↓,0.4339623000123538,False,20
25M34,282,experiment,15,→,right,→,0.5316875000135042,True,20
25M34,283,experiment,42,↑,up,↑,0.6663269000127912,True,20
25M34,284,experiment,35,↓,down,↓,0.43330200004857033,True,20
25M34,285,experiment,25,→,left,←,0.8301500999950804,False,20
25M34,286,experiment,39,↑,down,↓,1.0104409999912605,False,20
25M34,287,experiment,44,→,left,←,1.380908899998758,False,20
25M34,288,experiment,19,←,left,←,1.281105200003367,True,20
25M34,289,experiment,58,←,left,←,0.5191753999679349,True,20
25M34,290,experiment,57,↑,left,←,0.3506490000290796,False,20
25M34,291,training,33,←,right,→,1.9171475999755785,False,21
25M34,292,training,43,→,right,→,0.6118809999898076,True,21
25M34,293,experiment,43,←,left,←,0.519603000022471,True,21
25M34,294,experiment,41,↓,down,↓,0.6222678999765776,True,21
25M34,295,experiment,38,←,right,→,0.6443233999889344,False,21
25M34,296,experiment,45,←,left,←,0.9809329999843612,True,21
25M34,297,experiment,58,→,right,→,0.6549194999970496,True,21
25M34,298,experiment,34,←,left,←,0.5824532000115141,True,21
25M34,299,experiment,55,→,right,→,0.6343486999976449,True,21
25M34,300,experiment,50,→,right,→,0.831691499974113,True,21
25M34,301,experiment,60,→,right,→,0.8622473999857903,True,21
25M34,302,experiment,27,←,left,←,0.5382217000005767,True,21
25M34,303,experiment,52,↑,no_key,no_letter,-1.0,False,21
25M34,304,experiment,22,→,left,←,1.7630320999887772,False,21
25M34,305,experiment,23,↑,left,←,1.5409996999660507,False,21
25M34,306,experiment,33,→,right,→,0.6657816999941133,True,21
25M34,307,experiment,17,→,right,→,0.5956108000245877,True,21
25M34,308,experiment,53,↓,down,↓,0.832912799960468,True,21
25M34,309,experiment,31,→,right,→,0.5629463000223041,True,21
25M34,310,experiment,16,→,right,→,0.9864026999566704,True,21
25M34,311,experiment,24,→,right,→,0.7229100000113249,True,21
25M34,312,experiment,48,←,left,←,0.41743739997036755,True,21
25M34,313,experiment,42,←,no_key,no_letter,-1.0,False,21
25M34,314,experiment,36,↓,no_key,no_letter,-1.0,False,21
25M34,315,experiment,19,←,left,←,0.6750998999923468,True,21
25M34,316,experiment,49,←,right,→,0.8318548999959603,False,21
25M34,317,experiment,59,←,left,←,0.71888439997565,True,21
25M34,318,experiment,18,→,right,→,1.0462085000472143,True,21
25M34,319,experiment,40,→,right,→,1.8904210000182502,True,21
25M34,320,experiment,37,→,right,→,0.638496599975042,True,21
25M34,321,experiment,47,↑,up,↑,0.5655677000177093,True,21
25M34,322,experiment,30,→,up,↑,1.3389038000022992,False,21
25M34,323,experiment,44,↓,down,↓,0.46719920000759885,True,21
25M34,324,experiment,25,←,no_key,no_letter,-1.0,False,21
25M34,325,experiment,51,↑,right,→,0.697453000000678,False,21
25M34,326,experiment,21,↓,down,↓,1.4718813000363298,True,21
25M34,327,experiment,56,→,right,→,0.6080698000150733,True,21
25M34,328,experiment,15,↓,right,→,1.9095594999962486,False,21
25M34,329,experiment,57,↑,up,↑,0.8356091000023298,True,21
25M34,330,experiment,32,→,right,→,0.5728211000096053,True,21
25M34,331,experiment,20,↓,down,↓,0.6248912999872118,True,21
25M34,332,experiment,39,↓,no_key,no_letter,-1.0,False,21
25M34,333,experiment,54,↑,right,→,0.018366800039075315,False,21
25M34,334,experiment,29,→,right,→,0.5602420999784954,True,21
25M34,335,experiment,13,↑,no_key,no_letter,-1.0,False,21
25M34,336,experiment,35,→,down,↓,0.5375571000040509,False,21
25M34,337,experiment,14,→,no_key,no_letter,-1.0,False,21
25M34,338,experiment,26,→,left,←,0.8729570000432432,False,21
25M34,339,experiment,46,↑,up,↑,0.5354685999918729,True,21
25M34,340,experiment,28,→,no_key,no_letter,-1.0,False,21
25M34,341,training,32,↑,up,↑,1.6661994000314735,True,21
25M34,342,training,27,↑,up,↑,0.9574755000066943,True,21
25M34,343,experiment,41,↓,left,←,0.804254199960269,False,21
25M34,344,experiment,46,↑,up,↑,0.8614708000095561,True,21
25M34,345,experiment,18,→,right,→,0.6957217999733984,True,21
25M34,346,experiment,51,↑,up,↑,1.2581753000267781,True,21
25M34,347,experiment,21,↑,up,↑,0.6582644000300206,True,21
25M34,348,experiment,23,←,left,←,0.48396490002050996,True,21
25M34,349,experiment,34,↓,down,↓,1.1021199999959208,True,21
25M34,350,experiment,33,↑,up,↑,1.8041520999977365,True,21
25M34,351,experiment,49,→,left,←,0.6114806000259705,False,21
25M34,352,experiment,47,↑,up,↑,0.6521162000135519,True,21
25M34,353,experiment,13,←,right,→,1.00960039999336,False,21
25M34,354,experiment,16,←,right,→,1.0468339000362903,False,21
25M34,355,experiment,27,↑,left,←,1.7787854000343941,False,21
25M34,356,experiment,35,←,no_key,no_letter,-1.0,False,21
25M34,357,experiment,48,↑,left,←,0.9402371000032872,False,21
25M34,358,experiment,45,↓,down,↓,1.0248810999910347,True,21
25M34,359,experiment,42,→,right,→,0.5960679000127129,True,21
25M34,360,experiment,59,→,right,→,1.1504081999883056,True,21
25M34,361,experiment,50,→,right,→,1.0380954999709502,True,21
25M34,362,experiment,37,↓,down,↓,0.4839945000130683,True,21
25M34,363,experiment,43,↑,up,↑,0.6836797000141814,True,21
25M34,364,experiment,36,↑,up,↑,0.6321158999926411,True,21
25M34,365,experiment,57,↑,up,↑,0.6567458000499755,True,21
25M34,366,experiment,26,↓,no_key,no_letter,-1.0,False,21
25M34,367,experiment,17,←,left,←,0.7534500999609008,True,21
25M34,368,experiment,53,←,no_key,no_letter,-1.0,False,21
25M34,369,experiment,20,→,right,→,0.5383371000061743,True,21
25M34,370,experiment,40,←,left,←,0.8580312000121921,True,21
25M34,371,experiment,14,↑,up,↑,0.6626990999793634,True,21
25M34,372,experiment,58,→,left,←,0.8221319000003859,False,21
25M34,373,experiment,22,→,right,→,0.7189832999720238,True,21
25M34,374,experiment,32,↑,left,←,0.9646455000038259,False,21
25M34,375,experiment,38,↑,right,→,0.9410131000331603,False,21
25M34,376,experiment,44,↓,down,↓,0.6260698999976739,True,21
25M34,377,experiment,15,↓,down,↓,0.5674034999683499,True,21
25M34,378,experiment,28,↓,left,←,0.8623430999577977,False,21
25M34,379,experiment,54,→,right,→,0.8880577000090852,True,21
25M34,380,experiment,19,←,left,←,0.6561940999818034,True,21
25M34,381,experiment,30,↓,down,↓,1.074057999998331,True,21
25M34,382,experiment,60,↑,left,←,0.815407799964305,False,21
25M34,383,experiment,25,↓,down,↓,0.5740374000160955,True,21
25M34,384,experiment,55,→,right,→,0.5948330999817699,True,21
25M34,385,experiment,52,→,right,→,0.41727489995537326,True,21
25M34,386,experiment,56,←,left,←,0.9781389000127092,True,21
25M34,387,experiment,29,←,left,←,0.46658629999728873,True,21
25M34,388,experiment,24,↓,down,↓,0.6046669000061229,True,21
25M34,389,experiment,39,→,right,→,0.5389376999810338,True,21
25M34,390,experiment,31,↑,right,→,0.7526647000340745,False,21
25M34,391,training,37,←,left,←,0.6194438000093214,True,21
25M34,392,training,36,→,left,←,0.4835396999842487,False,21
25M34,393,experiment,24,↓,up,↑,0.6946810999652371,False,21
25M34,394,experiment,25,→,right,→,0.4842130000470206,True,21
25M34,395,experiment,55,↓,down,↓,0.6022052000043914,True,21
25M34,396,experiment,54,→,right,→,0.45095780002884567,True,21
25M34,397,experiment,15,↓,right,→,1.329329099971801,False,21
25M34,398,experiment,49,↓,left,←,0.36724079999839887,False,21
25M34,399,experiment,60,→,right,→,0.5567015999695286,True,21
25M34,400,experiment,44,←,left,←,0.45070460002170876,True,21
25M34,401,experiment,56,↑,up,↑,0.5853346000076272,True,21
25M34,402,experiment,40,↓,down,↓,0.46732759999576956,True,21
25M34,403,experiment,34,→,right,→,0.4167392000090331,True,21
25M34,404,experiment,14,←,right,→,0.8187840000027791,False,21
25M34,405,experiment,50,↑,up,↑,0.6406945000053383,True,21
25M34,406,experiment,36,←,no_key,no_letter,-1.0,False,21
25M34,407,experiment,17,↑,left,←,0.7312739000190049,False,21
25M34,408,experiment,52,↓,down,↓,0.6352870999835432,True,21
25M34,409,experiment,31,↑,up,↑,0.5892684000427835,True,21
25M34,410,experiment,28,→,right,→,0.8834945999551564,True,21
25M34,411,experiment,41,←,left,←,0.612597800034564,True,21
25M34,412,experiment,26,→,up,↑,0.9232878999901004,False,21
25M34,413,experiment,45,→,right,→,0.5927065000287257,True,21
25M34,414,experiment,37,←,left,←,0.8485115999937989,True,21
25M34,415,experiment,27,↓,down,↓,0.5487078000442125,True,21
25M34,416,experiment,13,←,right,→,1.0860722999786958,False,21
25M34,417,experiment,29,←,left,←,0.4506449000327848,True,21
25M34,418,experiment,18,↓,left,←,0.7286203000112437,False,21
25M34,419,experiment,46,→,right,→,0.8453160999924876,True,21
25M34,420,experiment,39,→,right,→,1.729943899961654,True,21
25M34,421,experiment,51,→,right,→,0.5712920000078157,True,21
25M34,422,experiment,48,←,left,←,0.5577430999837816,True,21
25M34,423,experiment,42,→,right,→,0.6105933000217192,True,21
25M34,424,experiment,23,↑,up,↑,1.0277601999696344,True,21
25M34,425,experiment,16,↑,left,←,1.439929599990137,False,21
25M34,426,experiment,59,↓,down,↓,0.879275300016161,True,21
25M34,427,experiment,22,↑,left,←,0.8781936999876052,False,21
25M34,428,experiment,53,←,up,↑,0.9518530000350438,False,21
25M34,429,experiment,30,↓,up,↑,1.1580653000273742,False,21
25M34,430,experiment,21,←,right,→,0.9379116999916732,False,21
25M34,431,experiment,32,↓,down,↓,0.9835042000049725,True,21
25M34,432,experiment,38,←,left,←,0.5585442999727093,True,21
25M34,433,experiment,43,↓,down,↓,0.8601389999967068,True,21
25M34,434,experiment,20,→,right,→,0.5406502999830991,True,21
25M34,435,experiment,47,↓,down,↓,0.6079612000030465,True,21
25M34,436,experiment,33,→,right,→,0.5378884000238031,True,21
25M34,437,experiment,58,→,left,←,1.3261865999666043,False,21
25M34,438,experiment,35,↓,up,↑,0.8898931000148878,False,21
25M34,439,experiment,57,←,left,←,1.0326485999976285,True,21
25M34,440,experiment,19,→,up,↑,1.314590199966915,False,21
25M34,441,training,27,↑,up,↑,1.1985354999778792,True,21
25M34,442,training,47,↓,down,↓,0.95130670000799,True,21
25M34,443,experiment,13,→,right,→,0.5606468999758363,True,21
25M34,444,experiment,18,←,right,→,0.7425158999976702,False,21
25M34,445,experiment,35,←,left,←,0.45075110002653673,True,21
25M34,446,experiment,36,↓,up,↑,0.9112506000092253,False,21
25M34,447,experiment,33,↑,up,↑,0.8293159999884665,True,21
25M34,448,experiment,44,↓,down,↓,1.0312280000071041,True,21
25M34,449,experiment,20,→,right,→,0.7525286999880336,True,21
25M34,450,experiment,41,↑,down,↓,1.0314725000062026,False,21
25M34,451,experiment,30,↓,left,←,0.7298345000017434,False,21
25M34,452,experiment,38,→,right,→,0.5632138000219129,True,21
25M34,453,experiment,37,←,left,←,0.8601133999763988,True,21
25M34,454,experiment,47,↑,up,↑,0.8907475000014529,True,21
25M34,455,experiment,53,↑,up,↑,0.6519205999793485,True,21
25M34,456,experiment,59,→,right,→,0.8505025000195019,True,21
25M34,457,experiment,43,←,left,←,0.9718115000287071,True,21
25M34,458,experiment,17,→,no_key,no_letter,-1.0,False,21
25M34,459,experiment,16,→,right,→,0.43412490002810955,True,21
25M34,460,experiment,34,←,left,←,0.48293210001429543,True,21
25M34,461,experiment,26,↑,up,↑,0.585150099999737,True,21
25M34,462,experiment,19,↑,up,↑,1.8364618999767117,True,21
25M34,463,experiment,55,↓,down,↓,0.9665139999706298,True,21
25M34,464,experiment,58,↑,up,↑,0.8733145000296645,True,21
25M34,465,experiment,42,←,left,←,0.4506022999994457,True,21
25M34,466,experiment,24,→,right,→,0.6158120000036433,True,21
25M34,467,experiment,40,↓,up,↑,0.9325506000313908,False,21
25M34,468,experiment,23,→,right,→,0.45075409999117255,True,21
25M34,469,experiment,14,↓,left,←,0.8438351000077091,False,21
25M34,470,experiment,15,↑,up,↑,0.5285314999637194,True,21
25M34,471,experiment,52,↑,up,↑,0.45062969997525215,True,21
25M34,472,experiment,56,↑,up,↑,0.7530799999949522,True,21
25M34,473,experiment,27,↑,up,↑,0.4339647999731824,True,21
25M34,474,experiment,50,→,right,→,0.467617699992843,True,21
25M34,475,experiment,46,→,left,←,0.9791631000116467,False,21
25M34,476,experiment,39,↑,up,↑,0.48400380002567545,True,21
25M34,477,experiment,29,↓,up,↑,0.955182200006675,False,21
25M34,478,experiment,31,←,no_key,no_letter,-1.0,False,21
25M34,479,experiment,25,↑,up,↑,0.8711460999911651,True,21
25M34,480,experiment,45,→,right,→,0.5824815999949351,True,21
25M34,481,experiment,28,←,left,←,0.7725442000082694,True,21
25M34,482,experiment,22,↓,down,↓,0.975389199971687,True,21
25M34,483,experiment,48,←,left,←,0.46740439999848604,True,21
25M34,484,experiment,57,↑,up,↑,0.8391349000157788,True,21
25M34,485,experiment,21,←,left,←,0.5765524000162259,True,21
25M34,486,experiment,51,←,left,←,0.6791050000465475,True,21
25M34,487,experiment,49,↓,down,↓,0.8837312000105157,True,21
25M34,488,experiment,54,←,no_key,no_letter,-1.0,False,21
25M34,489,experiment,60,←,no_key,no_letter,-1.0,False,21
25M34,490,experiment,32,↑,up,↑,0.5496698999777436,True,21
25M34,491,training,29,↓,down,↓,0.860533100028988,True,21
25M34,492,training,51,→,right,→,0.7285381000256166,True,21
25M34,493,experiment,21,→,down,↓,0.36757060000672936,False,21
25M34,494,experiment,16,→,right,→,0.43395669996971264,True,21
25M34,495,experiment,36,←,no_key,no_letter,-1.0,False,21
25M34,496,experiment,49,↑,up,↑,1.0885805999860168,True,21
25M34,497,experiment,29,→,right,→,0.5457404000335373,True,21
25M34,498,experiment,35,↑,right,→,0.6610144000151195,False,21
25M34,499,experiment,30,↑,up,↑,0.9510442000464536,True,21
25M34,500,experiment,43,↓,down,↓,0.4839590000337921,True,21
25M34,501,experiment,25,←,left,←,1.0238305000239052,True,21
25M34,502,experiment,17,↓,down,↓,0.4339967999840155,True,21
25M34,503,experiment,47,→,right,→,0.9224435999640264,True,21
25M34,504,experiment,48,↑,up,↑,0.9816936999559402,True,21
25M34,505,experiment,42,→,right,→,0.7385396999889053,True,21
25M34,506,experiment,52,↓,down,↓,0.5783771000569686,True,21
25M34,507,experiment,39,→,right,→,0.6096944999881089,True,21
25M34,508,experiment,32,→,left,←,0.7404196999850683,False,21
25M34,509,experiment,51,←,up,↑,1.093005099974107,False,21
25M34,510,experiment,15,←,right,→,0.9197259999928065,False,21
25M34,511,experiment,56,↑,up,↑,0.9178293999866582,True,21
25M34,512,experiment,58,↑,down,↓,0.9465874999877997,False,21
25M34,513,experiment,18,←,left,←,0.6724503999575973,True,21
25M34,514,experiment,33,←,no_key,no_letter,-1.0,False,21
25M34,515,experiment,44,→,no_key,no_letter,-1.0,False,21
25M34,516,experiment,22,←,right,→,0.602521600027103,False,21
25M34,517,experiment,34,↑,left,←,1.7237727000028826,False,21
25M34,518,experiment,23,←,left,←,0.43338299996685237,True,21
25M34,519,experiment,13,→,right,→,0.8769277000101283,True,21
25M34,520,experiment,41,↑,up,↑,0.5349378999671899,True,21
25M34,521,experiment,37,←,left,←,0.6089762999908999,True,21
25M34,522,experiment,45,←,left,←,0.6750627000001259,True,21
25M34,523,experiment,28,↓,down,↓,0.5738584999926388,True,21
25M34,524,experiment,24,←,left,←,0.41732030001003295,True,21
25M34,525,experiment,46,→,right,→,0.638986499980092,True,21
25M34,526,experiment,55,↓,down,↓,0.76096610003151,True,21
25M34,527,experiment,60,→,right,→,0.9229545999551192,True,21
25M34,528,experiment,40,→,no_key,no_letter,-1.0,False,21
25M34,529,experiment,57,←,left,←,0.46716299996478483,True,21
25M34,530,experiment,14,↓,up,↑,0.992304699961096,False,21
25M34,531,experiment,54,→,right,→,0.46729490003781393,True,21
25M34,532,experiment,38,↑,left,←,0.7607492000097409,False,21
25M34,533,experiment,26,→,right,→,0.64913209999213,True,21
25M34,534,experiment,59,→,left,←,0.7517378999618813,False,21
25M34,535,experiment,20,↑,up,↑,0.588209499954246,True,21
25M34,536,experiment,19,↑,right,→,0.848303200036753,False,21
25M34,537,experiment,53,↑,up,↑,0.5871252000215463,True,21
25M34,538,experiment,31,↑,up,↑,0.5431078999536112,True,21
25M34,539,experiment,50,→,left,←,0.6484296999988146,False,21
25M34,540,experiment,27,↑,up,↑,0.5722725000232458,True,21
25M34,541,training,44,←,right,→,1.0876808000029996,False,21
25M34,542,training,16,↓,down,↓,0.7296762999612838,True,21
25M34,543,experiment,13,↓,down,↓,0.5243108000140637,True,21
25M34,544,experiment,47,→,right,→,0.5996529000112787,True,21
25M34,545,experiment,21,↓,down,↓,0.7375793000101112,True,21
25M34,546,experiment,52,→,up,↑,0.7778467999887653,False,21
25M34,547,experiment,33,↑,up,↑,0.7729888999601826,True,21
25M34,548,experiment,56,↑,right,→,0.5932085000094958,False,21
25M34,549,experiment,20,←,left,←,0.5481349999899976,True,21
25M34,550,experiment,15,→,right,→,0.6202341000316665,True,21
25M34,551,experiment,25,↑,up,↑,0.8108347000088543,True,21
25M34,552,experiment,39,←,up,↑,0.9049189999932423,False,21
25M34,553,experiment,34,←,left,←,0.5662654000334442,True,21
25M34,554,experiment,32,↓,up,↑,1.2501902999938466,False,21
25M34,555,experiment,49,→,right,→,0.6635937999817543,True,21
25M34,556,experiment,37,↓,down,↓,0.6922662000288256,True,21
25M34,557,experiment,42,↓,down,↓,0.7089064000174403,True,21
25M34,558,experiment,18,↓,down,↓,0.4833243999746628,True,21
25M34,559,experiment,23,←,left,←,0.6735693999798968,True,21
25M34,560,experiment,54,↓,down,↓,0.6111123000155203,True,21
25M34,561,experiment,43,←,left,←,0.726330199977383,True,21
25M34,562,experiment,36,→,right,→,0.6815539000090212,True,21
25M34,563,experiment,28,↓,left,←,1.147548100037966,False,21
25M34,564,experiment,31,↑,up,↑,0.7608835999853909,True,21
25M34,565,experiment,22,←,left,←,0.571179700025823,True,21
25M34,566,experiment,44,↓,left,←,0.7827998999855481,False,21
25M34,567,experiment,38,↓,no_key,no_letter,-1.0,False,21
25M34,568,experiment,17,←,left,←,0.48374249995686114,True,21
25M34,569,experiment,26,←,right,→,0.6848805000190623,False,21
25M34,570,experiment,46,←,left,←,0.8429829999804497,True,21
25M34,571,experiment,27,↑,up,↑,0.5675408999668434,True,21
25M34,572,experiment,14,↑,up,↑,0.5837556000333279,True,21
25M34,573,experiment,55,→,right,→,0.659718899987638,True,21
25M34,574,experiment,59,↓,down,↓,0.9622299000038765,True,21
25M34,575,experiment,35,↓,no_key,no_letter,-1.0,False,21
25M34,576,experiment,50,↑,up,↑,0.9629301999812014,True,21
25M34,577,experiment,53,→,right,→,0.6338100000284612,True,21
25M34,578,experiment,60,↑,right,→,0.6002041000174358,False,21
25M34,579,experiment,45,←,down,↓,0.8421503999852575,False,21
25M34,580,experiment,48,↑,up,↑,0.45009030000073835,True,21
25M34,581,experiment,41,→,right,→,0.6747593999607489,True,21
25M34,582,experiment,30,↓,down,↓,0.8281667000264861,True,21
25M34,583,experiment,16,↑,up,↑,0.5688116999808699,True,21
25M34,584,experiment,29,↑,no_key,no_letter,-1.0,False,21
25M34,585,experiment,58,→,no_key,no_letter,-1.0,False,21
25M34,586,experiment,19,→,no_key,no_letter,-1.0,False,21
25M34,587,experiment,40,↑,no_key,no_letter,-1.0,False,21
25M34,588,experiment,24,←,left,←,0.4840633000130765,True,21
25M34,589,experiment,57,↓,down,↓,1.1724092000513338,True,21
25M34,590,experiment,51,←,left,←,0.36733470001490787,True,21
