PART_ID,Trial_no,Trial_type,CSI,Stim_letter,Key_pressed,letter_choose,Rt,Corr,Stimulus Time
26K19,1,training,60,←,left,←,1.6258016000501812,True,30
26K19,2,training,60,↑,up,↑,0.7517768000252545,True,30
26K19,3,training,60,↓,down,↓,0.7847405000356957,True,30
26K19,4,training,60,→,right,→,0.6727886999724433,True,30
26K19,5,training,60,→,right,→,0.9651324999285862,True,30
26K19,6,training,60,→,right,→,0.6342750999610871,True,30
26K19,7,training,60,←,left,←,0.6339720000978559,True,30
26K19,8,training,60,←,left,←,0.8243023999966681,True,30
26K19,9,training,60,↑,up,↑,0.9188774999929592,True,30
26K19,10,training,60,→,no_key,no_letter,-1.0,False,30
26K19,11,training,60,←,left,←,1.2742460999870673,True,30
26K19,12,training,60,↓,down,↓,1.119346100022085,True,30
26K19,13,training,60,←,left,←,0.5662113000871614,True,30
26K19,14,training,60,↑,up,↑,0.953740100027062,True,30
26K19,15,training,60,←,left,←,0.8109931999351829,True,30
26K19,16,training,60,↑,up,↑,0.8656493000453338,True,30
26K19,17,training,60,←,left,←,0.8943694999907166,True,30
26K19,18,training,60,→,right,→,1.0095070000970736,True,30
26K19,19,training,60,←,left,←,1.0006691999733448,True,30
26K19,20,training,60,↓,down,↓,0.9521462999982759,True,30
26K19,21,training,60,←,left,←,0.5311096999794245,True,18
26K19,22,training,60,←,left,←,0.8370585000375286,True,18
26K19,23,training,60,←,left,←,0.7149898998904973,True,18
26K19,24,training,60,↑,up,↑,0.7494685999117792,True,18
26K19,25,training,60,←,left,←,0.6869126999517903,True,18
26K19,26,training,60,↑,up,↑,0.7869354999857023,True,18
26K19,27,training,60,←,left,←,0.698856099974364,True,18
26K19,28,training,60,→,right,→,0.6860092000570148,True,18
26K19,29,training,60,←,left,←,0.7702567999949679,True,18
26K19,30,training,60,↑,up,↑,0.4825613999273628,True,18
26K19,31,training,60,↓,down,↓,0.5748566000256687,True,18
26K19,32,training,60,↑,up,↑,0.7034233999438584,True,18
26K19,33,training,60,↑,down,↓,0.6750461000483483,False,18
26K19,34,training,60,→,right,→,0.943563700071536,True,18
26K19,35,training,60,↓,down,↓,0.784828000003472,True,18
26K19,36,training,60,↓,down,↓,0.496785799972713,True,18
26K19,37,training,60,↓,down,↓,0.9080937000690028,True,18
26K19,38,training,60,↓,down,↓,0.6874938999535516,True,18
26K19,39,training,60,↓,down,↓,0.6194390000309795,True,18
26K19,40,training,60,↑,up,↑,0.6421959999715909,True,18
26K19,41,training,55,→,left,←,1.4100184000562876,False,18
26K19,42,training,14,→,right,→,0.7286854999838397,True,18
26K19,43,experiment,31,←,left,←,0.7355764000676572,True,18
26K19,44,experiment,52,→,right,→,0.5596725000068545,True,18
26K19,45,experiment,60,↑,up,↑,0.7055693999864161,True,18
26K19,46,experiment,41,↓,down,↓,0.7462070999899879,True,18
26K19,47,experiment,38,↓,down,↓,0.6275915000587702,True,18
26K19,48,experiment,18,↓,down,↓,0.8229445000179112,True,18
26K19,49,experiment,56,↓,down,↓,0.47252640000078827,True,18
26K19,50,experiment,58,↓,down,↓,0.6628578000236303,True,18
26K19,51,experiment,30,↑,up,↑,0.6328579999972135,True,18
26K19,52,experiment,23,↓,up,↑,0.7919695000164211,False,18
26K19,53,experiment,35,→,right,→,0.6735869999974966,True,18
26K19,54,experiment,53,→,right,→,0.6192399000283331,True,18
26K19,55,experiment,36,↓,down,↓,0.7469359999522567,True,18
26K19,56,experiment,28,↑,up,↑,0.5621776999905705,True,18
26K19,57,experiment,42,←,left,←,0.7201967000728473,True,18
26K19,58,experiment,17,↓,down,↓,0.568036999902688,True,18
26K19,59,experiment,57,→,right,→,0.5872003000695258,True,18
26K19,60,experiment,20,↑,up,↑,0.8148546000011265,True,18
26K19,61,experiment,21,→,right,→,0.6966027000453323,True,18
26K19,62,experiment,37,→,right,→,0.5881579000269994,True,18
26K19,63,experiment,13,←,left,←,1.8201219999464229,True,18
26K19,64,experiment,22,↓,up,↑,1.2287429999560118,False,18
26K19,65,experiment,47,←,left,←,0.6766871000872925,True,18
26K19,66,experiment,46,↑,up,↑,0.7875198000110686,True,18
26K19,67,experiment,27,←,left,←,0.7300885999575257,True,18
26K19,68,experiment,48,←,left,←,0.6133028999902308,True,18
26K19,69,experiment,19,←,left,←,0.5687904000515118,True,18
26K19,70,experiment,25,←,right,→,0.5453366000438109,False,18
26K19,71,experiment,24,←,left,←,0.6519324999535456,True,18
26K19,72,experiment,40,←,left,←,0.6793115000473335,True,18
26K19,73,experiment,15,↓,down,↓,0.786588600021787,True,18
26K19,74,experiment,39,↑,up,↑,0.6254256000975147,True,18
26K19,75,experiment,51,←,left,←,0.7588552999077365,True,18
26K19,76,experiment,26,→,right,→,0.671658799983561,True,18
26K19,77,experiment,49,→,right,→,0.6039570999564603,True,18
26K19,78,experiment,16,↑,up,↑,0.5211751000024378,True,18
26K19,79,experiment,33,↑,up,↑,0.7345774000277743,True,18
26K19,80,experiment,59,↑,up,↑,0.6978617999702692,True,18
26K19,81,experiment,50,→,right,→,0.6285457999911159,True,18
26K19,82,experiment,45,↓,down,↓,0.7581674000248313,True,18
26K19,83,experiment,54,→,right,→,0.6598770999116823,True,18
26K19,84,experiment,32,←,right,→,0.6684844000265002,False,18
26K19,85,experiment,44,↓,down,↓,0.7245238999603316,True,18
26K19,86,experiment,55,→,right,→,0.6671382999047637,True,18
26K19,87,experiment,14,↑,up,↑,0.6955111999996006,True,18
26K19,88,experiment,34,→,right,→,0.5493117000441998,True,18
26K19,89,experiment,43,→,right,→,0.6665287000359967,True,18
26K19,90,experiment,29,↑,up,↑,0.7004808000056073,True,18
26K19,91,training,25,←,left,←,0.8020848999731243,True,17
26K19,92,training,57,→,right,→,0.47608880000188947,True,17
26K19,93,experiment,24,↑,up,↑,0.8331690999912098,True,17
26K19,94,experiment,33,→,right,→,0.538102800026536,True,17
26K19,95,experiment,60,←,left,←,0.6127596999285743,True,17
26K19,96,experiment,32,↓,down,↓,0.7831308000022545,True,17
26K19,97,experiment,25,↑,up,↑,0.8873487999662757,True,17
26K19,98,experiment,31,→,right,→,0.6314746999414638,True,17
26K19,99,experiment,22,←,right,→,0.4872325999895111,False,17
26K19,100,experiment,51,↓,no_key,no_letter,-1.0,False,17
26K19,101,experiment,16,↓,left,←,1.4491835000226274,False,17
26K19,102,experiment,48,↑,up,↑,0.6792386999586597,True,17
26K19,103,experiment,59,↓,down,↓,0.5811381000094116,True,17
26K19,104,experiment,17,→,right,→,0.5065958999330178,True,17
26K19,105,experiment,19,→,right,→,0.7939329999499023,True,17
26K19,106,experiment,42,←,left,←,0.654687299975194,True,17
26K19,107,experiment,40,↑,up,↑,0.5859247000189498,True,17
26K19,108,experiment,56,←,right,→,0.9651118000037968,False,17
26K19,109,experiment,53,←,left,←,0.7233231000136584,True,17
26K19,110,experiment,47,↑,up,↑,0.5994270000373945,True,17
26K19,111,experiment,58,←,left,←,0.7767055999720469,True,17
26K19,112,experiment,30,→,right,→,0.5818098000017926,True,17
26K19,113,experiment,49,→,right,→,0.7340225999942049,True,17
26K19,114,experiment,37,←,left,←,0.7357727000489831,True,17
26K19,115,experiment,13,↓,down,↓,0.6740364999277517,True,17
26K19,116,experiment,21,→,right,→,0.5930962999118492,True,17
26K19,117,experiment,27,←,right,→,1.0640516000567004,False,17
26K19,118,experiment,46,←,left,←,0.48669180006254464,True,17
26K19,119,experiment,45,↓,down,↓,0.6053510999772698,True,17
26K19,120,experiment,20,↑,down,↓,0.8957039999077097,False,17
26K19,121,experiment,28,←,left,←,1.129922299995087,True,17
26K19,122,experiment,55,→,right,→,0.5197332999669015,True,17
26K19,123,experiment,54,→,right,→,0.5193355999654159,True,17
26K19,124,experiment,44,→,right,→,1.2053934000432491,True,17
26K19,125,experiment,52,←,right,→,0.9466441000113264,False,17
26K19,126,experiment,23,↑,up,↑,0.7491514999419451,True,17
26K19,127,experiment,57,→,right,→,0.5129746999591589,True,17
26K19,128,experiment,34,→,right,→,0.5985582999419421,True,17
26K19,129,experiment,14,↓,down,↓,0.7730499000754207,True,17
26K19,130,experiment,50,↓,up,↑,1.5010886999079958,False,17
26K19,131,experiment,43,←,left,←,0.6043966000434011,True,17
26K19,132,experiment,38,→,right,→,0.5231402000645176,True,17
26K19,133,experiment,39,→,left,←,0.8446984000038356,False,17
26K19,134,experiment,36,↑,up,↑,0.6754155999515206,True,17
26K19,135,experiment,35,↓,no_key,no_letter,-1.0,False,17
26K19,136,experiment,29,←,right,→,0.5761145999422297,False,17
26K19,137,experiment,41,→,right,→,0.5979257000144571,True,17
26K19,138,experiment,26,→,right,→,0.4526609000749886,True,17
26K19,139,experiment,18,→,right,→,1.517792799975723,True,17
26K19,140,experiment,15,↓,down,↓,0.5752610999625176,True,17
26K19,141,training,52,↓,down,↓,0.6944721000036225,True,17
26K19,142,training,32,←,left,←,0.6136590000241995,True,17
26K19,143,experiment,42,←,left,←,0.6740573000861332,True,17
26K19,144,experiment,27,↑,up,↑,0.5889866999350488,True,17
26K19,145,experiment,28,←,left,←,0.6670017000287771,True,17
26K19,146,experiment,59,↑,up,↑,0.5370227000676095,True,17
26K19,147,experiment,41,↑,up,↑,0.5683057999704033,True,17
26K19,148,experiment,57,↓,down,↓,0.6919870999408886,True,17
26K19,149,experiment,46,→,right,→,0.5299370000138879,True,17
26K19,150,experiment,45,↓,down,↓,0.5186445999424905,True,17
26K19,151,experiment,39,↓,down,↓,0.6159463999792933,True,17
26K19,152,experiment,29,↑,up,↑,0.6442237999290228,True,17
26K19,153,experiment,56,←,left,←,0.5732470999937505,True,17
26K19,154,experiment,50,←,left,←,0.6772542999824509,True,17
26K19,155,experiment,31,←,left,←,1.1098957998910919,True,17
26K19,156,experiment,60,→,right,→,0.513666299986653,True,17
26K19,157,experiment,53,↓,down,↓,0.9939256999641657,True,17
26K19,158,experiment,33,←,left,←,0.5963140999665484,True,17
26K19,159,experiment,36,→,right,→,0.5085538000566885,True,17
26K19,160,experiment,14,←,right,→,0.5351688000373542,False,17
26K19,161,experiment,15,↓,right,→,0.8716955999843776,False,17
26K19,162,experiment,21,←,left,←,0.6950216999975964,True,17
26K19,163,experiment,20,↑,up,↑,0.5663283999310806,True,17
26K19,164,experiment,40,↓,down,↓,0.5819028000114486,True,17
26K19,165,experiment,30,←,left,←,0.6259285000851378,True,17
26K19,166,experiment,18,↑,up,↑,0.6931327000493184,True,17
26K19,167,experiment,22,←,left,←,0.7152411999413744,True,17
26K19,168,experiment,52,↑,up,↑,0.4596525999950245,True,17
26K19,169,experiment,32,↓,down,↓,0.49150940007530153,True,17
26K19,170,experiment,49,←,left,←,0.4876365000382066,True,17
26K19,171,experiment,23,←,left,←,0.7729782999958843,True,17
26K19,172,experiment,24,↓,down,↓,0.4622689000098035,True,17
26K19,173,experiment,17,↓,left,←,1.1285369000397623,False,17
26K19,174,experiment,16,←,left,←,0.6490082000382245,True,17
26K19,175,experiment,13,↑,up,↑,0.5903453999198973,True,17
26K19,176,experiment,55,←,left,←,1.1784860999323428,True,17
26K19,177,experiment,48,↓,down,↓,0.5638742999872193,True,17
26K19,178,experiment,47,↑,up,↑,0.5259716000873595,True,17
26K19,179,experiment,35,→,right,→,0.6419061000924557,True,17
26K19,180,experiment,54,←,left,←,0.5726507999934256,True,17
26K19,181,experiment,34,↑,up,↑,0.6319781000493094,True,17
26K19,182,experiment,19,↓,down,↓,0.5692390000913292,True,17
26K19,183,experiment,25,←,left,←,0.5538562999572605,True,17
26K19,184,experiment,38,→,right,→,0.6425367000047117,True,17
26K19,185,experiment,43,→,right,→,0.7324073000345379,True,17
26K19,186,experiment,58,↓,down,↓,0.5443033000919968,True,17
26K19,187,experiment,37,↓,up,↑,0.8342532999813557,False,17
26K19,188,experiment,26,→,right,→,0.7996235999744385,True,17
26K19,189,experiment,44,←,left,←,0.5302000000374392,True,17
26K19,190,experiment,51,↑,up,↑,0.6349231000058353,True,17
26K19,191,training,44,↓,up,↑,1.070980800082907,False,16
26K19,192,training,55,→,right,→,0.9838465000502765,True,16
26K19,193,experiment,38,←,right,→,0.8629135999362916,False,16
26K19,194,experiment,49,←,left,←,0.7082194000249729,True,16
26K19,195,experiment,57,↓,down,↓,0.6583708999678493,True,16
26K19,196,experiment,24,←,down,↓,1.2244022000813857,False,16
26K19,197,experiment,40,→,right,→,0.6848709000041708,True,16
26K19,198,experiment,19,←,left,←,0.5091345999389887,True,16
26K19,199,experiment,31,↑,up,↑,0.6845075999153778,True,16
26K19,200,experiment,21,→,right,→,0.5388701999327168,True,16
26K19,201,experiment,28,→,right,→,1.0029695000266656,True,16
26K19,202,experiment,33,←,right,→,0.8609697999199852,False,16
26K19,203,experiment,20,←,right,→,0.8296966999769211,False,16
26K19,204,experiment,48,→,right,→,0.7644719999516383,True,16
26K19,205,experiment,39,↓,down,↓,0.6116528999991715,True,16
26K19,206,experiment,45,↓,down,↓,0.7495437000179663,True,16
26K19,207,experiment,32,←,left,←,0.7782990999985486,True,16
26K19,208,experiment,16,↓,down,↓,0.8021957000019029,True,16
26K19,209,experiment,36,→,right,→,0.7610744999255985,True,16
26K19,210,experiment,58,←,right,→,0.8042468999046832,False,16
26K19,211,experiment,60,↑,up,↑,0.9002254999941215,True,16
26K19,212,experiment,25,↓,down,↓,0.895526299951598,True,16
26K19,213,experiment,52,↓,down,↓,0.7456819000653923,True,16
26K19,214,experiment,14,→,right,→,0.7951421999605373,True,16
26K19,215,experiment,30,←,left,←,0.7435352000175044,True,16
26K19,216,experiment,13,↑,up,↑,0.7454502999316901,True,16
26K19,217,experiment,23,↓,down,↓,0.7731426999671385,True,16
26K19,218,experiment,43,↑,up,↑,0.6977119999937713,True,16
26K19,219,experiment,42,↓,down,↓,0.7617269000038505,True,16
26K19,220,experiment,34,↑,up,↑,0.7968329000286758,True,16
26K19,221,experiment,37,→,right,→,0.772189199924469,True,16
26K19,222,experiment,17,↑,right,→,0.8904050999553874,False,16
26K19,223,experiment,41,→,right,→,0.8918125999625772,True,16
26K19,224,experiment,29,←,left,←,0.7650536000728607,True,16
26K19,225,experiment,51,↓,down,↓,0.7721775000682101,True,16
26K19,226,experiment,46,↑,up,↑,0.7830294999293983,True,16
26K19,227,experiment,56,↓,down,↓,0.7143331000115722,True,16
26K19,228,experiment,18,↑,up,↑,0.7855165000073612,True,16
26K19,229,experiment,15,↑,up,↑,0.8321801999118179,True,16
26K19,230,experiment,50,↓,down,↓,0.6614228000398725,True,16
26K19,231,experiment,35,←,left,←,0.7884595000650734,True,16
26K19,232,experiment,47,→,right,→,0.6298095999518409,True,16
26K19,233,experiment,27,↑,right,→,1.2740800000028685,False,16
26K19,234,experiment,59,↓,down,↓,0.5443074000068009,True,16
26K19,235,experiment,55,↓,down,↓,0.7262183999409899,True,16
26K19,236,experiment,54,↓,down,↓,0.8774765999987721,True,16
26K19,237,experiment,44,→,right,→,0.7494575000600889,True,16
26K19,238,experiment,53,→,right,→,0.8203382000792772,True,16
26K19,239,experiment,26,→,right,→,0.6023198000621051,True,16
26K19,240,experiment,22,↓,down,↓,0.763641000026837,True,16
26K19,241,training,39,↑,left,←,0.9517613999778405,False,16
26K19,242,training,27,↓,down,↓,0.7507779999868944,True,16
26K19,243,experiment,18,↑,up,↑,0.8688752000452951,True,16
26K19,244,experiment,42,↓,down,↓,0.7660289000486955,True,16
26K19,245,experiment,57,↓,up,↑,0.8016862999647856,False,16
26K19,246,experiment,34,→,right,→,0.6987623999593779,True,16
26K19,247,experiment,48,←,left,←,0.8950357999419793,True,16
26K19,248,experiment,36,→,right,→,0.9394462000345811,True,16
26K19,249,experiment,28,↓,up,↑,0.8355962000787258,False,16
26K19,250,experiment,21,→,right,→,0.700366499950178,True,16
26K19,251,experiment,46,↓,down,↓,0.7856666999869049,True,16
26K19,252,experiment,22,←,left,←,0.8674302999861538,True,16
26K19,253,experiment,31,↓,down,↓,0.7001226999564096,True,16
26K19,254,experiment,27,↓,down,↓,0.9820407999213785,True,16
26K19,255,experiment,45,↓,down,↓,0.8329758000327274,True,16
26K19,256,experiment,55,→,right,→,0.6667415000265464,True,16
26K19,257,experiment,51,↑,up,↑,0.5343981999903917,True,16
26K19,258,experiment,37,←,left,←,0.7606619000434875,True,16
26K19,259,experiment,49,→,right,→,0.6986176000209525,True,16
26K19,260,experiment,53,→,right,→,0.6820825000759214,True,16
26K19,261,experiment,13,→,right,→,0.4621161000104621,True,16
26K19,262,experiment,54,←,left,←,0.6320975000271574,True,16
26K19,263,experiment,30,→,right,→,0.8427372999722138,True,16
26K19,264,experiment,16,←,left,←,0.9830893999896944,True,16
26K19,265,experiment,58,↑,up,↑,0.7047199999215081,True,16
26K19,266,experiment,32,↑,up,↑,0.7515887999907136,True,16
26K19,267,experiment,35,→,right,→,0.5941728999605402,True,16
26K19,268,experiment,15,←,right,→,0.5047796999569982,False,16
26K19,269,experiment,60,→,left,←,1.2529727999353781,False,16
26K19,270,experiment,52,↓,down,↓,0.5603043999290094,True,16
26K19,271,experiment,59,→,right,→,0.5307364000473171,True,16
26K19,272,experiment,17,↓,down,↓,0.706355799920857,True,16
26K19,273,experiment,20,←,left,←,0.4887849000515416,True,16
26K19,274,experiment,56,←,right,→,0.6560416000429541,False,16
26K19,275,experiment,19,→,right,→,0.46601600002031773,True,16
26K19,276,experiment,26,↓,down,↓,0.7016753000207245,True,16
26K19,277,experiment,40,←,left,←,0.3842305999714881,True,16
26K19,278,experiment,23,↑,up,↑,0.5275214000139385,True,16
26K19,279,experiment,41,↑,up,↑,0.5916329000610858,True,16
26K19,280,experiment,43,↓,down,↓,0.6035588999511674,True,16
26K19,281,experiment,50,↓,down,↓,0.6423108000308275,True,16
26K19,282,experiment,14,←,left,←,0.6475494999904186,True,16
26K19,283,experiment,44,→,right,→,0.5283030000282452,True,16
26K19,284,experiment,24,↓,down,↓,0.6833655000664294,True,16
26K19,285,experiment,39,→,right,→,0.7579813000047579,True,16
26K19,286,experiment,47,↑,down,↓,0.8969238999998197,False,16
26K19,287,experiment,29,↑,up,↑,0.7059607000555843,True,16
26K19,288,experiment,38,↑,up,↑,0.49292850005440414,True,16
26K19,289,experiment,25,→,right,→,0.6806217000121251,True,16
26K19,290,experiment,33,↑,up,↑,0.879277600091882,True,16
26K19,291,training,18,←,left,←,0.46398879995103925,True,16
26K19,292,training,13,←,right,→,0.6926504999864846,False,16
26K19,293,experiment,20,↑,up,↑,0.5160882999189198,True,16
26K19,294,experiment,21,←,right,→,0.6175589000340551,False,16
26K19,295,experiment,19,←,left,←,1.372158500016667,True,16
26K19,296,experiment,14,←,right,→,0.6040049999719486,False,16
26K19,297,experiment,43,←,right,→,0.6235483000054955,False,16
26K19,298,experiment,54,↓,down,↓,0.6266217000083998,True,16
26K19,299,experiment,59,←,left,←,0.40023010002914816,True,16
26K19,300,experiment,58,→,right,→,0.499617199995555,True,16
26K19,301,experiment,48,←,left,←,1.263526799972169,True,16
26K19,302,experiment,56,↑,up,↑,0.44736870005726814,True,16
26K19,303,experiment,37,→,right,→,0.5486275000730529,True,16
26K19,304,experiment,34,←,left,←,0.4005438000895083,True,16
26K19,305,experiment,49,↓,down,↓,0.7987184999510646,True,16
26K19,306,experiment,42,→,right,→,0.6986626000143588,True,16
26K19,307,experiment,25,←,left,←,0.6859602000331506,True,16
26K19,308,experiment,13,↓,down,↓,0.570235799998045,True,16
26K19,309,experiment,40,←,left,←,0.8490045000799,True,16
26K19,310,experiment,60,→,right,→,0.7991014000726864,True,16
26K19,311,experiment,24,↓,down,↓,0.766613999963738,True,16
26K19,312,experiment,57,↓,down,↓,0.7702436000108719,True,16
26K19,313,experiment,45,↑,up,↑,0.8053729999810457,True,16
26K19,314,experiment,17,←,left,←,1.4499809000408277,True,16
26K19,315,experiment,50,↓,down,↓,0.7505369000136852,True,16
26K19,316,experiment,44,→,right,→,0.6512026999844238,True,16
26K19,317,experiment,36,↑,up,↑,0.737605300033465,True,16
26K19,318,experiment,18,↑,up,↑,0.7602042000507936,True,16
26K19,319,experiment,51,↓,down,↓,0.6159672000212595,True,16
26K19,320,experiment,41,←,left,←,0.7321277000010014,True,16
26K19,321,experiment,16,←,right,→,0.7561264999676496,False,16
26K19,322,experiment,27,↑,up,↑,0.7081285000313073,True,16
26K19,323,experiment,15,↓,down,↓,0.7981744999997318,True,16
26K19,324,experiment,38,↑,up,↑,0.7089010000927374,True,16
26K19,325,experiment,52,↓,down,↓,0.7898763999110088,True,16
26K19,326,experiment,26,→,right,→,0.7971959999995306,True,16
26K19,327,experiment,22,↑,up,↑,0.6308697999920696,True,16
26K19,328,experiment,53,←,left,←,0.6181714000413194,True,16
26K19,329,experiment,28,←,left,←,0.7188261999981478,True,16
26K19,330,experiment,39,↓,down,↓,0.5921221000608057,True,16
26K19,331,experiment,47,→,right,→,0.7291903999866918,True,16
26K19,332,experiment,46,→,right,→,0.6381477999966592,True,16
26K19,333,experiment,55,←,left,←,0.6640459999907762,True,16
26K19,334,experiment,35,←,left,←,0.7181390000041574,True,16
26K19,335,experiment,30,←,left,←,0.8212062000529841,True,16
26K19,336,experiment,32,↑,up,↑,0.7514575000386685,True,16
26K19,337,experiment,29,↓,down,↓,0.8621252999873832,True,16
26K19,338,experiment,23,↑,up,↑,0.7806171999545768,True,16
26K19,339,experiment,31,↓,up,↑,1.192832799977623,False,16
26K19,340,experiment,33,↑,up,↑,0.8434844999574125,True,16
26K19,341,training,19,←,left,←,0.8715482000261545,True,16
26K19,342,training,21,↓,down,↓,0.8305561000015587,True,16
26K19,343,experiment,19,↓,down,↓,0.5927065999712795,True,16
26K19,344,experiment,54,→,right,→,0.7731834000442177,True,16
26K19,345,experiment,47,↑,up,↑,0.6792645000386983,True,16
26K19,346,experiment,31,→,right,→,0.6640898999758065,True,16
26K19,347,experiment,13,→,right,→,1.0204522999702021,True,16
26K19,348,experiment,58,←,left,←,0.6058938000351191,True,16
26K19,349,experiment,40,↓,down,↓,0.6185335000045598,True,16
26K19,350,experiment,15,→,right,→,0.7599784000776708,True,16
26K19,351,experiment,20,→,right,→,0.43645889998879284,True,16
26K19,352,experiment,24,→,right,→,0.7464451000560075,True,16
26K19,353,experiment,59,←,left,←,0.869187599979341,True,16
26K19,354,experiment,49,←,left,←,0.6017681999364868,True,16
26K19,355,experiment,16,→,right,→,0.4875739999115467,True,16
26K19,356,experiment,32,←,left,←,0.7827201999025419,True,16
26K19,357,experiment,17,→,right,→,0.8680495000444353,True,16
26K19,358,experiment,48,↑,up,↑,0.6571077000116929,True,16
26K19,359,experiment,30,←,left,←,0.7951204000273719,True,16
26K19,360,experiment,23,→,right,→,0.6767206999938935,True,16
26K19,361,experiment,39,→,right,→,0.7039054000051692,True,16
26K19,362,experiment,46,↓,down,↓,0.6612823000177741,True,16
26K19,363,experiment,56,↑,up,↑,0.7900841999799013,True,16
26K19,364,experiment,36,↓,down,↓,0.7026776999700814,True,16
26K19,365,experiment,53,←,left,←,0.4390885999891907,True,16
26K19,366,experiment,52,←,left,←,0.7467902000062168,True,16
26K19,367,experiment,55,↓,down,↓,0.6157355000032112,True,16
26K19,368,experiment,60,↑,up,↑,0.9513714000349864,True,16
26K19,369,experiment,38,←,left,←,0.6316858000354841,True,16
26K19,370,experiment,29,↑,up,↑,0.6674037999473512,True,16
26K19,371,experiment,18,↓,down,↓,0.6524244999745861,True,16
26K19,372,experiment,28,↓,down,↓,0.5919046000344679,True,16
26K19,373,experiment,50,↑,up,↑,0.6713436000281945,True,16
26K19,374,experiment,42,←,left,←,0.6087444999720901,True,16
26K19,375,experiment,27,↓,down,↓,0.5824113000417128,True,16
26K19,376,experiment,44,←,left,←,0.5537164999404922,True,16
26K19,377,experiment,43,→,right,→,0.48734839993994683,True,16
26K19,378,experiment,14,→,right,→,0.5229089999338612,True,16
26K19,379,experiment,26,↓,down,↓,0.5406803999794647,True,16
26K19,380,experiment,51,↓,down,↓,0.7010502000339329,True,16
26K19,381,experiment,22,↑,up,↑,0.6423750000540167,True,16
26K19,382,experiment,33,↑,up,↑,0.6433293999871239,True,16
26K19,383,experiment,41,↑,up,↑,0.5663953999755904,True,16
26K19,384,experiment,57,←,left,←,0.6020001999568194,True,16
26K19,385,experiment,25,↑,up,↑,0.5052709999727085,True,16
26K19,386,experiment,34,←,left,←,0.7424192000180483,True,16
26K19,387,experiment,21,↑,up,↑,0.5390003999928012,True,16
26K19,388,experiment,37,←,left,←,0.5813326999777928,True,16
26K19,389,experiment,45,↑,up,↑,0.6000259999418631,True,16
26K19,390,experiment,35,↓,down,↓,0.4645888999802992,True,16
26K19,391,training,43,↓,down,↓,0.929223999963142,True,15
26K19,392,training,35,↓,down,↓,0.5412376000313088,True,15
26K19,393,experiment,26,→,right,→,1.158619900001213,True,15
26K19,394,experiment,55,↓,down,↓,0.6519127000356093,True,15
26K19,395,experiment,42,→,right,→,1.253890399937518,True,15
26K19,396,experiment,46,→,right,→,0.5412417000625283,True,15
26K19,397,experiment,20,↓,down,↓,0.8181904999073595,True,15
26K19,398,experiment,27,↑,up,↑,0.6719609000720084,True,15
26K19,399,experiment,48,→,right,→,0.5330550000071526,True,15
26K19,400,experiment,32,↓,down,↓,0.5545742000686005,True,15
26K19,401,experiment,30,↓,down,↓,0.6483743999851868,True,15
26K19,402,experiment,50,↓,down,↓,0.6611885000020266,True,15
26K19,403,experiment,33,→,right,→,0.7408922000322491,True,15
26K19,404,experiment,43,↓,down,↓,0.6590676000341773,True,15
26K19,405,experiment,15,↓,down,↓,0.7109127999283373,True,15
26K19,406,experiment,51,←,left,←,0.7372442999621853,True,15
26K19,407,experiment,19,←,left,←,0.423015300068073,True,15
26K19,408,experiment,53,↑,up,↑,0.6024548999266699,True,15
26K19,409,experiment,14,→,right,→,0.6490381000330672,True,15
26K19,410,experiment,31,↓,down,↓,0.6827681999420747,True,15
26K19,411,experiment,58,↓,down,↓,0.5604232999030501,True,15
26K19,412,experiment,40,←,left,←,0.8716696000192314,True,15
26K19,413,experiment,16,↓,down,↓,0.5782568000722677,True,15
26K19,414,experiment,18,↓,down,↓,0.447750800056383,True,15
26K19,415,experiment,52,→,right,→,0.5231384000508115,True,15
26K19,416,experiment,28,↓,right,→,0.6275708999019116,False,15
26K19,417,experiment,24,←,left,←,0.6831853999756277,True,15
26K19,418,experiment,36,↑,up,↑,0.535706700058654,True,15
26K19,419,experiment,17,→,right,→,0.5751650000456721,True,15
26K19,420,experiment,21,↑,up,↑,0.5623060999205336,True,15
26K19,421,experiment,59,→,right,→,0.48497480002697557,True,15
26K19,422,experiment,57,↓,down,↓,0.6917621000902727,True,15
26K19,423,experiment,41,→,right,→,0.3835490000201389,True,15
26K19,424,experiment,29,→,right,→,0.48969379998743534,True,15
26K19,425,experiment,35,←,left,←,0.6708953999914229,True,15
26K19,426,experiment,49,↑,up,↑,0.6436238000169396,True,15
26K19,427,experiment,56,↑,down,↓,1.052851099986583,False,15
26K19,428,experiment,47,←,left,←,0.4199343000072986,True,15
26K19,429,experiment,37,↓,up,↑,0.6975995999528095,False,15
26K19,430,experiment,60,←,left,←,0.8858196000801399,True,15
26K19,431,experiment,45,→,right,→,0.6282240999862552,True,15
26K19,432,experiment,44,→,right,→,0.4541907999664545,True,15
26K19,433,experiment,54,↑,up,↑,0.49618809996172786,True,15
26K19,434,experiment,38,→,left,←,0.6429812000133097,False,15
26K19,435,experiment,34,→,right,→,0.4194194000447169,True,15
26K19,436,experiment,39,↓,down,↓,0.5835990000050515,True,15
26K19,437,experiment,23,→,left,←,0.7370230999076739,False,15
26K19,438,experiment,25,↑,right,→,0.3672816000180319,False,15
26K19,439,experiment,13,↑,up,↑,1.3070666999556124,True,15
26K19,440,experiment,22,→,right,→,0.4963788000168279,True,15
26K19,441,training,51,→,right,→,0.908894499996677,True,15
26K19,442,training,32,↑,up,↑,0.9638306000269949,True,15
26K19,443,experiment,32,→,right,→,1.2397887000115588,True,15
26K19,444,experiment,18,↓,down,↓,0.610129699925892,True,15
26K19,445,experiment,26,↓,down,↓,0.488908699946478,True,15
26K19,446,experiment,46,↓,down,↓,0.44715629995334893,True,15
26K19,447,experiment,51,↓,down,↓,0.6114942999556661,True,15
26K19,448,experiment,24,→,right,→,0.4594840999925509,True,15
26K19,449,experiment,42,↑,up,↑,0.6377546000294387,True,15
26K19,450,experiment,47,←,left,←,0.4369046998908743,True,15
26K19,451,experiment,40,←,left,←,0.640923900064081,True,15
26K19,452,experiment,45,→,right,→,0.4417222000192851,True,15
26K19,453,experiment,31,↓,down,↓,0.45978789997752756,True,15
26K19,454,experiment,59,→,right,→,0.5624066999880597,True,15
26K19,455,experiment,38,↓,down,↓,0.5467515999916941,True,15
26K19,456,experiment,55,→,right,→,0.4243018999695778,True,15
26K19,457,experiment,17,↑,up,↑,0.6914731999859214,True,15
26K19,458,experiment,20,→,right,→,0.4909989999141544,True,15
26K19,459,experiment,50,↓,up,↑,0.7904268999118358,False,15
26K19,460,experiment,25,↑,up,↑,0.4941192000405863,True,15
26K19,461,experiment,28,↑,up,↑,1.0242930999957025,True,15
26K19,462,experiment,16,↓,down,↓,0.6690271999686956,True,15
26K19,463,experiment,14,→,right,→,0.5608759999740869,True,15
26K19,464,experiment,58,→,right,→,0.6601832000305876,True,15
26K19,465,experiment,34,→,right,→,0.6514392000390217,True,15
26K19,466,experiment,57,←,left,←,0.6437255999771878,True,15
26K19,467,experiment,39,←,left,←,0.6083504999987781,True,15
26K19,468,experiment,33,↑,up,↑,0.8341497000074014,True,15
26K19,469,experiment,43,→,right,→,0.5562927999999374,True,15
26K19,470,experiment,19,→,right,→,0.633405200089328,True,15
26K19,471,experiment,37,→,right,→,0.5276765000307932,True,15
26K19,472,experiment,60,↑,up,↑,0.7630205999594182,True,15
26K19,473,experiment,49,↓,up,↑,0.9961399000603706,False,15
26K19,474,experiment,29,↑,up,↑,0.49679200001992285,True,15
26K19,475,experiment,35,→,right,→,0.46940240007825196,True,15
26K19,476,experiment,56,↓,down,↓,0.9174517999636009,True,15
26K19,477,experiment,36,→,right,→,0.5207442999817431,True,15
26K19,478,experiment,53,→,right,→,0.38378749997355044,True,15
26K19,479,experiment,22,↓,down,↓,0.5380272000329569,True,15
26K19,480,experiment,27,←,left,←,0.6028703999472782,True,15
26K19,481,experiment,23,↑,up,↑,0.4756347000366077,True,15
26K19,482,experiment,30,←,left,←,0.4928100999677554,True,15
26K19,483,experiment,44,↑,up,↑,0.532346099964343,True,15
26K19,484,experiment,52,↓,up,↑,0.8281255000038072,False,15
26K19,485,experiment,21,↓,down,↓,0.4773359000682831,True,15
26K19,486,experiment,15,↓,down,↓,0.704731100006029,True,15
26K19,487,experiment,54,↑,up,↑,1.0247574000386521,True,15
26K19,488,experiment,41,↓,down,↓,0.7010107999667525,True,15
26K19,489,experiment,48,←,left,←,0.5369936999632046,True,15
26K19,490,experiment,13,←,left,←,0.6267257999861613,True,15
26K19,491,training,46,↓,down,↓,0.4910499999532476,True,15
26K19,492,training,42,↓,down,↓,0.6273829999845475,True,15
26K19,493,experiment,49,←,left,←,0.47426919999998063,True,15
26K19,494,experiment,44,→,right,→,0.41877920005936176,True,15
26K19,495,experiment,37,→,right,→,0.45607870002277195,True,15
26K19,496,experiment,54,↑,up,↑,0.5860510999336839,True,15
26K19,497,experiment,14,→,right,→,0.6734409000491723,True,15
26K19,498,experiment,24,↓,down,↓,0.5752281000604853,True,15
26K19,499,experiment,16,↓,down,↓,0.5575790000148118,True,15
26K19,500,experiment,57,↓,down,↓,0.465960800065659,True,15
26K19,501,experiment,15,←,left,←,0.740995500003919,True,15
26K19,502,experiment,47,↓,down,↓,1.1362876000348479,True,15
26K19,503,experiment,35,↓,down,↓,0.5474520999705419,True,15
26K19,504,experiment,41,↑,up,↑,0.46623560006264597,True,15
26K19,505,experiment,33,←,left,←,0.4416272999951616,True,15
26K19,506,experiment,48,←,left,←,0.7359901999589056,True,15
26K19,507,experiment,46,→,right,→,0.5881150000495836,True,15
26K19,508,experiment,21,↓,down,↓,0.5269261000212282,True,15
26K19,509,experiment,25,→,right,→,0.6574476999230683,True,15
26K19,510,experiment,53,↑,up,↑,0.6519983999896795,True,15
26K19,511,experiment,50,→,right,→,0.7207951999735087,True,15
26K19,512,experiment,60,←,left,←,0.5800159999635071,True,15
26K19,513,experiment,28,↓,down,↓,0.5861929999664426,True,15
26K19,514,experiment,36,←,left,←,0.5546531999716535,True,15
26K19,515,experiment,39,↓,down,↓,0.6346666000317782,True,15
26K19,516,experiment,13,↓,down,↓,0.5606778000947088,True,15
26K19,517,experiment,42,↑,up,↑,0.4788820999674499,True,15
26K19,518,experiment,23,→,right,→,0.5488070000428706,True,15
26K19,519,experiment,27,→,right,→,0.6046160999685526,True,15
26K19,520,experiment,43,↓,down,↓,0.5839708999264985,True,15
26K19,521,experiment,18,←,left,←,0.580657200072892,True,15
26K19,522,experiment,31,→,right,→,0.5766449000220746,True,15
26K19,523,experiment,58,→,left,←,0.6912093999562785,False,15
26K19,524,experiment,40,←,left,←,0.581298700068146,True,15
26K19,525,experiment,32,←,left,←,0.9526366000063717,True,15
26K19,526,experiment,56,←,left,←,0.6135562000563368,True,15
26K19,527,experiment,45,↓,down,↓,0.534817700041458,True,15
26K19,528,experiment,34,→,left,←,0.9066558999475092,False,15
26K19,529,experiment,20,→,right,→,0.5055361000122502,True,15
26K19,530,experiment,52,↓,down,↓,0.6426234999671578,True,15
26K19,531,experiment,55,↑,up,↑,0.9248194999527186,True,15
26K19,532,experiment,38,→,right,→,1.078757599927485,True,15
26K19,533,experiment,26,↓,down,↓,0.6028875999618322,True,15
26K19,534,experiment,59,→,right,→,0.6514905000803992,True,15
26K19,535,experiment,51,↓,down,↓,0.4793813000433147,True,15
26K19,536,experiment,17,→,right,→,0.6656510999891907,True,15
26K19,537,experiment,30,←,left,←,0.45071389991790056,True,15
26K19,538,experiment,29,←,left,←,0.5652379000093788,True,15
26K19,539,experiment,19,↑,up,↑,0.5942261000163853,True,15
26K19,540,experiment,22,↓,down,↓,0.45994090009480715,True,15
26K19,541,training,44,←,left,←,0.4481534999795258,True,15
26K19,542,training,57,←,left,←,0.6481073999311775,True,15
26K19,543,experiment,44,←,left,←,1.0729094999842346,True,15
26K19,544,experiment,28,↓,down,↓,0.9395171999931335,True,15
26K19,545,experiment,23,↑,down,↓,0.870559100061655,False,15
26K19,546,experiment,37,→,right,→,0.5313273000065237,True,15
26K19,547,experiment,14,↓,right,→,0.9727753000333905,False,15
26K19,548,experiment,36,↑,up,↑,0.8624825999140739,True,15
26K19,549,experiment,45,↓,down,↓,0.4781321999616921,True,15
26K19,550,experiment,38,↑,up,↑,0.5941458999877796,True,15
26K19,551,experiment,53,↓,down,↓,0.5671812000218779,True,15
26K19,552,experiment,49,↓,down,↓,0.6159654000075534,True,15
26K19,553,experiment,29,→,right,→,0.6359350000275299,True,15
26K19,554,experiment,16,↓,down,↓,0.5358465000754222,True,15
26K19,555,experiment,33,→,right,→,1.1805701999692246,True,15
26K19,556,experiment,52,↑,up,↑,0.5474080999847502,True,15
26K19,557,experiment,26,↑,up,↑,0.5553851000731811,True,15
26K19,558,experiment,34,↑,up,↑,0.4945363999577239,True,15
26K19,559,experiment,19,→,right,→,0.5747477000113577,True,15
26K19,560,experiment,41,←,left,←,0.6687402999959886,True,15
26K19,561,experiment,21,↑,up,↑,0.5721158999949694,True,15
26K19,562,experiment,18,↑,up,↑,0.5051420999225229,True,15
26K19,563,experiment,39,↑,up,↑,0.42716009996365756,True,15
26K19,564,experiment,43,↓,down,↓,0.5558620999800041,True,15
26K19,565,experiment,47,↓,up,↑,0.910913800005801,False,15
26K19,566,experiment,55,→,right,→,0.6860334000084549,True,15
26K19,567,experiment,13,↑,up,↑,0.505927599966526,True,15
26K19,568,experiment,25,→,right,→,0.6052944000111893,True,15
26K19,569,experiment,31,→,right,→,0.5925099999876693,True,15
26K19,570,experiment,40,↓,down,↓,0.4707567000295967,True,15
26K19,571,experiment,32,↑,up,↑,0.4468348999507725,True,15
26K19,572,experiment,24,↑,up,↑,0.4613857000367716,True,15
26K19,573,experiment,17,←,left,←,0.4241742000449449,True,15
26K19,574,experiment,50,→,right,→,0.43741190002765507,True,15
26K19,575,experiment,15,→,right,→,0.7460724000120535,True,15
26K19,576,experiment,57,←,left,←,1.1907388999825343,True,15
26K19,577,experiment,22,→,right,→,0.6325606000609696,True,15
26K19,578,experiment,60,↑,up,↑,0.4555137000279501,True,15
26K19,579,experiment,58,↑,up,↑,0.38336330000311136,True,15
26K19,580,experiment,30,↑,up,↑,0.778793100034818,True,15
26K19,581,experiment,27,→,right,→,0.5701637000311166,True,15
26K19,582,experiment,35,↓,down,↓,0.5717680000234395,True,15
26K19,583,experiment,42,↑,up,↑,0.6252688000677153,True,15
26K19,584,experiment,20,←,left,←,0.38316630001645535,True,15
26K19,585,experiment,51,→,left,←,0.6731552999699488,False,15
26K19,586,experiment,46,↓,down,↓,0.5517095999093726,True,15
26K19,587,experiment,59,↓,down,↓,0.850687799975276,True,15
26K19,588,experiment,48,↓,down,↓,0.5685101000126451,True,15
26K19,589,experiment,54,↓,down,↓,0.5498343999497592,True,15
26K19,590,experiment,56,→,right,→,0.658640000037849,True,15
