PART_ID,Trial_no,Trial_type,CSI,Stim_letter,Key_pressed,letter_choose,Rt,Corr,Stimulus Time
27M22,1,training,60,↑,up,↑,0.6983885000227019,True,30
27M22,2,training,60,→,right,→,0.5842648999532685,True,30
27M22,3,training,60,↑,up,↑,1.5969483000226319,True,30
27M22,4,training,60,←,left,←,0.5857925999443978,True,30
27M22,5,training,60,↑,up,↑,0.6340216000098735,True,30
27M22,6,training,60,↑,up,↑,0.48394820000976324,True,30
27M22,7,training,60,↓,up,↑,0.45061729999724776,False,30
27M22,8,training,60,←,left,←,0.5842112000100315,True,30
27M22,9,training,60,↑,up,↑,0.5681269000051543,True,30
27M22,10,training,60,←,left,←,0.41710070008412004,True,30
27M22,11,training,60,↑,up,↑,0.5507685000775382,True,30
27M22,12,training,60,←,left,←,0.6333959000185132,True,30
27M22,13,training,60,←,left,←,0.4839625000022352,True,30
27M22,14,training,60,→,right,→,0.5330203000921756,True,30
27M22,15,training,60,↓,down,↓,0.45034570002462715,True,30
27M22,16,training,60,↓,down,↓,0.4836468999274075,True,30
27M22,17,training,60,↑,up,↑,0.5839391999179497,True,30
27M22,18,training,60,→,right,→,0.6166331999702379,True,30
27M22,19,training,60,←,left,←,0.5179233000380918,True,30
27M22,20,training,60,→,right,→,0.5831509999698028,True,30
27M22,21,training,60,↑,up,↑,0.5673332000151277,True,18
27M22,22,training,60,←,left,←,0.5036101998994127,True,18
27M22,23,training,60,↓,down,↓,0.48285769997164607,True,18
27M22,24,training,60,↓,down,↓,0.49506350001320243,True,18
27M22,25,training,60,→,right,→,0.4983077999204397,True,18
27M22,26,training,60,←,left,←,1.1974408000241965,True,18
27M22,27,training,60,↑,up,↑,0.5089377999538556,True,18
27M22,28,training,60,→,right,→,0.5599936000071466,True,18
27M22,29,training,60,↓,down,↓,0.480892900028266,True,18
27M22,30,training,60,↓,down,↓,0.7567380000837147,True,18
27M22,31,training,60,↑,up,↑,0.5343344000866637,True,18
27M22,32,training,60,→,right,→,0.4962349000852555,True,18
27M22,33,training,60,→,right,→,0.46788739995099604,True,18
27M22,34,training,60,↑,up,↑,0.4957852999214083,True,18
27M22,35,training,60,↑,up,↑,1.1070087999105453,True,18
27M22,36,training,60,→,right,→,0.534314600052312,True,18
27M22,37,training,60,→,right,→,0.6405246000504121,True,18
27M22,38,training,60,↓,down,↓,0.5742524999659508,True,18
27M22,39,training,60,→,right,→,1.0389232999878004,True,18
27M22,40,training,60,→,right,→,0.4688665000721812,True,18
27M22,41,training,34,↑,up,↑,0.4841373999370262,True,18
27M22,42,training,59,↑,right,→,0.8814942999742925,False,18
27M22,43,experiment,13,→,right,→,0.4773154000286013,True,18
27M22,44,experiment,55,↑,up,↑,0.38321140001062304,True,18
27M22,45,experiment,47,←,right,→,0.5419469000771642,False,18
27M22,46,experiment,22,↑,up,↑,1.2500599999912083,True,18
27M22,47,experiment,25,↑,up,↑,0.6394054999109358,True,18
27M22,48,experiment,54,←,left,←,0.6661025999346748,True,18
27M22,49,experiment,58,←,left,←,0.6248506000265479,True,18
27M22,50,experiment,38,→,right,→,0.47867709991987795,True,18
27M22,51,experiment,21,↑,up,↑,0.48557769996114075,True,18
27M22,52,experiment,48,↑,up,↑,0.5141792999347672,True,18
27M22,53,experiment,16,↓,down,↓,0.9705798999639228,True,18
27M22,54,experiment,31,←,left,←,0.567471000016667,True,18
27M22,55,experiment,45,↑,up,↑,0.5628827998880297,True,18
27M22,56,experiment,49,↑,up,↑,0.9882238999707624,True,18
27M22,57,experiment,56,↑,up,↑,0.5033418999519199,True,18
27M22,58,experiment,33,→,right,→,0.5814135000109673,True,18
27M22,59,experiment,23,↓,down,↓,0.6146942999912426,True,18
27M22,60,experiment,43,↓,down,↓,0.4974834000458941,True,18
27M22,61,experiment,36,→,right,→,0.621263699955307,True,18
27M22,62,experiment,14,↓,down,↓,0.5473444000817835,True,18
27M22,63,experiment,39,→,right,→,0.5635324999457225,True,18
27M22,64,experiment,40,↑,up,↑,0.5540323999011889,True,18
27M22,65,experiment,24,←,left,←,0.6119124999968335,True,18
27M22,66,experiment,27,→,right,→,0.9939892999827862,True,18
27M22,67,experiment,18,←,left,←,0.5746071999892592,True,18
27M22,68,experiment,53,↓,down,↓,0.7808297000592574,True,18
27M22,69,experiment,37,↑,up,↑,0.6368495000060648,True,18
27M22,70,experiment,44,→,right,→,0.5739604999544099,True,18
27M22,71,experiment,15,↓,down,↓,0.5493418000405654,True,18
27M22,72,experiment,28,→,right,→,0.5648844999959692,True,18
27M22,73,experiment,59,→,right,→,1.006783700082451,True,18
27M22,74,experiment,17,←,left,←,0.4832354999380186,True,18
27M22,75,experiment,34,←,left,←,0.5133357000304386,True,18
27M22,76,experiment,30,↑,down,↓,0.7448255999479443,False,18
27M22,77,experiment,60,↑,up,↑,0.5395125999348238,True,18
27M22,78,experiment,57,←,left,←,0.5121191000798717,True,18
27M22,79,experiment,29,↑,up,↑,0.6565756000345573,True,18
27M22,80,experiment,35,→,right,→,0.5191744000185281,True,18
27M22,81,experiment,41,↑,up,↑,0.5192993000382558,True,18
27M22,82,experiment,52,→,right,→,1.160013600019738,True,18
27M22,83,experiment,50,↓,down,↓,0.5768208999652416,True,18
27M22,84,experiment,26,→,right,→,0.6728222999954596,True,18
27M22,85,experiment,51,→,right,→,0.3841279000043869,True,18
27M22,86,experiment,42,↓,down,↓,0.6798981999745592,True,18
27M22,87,experiment,46,↓,down,↓,0.5184004999464378,True,18
27M22,88,experiment,32,↓,down,↓,0.41685380006674677,True,18
27M22,89,experiment,19,↑,up,↑,0.630720500019379,True,18
27M22,90,experiment,20,↑,up,↑,0.5358520000008866,True,18
27M22,91,training,33,←,left,←,0.47870879992842674,True,17
27M22,92,training,35,→,right,→,0.5968517999863252,True,17
27M22,93,experiment,51,↑,up,↑,0.3842447999631986,True,17
27M22,94,experiment,45,↑,up,↑,0.4169754999456927,True,17
27M22,95,experiment,57,↓,down,↓,0.9252545000053942,True,17
27M22,96,experiment,22,↑,up,↑,0.9622053999919444,True,17
27M22,97,experiment,44,→,right,→,1.2228009999962524,True,17
27M22,98,experiment,19,→,right,→,0.8093970000045374,True,17
27M22,99,experiment,31,↓,down,↓,0.7565246000885963,True,17
27M22,100,experiment,25,←,left,←,0.5258035999722779,True,17
27M22,101,experiment,30,→,right,→,0.7171613000100479,True,17
27M22,102,experiment,28,→,right,→,0.5018770999740809,True,17
27M22,103,experiment,41,→,right,→,0.5907931999536231,True,17
27M22,104,experiment,56,←,left,←,0.40076790004968643,True,17
27M22,105,experiment,36,↓,down,↓,0.5533373000798747,True,17
27M22,106,experiment,59,↓,down,↓,0.6117107999743894,True,17
27M22,107,experiment,14,↓,down,↓,1.1467548999935389,True,17
27M22,108,experiment,32,←,left,←,0.5514103999594226,True,17
27M22,109,experiment,54,↑,up,↑,0.5174184000352398,True,17
27M22,110,experiment,53,↑,up,↑,0.3500208000186831,True,17
27M22,111,experiment,37,↓,up,↑,0.4858824999537319,False,17
27M22,112,experiment,13,→,left,←,0.7701446999562904,False,17
27M22,113,experiment,24,↓,down,↓,0.5230592000298202,True,17
27M22,114,experiment,60,→,right,→,0.9905338999815285,True,17
27M22,115,experiment,26,↓,down,↓,0.5420340999262407,True,17
27M22,116,experiment,33,→,right,→,0.3834904000395909,True,17
27M22,117,experiment,23,↓,down,↓,0.38375949999317527,True,17
27M22,118,experiment,35,↓,down,↓,0.4520043000811711,True,17
27M22,119,experiment,52,↑,down,↓,0.40033400000538677,False,17
27M22,120,experiment,16,↓,up,↑,1.8032812000019476,False,17
27M22,121,experiment,46,←,left,←,0.284045199980028,True,17
27M22,122,experiment,20,↓,down,↓,0.49143790011294186,True,17
27M22,123,experiment,17,→,right,→,0.5327092999359593,True,17
27M22,124,experiment,29,←,right,→,0.48382480000145733,False,17
27M22,125,experiment,15,↑,up,↑,0.550713500007987,True,17
27M22,126,experiment,38,←,left,←,0.38400039996486157,True,17
27M22,127,experiment,58,←,left,←,0.6007535000098869,True,17
27M22,128,experiment,39,↑,up,↑,0.5584096999373287,True,17
27M22,129,experiment,48,↓,down,↓,0.45670849992893636,True,17
27M22,130,experiment,43,↑,left,←,1.3931696000508964,False,17
27M22,131,experiment,50,↓,down,↓,0.9124371000798419,True,17
27M22,132,experiment,34,↓,down,↓,0.7979805999202654,True,17
27M22,133,experiment,27,↓,down,↓,0.7320416000438854,True,17
27M22,134,experiment,18,←,right,→,0.46670619992073625,False,17
27M22,135,experiment,42,←,left,←,0.4596994000021368,True,17
27M22,136,experiment,47,←,left,←,0.554102300084196,True,17
27M22,137,experiment,49,←,left,←,0.4911044000182301,True,17
27M22,138,experiment,55,←,left,←,0.9310796000063419,True,17
27M22,139,experiment,40,←,left,←,0.40085860004182905,True,17
27M22,140,experiment,21,↑,up,↑,0.40094299998600036,True,17
27M22,141,training,37,↑,up,↑,0.5226235000882298,True,17
27M22,142,training,31,↑,up,↑,0.9453233999665827,True,17
27M22,143,experiment,26,↓,down,↓,0.8905444999691099,True,17
27M22,144,experiment,59,↓,left,←,0.6078595999861136,False,17
27M22,145,experiment,20,↓,down,↓,0.5224030000390485,True,17
27M22,146,experiment,51,↓,down,↓,0.38342630001716316,True,17
27M22,147,experiment,38,→,right,→,0.41662020003423095,True,17
27M22,148,experiment,23,↑,up,↑,0.3504085000604391,True,17
27M22,149,experiment,42,↓,down,↓,0.5674250000156462,True,17
27M22,150,experiment,45,→,left,←,0.36761469999328256,False,17
27M22,151,experiment,41,←,left,←,0.5356641999678686,True,17
27M22,152,experiment,39,↑,up,↑,0.3836256000213325,True,17
27M22,153,experiment,16,→,right,→,1.0057315999874845,True,17
27M22,154,experiment,13,↓,left,←,0.8852754000108689,False,17
27M22,155,experiment,44,↓,up,↑,0.9644272000296041,False,17
27M22,156,experiment,52,←,left,←,0.3504666000371799,True,17
27M22,157,experiment,37,←,left,←,0.3001605999888852,True,17
27M22,158,experiment,24,↑,up,↑,0.7990763999987394,True,17
27M22,159,experiment,48,↓,down,↓,0.3853113000513986,True,17
27M22,160,experiment,58,↓,down,↓,0.6004852999467403,True,17
27M22,161,experiment,33,↑,up,↑,0.5946791000897065,True,17
27M22,162,experiment,49,↓,down,↓,0.5546394999837503,True,17
27M22,163,experiment,46,←,left,←,0.4936965999659151,True,17
27M22,164,experiment,27,↑,up,↑,0.5603579999879003,True,17
27M22,165,experiment,50,↓,down,↓,0.4973193999612704,True,17
27M22,166,experiment,43,←,left,←,0.5284301000647247,True,17
27M22,167,experiment,55,↑,up,↑,0.4791925000026822,True,17
27M22,168,experiment,22,←,left,←,0.5411214999621734,True,17
27M22,169,experiment,19,↑,up,↑,0.6030151000013575,True,17
27M22,170,experiment,30,↓,down,↓,0.5669915999751538,True,17
27M22,171,experiment,36,→,right,→,0.6003658999688923,True,17
27M22,172,experiment,14,↓,down,↓,0.7589428999926895,True,17
27M22,173,experiment,60,↑,up,↑,0.5610216999193653,True,17
27M22,174,experiment,53,→,right,→,0.5518715999787673,True,17
27M22,175,experiment,25,→,right,→,0.9772517000092193,True,17
27M22,176,experiment,31,↑,left,←,1.0216293999692425,False,17
27M22,177,experiment,40,→,right,→,0.5063089999603108,True,17
27M22,178,experiment,17,←,left,←,0.6349883999209851,True,17
27M22,179,experiment,34,←,right,→,0.3009728000033647,False,17
27M22,180,experiment,32,←,right,→,0.8729934999719262,False,17
27M22,181,experiment,18,↓,down,↓,0.5942785000661388,True,17
27M22,182,experiment,47,↑,up,↑,0.5639574000379071,True,17
27M22,183,experiment,28,→,right,→,0.5383121999911964,True,17
27M22,184,experiment,35,→,right,→,0.7656990999821573,True,17
27M22,185,experiment,54,→,right,→,0.5872995000099763,True,17
27M22,186,experiment,56,→,right,→,0.630632699932903,True,17
27M22,187,experiment,57,↓,down,↓,0.6230439000064507,True,17
27M22,188,experiment,15,←,left,←,0.49255429999902844,True,17
27M22,189,experiment,29,↓,down,↓,0.5336486999876797,True,17
27M22,190,experiment,21,←,left,←,0.546335400082171,True,17
27M22,191,training,54,←,left,←,0.4758461000164971,True,17
27M22,192,training,52,↓,down,↓,0.5743091999320313,True,17
27M22,193,experiment,50,↓,down,↓,0.5102582999970764,True,17
27M22,194,experiment,43,←,left,←,0.5179457000922412,True,17
27M22,195,experiment,14,↑,down,↓,0.8398317000828683,False,17
27M22,196,experiment,27,←,left,←,0.4172725999960676,True,17
27M22,197,experiment,42,→,right,→,0.9831360999960452,True,17
27M22,198,experiment,59,↓,down,↓,0.6562764999689534,True,17
27M22,199,experiment,16,→,right,→,0.6197963999584317,True,17
27M22,200,experiment,60,↓,up,↑,1.0111270999768749,False,17
27M22,201,experiment,39,↑,up,↑,0.46519179991446435,True,17
27M22,202,experiment,53,↓,down,↓,0.5391088000033051,True,17
27M22,203,experiment,44,←,left,←,0.5202885000035167,True,17
27M22,204,experiment,30,→,right,→,0.47961459995713085,True,17
27M22,205,experiment,58,→,right,→,0.455110999988392,True,17
27M22,206,experiment,54,←,left,←,0.4717792000155896,True,17
27M22,207,experiment,34,↓,down,↓,0.8143441000720486,True,17
27M22,208,experiment,17,↑,up,↑,0.6422567999688908,True,17
27M22,209,experiment,51,↓,down,↓,0.5272157000144944,True,17
27M22,210,experiment,21,↓,down,↓,0.5084296999266371,True,17
27M22,211,experiment,37,↑,up,↑,0.47986889991443604,True,17
27M22,212,experiment,24,↓,down,↓,0.6201785000739619,True,17
27M22,213,experiment,18,→,right,→,0.6318152999738231,True,17
27M22,214,experiment,55,→,right,→,0.5937939999857917,True,17
27M22,215,experiment,36,→,right,→,0.9142150001134723,True,17
27M22,216,experiment,45,→,right,→,0.5276300000259653,True,17
27M22,217,experiment,23,→,right,→,0.5316320999991149,True,17
27M22,218,experiment,47,←,left,←,0.5350797999417409,True,17
27M22,219,experiment,48,↓,down,↓,0.6097956000594422,True,17
27M22,220,experiment,35,←,left,←,0.5702113999286667,True,17
27M22,221,experiment,20,→,right,→,0.4549352000467479,True,17
27M22,222,experiment,49,↓,down,↓,0.5069260000018403,True,17
27M22,223,experiment,52,↑,left,←,1.2124831000110134,False,17
27M22,224,experiment,38,→,right,→,0.38413040002342314,True,17
27M22,225,experiment,57,→,right,→,0.5731373999733478,True,17
27M22,226,experiment,19,→,right,→,0.4735257000429556,True,17
27M22,227,experiment,41,←,right,→,0.4917892999947071,False,17
27M22,228,experiment,40,←,left,←,0.4620369999902323,True,17
27M22,229,experiment,13,→,right,→,0.6344730000710115,True,17
27M22,230,experiment,46,↓,down,↓,0.5307119999779388,True,17
27M22,231,experiment,29,↑,down,↓,0.47352929995395243,False,17
27M22,232,experiment,32,→,up,↑,0.8657534000230953,False,17
27M22,233,experiment,28,→,right,→,0.5084833999862894,True,17
27M22,234,experiment,56,→,right,→,0.5791357000125572,True,17
27M22,235,experiment,22,↑,left,←,1.133794500026852,False,17
27M22,236,experiment,26,→,right,→,0.5910884999902919,True,17
27M22,237,experiment,33,→,right,→,0.5137955999234691,True,17
27M22,238,experiment,31,↑,up,↑,0.6322167000034824,True,17
27M22,239,experiment,15,→,right,→,0.564849799964577,True,17
27M22,240,experiment,25,↑,up,↑,0.6217646000441164,True,17
27M22,241,training,16,↓,down,↓,0.5451346000190824,True,17
27M22,242,training,24,→,right,→,0.5316804000176489,True,17
27M22,243,experiment,35,↓,down,↓,0.5188165999716148,True,17
27M22,244,experiment,51,↑,up,↑,0.6241478999145329,True,17
27M22,245,experiment,43,↓,down,↓,0.9549031999194995,True,17
27M22,246,experiment,38,→,right,→,0.3999634999781847,True,17
27M22,247,experiment,42,←,left,←,0.9268629000289366,True,17
27M22,248,experiment,57,↓,down,↓,0.5320902999956161,True,17
27M22,249,experiment,49,←,left,←,0.5583631999325007,True,17
27M22,250,experiment,32,→,right,→,0.4514244000893086,True,17
27M22,251,experiment,39,←,left,←,0.5181337000103667,True,17
27M22,252,experiment,46,↑,up,↑,0.6109666000120342,True,17
27M22,253,experiment,33,→,right,→,0.9730821000412107,True,17
27M22,254,experiment,21,↑,up,↑,1.424168900004588,True,17
27M22,255,experiment,58,↑,up,↑,0.3841956000542268,True,17
27M22,256,experiment,36,→,right,→,0.5608114000642672,True,17
27M22,257,experiment,18,↓,down,↓,0.5027343999827281,True,17
27M22,258,experiment,40,↓,down,↓,0.6001390999881551,True,17
27M22,259,experiment,30,↓,down,↓,1.0041809999383986,True,17
27M22,260,experiment,16,→,right,→,0.49731220002286136,True,17
27M22,261,experiment,53,←,left,←,0.48231039999518543,True,17
27M22,262,experiment,56,→,right,→,0.8653116999194026,True,17
27M22,263,experiment,26,←,left,←,0.8293719000648707,True,17
27M22,264,experiment,24,→,right,→,0.500938400044106,True,17
27M22,265,experiment,13,↓,down,↓,0.5683296000352129,True,17
27M22,266,experiment,34,→,right,→,0.6910109999589622,True,17
27M22,267,experiment,37,→,right,→,0.47072230000048876,True,17
27M22,268,experiment,23,→,right,→,0.3835542000597343,True,17
27M22,269,experiment,41,↑,up,↑,0.8253766000270844,True,17
27M22,270,experiment,55,↑,up,↑,0.38393859995994717,True,17
27M22,271,experiment,20,←,left,←,0.35181289992760867,True,17
27M22,272,experiment,47,↓,right,→,0.47238589997868985,False,17
27M22,273,experiment,19,↓,down,↓,0.8649123000213876,True,17
27M22,274,experiment,50,→,right,→,0.5250754000153393,True,17
27M22,275,experiment,29,←,left,←,0.484983199974522,True,17
27M22,276,experiment,27,←,right,→,0.47167540004011244,False,17
27M22,277,experiment,15,←,left,←,0.45875240000896156,True,17
27M22,278,experiment,14,↑,up,↑,0.4001968000084162,True,17
27M22,279,experiment,48,←,left,←,0.38378849998116493,True,17
27M22,280,experiment,25,↑,up,↑,0.5813400000333786,True,17
27M22,281,experiment,31,←,left,←,0.5293830999871716,True,17
27M22,282,experiment,28,←,left,←,0.5306646000826731,True,17
27M22,283,experiment,59,↓,down,↓,0.5335817999439314,True,17
27M22,284,experiment,60,←,left,←,0.8563159999903291,True,17
27M22,285,experiment,44,←,left,←,0.5927464999258518,True,17
27M22,286,experiment,45,↓,down,↓,0.5715057000052184,True,17
27M22,287,experiment,17,←,left,←,0.5613670999882743,True,17
27M22,288,experiment,22,←,left,←,0.5647956000175327,True,17
27M22,289,experiment,52,↑,down,↓,0.6435195999220014,False,17
27M22,290,experiment,54,←,left,←,0.5663131000474095,True,17
27M22,291,training,46,↓,down,↓,0.47281150007620454,True,16
27M22,292,training,21,←,left,←,0.4883198000025004,True,16
27M22,293,experiment,42,→,right,→,0.5206595999188721,True,16
27M22,294,experiment,30,↓,down,↓,0.45621350000146776,True,16
27M22,295,experiment,21,→,right,→,0.5679767000256106,True,16
27M22,296,experiment,41,←,left,←,0.870157599914819,True,16
27M22,297,experiment,51,↑,up,↑,0.4973098000045866,True,16
27M22,298,experiment,27,↓,down,↓,0.5075447000563145,True,16
27M22,299,experiment,18,→,right,→,0.5153389000333846,True,16
27M22,300,experiment,34,→,right,→,0.5441967999795452,True,16
27M22,301,experiment,56,←,left,←,0.5574823999777436,True,16
27M22,302,experiment,39,↑,up,↑,0.5413576000137255,True,16
27M22,303,experiment,46,↑,up,↑,0.4494898999109864,True,16
27M22,304,experiment,23,→,left,←,0.6560745000606403,False,16
27M22,305,experiment,24,↓,down,↓,0.6300070000579581,True,16
27M22,306,experiment,36,←,left,←,0.48467209993395954,True,16
27M22,307,experiment,20,↑,up,↑,0.5159590999828652,True,16
27M22,308,experiment,53,←,left,←,0.4370516000781208,True,16
27M22,309,experiment,44,←,left,←,0.8128513999981806,True,16
27M22,310,experiment,50,↑,up,↑,0.36753030004911125,True,16
27M22,311,experiment,16,←,left,←,0.5857026999583468,True,16
27M22,312,experiment,33,↑,right,→,0.6839701000135392,False,16
27M22,313,experiment,17,↓,up,↑,0.4451844000723213,False,16
27M22,314,experiment,52,↑,up,↑,0.6248650999041274,True,16
27M22,315,experiment,15,←,left,←,0.502013299963437,True,16
27M22,316,experiment,57,→,right,→,0.5640201999340206,True,16
27M22,317,experiment,31,↑,up,↑,0.8407142999349162,True,16
27M22,318,experiment,43,←,left,←,0.49094110005535185,True,16
27M22,319,experiment,48,↓,down,↓,0.5433185000438243,True,16
27M22,320,experiment,49,←,left,←,0.9374654999701306,True,16
27M22,321,experiment,38,→,right,→,0.4909070999128744,True,16
27M22,322,experiment,59,↓,down,↓,0.6400342000415549,True,16
27M22,323,experiment,25,←,right,→,0.49415590008720756,False,16
27M22,324,experiment,29,↓,down,↓,0.511564000044018,True,16
27M22,325,experiment,19,↓,down,↓,0.6148254999425262,True,16
27M22,326,experiment,58,←,left,←,0.4874157999875024,True,16
27M22,327,experiment,37,↑,up,↑,0.5793343000113964,True,16
27M22,328,experiment,28,←,left,←,0.48215980001259595,True,16
27M22,329,experiment,13,←,left,←,0.5019120000069961,True,16
27M22,330,experiment,45,↑,up,↑,0.40024310001172125,True,16
27M22,331,experiment,35,↑,right,→,0.6920198000734672,False,16
27M22,332,experiment,32,→,right,→,0.6032094000838697,True,16
27M22,333,experiment,40,↑,up,↑,0.896578700048849,True,16
27M22,334,experiment,47,↑,left,←,0.7579136999556795,False,16
27M22,335,experiment,14,↑,up,↑,0.5748800999717787,True,16
27M22,336,experiment,54,↓,down,↓,0.6998573000309989,True,16
27M22,337,experiment,55,↑,up,↑,0.5632675000233576,True,16
27M22,338,experiment,22,↑,up,↑,0.39990180009044707,True,16
27M22,339,experiment,60,←,left,←,0.5500706000020728,True,16
27M22,340,experiment,26,→,right,→,0.6066191999707371,True,16
27M22,341,training,32,→,right,→,0.46601179998833686,True,16
27M22,342,training,15,→,right,→,0.8854578000027686,True,16
27M22,343,experiment,48,←,left,←,0.4982120000058785,True,16
27M22,344,experiment,41,↓,down,↓,0.562887099920772,True,16
27M22,345,experiment,56,↑,up,↑,0.5435041000600904,True,16
27M22,346,experiment,53,↓,down,↓,0.7031754000345245,True,16
27M22,347,experiment,39,↓,down,↓,0.8246637999545783,True,16
27M22,348,experiment,50,←,left,←,0.36731629993300885,True,16
27M22,349,experiment,46,←,left,←,0.4645165998954326,True,16
27M22,350,experiment,33,↑,up,↑,0.40090739994775504,True,16
27M22,351,experiment,60,↓,down,↓,0.6394718999508768,True,16
27M22,352,experiment,23,→,right,→,0.5668396999826655,True,16
27M22,353,experiment,21,→,right,→,0.6338149000657722,True,16
27M22,354,experiment,29,←,left,←,0.5571377000305802,True,16
27M22,355,experiment,51,↓,down,↓,0.4614645999390632,True,16
27M22,356,experiment,35,←,left,←,0.5081219999119639,True,16
27M22,357,experiment,45,↑,up,↑,0.47571270004846156,True,16
27M22,358,experiment,57,←,left,←,0.9612232999643311,True,16
27M22,359,experiment,37,→,right,→,0.5706990000326186,True,16
27M22,360,experiment,17,↓,down,↓,0.5604716000379995,True,16
27M22,361,experiment,58,←,left,←,0.5558299999684095,True,16
27M22,362,experiment,16,←,left,←,0.48321740003302693,True,16
27M22,363,experiment,18,↑,up,↑,0.4597596999956295,True,16
27M22,364,experiment,22,↓,down,↓,0.9632599999895319,True,16
27M22,365,experiment,15,↑,up,↑,0.4424243000103161,True,16
27M22,366,experiment,52,↑,up,↑,0.4540481000440195,True,16
27M22,367,experiment,32,→,right,→,0.5825646000448614,True,16
27M22,368,experiment,34,←,left,←,0.560682800016366,True,16
27M22,369,experiment,47,←,left,←,0.46719240001402795,True,16
27M22,370,experiment,40,←,left,←,0.4701954999472946,True,16
27M22,371,experiment,28,→,right,→,0.5524054999696091,True,16
27M22,372,experiment,54,←,left,←,0.527967800037004,True,16
27M22,373,experiment,43,←,left,←,0.4694169000722468,True,16
27M22,374,experiment,30,←,left,←,0.46260039997287095,True,16
27M22,375,experiment,14,↓,down,↓,0.6831504999427125,True,16
27M22,376,experiment,27,↓,down,↓,0.5019891000119969,True,16
27M22,377,experiment,13,→,right,→,0.5370694000739604,True,16
27M22,378,experiment,25,←,left,←,0.6031019000802189,True,16
27M22,379,experiment,38,↑,up,↑,0.6180456000147387,True,16
27M22,380,experiment,59,↓,down,↓,0.7220888999290764,True,16
27M22,381,experiment,31,↓,down,↓,0.4565159999765456,True,16
27M22,382,experiment,55,↓,down,↓,1.1061347000068054,True,16
27M22,383,experiment,26,↓,down,↓,0.7404802000382915,True,16
27M22,384,experiment,19,←,left,←,0.9623894999967888,True,16
27M22,385,experiment,49,↓,down,↓,0.5318333000177518,True,16
27M22,386,experiment,44,↓,down,↓,0.4573474999051541,True,16
27M22,387,experiment,36,↑,up,↑,0.6073838999727741,True,16
27M22,388,experiment,42,→,right,→,0.6434913000557572,True,16
27M22,389,experiment,20,→,right,→,0.5006392999785021,True,16
27M22,390,experiment,24,↓,down,↓,0.5605602000141516,True,16
27M22,391,training,29,↑,up,↑,0.4910828999709338,True,15
27M22,392,training,16,←,left,←,0.4932404001010582,True,15
27M22,393,experiment,30,→,right,→,0.4457503000739962,True,15
27M22,394,experiment,29,←,left,←,0.48135220003314316,True,15
27M22,395,experiment,60,↑,up,↑,0.965685399947688,True,15
27M22,396,experiment,37,↓,down,↓,0.5587600000435486,True,15
27M22,397,experiment,19,→,left,←,0.483997100032866,False,15
27M22,398,experiment,28,↑,up,↑,0.43015169992577285,True,15
27M22,399,experiment,17,↓,down,↓,0.5770892000291497,True,15
27M22,400,experiment,50,↓,down,↓,0.6410779000725597,True,15
27M22,401,experiment,56,↑,up,↑,0.5225440000649542,True,15
27M22,402,experiment,36,↑,up,↑,0.6699680000310764,True,15
27M22,403,experiment,25,→,right,→,0.5466451999964193,True,15
27M22,404,experiment,23,↓,down,↓,0.6131573999300599,True,15
27M22,405,experiment,55,↓,down,↓,0.4485685999970883,True,15
27M22,406,experiment,42,↓,down,↓,0.46633900003507733,True,15
27M22,407,experiment,26,←,left,←,0.5183717999607325,True,15
27M22,408,experiment,35,↑,up,↑,0.4985924999928102,True,15
27M22,409,experiment,51,↑,up,↑,0.4843412999762222,True,15
27M22,410,experiment,57,↑,up,↑,0.46701839996967465,True,15
27M22,411,experiment,41,↓,left,←,1.5812051000539213,False,15
27M22,412,experiment,18,→,right,→,0.8898820999311283,True,15
27M22,413,experiment,32,←,left,←,0.4411275000311434,True,15
27M22,414,experiment,16,→,right,→,0.9093114999122918,True,15
27M22,415,experiment,46,→,right,→,0.8422578999307007,True,15
27M22,416,experiment,59,↓,down,↓,0.601640300010331,True,15
27M22,417,experiment,54,↑,up,↑,0.5255653000203893,True,15
27M22,418,experiment,20,↑,up,↑,0.8279924000380561,True,15
27M22,419,experiment,43,↑,up,↑,0.3517138999886811,True,15
27M22,420,experiment,49,↑,up,↑,0.35010469995904714,True,15
27M22,421,experiment,52,→,right,→,0.8370316999498755,True,15
27M22,422,experiment,58,←,left,←,0.49314180004876107,True,15
27M22,423,experiment,48,←,left,←,0.43366249999962747,True,15
27M22,424,experiment,33,←,left,←,0.5543718999251723,True,15
27M22,425,experiment,24,↓,down,↓,0.6121897000120953,True,15
27M22,426,experiment,21,→,right,→,0.46237700001802295,True,15
27M22,427,experiment,40,←,right,→,0.80975649994798,False,15
27M22,428,experiment,45,→,right,→,0.49150869995355606,True,15
27M22,429,experiment,38,↑,down,↓,0.6631868000840768,False,15
27M22,430,experiment,13,↓,down,↓,0.4436136999865994,True,15
27M22,431,experiment,44,↑,left,←,0.8368403000058606,False,15
27M22,432,experiment,34,↓,down,↓,0.38398749998304993,True,15
27M22,433,experiment,53,↓,right,→,0.6898241000017151,False,15
27M22,434,experiment,47,↓,down,↓,0.5589362001046538,True,15
27M22,435,experiment,31,←,left,←,0.5165480000432581,True,15
27M22,436,experiment,27,←,left,←,0.565935599966906,True,15
27M22,437,experiment,14,→,right,→,0.4375227999407798,True,15
27M22,438,experiment,39,↓,down,↓,0.5062558999052271,True,15
27M22,439,experiment,15,↑,up,↑,0.5724811999825761,True,15
27M22,440,experiment,22,←,left,←,0.5190270999446511,True,15
27M22,441,training,57,→,right,→,0.568953900015913,True,15
27M22,442,training,13,↓,down,↓,0.4898230000399053,True,15
27M22,443,experiment,31,↓,down,↓,0.38365109998267144,True,15
27M22,444,experiment,29,↑,up,↑,0.4382824999047443,True,15
27M22,445,experiment,37,↓,down,↓,0.5325746999587864,True,15
27M22,446,experiment,28,↑,up,↑,1.0602249999064952,True,15
27M22,447,experiment,23,←,left,←,0.906986799906008,True,15
27M22,448,experiment,43,↑,up,↑,0.5462030000053346,True,15
27M22,449,experiment,16,↑,up,↑,0.6741884999210015,True,15
27M22,450,experiment,45,↑,up,↑,0.4176823999732733,True,15
27M22,451,experiment,47,←,left,←,0.4410860000643879,True,15
27M22,452,experiment,41,→,left,←,0.3507054999936372,False,15
27M22,453,experiment,49,→,right,→,0.5091532000806183,True,15
27M22,454,experiment,33,↓,down,↓,0.6271185999503359,True,15
27M22,455,experiment,60,←,left,←,0.6743919999571517,True,15
27M22,456,experiment,42,↓,down,↓,0.6995672000339255,True,15
27M22,457,experiment,20,→,right,→,0.5384961001109332,True,15
27M22,458,experiment,59,→,right,→,0.5495951999910176,True,15
27M22,459,experiment,36,↑,up,↑,0.5599123999709263,True,15
27M22,460,experiment,48,↑,up,↑,0.8097167999949306,True,15
27M22,461,experiment,13,↑,up,↑,0.4490055999485776,True,15
27M22,462,experiment,44,→,right,→,0.4339617999503389,True,15
27M22,463,experiment,14,←,left,←,0.5511104000033811,True,15
27M22,464,experiment,58,↑,up,↑,0.5621280999621376,True,15
27M22,465,experiment,46,→,right,→,0.5574937000637874,True,15
27M22,466,experiment,38,↑,up,↑,0.4545299999881536,True,15
27M22,467,experiment,32,↑,up,↑,0.7828305999282748,True,15
27M22,468,experiment,18,←,left,←,0.4517401000484824,True,15
27M22,469,experiment,40,↑,up,↑,0.5671118000755087,True,15
27M22,470,experiment,55,→,right,→,0.4438393000746146,True,15
27M22,471,experiment,57,↑,up,↑,0.460400199983269,True,15
27M22,472,experiment,15,←,left,←,0.5044525000266731,True,15
27M22,473,experiment,30,→,right,→,0.4964166999561712,True,15
27M22,474,experiment,35,←,left,←,0.3509358000010252,True,15
27M22,475,experiment,19,←,left,←,0.5703530999599025,True,15
27M22,476,experiment,25,↑,up,↑,0.4429261999903247,True,15
27M22,477,experiment,34,→,right,→,0.5069024000549689,True,15
27M22,478,experiment,54,↑,up,↑,0.3508333000354469,True,15
27M22,479,experiment,39,↑,up,↑,0.42625609994865954,True,15
27M22,480,experiment,22,←,left,←,0.4583725999109447,True,15
27M22,481,experiment,24,→,right,→,0.800356800085865,True,15
27M22,482,experiment,51,→,up,↑,0.5820403000107035,False,15
27M22,483,experiment,17,→,right,→,0.571452199947089,True,15
27M22,484,experiment,53,←,left,←,0.5134828999871388,True,15
27M22,485,experiment,26,↑,up,↑,0.49956080003175884,True,15
27M22,486,experiment,52,←,left,←,0.6130457000108436,True,15
27M22,487,experiment,27,←,left,←,0.4348657999653369,True,15
27M22,488,experiment,21,→,right,→,0.5236967999953777,True,15
27M22,489,experiment,50,←,left,←,1.0454545998945832,True,15
27M22,490,experiment,56,←,left,←,0.48682130000088364,True,15
27M22,491,training,53,↑,up,↑,0.4523774000117555,True,15
27M22,492,training,60,↑,up,↑,0.41816830006428063,True,15
27M22,493,experiment,26,←,left,←,0.519370699999854,True,15
27M22,494,experiment,18,↑,up,↑,0.5110101000173017,True,15
27M22,495,experiment,58,→,right,→,0.5002782000228763,True,15
27M22,496,experiment,27,→,right,→,0.4782431999919936,True,15
27M22,497,experiment,36,↓,down,↓,0.579542399966158,True,15
27M22,498,experiment,20,↓,down,↓,0.5193767000455409,True,15
27M22,499,experiment,22,←,left,←,0.443961999961175,True,15
27M22,500,experiment,33,→,right,→,0.4846587999491021,True,15
27M22,501,experiment,24,↓,down,↓,0.6013882999541238,True,15
27M22,502,experiment,34,↑,up,↑,0.5067112999968231,True,15
27M22,503,experiment,31,→,right,→,0.5860660000471398,True,15
27M22,504,experiment,38,→,right,→,0.4494082999881357,True,15
27M22,505,experiment,43,←,left,←,0.5068966000108048,True,15
27M22,506,experiment,49,↓,down,↓,0.5343804999720305,True,15
27M22,507,experiment,47,←,left,←,0.5537180000683293,True,15
27M22,508,experiment,39,↓,down,↓,0.48953849996905774,True,15
27M22,509,experiment,14,←,left,←,0.4929845000151545,True,15
27M22,510,experiment,17,←,left,←,0.5582929999800399,True,15
27M22,511,experiment,19,↓,down,↓,0.5873375999508426,True,15
27M22,512,experiment,29,→,right,→,0.6168915999587625,True,15
27M22,513,experiment,28,→,right,→,0.5495663000037894,True,15
27M22,514,experiment,57,→,right,→,0.5215990000870079,True,15
27M22,515,experiment,55,↑,up,↑,0.616212600027211,True,15
27M22,516,experiment,46,←,left,←,0.6966303999070078,True,15
27M22,517,experiment,59,↑,up,↑,0.5333847000729293,True,15
27M22,518,experiment,42,↑,up,↑,0.48431840003468096,True,15
27M22,519,experiment,21,←,left,←,0.5387056999607012,True,15
27M22,520,experiment,56,←,left,←,0.6081378000089899,True,15
27M22,521,experiment,53,←,left,←,0.5088677000021562,True,15
27M22,522,experiment,48,←,left,←,0.71328300004825,True,15
27M22,523,experiment,23,↑,up,↑,0.517326399916783,True,15
27M22,524,experiment,15,↑,up,↑,0.4466461999109015,True,15
27M22,525,experiment,54,←,left,←,0.5926949999993667,True,15
27M22,526,experiment,37,↑,up,↑,0.9131138999946415,True,15
27M22,527,experiment,41,→,right,→,0.4975828999886289,True,15
27M22,528,experiment,13,↓,up,↑,0.5966193999629468,False,15
27M22,529,experiment,50,→,right,→,0.6755448000039905,True,15
27M22,530,experiment,16,→,right,→,0.5019491000566632,True,15
27M22,531,experiment,35,↑,up,↑,0.6426806000526994,True,15
27M22,532,experiment,32,→,left,←,0.6680824999930337,False,15
27M22,533,experiment,51,←,left,←,0.879527699900791,True,15
27M22,534,experiment,44,↑,up,↑,0.4875515999738127,True,15
27M22,535,experiment,45,←,left,←,0.5181805000174791,True,15
27M22,536,experiment,30,←,left,←,0.4615096999332309,True,15
27M22,537,experiment,52,→,right,→,0.4248042000690475,True,15
27M22,538,experiment,25,→,right,→,0.4707420999184251,True,15
27M22,539,experiment,40,←,left,←,0.5292768999934196,True,15
27M22,540,experiment,60,←,right,→,0.49267609999515116,False,15
27M22,541,training,24,↑,up,↑,0.45258259994443506,True,15
27M22,542,training,40,↑,up,↑,1.024296100018546,True,15
27M22,543,experiment,49,↓,down,↓,0.6145868999883533,True,15
27M22,544,experiment,35,↑,up,↑,0.5026074999477714,True,15
27M22,545,experiment,14,↓,down,↓,0.5532913999632001,True,15
27M22,546,experiment,41,↓,down,↓,0.6879813000559807,True,15
27M22,547,experiment,48,↓,down,↓,0.4765673999208957,True,15
27M22,548,experiment,43,↓,down,↓,0.6292484999867156,True,15
27M22,549,experiment,56,↑,up,↑,0.8234490000177175,True,15
27M22,550,experiment,17,↓,down,↓,0.651378000038676,True,15
27M22,551,experiment,36,←,left,←,0.57772699999623,True,15
27M22,552,experiment,34,→,right,→,0.8681481999810785,True,15
27M22,553,experiment,32,←,left,←,0.8122078999876976,True,15
27M22,554,experiment,16,↓,down,↓,0.6655251000775024,True,15
27M22,555,experiment,18,←,left,←,0.562568899942562,True,15
27M22,556,experiment,28,→,right,→,0.41865789995063096,True,15
27M22,557,experiment,21,←,left,←,0.5066335999872535,True,15
27M22,558,experiment,33,↑,up,↑,0.8248442999320105,True,15
27M22,559,experiment,23,↓,down,↓,0.6008091000840068,True,15
27M22,560,experiment,15,→,right,→,0.622802900034003,True,15
27M22,561,experiment,24,↑,up,↑,0.5020545999286696,True,15
27M22,562,experiment,57,↑,up,↑,0.5558598999632522,True,15
27M22,563,experiment,50,↓,down,↓,0.4845068999566138,True,15
27M22,564,experiment,55,←,left,←,0.4766053000930697,True,15
27M22,565,experiment,39,↓,down,↓,0.640168400015682,True,15
27M22,566,experiment,60,←,left,←,0.526610300061293,True,15
27M22,567,experiment,38,→,right,→,0.43327030004002154,True,15
27M22,568,experiment,44,↓,down,↓,0.5621272000716999,True,15
27M22,569,experiment,25,↑,up,↑,0.4911717000650242,True,15
27M22,570,experiment,58,←,left,←,0.38394079997669905,True,15
27M22,571,experiment,27,←,right,→,0.8712184000760317,False,15
27M22,572,experiment,47,↑,up,↑,0.5013117999769747,True,15
27M22,573,experiment,53,←,left,←,0.38322670001070946,True,15
27M22,574,experiment,42,↑,up,↑,0.49674750003032386,True,15
27M22,575,experiment,31,↓,down,↓,0.4959171999944374,True,15
27M22,576,experiment,30,→,right,→,0.5445706000318751,True,15
27M22,577,experiment,22,↓,down,↓,0.5244404000695795,True,15
27M22,578,experiment,52,→,right,→,0.5412921000970528,True,15
27M22,579,experiment,19,←,left,←,0.507177900057286,True,15
27M22,580,experiment,29,↑,up,↑,0.4679846999933943,True,15
27M22,581,experiment,45,→,right,→,0.47516589995939285,True,15
27M22,582,experiment,46,↑,up,↑,0.545932799926959,True,15
27M22,583,experiment,40,←,left,←,0.714066700078547,True,15
27M22,584,experiment,59,→,right,→,0.5508920000866055,True,15
27M22,585,experiment,26,↑,up,↑,0.46249060006812215,True,15
27M22,586,experiment,13,←,left,←,0.5558793999953195,True,15
27M22,587,experiment,54,←,left,←,0.6018021999625489,True,15
27M22,588,experiment,37,→,right,→,0.4974870999576524,True,15
27M22,589,experiment,20,↓,down,↓,0.4958078000927344,True,15
27M22,590,experiment,51,→,right,→,0.42668689996935427,True,15
