PART_ID,Trial_no,Trial_type,CSI,Stim_letter,Key_pressed,letter_choose,Rt,Corr,Stimulus Time
29M20,1,training,60,→,no_key,no_letter,-1.0,False,30
29M20,2,training,60,↑,up,↑,0.6330615999759175,True,30
29M20,3,training,60,→,no_key,no_letter,-1.0,False,30
29M20,4,training,60,→,right,→,0.8227646999876015,True,30
29M20,5,training,60,←,left,←,0.7191487000091001,True,30
29M20,6,training,60,↓,down,↓,0.8837319000158459,True,30
29M20,7,training,60,↑,up,↑,0.6162884999648668,True,30
29M20,8,training,60,←,left,←,0.5501029000151902,True,30
29M20,9,training,60,↑,no_key,no_letter,-1.0,False,30
29M20,10,training,60,→,right,→,0.6171761000296101,True,30
29M20,11,training,60,←,no_key,no_letter,-1.0,False,30
29M20,12,training,60,↑,up,↑,0.6729719000286423,True,30
29M20,13,training,60,←,left,←,0.8300001000170596,True,30
29M20,14,training,60,→,right,→,0.6005606000544503,True,30
29M20,15,training,60,↓,down,↓,0.6003211000352167,True,30
29M20,16,training,60,↑,up,↑,0.5839579000021331,True,30
29M20,17,training,60,→,right,→,0.633908000017982,True,30
29M20,18,training,60,↓,down,↓,0.8940227000275627,True,30
29M20,19,training,60,↑,up,↑,0.7310151999699883,True,30
29M20,20,training,60,→,right,→,0.6329473999794573,True,30
29M20,21,training,60,←,left,←,0.6747182999970391,True,18
29M20,22,training,60,→,right,→,0.5204583000158891,True,18
29M20,23,training,60,↑,up,↑,0.5247305000084452,True,18
29M20,24,training,60,↓,up,↑,0.48056130000622943,False,18
29M20,25,training,60,↑,up,↑,0.5581116999965161,True,18
29M20,26,training,60,→,right,→,0.6812282999744639,True,18
29M20,27,training,60,↑,up,↑,0.5988982999697328,True,18
29M20,28,training,60,→,right,→,0.5275293999584392,True,18
29M20,29,training,60,↓,down,↓,0.6750405000057071,True,18
29M20,30,training,60,↓,down,↓,0.7054195000091568,True,18
29M20,31,training,60,→,left,←,0.8063446000451222,False,18
29M20,32,training,60,←,left,←,0.7112451000139117,True,18
29M20,33,training,60,↑,up,↑,0.6354794999933802,True,18
29M20,34,training,60,→,right,→,0.6031270999810658,True,18
29M20,35,training,60,←,left,←,0.6121622999780811,True,18
29M20,36,training,60,↑,up,↑,0.5884085000143386,True,18
29M20,37,training,60,↓,down,↓,0.629820300033316,True,18
29M20,38,training,60,↑,up,↑,0.5736652999767102,True,18
29M20,39,training,60,→,right,→,0.5598304999875836,True,18
29M20,40,training,60,↓,down,↓,0.5940730000147596,True,18
29M20,41,training,47,↓,down,↓,0.6333380000432953,True,18
29M20,42,training,22,↑,up,↑,0.6341783999814652,True,18
29M20,43,experiment,25,↓,down,↓,0.6009186999872327,True,18
29M20,44,experiment,39,↓,down,↓,0.600073900015559,True,18
29M20,45,experiment,20,←,left,←,0.5872284000506625,True,18
29M20,46,experiment,19,↑,up,↑,0.5759558000136167,True,18
29M20,47,experiment,21,→,right,→,0.5720435999683104,True,18
29M20,48,experiment,43,↓,down,↓,0.5781610999838449,True,18
29M20,49,experiment,31,↑,up,↑,0.6311659999773838,True,18
29M20,50,experiment,46,↓,down,↓,0.624140499974601,True,18
29M20,51,experiment,54,←,left,←,0.6764036000240594,True,18
29M20,52,experiment,48,→,right,→,0.43397439998807386,True,18
29M20,53,experiment,24,←,left,←,0.4182098999735899,True,18
29M20,54,experiment,34,→,right,→,0.6655753999948502,True,18
29M20,55,experiment,22,←,right,→,0.4006214000401087,False,18
29M20,56,experiment,26,→,right,→,0.5997994999634102,True,18
29M20,57,experiment,40,↑,up,↑,0.4779506000340916,True,18
29M20,58,experiment,58,→,right,→,0.5494079000200145,True,18
29M20,59,experiment,56,↓,down,↓,0.618899599998258,True,18
29M20,60,experiment,33,←,left,←,0.6288767000078224,True,18
29M20,61,experiment,30,←,left,←,0.6171731000067666,True,18
29M20,62,experiment,37,→,right,→,0.568793700018432,True,18
29M20,63,experiment,15,→,right,→,0.5846040999749675,True,18
29M20,64,experiment,41,→,right,→,0.6469828999834135,True,18
29M20,65,experiment,28,↓,down,↓,0.5550225999904796,True,18
29M20,66,experiment,17,↓,down,↓,0.7784871999756433,True,18
29M20,67,experiment,60,↑,up,↑,0.6849998999969102,True,18
29M20,68,experiment,35,→,right,→,0.6671067000133917,True,18
29M20,69,experiment,32,↑,up,↑,0.6759708999888971,True,18
29M20,70,experiment,49,←,left,←,0.6417740999604575,True,18
29M20,71,experiment,13,←,left,←,0.7923443000181578,True,18
29M20,72,experiment,51,↓,down,↓,0.6801192000275478,True,18
29M20,73,experiment,53,↓,down,↓,0.7391291999956593,True,18
29M20,74,experiment,23,↑,up,↑,0.5834052000427619,True,18
29M20,75,experiment,16,→,right,→,0.5341113999602385,True,18
29M20,76,experiment,38,←,left,←,0.5844739000312984,True,18
29M20,77,experiment,14,←,left,←,0.6721565999905579,True,18
29M20,78,experiment,59,↑,up,↑,0.6074535000370815,True,18
29M20,79,experiment,50,↓,down,↓,0.6229641999816522,True,18
29M20,80,experiment,52,←,left,←,0.524663399963174,True,18
29M20,81,experiment,47,←,left,←,0.4815385999972932,True,18
29M20,82,experiment,36,←,left,←,0.5751340000424534,True,18
29M20,83,experiment,42,←,left,←,0.6293135000159964,True,18
29M20,84,experiment,45,↑,up,↑,0.526971900020726,True,18
29M20,85,experiment,27,→,right,→,0.705212400003802,True,18
29M20,86,experiment,44,↓,down,↓,0.568747200013604,True,18
29M20,87,experiment,18,↓,down,↓,0.5347515000030398,True,18
29M20,88,experiment,29,←,left,←,1.2468886999995448,True,18
29M20,89,experiment,57,↓,down,↓,0.5761846000095829,True,18
29M20,90,experiment,55,↓,down,↓,0.6379802000010386,True,18
29M20,91,training,60,→,right,→,0.5856364000355825,True,17
29M20,92,training,43,→,right,→,0.5265421999501996,True,17
29M20,93,experiment,24,→,right,→,0.4905594000010751,True,17
29M20,94,experiment,53,→,right,→,0.5408382999594323,True,17
29M20,95,experiment,56,↑,up,↑,0.6278011999675073,True,17
29M20,96,experiment,58,↓,down,↓,0.5489516999805346,True,17
29M20,97,experiment,49,→,right,→,0.5192637000000104,True,17
29M20,98,experiment,51,↑,up,↑,0.6896342000109144,True,17
29M20,99,experiment,20,←,no_key,no_letter,-1.0,False,17
29M20,100,experiment,31,↑,up,↑,0.46469790005357936,True,17
29M20,101,experiment,26,→,right,→,0.637601500027813,True,17
29M20,102,experiment,46,↓,down,↓,0.5423596000182442,True,17
29M20,103,experiment,35,←,left,←,0.6343047999544069,True,17
29M20,104,experiment,52,↑,up,↑,0.5353339000139385,True,17
29M20,105,experiment,17,↑,up,↑,0.5914415000006557,True,17
29M20,106,experiment,50,→,right,→,0.5837186999851838,True,17
29M20,107,experiment,14,→,left,←,0.5197039000340737,False,17
29M20,108,experiment,13,↓,down,↓,0.6191004000138491,True,17
29M20,109,experiment,54,→,right,→,0.6794729999965057,True,17
29M20,110,experiment,23,↓,up,↑,1.2775084000313655,False,17
29M20,111,experiment,21,↑,up,↑,0.5741392999771051,True,17
29M20,112,experiment,42,↑,up,↑,0.5721412000129931,True,17
29M20,113,experiment,32,→,right,→,0.5770088999997824,True,17
29M20,114,experiment,34,↓,down,↓,0.7165632999967784,True,17
29M20,115,experiment,30,←,left,←,0.6447358999866992,True,17
29M20,116,experiment,18,←,right,→,0.6721323999809101,False,17
29M20,117,experiment,27,↑,up,↑,1.1323940999573097,True,17
29M20,118,experiment,43,↑,no_key,no_letter,-1.0,False,17
29M20,119,experiment,44,↓,down,↓,0.5940820999676362,True,17
29M20,120,experiment,33,↓,down,↓,0.7018347999546677,True,17
29M20,121,experiment,25,→,left,←,0.6814771999488585,False,17
29M20,122,experiment,22,↓,down,↓,0.7282972999964841,True,17
29M20,123,experiment,57,↓,down,↓,0.694689899974037,True,17
29M20,124,experiment,38,↑,down,↓,0.7231751999934204,False,17
29M20,125,experiment,45,↓,down,↓,0.8172749999794178,True,17
29M20,126,experiment,39,←,left,←,0.5598685999866575,True,17
29M20,127,experiment,15,↑,down,↓,0.8722838999819942,False,17
29M20,128,experiment,36,←,left,←,0.574704299971927,True,17
29M20,129,experiment,41,↓,down,↓,0.5257570999674499,True,17
29M20,130,experiment,47,→,right,→,0.6264574999804609,True,17
29M20,131,experiment,28,↑,down,↓,0.6000716999988072,False,17
29M20,132,experiment,48,→,right,→,0.480890900013037,True,17
29M20,133,experiment,29,→,left,←,0.7070723000215366,False,17
29M20,134,experiment,40,←,left,←,0.5973460000241175,True,17
29M20,135,experiment,59,↓,down,↓,0.5591472999658436,True,17
29M20,136,experiment,60,←,left,←,0.5140958999982104,True,17
29M20,137,experiment,16,↑,up,↑,0.7237160999793559,True,17
29M20,138,experiment,19,←,left,←,0.7068770999903791,True,17
29M20,139,experiment,37,↑,up,↑,0.5351589999627322,True,17
29M20,140,experiment,55,↓,down,↓,0.5423188999993727,True,17
29M20,141,training,18,↓,down,↓,0.6420206999755464,True,17
29M20,142,training,57,←,left,←,0.6277314000180922,True,17
29M20,143,experiment,29,↑,up,↑,0.6485797000350431,True,17
29M20,144,experiment,53,←,left,←,0.7243146999971941,True,17
29M20,145,experiment,37,↓,down,↓,0.5920515999896452,True,17
29M20,146,experiment,28,←,left,←,0.471615299989935,True,17
29M20,147,experiment,46,→,right,→,0.470203600008972,True,17
29M20,148,experiment,25,←,left,←,0.8275777999660932,True,17
29M20,149,experiment,27,↓,no_key,no_letter,-1.0,False,17
29M20,150,experiment,57,↓,down,↓,0.5355877000256442,True,17
29M20,151,experiment,18,↑,up,↑,0.5028827000060119,True,17
29M20,152,experiment,24,→,right,→,0.5796905000461265,True,17
29M20,153,experiment,23,←,left,←,0.5578126999898814,True,17
29M20,154,experiment,31,←,left,←,0.6041161000030115,True,17
29M20,155,experiment,22,→,right,→,0.5823087000171654,True,17
29M20,156,experiment,47,↑,up,↑,0.6005331000196747,True,17
29M20,157,experiment,36,↓,down,↓,0.6731604000087827,True,17
29M20,158,experiment,16,↓,down,↓,0.6448011000175029,True,17
29M20,159,experiment,35,→,right,→,0.5327465000445955,True,17
29M20,160,experiment,41,↓,down,↓,0.5649933000095189,True,17
29M20,161,experiment,14,→,right,→,0.6456536999903619,True,17
29M20,162,experiment,40,↑,up,↑,0.5705926999798976,True,17
29M20,163,experiment,45,→,right,→,0.614803500007838,True,17
29M20,164,experiment,59,↓,down,↓,1.2879044000292197,True,17
29M20,165,experiment,33,→,left,←,0.5998307000263594,False,17
29M20,166,experiment,48,↑,up,↑,0.5447201000060886,True,17
29M20,167,experiment,43,↓,down,↓,0.543686399993021,True,17
29M20,168,experiment,38,↓,down,↓,0.5298324999748729,True,17
29M20,169,experiment,13,↓,down,↓,0.7731507999706082,True,17
29M20,170,experiment,52,→,right,→,0.8689327000174671,True,17
29M20,171,experiment,49,↓,down,↓,0.5946827000007033,True,17
29M20,172,experiment,58,→,right,→,0.5657496000058018,True,17
29M20,173,experiment,15,↓,down,↓,0.6218061999534257,True,17
29M20,174,experiment,26,→,right,→,0.5006770999752916,True,17
29M20,175,experiment,39,←,left,←,0.4874269000138156,True,17
29M20,176,experiment,17,↑,right,→,0.7934099999838509,False,17
29M20,177,experiment,30,→,right,→,0.5830464000464417,True,17
29M20,178,experiment,19,←,left,←,0.49973209999734536,True,17
29M20,179,experiment,44,←,left,←,0.5153028000495397,True,17
29M20,180,experiment,32,↓,down,↓,0.6181120999972336,True,17
29M20,181,experiment,21,←,left,←,0.6362408999702893,True,17
29M20,182,experiment,56,↓,down,↓,1.0465417000232264,True,17
29M20,183,experiment,55,→,right,→,0.6011139999609441,True,17
29M20,184,experiment,51,←,left,←,0.664658399997279,True,17
29M20,185,experiment,34,↓,down,↓,0.5198108000331558,True,17
29M20,186,experiment,50,→,right,→,0.5066918000229634,True,17
29M20,187,experiment,42,↓,down,↓,0.5635121999657713,True,17
29M20,188,experiment,54,←,left,←,0.6499687999603339,True,17
29M20,189,experiment,60,←,left,←,0.728939900000114,True,17
29M20,190,experiment,20,↓,up,↑,0.7517716000438668,False,17
29M20,191,training,44,↓,down,↓,0.5665786999743432,True,16
29M20,192,training,50,→,left,←,0.47944909997750074,False,16
29M20,193,experiment,13,↓,down,↓,0.6600230999756604,True,16
29M20,194,experiment,17,↓,down,↓,0.5114857999724336,True,16
29M20,195,experiment,42,↑,up,↑,0.47231009998358786,True,16
29M20,196,experiment,29,→,right,→,0.6111568000051193,True,16
29M20,197,experiment,23,↑,up,↑,0.4685962999938056,True,16
29M20,198,experiment,41,←,left,←,0.47144670004490763,True,16
29M20,199,experiment,33,↓,down,↓,0.5115823000087403,True,16
29M20,200,experiment,45,←,no_key,no_letter,-1.0,False,16
29M20,201,experiment,22,←,left,←,0.45992600003955886,True,16
29M20,202,experiment,31,←,left,←,0.43881829996826127,True,16
29M20,203,experiment,27,→,no_key,no_letter,-1.0,False,16
29M20,204,experiment,24,↑,up,↑,0.4868610000121407,True,16
29M20,205,experiment,34,↓,left,←,0.6695510999998078,False,16
29M20,206,experiment,55,→,right,→,0.8313375999568962,True,16
29M20,207,experiment,44,→,left,←,0.7136537000187673,False,16
29M20,208,experiment,43,←,left,←,0.713277000002563,True,16
29M20,209,experiment,37,→,right,→,0.732940099958796,True,16
29M20,210,experiment,26,↓,down,↓,0.6630876999697648,True,16
29M20,211,experiment,57,←,left,←,0.6155030999798328,True,16
29M20,212,experiment,18,←,left,←,0.6755958000430837,True,16
29M20,213,experiment,30,↑,up,↑,0.6140096000162885,True,16
29M20,214,experiment,49,↑,up,↑,0.6294019999913871,True,16
29M20,215,experiment,25,←,left,←,0.5644870000542141,True,16
29M20,216,experiment,38,↑,up,↑,0.5651651999796741,True,16
29M20,217,experiment,50,→,right,→,0.6063236999907531,True,16
29M20,218,experiment,21,→,up,↑,0.8010816999594681,False,16
29M20,219,experiment,14,→,right,→,0.6885296000400558,True,16
29M20,220,experiment,59,←,left,←,0.502708200016059,True,16
29M20,221,experiment,20,←,left,←,0.5983008000184782,True,16
29M20,222,experiment,28,↓,up,↑,0.5642573000513949,False,16
29M20,223,experiment,36,→,left,←,0.5904349000193179,False,16
29M20,224,experiment,54,→,right,→,0.7323067000252195,True,16
29M20,225,experiment,40,←,left,←,0.6050564000033773,True,16
29M20,226,experiment,52,↑,up,↑,0.6037011999869719,True,16
29M20,227,experiment,48,↑,up,↑,0.6366465999744833,True,16
29M20,228,experiment,58,→,right,→,0.7016043000039645,True,16
29M20,229,experiment,16,↑,up,↑,0.6635625000344589,True,16
29M20,230,experiment,19,↓,down,↓,0.6810620999895036,True,16
29M20,231,experiment,56,→,right,→,0.6094045999925584,True,16
29M20,232,experiment,60,↑,up,↑,0.7001204999978654,True,16
29M20,233,experiment,35,↓,down,↓,0.6320180000038818,True,16
29M20,234,experiment,53,→,right,→,0.6604245000053197,True,16
29M20,235,experiment,32,→,right,→,0.7259953000466339,True,16
29M20,236,experiment,15,↓,down,↓,0.6560849000234157,True,16
29M20,237,experiment,51,→,right,→,0.6370834999834187,True,16
29M20,238,experiment,39,→,left,←,1.1466990999761038,False,16
29M20,239,experiment,46,←,left,←,1.0633129999623634,True,16
29M20,240,experiment,47,↓,down,↓,0.5424031000002287,True,16
29M20,241,training,32,→,right,→,0.6026457999832928,True,16
29M20,242,training,55,←,left,←,0.6870718999998644,True,16
29M20,243,experiment,52,↑,up,↑,0.7781528999912553,True,16
29M20,244,experiment,39,→,right,→,0.5383289000019431,True,16
29M20,245,experiment,51,→,right,→,0.6200110999634489,True,16
29M20,246,experiment,40,←,left,←,0.6095641999854706,True,16
29M20,247,experiment,55,↓,down,↓,0.6139691999997012,True,16
29M20,248,experiment,31,↑,up,↑,0.5853889000136405,True,16
29M20,249,experiment,47,→,right,→,0.4518684000358917,True,16
29M20,250,experiment,36,↓,down,↓,0.5784946999629028,True,16
29M20,251,experiment,45,←,left,←,0.6866840000147931,True,16
29M20,252,experiment,18,↑,down,↓,0.7043230999843217,False,16
29M20,253,experiment,58,←,left,←,0.6309523000381887,True,16
29M20,254,experiment,41,↑,no_key,no_letter,-1.0,False,16
29M20,255,experiment,37,→,right,→,0.5265130000188947,True,16
29M20,256,experiment,50,←,right,→,0.6173927999916486,False,16
29M20,257,experiment,33,↑,up,↑,0.5159079000004567,True,16
29M20,258,experiment,60,→,right,→,0.5122700000065379,True,16
29M20,259,experiment,46,→,left,←,0.7822447000071406,False,16
29M20,260,experiment,17,↓,down,↓,0.6043423000373878,True,16
29M20,261,experiment,20,→,right,→,0.671744299994316,True,16
29M20,262,experiment,34,→,right,→,0.5594235000316985,True,16
29M20,263,experiment,16,↑,up,↑,0.5595588999567553,True,16
29M20,264,experiment,54,↓,down,↓,0.5186159000149928,True,16
29M20,265,experiment,32,→,right,→,0.5011505999718793,True,16
29M20,266,experiment,25,↑,up,↑,0.5533950999961235,True,16
29M20,267,experiment,28,↑,up,↑,0.6333255000063218,True,16
29M20,268,experiment,43,↑,up,↑,0.5003334000357427,True,16
29M20,269,experiment,26,↑,up,↑,0.5358261000365019,True,16
29M20,270,experiment,49,←,left,←,0.5706983999698423,True,16
29M20,271,experiment,24,←,left,←,0.892732500040438,True,16
29M20,272,experiment,22,→,right,→,0.6519535999977961,True,16
29M20,273,experiment,14,→,right,→,0.7850462999776937,True,16
29M20,274,experiment,30,↑,up,↑,0.5426582000218332,True,16
29M20,275,experiment,21,↑,up,↑,0.9079663999727927,True,16
29M20,276,experiment,19,→,right,→,0.612284799979534,True,16
29M20,277,experiment,56,→,left,←,1.0479707000195049,False,16
29M20,278,experiment,38,↓,down,↓,0.677682299981825,True,16
29M20,279,experiment,48,←,left,←,0.8441085999947973,True,16
29M20,280,experiment,15,↓,down,↓,0.6899220999912359,True,16
29M20,281,experiment,29,↑,up,↑,0.5477560000144877,True,16
29M20,282,experiment,44,↓,up,↑,1.025342200009618,False,16
29M20,283,experiment,59,←,left,←,0.5871282999869436,True,16
29M20,284,experiment,42,→,right,→,0.8241481000441127,True,16
29M20,285,experiment,23,↑,down,↓,0.8650043000234291,False,16
29M20,286,experiment,35,→,up,↑,1.1759605999686755,False,16
29M20,287,experiment,13,↓,down,↓,0.7056553000002168,True,16
29M20,288,experiment,27,→,right,→,0.9164626999991015,True,16
29M20,289,experiment,53,←,left,←,0.6376550000277348,True,16
29M20,290,experiment,57,↑,up,↑,0.5433601000113413,True,16
29M20,291,training,29,↑,up,↑,0.5542853000224568,True,16
29M20,292,training,52,←,left,←,0.5944753000512719,True,16
29M20,293,experiment,53,→,right,→,0.6090111000230536,True,16
29M20,294,experiment,23,←,left,←,0.6102190000237897,True,16
29M20,295,experiment,26,↓,down,↓,0.6417168999905698,True,16
29M20,296,experiment,34,↓,down,↓,0.6265052999951877,True,16
29M20,297,experiment,30,→,right,→,0.5669090999872424,True,16
29M20,298,experiment,44,→,right,→,0.5715953000471927,True,16
29M20,299,experiment,24,→,right,→,0.6617106999619864,True,16
29M20,300,experiment,47,→,right,→,0.6213526999927126,True,16
29M20,301,experiment,19,→,right,→,0.6569442999898456,True,16
29M20,302,experiment,60,↑,up,↑,0.5599729999667034,True,16
29M20,303,experiment,28,↑,down,↓,0.6400349999894388,False,16
29M20,304,experiment,46,→,right,→,0.5130151999765076,True,16
29M20,305,experiment,56,↓,down,↓,0.6559619000181556,True,16
29M20,306,experiment,22,→,right,→,0.6644096000236459,True,16
29M20,307,experiment,43,↓,down,↓,0.7137697999714874,True,16
29M20,308,experiment,41,↑,up,↑,0.5626835000002757,True,16
29M20,309,experiment,50,↓,down,↓,0.6517478000023402,True,16
29M20,310,experiment,16,↓,down,↓,0.631755999987945,True,16
29M20,311,experiment,32,→,right,→,0.593941500002984,True,16
29M20,312,experiment,55,↑,up,↑,0.47096219996456057,True,16
29M20,313,experiment,49,↓,down,↓,0.556478500016965,True,16
29M20,314,experiment,35,↓,down,↓,0.5440373999881558,True,16
29M20,315,experiment,42,→,right,→,0.4959141999715939,True,16
29M20,316,experiment,31,←,right,→,0.6964121999917552,False,16
29M20,317,experiment,57,←,left,←,0.6241232000174932,True,16
29M20,318,experiment,18,←,left,←,0.6927920000161976,True,16
29M20,319,experiment,29,←,left,←,0.5344172000186518,True,16
29M20,320,experiment,37,↓,down,↓,0.6173373999772593,True,16
29M20,321,experiment,21,↑,up,↑,0.5714008000213653,True,16
29M20,322,experiment,36,↓,down,↓,0.6695237000240013,True,16
29M20,323,experiment,27,←,no_key,no_letter,-1.0,False,16
29M20,324,experiment,58,←,left,←,0.5436064999666996,True,16
29M20,325,experiment,40,↑,up,↑,0.5044967000139877,True,16
29M20,326,experiment,48,→,right,→,0.4691994999884628,True,16
29M20,327,experiment,20,↓,left,←,0.7658826999831945,False,16
29M20,328,experiment,54,→,right,→,0.48423910001292825,True,16
29M20,329,experiment,33,←,right,→,0.7319048000499606,False,16
29M20,330,experiment,13,↑,up,↑,0.6624891000101343,True,16
29M20,331,experiment,52,↓,down,↓,0.5469174000318162,True,16
29M20,332,experiment,59,→,right,→,0.6868858999805525,True,16
29M20,333,experiment,14,↑,up,↑,0.4749567999970168,True,16
29M20,334,experiment,51,↑,up,↑,0.702966800017748,True,16
29M20,335,experiment,15,←,left,←,0.5855968000250868,True,16
29M20,336,experiment,17,↑,up,↑,0.6160072999773547,True,16
29M20,337,experiment,39,↓,down,↓,0.6299091999535449,True,16
29M20,338,experiment,38,↓,down,↓,0.653212400036864,True,16
29M20,339,experiment,45,←,left,←,0.534068799985107,True,16
29M20,340,experiment,25,↓,down,↓,0.5525647000176832,True,16
29M20,341,training,48,→,right,→,0.6264235000126064,True,16
29M20,342,training,29,←,left,←,0.3837941999663599,True,16
29M20,343,experiment,13,↓,down,↓,0.5831705000018701,True,16
29M20,344,experiment,30,←,left,←,0.4528506999486126,True,16
29M20,345,experiment,15,←,right,→,0.7933005999657325,False,16
29M20,346,experiment,44,←,left,←,0.4615755000268109,True,16
29M20,347,experiment,54,↑,up,↑,0.4967200999963097,True,16
29M20,348,experiment,37,↑,down,↓,0.6854336999822408,False,16
29M20,349,experiment,14,←,left,←,0.6654427000321448,True,16
29M20,350,experiment,56,↓,down,↓,0.6027704000007361,True,16
29M20,351,experiment,39,↓,down,↓,0.6096639999886975,True,16
29M20,352,experiment,22,↓,down,↓,0.45142509997822344,True,16
29M20,353,experiment,40,↓,down,↓,0.4716519000357948,True,16
29M20,354,experiment,50,↓,down,↓,0.3838285999954678,True,16
29M20,355,experiment,31,→,right,→,0.4491998999728821,True,16
29M20,356,experiment,16,→,no_key,no_letter,-1.0,False,16
29M20,357,experiment,46,→,right,→,0.6663783999974839,True,16
29M20,358,experiment,53,↓,down,↓,0.5815099999890663,True,16
29M20,359,experiment,52,←,left,←,0.401342700002715,True,16
29M20,360,experiment,60,←,no_key,no_letter,-1.0,False,16
29M20,361,experiment,59,↑,up,↑,0.5217170999967493,True,16
29M20,362,experiment,21,↓,down,↓,0.5517506000469439,True,16
29M20,363,experiment,26,↑,down,↓,0.6412156000151299,False,16
29M20,364,experiment,49,←,no_key,no_letter,-1.0,False,16
29M20,365,experiment,24,↓,down,↓,0.6202991000027396,True,16
29M20,366,experiment,47,↑,up,↑,0.6531817999784835,True,16
29M20,367,experiment,55,←,left,←,0.43953010003315285,True,16
29M20,368,experiment,42,←,left,←,0.5544558999827132,True,16
29M20,369,experiment,36,↑,no_key,no_letter,-1.0,False,16
29M20,370,experiment,58,↓,down,↓,0.5553146000020206,True,16
29M20,371,experiment,57,←,left,←,0.6163089000037871,True,16
29M20,372,experiment,19,←,left,←,0.7554458999657072,True,16
29M20,373,experiment,20,←,left,←,0.553142899996601,True,16
29M20,374,experiment,23,←,left,←,0.5562091000028886,True,16
29M20,375,experiment,45,↑,up,↑,0.44122020003851503,True,16
29M20,376,experiment,51,↑,up,↑,0.502428800042253,True,16
29M20,377,experiment,34,→,right,→,0.4923404000001028,True,16
29M20,378,experiment,27,→,right,→,0.48007350001716986,True,16
29M20,379,experiment,43,→,left,←,0.5452549000037834,False,16
29M20,380,experiment,28,→,left,←,0.6660447999602184,False,16
29M20,381,experiment,33,←,left,←,0.5302740000188351,True,16
29M20,382,experiment,17,↓,down,↓,0.6741864999639802,True,16
29M20,383,experiment,38,←,left,←,0.7752305999747477,True,16
29M20,384,experiment,25,↓,down,↓,0.49674819997744635,True,16
29M20,385,experiment,48,↑,up,↑,0.6539688999764621,True,16
29M20,386,experiment,41,↑,up,↑,0.5213441000087187,True,16
29M20,387,experiment,32,↑,down,↓,0.608341199986171,False,16
29M20,388,experiment,35,↑,no_key,no_letter,-1.0,False,16
29M20,389,experiment,18,←,left,←,0.4499330000253394,True,16
29M20,390,experiment,29,↓,left,←,0.797106200014241,False,16
29M20,391,training,13,→,right,→,0.4896705999854021,True,16
29M20,392,training,55,↑,up,↑,0.5786194000393152,True,16
29M20,393,experiment,34,↓,no_key,no_letter,-1.0,False,16
29M20,394,experiment,57,↑,up,↑,0.6125991999870166,True,16
29M20,395,experiment,38,→,right,→,0.5480537000112236,True,16
29M20,396,experiment,56,←,left,←,0.6576175999944098,True,16
29M20,397,experiment,30,↓,down,↓,0.5325578000047244,True,16
29M20,398,experiment,17,↑,up,↑,0.6446007999475114,True,16
29M20,399,experiment,37,→,no_key,no_letter,-1.0,False,16
29M20,400,experiment,18,↑,no_key,no_letter,-1.0,False,16
29M20,401,experiment,53,→,right,→,0.652639799984172,True,16
29M20,402,experiment,32,←,left,←,0.4863005999941379,True,16
29M20,403,experiment,28,↓,down,↓,0.5770520999794826,True,16
29M20,404,experiment,20,→,right,→,0.933684199990239,True,16
29M20,405,experiment,47,↓,left,←,0.4658964000409469,False,16
29M20,406,experiment,36,←,left,←,0.5041271999944001,True,16
29M20,407,experiment,27,→,right,→,0.5548543000477366,True,16
29M20,408,experiment,45,↓,down,↓,0.49607560003641993,True,16
29M20,409,experiment,39,↓,down,↓,0.5155175999971107,True,16
29M20,410,experiment,16,↑,up,↑,0.7726989999646321,True,16
29M20,411,experiment,54,↑,up,↑,0.6353324999799952,True,16
29M20,412,experiment,33,↓,up,↑,0.6846652000094764,False,16
29M20,413,experiment,40,←,left,←,0.4955144000123255,True,16
29M20,414,experiment,52,←,left,←,0.6264341000351124,True,16
29M20,415,experiment,48,↓,down,↓,0.6667521999916062,True,16
29M20,416,experiment,41,→,right,→,0.7097745999926701,True,16
29M20,417,experiment,22,↓,down,↓,0.5479370999964885,True,16
29M20,418,experiment,50,←,left,←,0.4615856999880634,True,16
29M20,419,experiment,59,↑,up,↑,0.5006178999901749,True,16
29M20,420,experiment,58,←,left,←,0.466801900009159,True,16
29M20,421,experiment,35,→,left,←,0.7376461999956518,False,16
29M20,422,experiment,51,←,left,←,0.6513566999929026,True,16
29M20,423,experiment,26,↑,up,↑,0.5129131999565288,True,16
29M20,424,experiment,44,←,left,←,0.6878528999513946,True,16
29M20,425,experiment,29,↓,down,↓,0.5619620999787003,True,16
29M20,426,experiment,23,→,left,←,0.7734108999720775,False,16
29M20,427,experiment,15,←,left,←,0.6455438999691978,True,16
29M20,428,experiment,55,→,right,→,0.6725567999528721,True,16
29M20,429,experiment,46,↓,down,↓,0.5922515999991447,True,16
29M20,430,experiment,43,↓,left,←,1.1733686999650672,False,16
29M20,431,experiment,42,↑,up,↑,0.5076368000009097,True,16
29M20,432,experiment,60,↑,up,↑,0.46468879998428747,True,16
29M20,433,experiment,14,↓,down,↓,0.5973278000019491,True,16
29M20,434,experiment,31,↑,up,↑,0.47351669997442514,True,16
29M20,435,experiment,49,←,left,←,0.6950752999982797,True,16
29M20,436,experiment,25,←,left,←,0.45185319997835904,True,16
29M20,437,experiment,24,→,right,→,0.47461269999621436,True,16
29M20,438,experiment,13,↑,up,↑,0.7599140999955125,True,16
29M20,439,experiment,21,←,left,←,0.7247183999861591,True,16
29M20,440,experiment,19,↑,up,↑,0.4761958999442868,True,16
29M20,441,training,54,↓,down,↓,0.501689400000032,True,16
29M20,442,training,48,→,right,→,0.6585912000155076,True,16
29M20,443,experiment,37,↓,down,↓,0.40065379999578,True,16
29M20,444,experiment,35,↑,up,↑,0.6016232999972999,True,16
29M20,445,experiment,55,↑,up,↑,0.5019118000054732,True,16
29M20,446,experiment,57,←,left,←,0.7569913999759592,True,16
29M20,447,experiment,15,↓,down,↓,0.5179650000063702,True,16
29M20,448,experiment,50,→,right,→,0.48070680000819266,True,16
29M20,449,experiment,17,→,right,→,0.6026934000547044,True,16
29M20,450,experiment,29,↓,down,↓,0.672157299995888,True,16
29M20,451,experiment,39,→,left,←,0.9164831999805756,False,16
29M20,452,experiment,33,↑,left,←,1.1227708999649622,False,16
29M20,453,experiment,47,↓,down,↓,0.5682601000298746,True,16
29M20,454,experiment,46,→,right,→,0.6755416999803856,True,16
29M20,455,experiment,48,←,left,←,0.7379660000442527,True,16
29M20,456,experiment,22,←,left,←,0.7667771000415087,True,16
29M20,457,experiment,27,↑,up,↑,0.6789718000218272,True,16
29M20,458,experiment,60,←,left,←,0.8376658000051975,True,16
29M20,459,experiment,18,←,left,←,0.8729361000005156,True,16
29M20,460,experiment,52,←,left,←,0.7487909999908879,True,16
29M20,461,experiment,41,↑,up,↑,0.7084779000142589,True,16
29M20,462,experiment,25,↑,up,↑,0.7444703999790363,True,16
29M20,463,experiment,38,→,right,→,0.7240370000363328,True,16
29M20,464,experiment,44,→,right,→,0.6338330000289716,True,16
29M20,465,experiment,14,↑,up,↑,0.7438451999914832,True,16
29M20,466,experiment,23,↓,down,↓,0.7400533000472933,True,16
29M20,467,experiment,42,←,left,←,0.6677546999999322,True,16
29M20,468,experiment,16,↑,up,↑,0.5991185000166297,True,16
29M20,469,experiment,54,←,left,←,0.5880833999835886,True,16
29M20,470,experiment,30,↓,down,↓,0.5456281000515446,True,16
29M20,471,experiment,19,↑,up,↑,0.6004672999843024,True,16
29M20,472,experiment,56,→,right,→,0.49201350001385435,True,16
29M20,473,experiment,34,↓,down,↓,0.594883400015533,True,16
29M20,474,experiment,45,↑,up,↑,0.5186605000053532,True,16
29M20,475,experiment,13,↓,down,↓,0.6257073000306264,True,16
29M20,476,experiment,20,→,right,→,0.5165284000104293,True,16
29M20,477,experiment,59,↑,up,↑,0.50550170004135,True,16
29M20,478,experiment,43,↑,down,↓,0.6576932999887504,False,16
29M20,479,experiment,32,→,right,→,0.47553890000563115,True,16
29M20,480,experiment,49,↓,down,↓,0.5773646999732591,True,16
29M20,481,experiment,28,→,right,→,0.46434920001775026,True,16
29M20,482,experiment,58,→,right,→,0.4480438000173308,True,16
29M20,483,experiment,36,↑,up,↑,0.7347631999873556,True,16
29M20,484,experiment,51,↑,up,↑,0.44066110003041103,True,16
29M20,485,experiment,21,↑,up,↑,0.5132456000428647,True,16
29M20,486,experiment,24,↓,down,↓,0.725260800041724,True,16
29M20,487,experiment,40,↓,down,↓,0.494889699970372,True,16
29M20,488,experiment,53,→,right,→,0.6251263999729417,True,16
29M20,489,experiment,26,→,right,→,0.8803454999579117,True,16
29M20,490,experiment,31,→,right,→,0.48984130000462756,True,16
29M20,491,training,49,↓,down,↓,0.5300917000276968,True,15
29M20,492,training,46,←,right,→,0.7187532999669202,False,15
29M20,493,experiment,18,↓,down,↓,0.5349073000252247,True,15
29M20,494,experiment,28,→,right,→,0.7837695999769494,True,15
29M20,495,experiment,57,↑,up,↑,0.6355766000342555,True,15
29M20,496,experiment,14,↓,up,↑,0.7617809000075795,False,15
29M20,497,experiment,40,↓,down,↓,0.6979325999855064,True,15
29M20,498,experiment,17,→,right,→,0.6112970000249334,True,15
29M20,499,experiment,53,↑,up,↑,0.56097829999635,True,15
29M20,500,experiment,20,↑,down,↓,0.7422957999515347,False,15
29M20,501,experiment,38,↓,down,↓,0.4969097000430338,True,15
29M20,502,experiment,30,↑,down,↓,0.6735216000233777,False,15
29M20,503,experiment,41,↑,up,↑,0.6283477999968454,True,15
29M20,504,experiment,45,↑,up,↑,0.5106618999852799,True,15
29M20,505,experiment,16,↑,down,↓,0.6886761999921873,False,15
29M20,506,experiment,36,↓,down,↓,0.5742975999601185,True,15
29M20,507,experiment,24,→,right,→,0.6962984999991022,True,15
29M20,508,experiment,46,←,left,←,0.5826697999727912,True,15
29M20,509,experiment,29,↓,up,↑,0.6287470000097528,False,15
29M20,510,experiment,23,←,left,←,0.6056883999845013,True,15
29M20,511,experiment,59,←,left,←,0.6877839000080712,True,15
29M20,512,experiment,33,←,left,←,0.5028483999776654,True,15
29M20,513,experiment,34,↑,up,↑,0.6610726999933831,True,15
29M20,514,experiment,22,←,left,←,0.7171895000501536,True,15
29M20,515,experiment,26,←,left,←,0.6719501999905333,True,15
29M20,516,experiment,21,↓,down,↓,0.6403973000124097,True,15
29M20,517,experiment,58,↑,up,↑,0.4494540999876335,True,15
29M20,518,experiment,37,←,left,←,0.607299100025557,True,15
29M20,519,experiment,48,←,left,←,0.4242665999918245,True,15
29M20,520,experiment,51,→,right,→,0.6549849999719299,True,15
29M20,521,experiment,56,↓,down,↓,0.5596225000335835,True,15
29M20,522,experiment,54,←,no_key,no_letter,-1.0,False,15
29M20,523,experiment,19,↓,down,↓,0.582861699978821,True,15
29M20,524,experiment,31,↑,up,↑,0.45146609999937937,True,15
29M20,525,experiment,50,↓,down,↓,0.7209586999961175,True,15
29M20,526,experiment,15,←,left,←,0.7231581000378355,True,15
29M20,527,experiment,49,→,right,→,0.4628808000124991,True,15
29M20,528,experiment,47,←,left,←,0.48574969999026507,True,15
29M20,529,experiment,44,→,right,→,0.4941085000173189,True,15
29M20,530,experiment,32,↑,up,↑,1.0861057000001892,True,15
29M20,531,experiment,35,↓,down,↓,0.5886503999936394,True,15
29M20,532,experiment,55,→,right,→,0.6097694999771193,True,15
29M20,533,experiment,43,↑,down,↓,0.6858454000321217,False,15
29M20,534,experiment,25,↓,down,↓,0.5785985999973491,True,15
29M20,535,experiment,13,→,up,↑,0.8760027000098489,False,15
29M20,536,experiment,42,←,left,←,0.46238300000550225,True,15
29M20,537,experiment,27,←,right,→,0.6512727999943309,False,15
29M20,538,experiment,52,↓,down,↓,0.447416799957864,True,15
29M20,539,experiment,60,↓,down,↓,0.5985795000451617,True,15
29M20,540,experiment,39,↓,up,↑,0.5893441999796778,False,15
29M20,541,training,36,←,left,←,0.5850680000148714,True,15
29M20,542,training,28,↓,down,↓,0.6955141000216827,True,15
29M20,543,experiment,28,↓,down,↓,0.6823839999851771,True,15
29M20,544,experiment,26,↑,up,↑,0.5265492999460548,True,15
29M20,545,experiment,57,←,right,→,0.5408697000239044,False,15
29M20,546,experiment,42,↑,up,↑,0.5644592000171542,True,15
29M20,547,experiment,54,←,left,←,0.4747537999646738,True,15
29M20,548,experiment,59,→,right,→,0.49778219999279827,True,15
29M20,549,experiment,30,↑,no_key,no_letter,-1.0,False,15
29M20,550,experiment,56,↓,down,↓,0.6342528000241145,True,15
29M20,551,experiment,45,↓,down,↓,0.4760971000068821,True,15
29M20,552,experiment,33,←,left,←,0.5720730000175536,True,15
29M20,553,experiment,55,↓,down,↓,0.46564870001748204,True,15
29M20,554,experiment,41,↓,down,↓,0.42078580002998933,True,15
29M20,555,experiment,60,←,left,←,0.4921629999880679,True,15
29M20,556,experiment,16,↑,up,↑,0.4948747999733314,True,15
29M20,557,experiment,14,↑,down,↓,0.5710827999864705,False,15
29M20,558,experiment,18,↓,down,↓,0.49687799997627735,True,15
29M20,559,experiment,13,↑,up,↑,0.49283169995760545,True,15
29M20,560,experiment,23,→,left,←,0.5870741999824531,False,15
29M20,561,experiment,40,→,right,→,0.6337746999925002,True,15
29M20,562,experiment,47,→,right,→,0.4982124000089243,True,15
29M20,563,experiment,20,↓,down,↓,0.4896104999934323,True,15
29M20,564,experiment,15,←,left,←,0.6047451000194997,True,15
29M20,565,experiment,27,→,right,→,0.554604200005997,True,15
29M20,566,experiment,19,↓,left,←,0.4402154000126757,False,15
29M20,567,experiment,46,↓,down,↓,0.4973708000034094,True,15
29M20,568,experiment,35,←,no_key,no_letter,-1.0,False,15
29M20,569,experiment,58,↓,down,↓,0.565034800034482,True,15
29M20,570,experiment,25,←,left,←,0.4305698999669403,True,15
29M20,571,experiment,34,↓,no_key,no_letter,-1.0,False,15
29M20,572,experiment,43,→,right,→,0.607460799976252,True,15
29M20,573,experiment,24,→,right,→,0.5842350000166334,True,15
29M20,574,experiment,37,↓,down,↓,0.4491855000378564,True,15
29M20,575,experiment,48,←,left,←,0.5440679999883287,True,15
29M20,576,experiment,52,↓,down,↓,0.45709209999768063,True,15
29M20,577,experiment,38,↑,no_key,no_letter,-1.0,False,15
29M20,578,experiment,44,←,left,←,0.646184400015045,True,15
29M20,579,experiment,32,←,left,←,0.5044081000378355,True,15
29M20,580,experiment,17,→,right,→,0.5295799000305124,True,15
29M20,581,experiment,53,↓,down,↓,0.6259299000375904,True,15
29M20,582,experiment,39,↓,down,↓,0.5761802000342868,True,15
29M20,583,experiment,21,←,left,←,0.6121400999836624,True,15
29M20,584,experiment,49,→,right,→,0.652584100025706,True,15
29M20,585,experiment,51,↓,down,↓,0.5375427999533713,True,15
29M20,586,experiment,31,↑,up,↑,0.6165127000422217,True,15
29M20,587,experiment,36,←,left,←,0.5366695999982767,True,15
29M20,588,experiment,22,→,left,←,1.0774261999758892,False,15
29M20,589,experiment,29,←,left,←,0.6004948999616317,True,15
29M20,590,experiment,50,↓,down,↓,0.4961487999535166,True,15
