PART_ID,Trial_no,Trial_type,CSI,Stim_letter,Key_pressed,letter_choose,Rt,Corr,Stimulus Time
30K29,1,training,60,→,no_key,no_letter,-1.0,False,30
30K29,2,training,60,←,left,←,1.06195550004486,True,30
30K29,3,training,60,↑,up,↑,1.5003891999367625,True,30
30K29,4,training,60,↓,no_key,no_letter,-1.0,False,30
30K29,5,training,60,→,right,→,1.0524476999416947,True,30
30K29,6,training,60,→,right,→,1.2117120999610052,True,30
30K29,7,training,60,↑,up,↑,1.148484900011681,True,30
30K29,8,training,60,→,right,→,1.3754691999638453,True,30
30K29,9,training,60,↓,down,↓,1.2659337000222877,True,30
30K29,10,training,60,↑,up,↑,1.4641431999625638,True,30
30K29,11,training,60,←,left,←,1.462776100030169,True,30
30K29,12,training,60,↓,down,↓,0.8932763000484556,True,30
30K29,13,training,60,↑,up,↑,1.914274699985981,True,30
30K29,14,training,60,←,left,←,1.1353495999937877,True,30
30K29,15,training,60,↑,up,↑,1.6031116000376642,True,30
30K29,16,training,60,←,left,←,1.8283334000734612,True,30
30K29,17,training,60,↑,up,↑,1.7808040999807417,True,30
30K29,18,training,60,↓,down,↓,0.9185783000430092,True,30
30K29,19,training,60,←,left,←,1.6110093999886885,True,30
30K29,20,training,60,↓,down,↓,1.4359727000119165,True,30
30K29,21,training,60,↑,up,↑,1.465354699990712,True,18
30K29,22,training,60,→,no_key,no_letter,-1.0,False,18
30K29,23,training,60,→,right,→,1.442811599932611,True,18
30K29,24,training,60,←,right,→,1.1780280000530183,False,18
30K29,25,training,60,↑,up,↑,1.20368779997807,True,18
30K29,26,training,60,→,left,←,1.2370099000399932,False,18
30K29,27,training,60,←,left,←,0.740985699929297,True,18
30K29,28,training,60,←,right,→,1.1285085999406874,False,18
30K29,29,training,60,←,left,←,1.2284751000115648,True,18
30K29,30,training,60,←,no_key,no_letter,-1.0,False,18
30K29,31,training,60,↑,left,←,1.1830727000487968,False,18
30K29,32,training,60,↓,left,←,1.0729684000834823,False,18
30K29,33,training,60,↓,left,←,1.5115431000012904,False,18
30K29,34,training,60,→,left,←,0.8758942999411374,False,18
30K29,35,training,60,→,left,←,0.8180697000352666,False,18
30K29,36,training,60,↓,down,↓,1.3542923999484628,True,18
30K29,37,training,60,↑,left,←,0.757620699936524,False,18
30K29,38,training,60,↑,up,↑,0.776524499990046,True,18
30K29,39,training,60,↑,up,↑,0.770040100091137,True,18
30K29,40,training,60,↓,right,→,1.0763265000423416,False,18
30K29,41,training,14,↓,right,→,1.0101928000804037,False,18
30K29,42,training,25,→,no_key,no_letter,-1.0,False,18
30K29,43,experiment,15,←,left,←,0.8429218999808654,True,18
30K29,44,experiment,14,↓,left,←,1.201117799966596,False,18
30K29,45,experiment,38,↑,left,←,1.112820400041528,False,18
30K29,46,experiment,29,↓,left,←,0.7782556000165641,False,18
30K29,47,experiment,50,↓,no_key,no_letter,-1.0,False,18
30K29,48,experiment,33,→,left,←,0.8877859000349417,False,18
30K29,49,experiment,54,↓,left,←,0.7935039999429137,False,18
30K29,50,experiment,43,→,right,→,0.7986954000080004,True,18
30K29,51,experiment,49,→,right,→,0.9112077000318095,True,18
30K29,52,experiment,40,↓,right,→,0.9132903000572696,False,18
30K29,53,experiment,16,→,right,→,0.8268939000554383,True,18
30K29,54,experiment,59,→,right,→,0.9320360999554396,True,18
30K29,55,experiment,19,↑,no_key,no_letter,-1.0,False,18
30K29,56,experiment,46,←,no_key,no_letter,-1.0,False,18
30K29,57,experiment,51,↑,no_key,no_letter,-1.0,False,18
30K29,58,experiment,60,↓,right,→,0.7395227999659255,False,18
30K29,59,experiment,47,→,right,→,0.6559954000404105,True,18
30K29,60,experiment,53,↑,right,→,0.899426499963738,False,18
30K29,61,experiment,42,↓,right,→,0.7324932999908924,False,18
30K29,62,experiment,27,←,right,→,0.5901582000078633,False,18
30K29,63,experiment,20,→,no_key,no_letter,-1.0,False,18
30K29,64,experiment,32,↓,no_key,no_letter,-1.0,False,18
30K29,65,experiment,44,←,right,→,0.38398689997848123,False,18
30K29,66,experiment,52,↑,right,→,0.7473708000034094,False,18
30K29,67,experiment,24,→,right,→,0.7344584999373183,True,18
30K29,68,experiment,56,←,left,←,0.780870100017637,True,18
30K29,69,experiment,57,↓,down,↓,1.001088099903427,True,18
30K29,70,experiment,26,↓,right,→,0.944125899928622,False,18
30K29,71,experiment,25,↓,down,↓,0.8110679999226704,True,18
30K29,72,experiment,48,→,right,→,0.7163939999882132,True,18
30K29,73,experiment,35,←,left,←,0.8893260000040755,True,18
30K29,74,experiment,31,←,left,←,0.9140259000705555,True,18
30K29,75,experiment,58,↓,left,←,0.8162107999669388,False,18
30K29,76,experiment,34,←,left,←,0.7216289000352845,True,18
30K29,77,experiment,21,→,right,→,0.7759819999337196,True,18
30K29,78,experiment,28,↑,no_key,no_letter,-1.0,False,18
30K29,79,experiment,37,↑,right,→,0.9455141000216827,False,18
30K29,80,experiment,13,→,right,→,0.7642922999802977,True,18
30K29,81,experiment,23,←,left,←,0.839222599985078,True,18
30K29,82,experiment,36,←,right,→,0.9108607000671327,False,18
30K29,83,experiment,45,←,right,→,0.7741424000123516,False,18
30K29,84,experiment,18,←,left,←,0.7959902000147849,True,18
30K29,85,experiment,41,→,right,→,0.6657156000146642,True,18
30K29,86,experiment,22,↑,left,←,0.6814894999843091,False,18
30K29,87,experiment,55,←,left,←,0.7301884000189602,True,18
30K29,88,experiment,30,↓,down,↓,1.577837499906309,True,18
30K29,89,experiment,17,↑,down,↓,0.9449217000510544,False,18
30K29,90,experiment,39,←,right,→,0.7548521999269724,False,18
30K29,91,training,51,↓,down,↓,0.7827140999725088,True,19
30K29,92,training,40,←,left,←,0.6137960000196472,True,19
30K29,93,experiment,18,↓,down,↓,0.7938371000345796,True,19
30K29,94,experiment,15,↓,right,→,0.8972921000095084,False,19
30K29,95,experiment,51,↓,down,↓,0.7881339000305161,True,19
30K29,96,experiment,27,→,right,→,0.6679218999342993,True,19
30K29,97,experiment,56,↑,left,←,0.9250122999073938,False,19
30K29,98,experiment,34,↓,down,↓,0.7547630000626668,True,19
30K29,99,experiment,14,←,left,←,0.7801970000145957,True,19
30K29,100,experiment,39,↓,right,→,1.2678546999813989,False,19
30K29,101,experiment,26,→,right,→,1.3529423999134451,True,19
30K29,102,experiment,20,↑,up,↑,1.3424411999294534,True,19
30K29,103,experiment,42,→,right,→,1.182488500024192,True,19
30K29,104,experiment,47,↑,no_key,no_letter,-1.0,False,19
30K29,105,experiment,30,↑,no_key,no_letter,-1.0,False,19
30K29,106,experiment,58,→,right,→,1.1310170999495313,True,19
30K29,107,experiment,13,←,left,←,1.2220821001101285,True,19
30K29,108,experiment,24,→,right,→,0.8865806000540033,True,19
30K29,109,experiment,40,→,right,→,0.953309900010936,True,19
30K29,110,experiment,43,↑,up,↑,1.151972100022249,True,19
30K29,111,experiment,50,←,left,←,0.8017996000126004,True,19
30K29,112,experiment,38,↓,down,↓,0.945450900006108,True,19
30K29,113,experiment,41,↓,down,↓,0.9136511000106111,True,19
30K29,114,experiment,48,←,left,←,1.00615899998229,True,19
30K29,115,experiment,52,←,left,←,0.8687486000126228,True,19
30K29,116,experiment,49,↑,up,↑,1.2670235000550747,True,19
30K29,117,experiment,25,↓,right,→,1.1924418000271544,False,19
30K29,118,experiment,53,↑,up,↑,1.0711747000459582,True,19
30K29,119,experiment,35,→,right,→,0.9259486000519246,True,19
30K29,120,experiment,59,↑,up,↑,1.0912044000579044,True,19
30K29,121,experiment,32,↑,up,↑,0.9235595000209287,True,19
30K29,122,experiment,54,→,right,→,1.244334000046365,True,19
30K29,123,experiment,31,→,right,→,0.8473353000590578,True,19
30K29,124,experiment,16,↑,up,↑,1.0756118000717834,True,19
30K29,125,experiment,33,↑,right,→,1.4438220000592992,False,19
30K29,126,experiment,44,←,left,←,0.8867604999104515,True,19
30K29,127,experiment,28,↓,down,↓,0.8494119000388309,True,19
30K29,128,experiment,46,↑,left,←,1.1869649000000209,False,19
30K29,129,experiment,55,←,left,←,0.7352455999935046,True,19
30K29,130,experiment,23,←,left,←,0.691558999940753,True,19
30K29,131,experiment,29,↓,down,↓,0.8537398999324068,True,19
30K29,132,experiment,36,↓,left,←,1.0765505000017583,False,19
30K29,133,experiment,57,↓,down,↓,0.6213511000387371,True,19
30K29,134,experiment,45,↓,down,↓,0.8316036999458447,True,19
30K29,135,experiment,60,←,down,↓,1.7994465000228956,False,19
30K29,136,experiment,17,→,right,→,0.5812288000015542,True,19
30K29,137,experiment,19,→,right,→,0.7142106000101194,True,19
30K29,138,experiment,22,→,up,↑,1.1835052999667823,False,19
30K29,139,experiment,37,→,right,→,0.6808458000887185,True,19
30K29,140,experiment,21,→,no_key,no_letter,-1.0,False,19
30K29,141,training,55,↑,down,↓,1.4752811000216752,False,19
30K29,142,training,34,→,right,→,0.9871661000652239,True,19
30K29,143,experiment,54,↑,right,→,0.6730255999136716,False,19
30K29,144,experiment,41,↓,right,→,0.6118724999250844,False,19
30K29,145,experiment,40,→,right,→,0.7063684000167996,True,19
30K29,146,experiment,26,↓,right,→,0.5577789000235498,False,19
30K29,147,experiment,32,↑,left,←,0.7872750000096858,False,19
30K29,148,experiment,22,↑,up,↑,0.8701224999967963,True,19
30K29,149,experiment,25,←,right,→,1.0195110000204295,False,19
30K29,150,experiment,50,↓,down,↓,0.8509004999650642,True,19
30K29,151,experiment,20,←,left,←,1.0602376000024378,True,19
30K29,152,experiment,57,←,right,→,1.0534554000478238,False,19
30K29,153,experiment,15,←,left,←,0.7547888000262901,True,19
30K29,154,experiment,35,↑,right,→,0.8060025000013411,False,19
30K29,155,experiment,36,←,right,→,0.8710037000710145,False,19
30K29,156,experiment,52,↑,right,→,0.9870279000606388,False,19
30K29,157,experiment,13,←,left,←,1.227972700027749,True,19
30K29,158,experiment,56,←,left,←,1.1593156000599265,True,19
30K29,159,experiment,24,↓,left,←,0.9782179000321776,False,19
30K29,160,experiment,59,←,left,←,0.7813134000170976,True,19
30K29,161,experiment,42,↑,left,←,0.6750344000756741,False,19
30K29,162,experiment,34,↓,down,↓,0.906531099928543,True,19
30K29,163,experiment,17,↑,right,→,0.8365728000644594,False,19
30K29,164,experiment,51,←,left,←,0.7140510999597609,True,19
30K29,165,experiment,55,↓,down,↓,0.7857531999470666,True,19
30K29,166,experiment,45,→,right,→,0.8614173999521881,True,19
30K29,167,experiment,27,↑,up,↑,1.0505319000221789,True,19
30K29,168,experiment,16,←,up,↑,1.4788587000221014,False,19
30K29,169,experiment,53,↑,up,↑,0.6259843999287114,True,19
30K29,170,experiment,58,↓,down,↓,0.7558990999823436,True,19
30K29,171,experiment,43,←,left,←,1.0580695000244305,True,19
30K29,172,experiment,46,←,left,←,1.0667849000310525,True,19
30K29,173,experiment,39,↓,down,↓,0.7912505000131205,True,19
30K29,174,experiment,28,←,left,←,0.8618424999294803,True,19
30K29,175,experiment,19,↓,down,↓,0.9040630001109093,True,19
30K29,176,experiment,21,↑,left,←,0.9270516000688076,False,19
30K29,177,experiment,60,→,right,→,0.7794262999668717,True,19
30K29,178,experiment,47,←,left,←,1.0619259000523016,True,19
30K29,179,experiment,31,←,left,←,0.7521676000906155,True,19
30K29,180,experiment,29,→,left,←,0.7918692999519408,False,19
30K29,181,experiment,44,←,left,←,0.7881673999363557,True,19
30K29,182,experiment,30,↑,left,←,0.7537849000655115,False,19
30K29,183,experiment,37,→,right,→,0.6604055999778211,True,19
30K29,184,experiment,38,↓,down,↓,1.2099694999633357,True,19
30K29,185,experiment,48,→,right,→,0.915092800045386,True,19
30K29,186,experiment,23,↑,right,→,0.9041667999699712,False,19
30K29,187,experiment,33,↑,right,→,0.7270668999990448,False,19
30K29,188,experiment,14,←,left,←,1.0336770999711007,True,19
30K29,189,experiment,49,→,right,→,0.7370535000227392,True,19
30K29,190,experiment,18,←,left,←,1.1443272999022156,True,19
30K29,191,training,53,←,left,←,1.2704115000087768,True,19
30K29,192,training,26,←,left,←,0.8113895000424236,True,19
30K29,193,experiment,29,↑,up,↑,0.9531451999209821,True,19
30K29,194,experiment,15,←,left,←,0.873747400008142,True,19
30K29,195,experiment,60,→,right,→,0.5284796000923961,True,19
30K29,196,experiment,53,→,right,→,0.7055793999461457,True,19
30K29,197,experiment,44,←,left,←,0.7932362999999896,True,19
30K29,198,experiment,43,←,left,←,0.9020673000486568,True,19
30K29,199,experiment,30,↑,up,↑,1.0071802999591455,True,19
30K29,200,experiment,24,↓,down,↓,0.8892766999779269,True,19
30K29,201,experiment,34,↓,right,→,0.7999692000448704,False,19
30K29,202,experiment,21,→,right,→,0.8020976000698283,True,19
30K29,203,experiment,19,→,right,→,0.7261236000340432,True,19
30K29,204,experiment,27,↓,right,→,0.8961920000147074,False,19
30K29,205,experiment,31,↓,down,↓,1.0011201000306755,True,19
30K29,206,experiment,33,↑,right,→,1.4523718000855297,False,19
30K29,207,experiment,14,↓,right,→,0.8020196999423206,False,19
30K29,208,experiment,23,→,right,→,0.5237819999456406,True,19
30K29,209,experiment,13,↓,down,↓,0.7590511000016704,True,19
30K29,210,experiment,16,→,right,→,0.8469244999578223,True,19
30K29,211,experiment,45,↑,right,→,1.4399769000010565,False,19
30K29,212,experiment,37,→,right,→,0.6235033000120893,True,19
30K29,213,experiment,41,→,right,→,0.6685598000185564,True,19
30K29,214,experiment,28,→,right,→,0.5676953999791294,True,19
30K29,215,experiment,17,→,right,→,0.5510354000143707,True,19
30K29,216,experiment,42,←,left,←,1.1013773999875411,True,19
30K29,217,experiment,50,→,right,→,0.7614205999998376,True,19
30K29,218,experiment,36,↓,down,↓,0.892777300090529,True,19
30K29,219,experiment,51,↓,right,→,0.8562245999928564,False,19
30K29,220,experiment,58,←,left,←,0.928602899890393,True,19
30K29,221,experiment,38,↑,down,↓,1.091639899997972,False,19
30K29,222,experiment,46,←,left,←,1.1229226000141352,True,19
30K29,223,experiment,39,←,left,←,0.8053900999948382,True,19
30K29,224,experiment,48,↓,left,←,0.8305785999400541,False,19
30K29,225,experiment,22,→,right,→,1.1194479999830946,True,19
30K29,226,experiment,26,←,left,←,1.138404899975285,True,19
30K29,227,experiment,47,→,right,→,1.054689500015229,True,19
30K29,228,experiment,57,→,right,→,0.960194000042975,True,19
30K29,229,experiment,56,→,right,→,1.0062304000603035,True,19
30K29,230,experiment,40,↑,up,↑,0.8125358000397682,True,19
30K29,231,experiment,55,←,left,←,0.889135199948214,True,19
30K29,232,experiment,18,↓,down,↓,0.9145510999951512,True,19
30K29,233,experiment,59,←,left,←,1.0237848999677226,True,19
30K29,234,experiment,35,→,right,→,0.9212756999768317,True,19
30K29,235,experiment,52,←,right,→,0.6667244000127539,False,19
30K29,236,experiment,32,→,right,→,1.0995538000715896,True,19
30K29,237,experiment,25,↑,up,↑,0.9037128000054508,True,19
30K29,238,experiment,49,←,left,←,0.45014930004253983,True,19
30K29,239,experiment,54,↑,up,↑,0.8308995000552386,True,19
30K29,240,experiment,20,↑,right,→,1.1128501000348479,False,19
30K29,241,training,48,→,right,→,1.3406470000045374,True,19
30K29,242,training,40,↑,right,→,0.8220973999705166,False,19
30K29,243,experiment,52,↑,right,→,0.5079839000245556,False,19
30K29,244,experiment,14,↓,right,→,0.5271763999480754,False,19
30K29,245,experiment,48,↑,up,↑,1.0913221000228077,True,19
30K29,246,experiment,32,↑,up,↑,1.0199448000639677,True,19
30K29,247,experiment,13,↑,up,↑,0.7474560000700876,True,19
30K29,248,experiment,18,↑,up,↑,0.754319499945268,True,19
30K29,249,experiment,30,←,up,↑,0.6488559000426903,False,19
30K29,250,experiment,36,↓,down,↓,0.8638660999713466,True,19
30K29,251,experiment,57,→,right,→,0.8405647000763565,True,19
30K29,252,experiment,31,←,right,→,0.6674172000493854,False,19
30K29,253,experiment,21,←,left,←,0.7954252999043092,True,19
30K29,254,experiment,51,↑,up,↑,1.0671752999769524,True,19
30K29,255,experiment,55,←,left,←,0.5571023999946192,True,19
30K29,256,experiment,46,←,left,←,0.8413935999851674,True,19
30K29,257,experiment,26,←,left,←,0.871575600001961,True,19
30K29,258,experiment,43,↑,up,↑,0.6175730000250041,True,19
30K29,259,experiment,37,↓,up,↑,0.7371654000598937,False,19
30K29,260,experiment,22,←,left,←,0.837711300002411,True,19
30K29,261,experiment,34,↑,right,→,0.686679600039497,False,19
30K29,262,experiment,17,↑,up,↑,1.0808242000639439,True,19
30K29,263,experiment,33,→,right,→,0.816758899949491,True,19
30K29,264,experiment,29,↑,up,↑,0.8137464999454096,True,19
30K29,265,experiment,60,↓,up,↑,0.8381204000907019,False,19
30K29,266,experiment,49,↓,down,↓,0.9570951999630779,True,19
30K29,267,experiment,28,↑,up,↑,0.653612699941732,True,19
30K29,268,experiment,40,→,right,→,0.9539425000548363,True,19
30K29,269,experiment,42,→,right,→,0.9126432000193745,True,19
30K29,270,experiment,27,↑,right,→,0.5550466999411583,False,19
30K29,271,experiment,35,↑,up,↑,0.7745192999718711,True,19
30K29,272,experiment,44,↓,right,→,0.6598153000231832,False,19
30K29,273,experiment,59,↓,right,→,0.5233244999544695,False,19
30K29,274,experiment,16,↑,right,→,0.9809343001106754,False,19
30K29,275,experiment,45,↑,no_key,no_letter,-1.0,False,19
30K29,276,experiment,50,←,left,←,0.8177806000458077,True,19
30K29,277,experiment,47,↓,left,←,1.202760300016962,False,19
30K29,278,experiment,54,↓,down,↓,0.7359786999877542,True,19
30K29,279,experiment,19,←,no_key,no_letter,-1.0,False,19
30K29,280,experiment,20,→,left,←,1.4434006999945268,False,19
30K29,281,experiment,15,←,left,←,0.8412985999602824,True,19
30K29,282,experiment,56,↓,left,←,1.4038556000450626,False,19
30K29,283,experiment,25,→,left,←,0.7404271999839693,False,19
30K29,284,experiment,39,↑,up,↑,0.7901164999930188,True,19
30K29,285,experiment,58,↓,down,↓,0.7851971999043599,True,19
30K29,286,experiment,41,↑,up,↑,0.5996024999767542,True,19
30K29,287,experiment,23,↑,up,↑,1.0327178000006825,True,19
30K29,288,experiment,24,←,left,←,1.3685750000877306,True,19
30K29,289,experiment,38,↑,no_key,no_letter,-1.0,False,19
30K29,290,experiment,53,←,left,←,0.672743699979037,True,19
30K29,291,training,20,→,right,→,1.3535515000112355,True,19
30K29,292,training,29,←,right,→,0.801685499958694,False,19
30K29,293,experiment,42,→,left,←,0.6786628999980167,False,19
30K29,294,experiment,55,←,left,←,1.128262500045821,True,19
30K29,295,experiment,32,↑,left,←,0.9032394998939708,False,19
30K29,296,experiment,44,→,right,→,1.0151328999781981,True,19
30K29,297,experiment,26,↑,left,←,0.7900174000533298,False,19
30K29,298,experiment,33,←,left,←,1.0418600999983028,True,19
30K29,299,experiment,23,←,left,←,1.2579145999625325,True,19
30K29,300,experiment,17,→,right,→,0.6454823999665678,True,19
30K29,301,experiment,46,←,left,←,0.8308306999970227,True,19
30K29,302,experiment,16,↓,down,↓,0.8273877999745309,True,19
30K29,303,experiment,58,↑,down,↓,0.7574920000042766,False,19
30K29,304,experiment,24,↑,up,↑,0.7600476000225171,True,19
30K29,305,experiment,50,↑,up,↑,0.8658084000926465,True,19
30K29,306,experiment,47,←,left,←,0.8011714000022039,True,19
30K29,307,experiment,15,←,left,←,0.752161500044167,True,19
30K29,308,experiment,56,←,left,←,0.5974909999640658,True,19
30K29,309,experiment,60,→,left,←,0.6068448000587523,False,19
30K29,310,experiment,53,↑,left,←,0.5642135000089183,False,19
30K29,311,experiment,19,↑,left,←,0.5775586999952793,False,19
30K29,312,experiment,52,↑,left,←,0.45049129996914417,False,19
30K29,313,experiment,28,↑,up,↑,1.1250010000076145,True,19
30K29,314,experiment,38,↑,up,↑,0.847782599972561,True,19
30K29,315,experiment,40,→,right,→,0.9641661999048665,True,19
30K29,316,experiment,49,↓,down,↓,0.9502771000843495,True,19
30K29,317,experiment,13,↑,up,↑,0.9361924999393523,True,19
30K29,318,experiment,57,←,left,←,0.5340877999551594,True,19
30K29,319,experiment,51,↑,left,←,1.6475871000438929,False,19
30K29,320,experiment,36,→,right,→,0.9909737000707537,True,19
30K29,321,experiment,31,→,right,→,0.8521329999202862,True,19
30K29,322,experiment,34,→,right,→,0.8846374000422657,True,19
30K29,323,experiment,29,←,left,←,0.8069447000743821,True,19
30K29,324,experiment,21,↑,left,←,0.8977557000471279,False,19
30K29,325,experiment,18,↓,down,↓,0.6424628000240773,True,19
30K29,326,experiment,54,→,right,→,1.0701384999556467,True,19
30K29,327,experiment,39,←,left,←,0.8271095999516547,True,19
30K29,328,experiment,14,←,left,←,1.3134291000897065,True,19
30K29,329,experiment,25,←,left,←,0.7573326000710949,True,19
30K29,330,experiment,35,←,left,←,0.9929574999259785,True,19
30K29,331,experiment,43,→,right,→,0.9901869000168517,True,19
30K29,332,experiment,20,←,right,→,1.210329100023955,False,19
30K29,333,experiment,41,→,left,←,0.7680707999970764,False,19
30K29,334,experiment,48,←,left,←,0.8746615999843925,True,19
30K29,335,experiment,45,↓,left,←,0.6188102000160143,False,19
30K29,336,experiment,27,←,left,←,0.7771562000270933,True,19
30K29,337,experiment,30,→,right,→,0.7513371000532061,True,19
30K29,338,experiment,59,←,left,←,0.38396720006130636,True,19
30K29,339,experiment,37,↓,right,→,0.6834471999900416,False,19
30K29,340,experiment,22,←,left,←,0.5383608000120148,True,19
30K29,341,training,45,↑,left,←,1.510913300095126,False,19
30K29,342,training,51,→,right,→,0.9226070999866351,True,19
30K29,343,experiment,17,←,left,←,0.9870183999883011,True,19
30K29,344,experiment,19,→,right,→,0.7360116000054404,True,19
30K29,345,experiment,13,↓,left,←,0.7867390000028536,False,19
30K29,346,experiment,53,↓,right,→,0.6012161000398919,False,19
30K29,347,experiment,30,→,right,→,0.6140142000513151,True,19
30K29,348,experiment,37,↑,up,↑,0.6456187999574468,True,19
30K29,349,experiment,41,↓,down,↓,0.9300475000636652,True,19
30K29,350,experiment,14,←,left,←,0.9322759000351653,True,19
30K29,351,experiment,28,→,left,←,0.7810635999776423,False,19
30K29,352,experiment,16,↓,down,↓,0.6998312000650913,True,19
30K29,353,experiment,31,↓,down,↓,0.7962160999886692,True,19
30K29,354,experiment,34,→,left,←,0.7583533999277279,False,19
30K29,355,experiment,33,↓,down,↓,0.8832752000307664,True,19
30K29,356,experiment,18,↓,down,↓,1.028921200078912,True,19
30K29,357,experiment,22,↑,up,↑,0.8945303000509739,True,19
30K29,358,experiment,54,↓,no_key,no_letter,-1.0,False,19
30K29,359,experiment,32,←,left,←,0.9013498000567779,True,19
30K29,360,experiment,52,←,left,←,0.8237736000446603,True,19
30K29,361,experiment,26,↓,left,←,1.5904305999865755,False,19
30K29,362,experiment,38,↑,up,↑,0.8393211000366136,True,19
30K29,363,experiment,15,↑,left,←,1.3888514999998733,False,19
30K29,364,experiment,57,↑,no_key,no_letter,-1.0,False,19
30K29,365,experiment,50,↓,down,↓,0.7537057999288663,True,19
30K29,366,experiment,60,→,right,→,0.765074499999173,True,19
30K29,367,experiment,55,→,left,←,1.7066802999470383,False,19
30K29,368,experiment,56,↓,left,←,1.842884699930437,False,19
30K29,369,experiment,36,↓,left,←,1.2030842000385746,False,19
30K29,370,experiment,35,↑,left,←,0.7252050000242889,False,19
30K29,371,experiment,42,→,right,→,0.5812399999704212,True,19
30K29,372,experiment,20,→,right,→,0.9132770999567583,True,19
30K29,373,experiment,40,↓,right,→,0.6433133999817073,False,19
30K29,374,experiment,39,→,right,→,0.688779600081034,True,19
30K29,375,experiment,23,↑,right,→,0.6707162000238895,False,19
30K29,376,experiment,44,←,right,→,0.5436740999575704,False,19
30K29,377,experiment,24,→,right,→,0.9871275000041351,True,19
30K29,378,experiment,29,→,right,→,1.481443899916485,True,19
30K29,379,experiment,27,↑,right,→,0.7496030000038445,False,19
30K29,380,experiment,43,→,right,→,1.4756755999987945,True,19
30K29,381,experiment,47,↓,down,↓,0.6990622999146581,True,19
30K29,382,experiment,25,↑,up,↑,0.9432090999325737,True,19
30K29,383,experiment,45,↑,right,→,0.9490778000326827,False,19
30K29,384,experiment,21,↓,right,→,1.0499828999163583,False,19
30K29,385,experiment,59,↓,down,↓,0.7622092000674456,True,19
30K29,386,experiment,58,←,right,→,1.0942578000249341,False,19
30K29,387,experiment,51,↓,down,↓,0.7623851000098512,True,19
30K29,388,experiment,49,↓,down,↓,0.6850161000620574,True,19
30K29,389,experiment,48,←,down,↓,0.5385194000555202,False,19
30K29,390,experiment,46,↓,down,↓,1.119457299937494,True,19
30K29,391,training,60,←,right,→,1.1882824000203982,False,20
30K29,392,training,31,→,right,→,1.9371905999723822,True,20
30K29,393,experiment,51,↓,right,→,0.739681200007908,False,20
30K29,394,experiment,13,→,right,→,0.6304516000673175,True,20
30K29,395,experiment,36,↓,right,→,0.46724180004093796,False,20
30K29,396,experiment,23,→,right,→,0.45044029993005097,True,20
30K29,397,experiment,17,↓,right,→,0.4336163999978453,False,20
30K29,398,experiment,32,→,right,→,0.8718713000416756,True,20
30K29,399,experiment,43,→,right,→,0.5535648999502882,True,20
30K29,400,experiment,48,→,right,→,0.54885809996631,True,20
30K29,401,experiment,14,→,right,→,0.43311709992121905,True,20
30K29,402,experiment,44,←,down,↓,0.8719530000817031,False,20
30K29,403,experiment,50,→,right,→,1.3328157000942156,True,20
30K29,404,experiment,26,↑,right,→,0.7832889999262989,False,20
30K29,405,experiment,30,↑,up,↑,1.0208569000242278,True,20
30K29,406,experiment,20,↓,down,↓,0.9597490000305697,True,20
30K29,407,experiment,22,↓,down,↓,1.0440021000104025,True,20
30K29,408,experiment,19,↓,down,↓,0.7587946999119595,True,20
30K29,409,experiment,47,←,left,←,0.9386464999988675,True,20
30K29,410,experiment,57,→,right,→,0.9686399000929669,True,20
30K29,411,experiment,58,→,right,→,1.028275900054723,True,20
30K29,412,experiment,37,←,down,↓,0.836387199931778,False,20
30K29,413,experiment,55,↑,right,→,1.0154504999518394,False,20
30K29,414,experiment,27,↑,up,↑,1.0377611999865621,True,20
30K29,415,experiment,21,↓,down,↓,1.2473551000002772,True,20
30K29,416,experiment,46,↑,up,↑,0.9040626999922097,True,20
30K29,417,experiment,40,←,right,→,1.2261923000914976,False,20
30K29,418,experiment,33,↓,no_key,no_letter,-1.0,False,20
30K29,419,experiment,54,↓,right,→,0.8665161000099033,False,20
30K29,420,experiment,35,↓,down,↓,1.1214858000166714,True,20
30K29,421,experiment,39,←,left,←,0.7878835999872535,True,20
30K29,422,experiment,29,→,left,←,0.7382251999806613,False,20
30K29,423,experiment,25,←,left,←,0.7090622999239713,True,20
30K29,424,experiment,59,←,left,←,0.6986292999936268,True,20
30K29,425,experiment,56,→,left,←,0.7786465999670327,False,20
30K29,426,experiment,38,←,left,←,0.6196421999484301,True,20
30K29,427,experiment,49,←,left,←,1.059032900026068,True,20
30K29,428,experiment,52,←,left,←,0.5595520000206307,True,20
30K29,429,experiment,24,↑,left,←,0.6503098999382928,False,20
30K29,430,experiment,42,↑,up,↑,0.6134050999535248,True,20
30K29,431,experiment,41,←,left,←,0.8024210000876337,True,20
30K29,432,experiment,60,↑,left,←,0.7713894000044093,False,20
30K29,433,experiment,16,←,left,←,0.7871308999601752,True,20
30K29,434,experiment,31,←,left,←,0.6078057000413537,True,20
30K29,435,experiment,28,↓,left,←,0.6221725000068545,False,20
30K29,436,experiment,15,←,left,←,0.6361522000515833,True,20
30K29,437,experiment,34,↑,up,↑,0.8290209000697359,True,20
30K29,438,experiment,45,↓,down,↓,0.807239199988544,True,20
30K29,439,experiment,53,→,right,→,1.0372668000636622,True,20
30K29,440,experiment,18,↑,down,↓,0.8566447000484914,False,20
30K29,441,training,59,↓,right,→,1.2935281000100076,False,20
30K29,442,training,47,↑,up,↑,1.1239355999277905,True,20
30K29,443,experiment,42,→,right,→,1.1723884000675753,True,20
30K29,444,experiment,54,→,right,→,0.6670280999969691,True,20
30K29,445,experiment,35,←,right,→,1.1620793000329286,False,20
30K29,446,experiment,60,←,left,←,1.0052805999293923,True,20
30K29,447,experiment,41,←,left,←,0.7870351999299601,True,20
30K29,448,experiment,17,→,right,→,0.7371112999971956,True,20
30K29,449,experiment,51,→,right,→,0.6349008000688627,True,20
30K29,450,experiment,32,↑,up,↑,0.8370615999447182,True,20
30K29,451,experiment,47,→,right,→,0.6295815000776201,True,20
30K29,452,experiment,22,↓,down,↓,0.9105790000176057,True,20
30K29,453,experiment,24,↑,up,↑,0.795202900073491,True,20
30K29,454,experiment,30,↓,down,↓,0.7370763999642804,True,20
30K29,455,experiment,33,←,left,←,0.8063930999487638,True,20
30K29,456,experiment,55,↑,up,↑,1.1709634999278933,True,20
30K29,457,experiment,13,↑,up,↑,0.8527985000982881,True,20
30K29,458,experiment,36,→,right,→,1.323716999962926,True,20
30K29,459,experiment,19,↓,down,↓,0.947340099955909,True,20
30K29,460,experiment,29,↑,up,↑,0.8110165999969468,True,20
30K29,461,experiment,56,↑,up,↑,0.8709428999572992,True,20
30K29,462,experiment,45,↑,up,↑,0.7271770000224933,True,20
30K29,463,experiment,14,←,left,←,1.0021283000241965,True,20
30K29,464,experiment,59,←,left,←,0.7398578999564052,True,20
30K29,465,experiment,25,→,right,→,0.951174300047569,True,20
30K29,466,experiment,38,←,left,←,0.6406738000223413,True,20
30K29,467,experiment,26,→,right,→,0.8945638999575749,True,20
30K29,468,experiment,58,↑,up,↑,0.517864300054498,True,20
30K29,469,experiment,57,←,left,←,0.5641529000131413,True,20
30K29,470,experiment,39,↑,up,↑,0.6042673999909312,True,20
30K29,471,experiment,37,↓,down,↓,0.5966830999823287,True,20
30K29,472,experiment,16,→,right,→,0.6106057999422774,True,20
30K29,473,experiment,20,→,right,→,0.5903114000102505,True,20
30K29,474,experiment,18,↑,up,↑,0.9392891000024974,True,20
30K29,475,experiment,31,↓,no_key,no_letter,-1.0,False,20
30K29,476,experiment,43,↓,down,↓,0.6157061000121757,True,20
30K29,477,experiment,48,←,left,←,0.655529799987562,True,20
30K29,478,experiment,46,→,left,←,0.9279066000599414,False,20
30K29,479,experiment,53,←,left,←,0.713277000002563,True,20
30K29,480,experiment,34,↑,left,←,0.6707883999915794,False,20
30K29,481,experiment,27,↓,down,↓,0.6430847001029179,True,20
30K29,482,experiment,49,↑,up,↑,0.650004000053741,True,20
30K29,483,experiment,28,→,right,→,0.7262557999929413,True,20
30K29,484,experiment,52,↑,up,↑,0.6957002999261022,True,20
30K29,485,experiment,44,↑,up,↑,0.7280249999603257,True,20
30K29,486,experiment,15,←,left,←,0.6583735999884084,True,20
30K29,487,experiment,40,←,left,←,0.8625048999674618,True,20
30K29,488,experiment,50,↑,up,↑,0.6357239000499249,True,20
30K29,489,experiment,23,←,left,←,0.6195777000393718,True,20
30K29,490,experiment,21,→,up,↑,0.7902037999592721,False,20
30K29,491,training,47,→,right,→,1.1837534999940544,True,20
30K29,492,training,31,↑,up,↑,0.9569771999958903,True,20
30K29,493,experiment,26,←,left,←,0.8383351999800652,True,20
30K29,494,experiment,16,→,right,→,0.8031649999320507,True,20
30K29,495,experiment,18,↑,up,↑,0.7680116000119597,True,20
30K29,496,experiment,29,→,right,→,1.0151143000693992,True,20
30K29,497,experiment,35,↑,up,↑,0.520240499987267,True,20
30K29,498,experiment,19,↓,up,↑,1.35955880000256,False,20
30K29,499,experiment,46,←,no_key,no_letter,-1.0,False,20
30K29,500,experiment,50,↓,no_key,no_letter,-1.0,False,20
30K29,501,experiment,45,↑,up,↑,0.4665694000432268,True,20
30K29,502,experiment,28,↓,down,↓,0.5386550999246538,True,20
30K29,503,experiment,39,←,left,←,0.6043660999275744,True,20
30K29,504,experiment,56,↓,down,↓,0.8562320000492036,True,20
30K29,505,experiment,57,↑,left,←,1.3775840000016615,False,20
30K29,506,experiment,24,↓,up,↑,1.3398552000289783,False,20
30K29,507,experiment,51,↑,up,↑,0.8056292999535799,True,20
30K29,508,experiment,22,↓,down,↓,0.9519854000536725,True,20
30K29,509,experiment,21,↓,down,↓,0.7966746999882162,True,20
30K29,510,experiment,36,→,right,→,0.8136802000226453,True,20
30K29,511,experiment,49,→,right,→,0.7174997000256553,True,20
30K29,512,experiment,60,↓,right,→,0.5140990000218153,False,20
30K29,513,experiment,41,↑,up,↑,1.0350901000201702,True,20
30K29,514,experiment,32,→,right,→,0.9651860999874771,True,20
30K29,515,experiment,23,↓,down,↓,0.7925873000640422,True,20
30K29,516,experiment,14,←,left,←,0.7762906999560073,True,20
30K29,517,experiment,42,←,left,←,0.7825837999116629,True,20
30K29,518,experiment,17,↓,down,↓,0.7726391999749467,True,20
30K29,519,experiment,55,→,right,→,1.2984167999820784,True,20
30K29,520,experiment,52,↑,up,↑,0.8770856999326497,True,20
30K29,521,experiment,40,→,right,→,0.6411870999727398,True,20
30K29,522,experiment,37,→,right,→,0.7517458000220358,True,20
30K29,523,experiment,47,↑,up,↑,0.9800489000044763,True,20
30K29,524,experiment,30,↓,down,↓,0.8414130000164732,True,20
30K29,525,experiment,27,→,right,→,0.854748799931258,True,20
30K29,526,experiment,25,←,right,→,0.6371271000243723,False,20
30K29,527,experiment,58,↑,up,↑,0.7420011999784037,True,20
30K29,528,experiment,13,↓,up,↑,1.072757099987939,False,20
30K29,529,experiment,20,←,right,→,0.5297965999925509,False,20
30K29,530,experiment,54,←,left,←,1.02633959997911,True,20
30K29,531,experiment,31,↓,left,←,1.2457760999677703,False,20
30K29,532,experiment,38,←,left,←,1.0756998000433668,True,20
30K29,533,experiment,33,→,right,→,1.2683243999490514,True,20
30K29,534,experiment,53,↑,up,↑,1.0233862000750378,True,20
30K29,535,experiment,43,→,right,→,1.0353859000606462,True,20
30K29,536,experiment,59,←,left,←,0.9080327999545261,True,20
30K29,537,experiment,48,↑,up,↑,0.7449449000414461,True,20
30K29,538,experiment,44,→,right,→,0.9675986999645829,True,20
30K29,539,experiment,15,↑,up,↑,0.9274590000277385,True,20
30K29,540,experiment,34,↑,up,↑,0.8613123999675736,True,20
30K29,541,training,47,←,left,←,1.184401800041087,True,20
30K29,542,training,55,↑,up,↑,0.8854778999229893,True,20
30K29,543,experiment,17,←,left,←,0.7996696999762207,True,20
30K29,544,experiment,24,←,left,←,0.6405384000390768,True,20
30K29,545,experiment,28,↓,down,↓,0.7896151999011636,True,20
30K29,546,experiment,46,↓,down,↓,0.848565399996005,True,20
30K29,547,experiment,26,↑,up,↑,0.9022989999502897,True,20
30K29,548,experiment,30,↓,down,↓,1.0310586999403313,True,20
30K29,549,experiment,27,↑,up,↑,0.7967447000555694,True,20
30K29,550,experiment,33,→,right,→,1.0555976999457926,True,20
30K29,551,experiment,29,↓,down,↓,0.8034272999502718,True,20
30K29,552,experiment,43,↓,down,↓,0.8556428999872878,True,20
30K29,553,experiment,37,→,right,→,0.9660022999159992,True,20
30K29,554,experiment,42,↓,down,↓,0.9087080000899732,True,20
30K29,555,experiment,13,→,right,→,0.7925966999027878,True,20
30K29,556,experiment,44,↓,down,↓,0.9252817000960931,True,20
30K29,557,experiment,40,↑,up,↑,0.8867252999916673,True,20
30K29,558,experiment,25,↑,up,↑,0.8757734999526292,True,20
30K29,559,experiment,38,→,right,→,0.6968811000697315,True,20
30K29,560,experiment,22,↑,up,↑,0.9587453999556601,True,20
30K29,561,experiment,21,↓,down,↓,0.9477553999749944,True,20
30K29,562,experiment,41,→,right,→,0.9634418999776244,True,20
30K29,563,experiment,23,→,right,→,0.8304221000289544,True,20
30K29,564,experiment,20,↓,right,→,1.3769959999481216,False,20
30K29,565,experiment,36,↑,up,↑,1.0272028000326827,True,20
30K29,566,experiment,34,→,right,→,0.5809621000662446,True,20
30K29,567,experiment,19,→,right,→,1.2578260999871418,True,20
30K29,568,experiment,53,→,right,→,0.9818923999555409,True,20
30K29,569,experiment,58,↓,down,↓,0.8800979999359697,True,20
30K29,570,experiment,48,→,right,→,0.7493409999879077,True,20
30K29,571,experiment,49,↑,up,↑,0.7917337999679148,True,20
30K29,572,experiment,51,↓,down,↓,0.959723100066185,True,20
30K29,573,experiment,45,←,left,←,0.8447145000100136,True,20
30K29,574,experiment,47,←,left,←,0.8210280999774113,True,20
30K29,575,experiment,55,←,left,←,0.728878700057976,True,20
30K29,576,experiment,18,→,left,←,0.8090099999681115,False,20
30K29,577,experiment,52,←,left,←,0.551318799960427,True,20
30K29,578,experiment,60,↓,down,↓,0.5864243999822065,True,20
30K29,579,experiment,16,↓,down,↓,0.6734530000248924,True,20
30K29,580,experiment,32,←,left,←,0.7220766000682488,True,20
30K29,581,experiment,35,→,right,→,0.7188891000114381,True,20
30K29,582,experiment,59,←,left,←,0.7643860999960452,True,20
30K29,583,experiment,57,←,left,←,0.5607216999633238,True,20
30K29,584,experiment,50,←,left,←,0.6740936000132933,True,20
30K29,585,experiment,14,↑,no_key,no_letter,-1.0,False,20
30K29,586,experiment,54,↑,left,←,0.9326297000516206,False,20
30K29,587,experiment,39,→,right,→,0.7022681999951601,True,20
30K29,588,experiment,15,↓,down,↓,0.7932290000608191,True,20
30K29,589,experiment,31,←,left,←,0.6699298999737948,True,20
30K29,590,experiment,56,←,left,←,0.8310501000378281,True,20
