PART_ID,Trial_no,Trial_type,CSI,Stim_letter,Key_pressed,letter_choose,Rt,Corr,Stimulus Time
44K19,1,training,60,↓,no_key,no_letter,-1.0,False,30
44K19,2,training,60,→,no_key,no_letter,-1.0,False,30
44K19,3,training,60,→,no_key,no_letter,-1.0,False,30
44K19,4,training,60,→,no_key,no_letter,-1.0,False,30
44K19,5,training,60,↑,up,↑,1.7051739000016823,True,30
44K19,6,training,60,↑,no_key,no_letter,-1.0,False,30
44K19,7,training,60,↓,up,↑,0.6337939999066293,False,30
44K19,8,training,60,↑,no_key,no_letter,-1.0,False,30
44K19,9,training,60,↑,down,↓,1.2674816999351606,False,30
44K19,10,training,60,↓,up,↑,0.5336176999844611,False,30
44K19,11,training,60,↓,up,↑,2.1250555999577045,False,30
44K19,12,training,60,→,up,↑,0.633640700019896,False,30
44K19,13,training,60,→,no_key,no_letter,-1.0,False,30
44K19,14,training,60,↑,no_key,no_letter,-1.0,False,30
44K19,15,training,60,←,up,↑,0.384778100065887,False,30
44K19,16,training,60,↑,left,←,1.6270329999970272,False,30
44K19,17,training,60,→,left,←,1.4430824998999014,False,30
44K19,18,training,60,↑,no_key,no_letter,-1.0,False,30
44K19,19,training,60,→,right,→,0.5346699000801891,True,30
44K19,20,training,60,↑,left,←,0.483654799987562,False,30
44K19,21,training,60,←,right,→,0.5100373000605032,False,18
44K19,22,training,60,↓,up,↑,0.40054740000050515,False,18
44K19,23,training,60,←,up,↑,0.5704639999894425,False,18
44K19,24,training,60,→,no_key,no_letter,-1.0,False,18
44K19,25,training,60,→,no_key,no_letter,-1.0,False,18
44K19,26,training,60,←,no_key,no_letter,-1.0,False,18
44K19,27,training,60,→,no_key,no_letter,-1.0,False,18
44K19,28,training,60,→,left,←,1.3680739999981597,False,18
44K19,29,training,60,↓,right,→,0.3504137999843806,False,18
44K19,30,training,60,↓,up,↑,0.804856100003235,False,18
44K19,31,training,60,←,right,→,0.5181043000193313,False,18
44K19,32,training,60,↓,right,→,0.7142162000527605,False,18
44K19,33,training,60,←,up,↑,0.61433999997098,False,18
44K19,34,training,60,↓,left,←,0.26788510009646416,False,18
44K19,35,training,60,↑,left,←,0.30079590005334467,False,18
44K19,36,training,60,→,right,→,0.3829783999826759,True,18
44K19,37,training,60,↑,right,→,0.08479989995248616,False,18
44K19,38,training,60,↓,right,→,0.4336590999737382,False,18
44K19,39,training,60,←,right,→,0.0016423000488430262,False,18
44K19,40,training,60,↓,right,→,0.01692009996622801,False,18
44K19,41,training,50,↓,right,→,0.5746846999973059,False,18
44K19,42,training,57,→,right,→,0.28375549998600036,True,18
44K19,43,experiment,29,→,right,→,0.3175412000855431,True,18
44K19,44,experiment,20,↑,right,→,0.0349910999648273,False,18
44K19,45,experiment,48,↑,up,↑,1.8630491000367329,True,18
44K19,46,experiment,55,↑,up,↑,1.2173916000174358,True,18
44K19,47,experiment,24,↓,left,←,0.858070999966003,False,18
44K19,48,experiment,15,→,no_key,no_letter,-1.0,False,18
44K19,49,experiment,50,←,left,←,1.6085894999559969,True,18
44K19,50,experiment,36,↓,left,←,0.6096572999376804,False,18
44K19,51,experiment,59,↓,right,→,0.6913830999983475,False,18
44K19,52,experiment,39,↑,no_key,no_letter,-1.0,False,18
44K19,53,experiment,21,↑,down,↓,0.8117878999328241,False,18
44K19,54,experiment,53,↑,left,←,0.801456900080666,False,18
44K19,55,experiment,46,←,right,→,0.11844850005581975,False,18
44K19,56,experiment,45,↓,right,→,0.08368440007325262,False,18
44K19,57,experiment,58,↓,no_key,no_letter,-1.0,False,18
44K19,58,experiment,25,←,no_key,no_letter,-1.0,False,18
44K19,59,experiment,51,→,no_key,no_letter,-1.0,False,18
44K19,60,experiment,42,↑,no_key,no_letter,-1.0,False,18
44K19,61,experiment,35,←,left,←,0.3170480999397114,True,18
44K19,62,experiment,26,→,right,→,0.1837519999826327,True,18
44K19,63,experiment,56,↑,right,→,0.21818139997776598,False,18
44K19,64,experiment,16,←,right,→,0.2841497000772506,False,18
44K19,65,experiment,17,↑,right,→,0.4172929000342265,False,18
44K19,66,experiment,49,←,right,→,0.06825090001802891,False,18
44K19,67,experiment,44,↑,down,↓,0.05160379991866648,False,18
44K19,68,experiment,27,↓,left,←,0.1681873999768868,False,18
44K19,69,experiment,41,↑,up,↑,0.7822191000450402,True,18
44K19,70,experiment,54,↓,left,←,0.3337893000571057,False,18
44K19,71,experiment,13,↑,up,↑,0.10156939993612468,True,18
44K19,72,experiment,31,←,up,↑,0.3181891000131145,False,18
44K19,73,experiment,28,↓,down,↓,0.08489659999031574,True,18
44K19,74,experiment,18,↑,right,→,0.018154600053094327,False,18
44K19,75,experiment,37,↓,down,↓,0.18478470004629344,True,18
44K19,76,experiment,33,→,left,←,0.017223400063812733,False,18
44K19,77,experiment,30,→,right,→,0.13485549995675683,True,18
44K19,78,experiment,40,→,left,←,0.001630699960514903,False,18
44K19,79,experiment,32,↑,right,→,0.11857040005270392,False,18
44K19,80,experiment,19,↑,right,→,0.21831919997930527,False,18
44K19,81,experiment,34,↑,right,→,0.18487860006280243,False,18
44K19,82,experiment,60,↑,down,↓,0.03497380006592721,False,18
44K19,83,experiment,14,→,left,←,0.03495960007421672,False,18
44K19,84,experiment,23,↓,up,↑,0.2665903000161052,False,18
44K19,85,experiment,57,←,up,↑,0.11814729997422546,False,18
44K19,86,experiment,43,↓,up,↑,0.03355380007997155,False,18
44K19,87,experiment,38,↑,up,↑,0.1349564999109134,True,18
44K19,88,experiment,47,←,up,↑,0.2519829999655485,False,18
44K19,89,experiment,22,→,right,→,0.2179253000067547,True,18
44K19,90,experiment,52,→,down,↓,0.01714050001464784,False,18
44K19,91,training,59,←,right,→,0.6267701999749988,False,19
44K19,92,training,33,↓,right,→,0.2516862000338733,False,19
44K19,93,experiment,50,←,down,↓,0.3170706999953836,False,19
44K19,94,experiment,35,→,up,↑,0.4171012999722734,False,19
44K19,95,experiment,41,→,left,←,0.4334458999801427,False,19
44K19,96,experiment,37,←,left,←,0.0342477000085637,True,19
44K19,97,experiment,49,↑,left,←,0.43439990002661943,False,19
44K19,98,experiment,32,→,right,→,0.7861300999065861,True,19
44K19,99,experiment,54,↓,left,←,0.18486110004596412,False,19
44K19,100,experiment,40,↑,up,↑,0.3677851998945698,True,19
44K19,101,experiment,56,↓,right,→,0.5740291000111029,False,19
44K19,102,experiment,34,←,left,←,-0.013901700032874942,True,19
44K19,103,experiment,24,←,up,↑,0.23484960000496358,False,19
44K19,104,experiment,16,↓,right,→,0.6143613000167534,False,19
44K19,105,experiment,43,↑,left,←,0.06844219996128231,False,19
44K19,106,experiment,30,↓,no_key,no_letter,-1.0,False,19
44K19,107,experiment,22,→,right,→,1.1895518999081105,True,19
44K19,108,experiment,60,→,right,→,0.2349059000844136,True,19
44K19,109,experiment,14,→,right,→,0.25178100005723536,True,19
44K19,110,experiment,28,←,right,→,0.15134460001718253,False,19
44K19,111,experiment,33,←,right,→,0.11821709992364049,False,19
44K19,112,experiment,18,←,left,←,0.7132912999950349,True,19
44K19,113,experiment,27,→,right,→,0.4342424999922514,True,19
44K19,114,experiment,23,←,up,↑,0.018383100046776235,False,19
44K19,115,experiment,57,→,right,→,0.8571123000001535,True,19
44K19,116,experiment,46,→,left,←,0.8015587000409141,False,19
44K19,117,experiment,15,↓,right,→,0.38371700001880527,False,19
44K19,118,experiment,44,→,right,→,1.7238923999248073,True,19
44K19,119,experiment,21,←,right,→,0.18485169997438788,False,19
44K19,120,experiment,38,←,left,←,0.6213479000143707,True,19
44K19,121,experiment,17,↑,no_key,no_letter,-1.0,False,19
44K19,122,experiment,51,↑,right,→,0.970268200035207,False,19
44K19,123,experiment,55,↑,right,→,0.5360709000378847,False,19
44K19,124,experiment,53,←,right,→,0.1846950000617653,False,19
44K19,125,experiment,42,↓,right,→,0.6326343999244273,False,19
44K19,126,experiment,58,↑,right,→,0.03500849998090416,False,19
44K19,127,experiment,20,←,right,→,0.11825880000833422,False,19
44K19,128,experiment,26,↑,left,←,0.18467089999467134,False,19
44K19,129,experiment,29,↓,right,→,0.06834959995467216,False,19
44K19,130,experiment,19,↑,left,←,0.051634800038300455,False,19
44K19,131,experiment,36,←,up,↑,0.35036120004951954,False,19
44K19,132,experiment,31,↑,right,→,0.20144540001638234,False,19
44K19,133,experiment,52,↓,left,←,0.317006399971433,False,19
44K19,134,experiment,48,→,up,↑,0.8017714000307024,False,19
44K19,135,experiment,47,↓,left,←,1.2831293001072481,False,19
44K19,136,experiment,59,↓,right,→,0.3504670000402257,False,19
44K19,137,experiment,39,↓,left,←,0.4979462999617681,False,19
44K19,138,experiment,25,→,right,→,0.1831852999748662,True,19
44K19,139,experiment,13,←,right,→,0.0341924000531435,False,19
44K19,140,experiment,45,↑,left,←,0.6393831999739632,False,19
44K19,141,training,46,←,right,→,0.45031909993849695,False,20
44K19,142,training,58,↑,left,←,0.4004160000476986,False,20
44K19,143,experiment,46,↑,right,→,0.3170721000060439,False,20
44K19,144,experiment,45,↑,up,↑,0.878939599962905,True,20
44K19,145,experiment,31,←,right,→,0.23466169997118413,False,20
44K19,146,experiment,44,←,right,→,0.9990894000511616,False,20
44K19,147,experiment,49,↑,no_key,no_letter,-1.0,False,20
44K19,148,experiment,50,→,right,→,1.318937800009735,True,20
44K19,149,experiment,42,←,right,→,0.5437047999585047,False,20
44K19,150,experiment,36,↓,right,→,1.4750937999924645,False,20
44K19,151,experiment,39,→,no_key,no_letter,-1.0,False,20
44K19,152,experiment,35,↓,right,→,0.7300103000598028,False,20
44K19,153,experiment,40,↑,up,↑,0.6672548999777064,True,20
44K19,154,experiment,19,↓,up,↑,0.5404136999277398,False,20
44K19,155,experiment,24,←,down,↓,0.3341387000400573,False,20
44K19,156,experiment,54,→,right,→,0.08489580010063946,True,20
44K19,157,experiment,47,↓,up,↑,0.11824099998921156,False,20
44K19,158,experiment,20,↑,up,↑,0.2348876999458298,True,20
44K19,159,experiment,32,↑,right,→,0.8949155999580398,False,20
44K19,160,experiment,14,←,left,←,0.251587999984622,True,20
44K19,161,experiment,30,←,right,→,0.38369419996161014,False,20
44K19,162,experiment,53,↓,up,↑,0.33377070003189147,False,20
44K19,163,experiment,48,↓,up,↑,0.317447500070557,False,20
44K19,164,experiment,16,→,up,↑,0.3334536999464035,False,20
44K19,165,experiment,56,↓,up,↑,0.23485100001562387,False,20
44K19,166,experiment,25,←,left,←,0.4504144999664277,True,20
44K19,167,experiment,57,←,up,↑,0.3015761999413371,False,20
44K19,168,experiment,23,→,left,←,0.30149660003371537,False,20
44K19,169,experiment,17,→,up,↑,0.30185309995431453,False,20
44K19,170,experiment,59,↓,right,→,0.30119770008604974,False,20
44K19,171,experiment,18,↓,left,←,0.5559925000416115,False,20
44K19,172,experiment,21,←,up,↑,0.350378799950704,False,20
44K19,173,experiment,13,↓,right,→,1.1293951000552624,False,20
44K19,174,experiment,29,→,up,↑,0.0016023999778553843,False,20
44K19,175,experiment,27,→,no_key,no_letter,-1.0,False,20
44K19,176,experiment,33,→,right,→,0.5666765000205487,True,20
44K19,177,experiment,38,↓,no_key,no_letter,-1.0,False,20
44K19,178,experiment,43,↓,no_key,no_letter,-1.0,False,20
44K19,179,experiment,26,↑,right,→,0.1515269000083208,False,20
44K19,180,experiment,60,←,up,↑,0.18494700000155717,False,20
44K19,181,experiment,51,↑,no_key,no_letter,-1.0,False,20
44K19,182,experiment,37,↓,up,↑,0.8427783000515774,False,20
44K19,183,experiment,41,←,up,↑,0.3339636999880895,False,20
44K19,184,experiment,55,←,up,↑,0.3337928999681026,False,20
44K19,185,experiment,15,↑,down,↓,0.15089340007398278,False,20
44K19,186,experiment,22,←,right,→,0.874612299958244,False,20
44K19,187,experiment,34,←,down,↓,0.6743100000312552,False,20
44K19,188,experiment,58,↓,left,←,0.3171085000503808,False,20
44K19,189,experiment,52,←,right,→,0.033529700012877584,False,20
44K19,190,experiment,28,→,down,↓,1.099424900021404,False,20
44K19,191,training,47,↑,up,↑,0.43339310004375875,True,21
44K19,192,training,20,→,left,←,0.5778224000241607,False,21
44K19,193,experiment,36,←,down,↓,0.3504001001128927,False,21
44K19,194,experiment,52,→,up,↑,0.2681994999293238,False,21
44K19,195,experiment,14,→,down,↓,1.54873579996638,False,21
44K19,196,experiment,15,↑,no_key,no_letter,-1.0,False,21
44K19,197,experiment,24,→,down,↓,0.6310658999718726,False,21
44K19,198,experiment,51,↓,down,↓,0.23457720002625138,True,21
44K19,199,experiment,54,→,down,↓,0.41641309997066855,False,21
44K19,200,experiment,30,↓,right,→,0.134854199946858,False,21
44K19,201,experiment,38,→,right,→,0.6722131000133231,True,21
44K19,202,experiment,26,←,down,↓,1.1492347000166774,False,21
44K19,203,experiment,23,↓,down,↓,0.6327040999894962,True,21
44K19,204,experiment,48,↓,left,←,0.8326316000893712,False,21
44K19,205,experiment,29,←,no_key,no_letter,-1.0,False,21
44K19,206,experiment,16,↓,down,↓,1.402700399979949,True,21
44K19,207,experiment,20,→,down,↓,0.8705873000435531,False,21
44K19,208,experiment,59,↓,no_key,no_letter,-1.0,False,21
44K19,209,experiment,17,←,down,↓,0.8192286000121385,False,21
44K19,210,experiment,41,←,up,↑,0.10151830001268536,False,21
44K19,211,experiment,49,→,down,↓,0.11799979989882559,False,21
44K19,212,experiment,37,→,down,↓,0.2516737999394536,False,21
44K19,213,experiment,57,←,no_key,no_letter,-1.0,False,21
44K19,214,experiment,50,←,no_key,no_letter,-1.0,False,21
44K19,215,experiment,32,↑,no_key,no_letter,-1.0,False,21
44K19,216,experiment,21,↑,no_key,no_letter,-1.0,False,21
44K19,217,experiment,42,↓,right,→,1.3963338000467047,False,21
44K19,218,experiment,44,↑,up,↑,1.0802895999513566,True,21
44K19,219,experiment,18,↑,up,↑,0.26840100006666034,True,21
44K19,220,experiment,31,↑,right,→,0.3841322000371292,False,21
44K19,221,experiment,47,↓,right,→,0.16819250001572073,False,21
44K19,222,experiment,25,←,right,→,0.06830729998182505,False,21
44K19,223,experiment,22,↓,right,→,0.43380739993881434,False,21
44K19,224,experiment,40,↑,right,→,0.23482550005428493,False,21
44K19,225,experiment,60,↑,right,→,0.28480699995998293,False,21
44K19,226,experiment,28,↑,right,→,0.2850937999319285,False,21
44K19,227,experiment,55,↑,right,→,0.46708830003626645,False,21
44K19,228,experiment,58,↓,down,↓,0.05183959996793419,True,21
44K19,229,experiment,35,←,down,↓,0.3184622999979183,False,21
44K19,230,experiment,46,↑,down,↓,0.4004148000385612,False,21
44K19,231,experiment,34,→,left,←,0.3338733999989927,False,21
44K19,232,experiment,43,↓,up,↑,0.16826250008307397,False,21
44K19,233,experiment,45,↑,up,↑,0.3340000999160111,True,21
44K19,234,experiment,13,↓,down,↓,0.26823290006723255,True,21
44K19,235,experiment,56,↓,down,↓,0.3505623999517411,True,21
44K19,236,experiment,53,↓,down,↓,0.3496880999300629,True,21
44K19,237,experiment,19,↓,up,↑,0.017273699981160462,False,21
44K19,238,experiment,27,←,up,↑,0.5400987999746576,False,21
44K19,239,experiment,33,→,down,↓,0.08356579998508096,False,21
44K19,240,experiment,39,↓,down,↓,0.40033700002823025,True,21
44K19,241,training,33,←,up,↑,1.3966079999227077,False,21
44K19,242,training,16,↑,no_key,no_letter,-1.0,False,21
44K19,243,experiment,59,↓,left,←,1.0607539999764413,False,21
44K19,244,experiment,29,←,right,→,1.0644143000245094,False,21
44K19,245,experiment,21,↓,up,↑,1.0247194000985473,False,21
44K19,246,experiment,56,↑,down,↓,0.217296399991028,False,21
44K19,247,experiment,46,↓,left,←,0.6801698999479413,False,21
44K19,248,experiment,38,→,right,→,0.33386809995863587,True,21
44K19,249,experiment,48,↑,right,→,0.7435251000570133,False,21
44K19,250,experiment,34,←,right,→,0.11792350001633167,False,21
44K19,251,experiment,18,←,down,↓,0.13384700007736683,False,21
44K19,252,experiment,37,→,right,→,0.018209900008514524,True,21
44K19,253,experiment,16,↑,up,↑,0.1514788999920711,True,21
44K19,254,experiment,51,←,up,↑,0.16816589992959052,False,21
44K19,255,experiment,24,↓,left,←,0.13493860000744462,False,21
44K19,256,experiment,43,↓,down,↓,0.051831700024195015,True,21
44K19,257,experiment,40,↓,right,→,0.36685180000495166,False,21
44K19,258,experiment,25,←,left,←,0.15158389997668564,True,21
44K19,259,experiment,19,→,no_key,no_letter,-1.0,False,21
44K19,260,experiment,28,↑,down,↓,0.5388538999250159,False,21
44K19,261,experiment,54,↓,down,↓,0.0503394000697881,True,21
44K19,262,experiment,20,↑,left,←,0.40032989997416735,False,21
44K19,263,experiment,35,→,left,←,0.01825610001105815,False,21
44K19,264,experiment,55,↓,left,←,0.23477919993456453,False,21
44K19,265,experiment,45,←,left,←,0.10143250005785376,True,21
44K19,266,experiment,47,↓,down,↓,0.5430199999827892,True,21
44K19,267,experiment,33,↑,down,↓,0.11823420005384833,False,21
44K19,268,experiment,14,↑,down,↓,0.9897098999936134,False,21
44K19,269,experiment,52,↑,down,↓,0.7329842000035569,False,21
44K19,270,experiment,31,←,no_key,no_letter,-1.0,False,21
44K19,271,experiment,50,↑,down,↓,0.21685540000908077,False,21
44K19,272,experiment,41,↑,down,↓,0.4336765999905765,False,21
44K19,273,experiment,26,↑,down,↓,0.3177652999293059,False,21
44K19,274,experiment,42,↑,down,↓,0.21816819999367,False,21
44K19,275,experiment,22,←,up,↑,0.20125190005637705,False,21
44K19,276,experiment,13,←,right,→,0.20155869994778186,False,21
44K19,277,experiment,30,↓,down,↓,0.13467780000064522,True,21
44K19,278,experiment,15,←,right,→,0.23361730005126446,False,21
44K19,279,experiment,60,↑,no_key,no_letter,-1.0,False,21
44K19,280,experiment,39,↑,up,↑,0.0014850000152364373,True,21
44K19,281,experiment,17,→,up,↑,0.0017120999982580543,False,21
44K19,282,experiment,36,↓,up,↑,0.7681911999825388,False,21
44K19,283,experiment,23,↑,up,↑,0.18484539992641658,True,21
44K19,284,experiment,44,→,up,↑,1.1368425999535248,False,21
44K19,285,experiment,58,↑,up,↑,0.6139017000095919,True,21
44K19,286,experiment,49,→,up,↑,0.25158829998690635,False,21
44K19,287,experiment,57,↓,left,←,0.1349204999860376,False,21
44K19,288,experiment,27,↑,left,←,0.3331125999102369,False,21
44K19,289,experiment,53,→,down,↓,0.4004450999200344,False,21
44K19,290,experiment,32,←,left,←,0.6774909000378102,True,21
44K19,291,training,47,→,up,↑,0.6788882000837475,False,21
44K19,292,training,24,↑,right,→,0.4504157000919804,False,21
44K19,293,experiment,58,↑,right,→,0.33289269998203963,False,21
44K19,294,experiment,54,←,right,→,0.15146309998817742,False,21
44K19,295,experiment,16,↑,down,↓,0.20141639991197735,False,21
44K19,296,experiment,22,↓,left,←,0.15025219996459782,False,21
44K19,297,experiment,42,↓,left,←,0.06831299990881234,False,21
44K19,298,experiment,41,→,left,←,0.06829119997564703,False,21
44K19,299,experiment,32,←,left,←,0.26803759997710586,True,21
44K19,300,experiment,39,↑,left,←,0.18348170001991093,False,21
44K19,301,experiment,47,→,left,←,0.40036930004134774,False,21
44K19,302,experiment,43,↑,up,↑,0.0346564999781549,True,21
44K19,303,experiment,56,→,up,↑,0.07061529997736216,False,21
44K19,304,experiment,29,←,right,→,0.20155669993255287,False,21
44K19,305,experiment,31,→,left,←,0.08490969997365028,False,21
44K19,306,experiment,19,→,up,↑,0.08447360002901405,False,21
44K19,307,experiment,45,↓,left,←,0.21850860002450645,False,21
44K19,308,experiment,50,↑,right,→,0.2684031999669969,False,21
44K19,309,experiment,25,←,down,↓,0.31813269993290305,False,21
44K19,310,experiment,26,↓,up,↑,0.15138669998850673,False,21
44K19,311,experiment,28,→,down,↓,0.051569500006735325,False,21
44K19,312,experiment,15,↑,left,←,0.15166640002280474,False,21
44K19,313,experiment,48,↓,down,↓,0.3839668999426067,True,21
44K19,314,experiment,27,↑,up,↑,0.5349307000869885,True,21
44K19,315,experiment,57,↓,down,↓,0.3018273999914527,True,21
44K19,316,experiment,52,↓,left,←,0.3184192000189796,False,21
44K19,317,experiment,21,→,up,↑,0.2347453999100253,False,21
44K19,318,experiment,37,←,up,↑,0.10198350006248802,False,21
44K19,319,experiment,46,←,up,↑,0.13505230005830526,False,21
44K19,320,experiment,23,→,up,↑,0.2014929000288248,False,21
44K19,321,experiment,53,←,left,←,0.31787710008211434,True,21
44K19,322,experiment,55,←,down,↓,0.3836738000391051,False,21
44K19,323,experiment,35,←,right,→,0.2501479999627918,False,21
44K19,324,experiment,14,→,left,←,0.3340840000892058,False,21
44K19,325,experiment,40,↑,left,←,0.5956428000936285,False,21
44K19,326,experiment,30,←,left,←,0.401401000097394,True,21
44K19,327,experiment,36,←,up,↑,0.3503533999901265,False,21
44K19,328,experiment,24,→,up,↑,0.11697889992501587,False,21
44K19,329,experiment,51,←,up,↑,0.03498669993132353,False,21
44K19,330,experiment,49,↓,no_key,no_letter,-1.0,False,21
44K19,331,experiment,60,↓,no_key,no_letter,-1.0,False,21
44K19,332,experiment,20,←,no_key,no_letter,-1.0,False,21
44K19,333,experiment,17,→,no_key,no_letter,-1.0,False,21
44K19,334,experiment,44,←,up,↑,1.5467163999564946,False,21
44K19,335,experiment,13,↑,down,↓,1.853209900087677,False,21
44K19,336,experiment,34,←,no_key,no_letter,-1.0,False,21
44K19,337,experiment,38,←,no_key,no_letter,-1.0,False,21
44K19,338,experiment,59,↓,up,↑,1.9192368999356404,False,21
44K19,339,experiment,33,↓,right,→,1.3341018999926746,False,21
44K19,340,experiment,18,↓,up,↑,0.20151779998559505,False,21
44K19,341,training,29,↑,up,↑,0.48359639989212155,True,21
44K19,342,training,14,←,up,↑,0.1681824999395758,False,21
44K19,343,experiment,18,→,up,↑,0.13480470003560185,False,21
44K19,344,experiment,21,→,up,↑,0.6360326999565586,False,21
44K19,345,experiment,38,←,up,↑,0.01823980000335723,False,21
44K19,346,experiment,22,←,up,↑,0.11822579998988658,False,21
44K19,347,experiment,20,↓,up,↑,0.41704999993089586,False,21
44K19,348,experiment,13,←,up,↑,0.001702499925158918,False,21
44K19,349,experiment,31,→,up,↑,1.5437894000206143,False,21
44K19,350,experiment,26,→,up,↑,0.5864219999639317,False,21
44K19,351,experiment,27,↓,right,→,0.8177944000344723,False,21
44K19,352,experiment,51,←,right,→,0.2680687999818474,False,21
44K19,353,experiment,47,↓,up,↑,0.26816749991849065,False,21
44K19,354,experiment,37,←,left,←,0.2679303000913933,True,21
44K19,355,experiment,14,←,up,↑,1.295128699974157,False,21
44K19,356,experiment,55,↑,down,↓,0.20045390003360808,False,21
44K19,357,experiment,43,↓,right,→,0.13488170003984123,False,21
44K19,358,experiment,60,↑,down,↓,0.9375121000921354,False,21
44K19,359,experiment,40,→,right,→,0.4006818999769166,True,21
44K19,360,experiment,32,↑,left,←,0.4504363000160083,False,21
44K19,361,experiment,54,←,down,↓,0.2833996000699699,False,21
44K19,362,experiment,33,←,down,↓,0.10149699996691197,False,21
44K19,363,experiment,42,↑,up,↑,0.13484149996656924,True,21
44K19,364,experiment,58,→,up,↑,0.1182626000372693,False,21
44K19,365,experiment,46,↓,left,←,0.7630353000713512,False,21
44K19,366,experiment,34,→,no_key,no_letter,-1.0,False,21
44K19,367,experiment,28,←,no_key,no_letter,-1.0,False,21
44K19,368,experiment,15,←,right,→,2.0115603000158444,False,21
44K19,369,experiment,30,↓,right,→,0.01830100000370294,False,21
44K19,370,experiment,36,←,right,→,1.587248699972406,False,21
44K19,371,experiment,59,↑,no_key,no_letter,-1.0,False,21
44K19,372,experiment,23,↑,no_key,no_letter,-1.0,False,21
44K19,373,experiment,53,↑,no_key,no_letter,-1.0,False,21
44K19,374,experiment,41,↑,no_key,no_letter,-1.0,False,21
44K19,375,experiment,39,←,no_key,no_letter,-1.0,False,21
44K19,376,experiment,35,↓,no_key,no_letter,-1.0,False,21
44K19,377,experiment,25,↑,no_key,no_letter,-1.0,False,21
44K19,378,experiment,24,↓,no_key,no_letter,-1.0,False,21
44K19,379,experiment,52,→,no_key,no_letter,-1.0,False,21
44K19,380,experiment,57,↑,no_key,no_letter,-1.0,False,21
44K19,381,experiment,19,↓,down,↓,0.1347723000217229,True,21
44K19,382,experiment,16,↓,down,↓,1.8335442000534385,True,21
44K19,383,experiment,48,↓,down,↓,0.8661778999958187,True,21
44K19,384,experiment,49,→,no_key,no_letter,-1.0,False,21
44K19,385,experiment,29,↓,no_key,no_letter,-1.0,False,21
44K19,386,experiment,50,↓,no_key,no_letter,-1.0,False,21
44K19,387,experiment,56,→,no_key,no_letter,-1.0,False,21
44K19,388,experiment,17,→,no_key,no_letter,-1.0,False,21
44K19,389,experiment,45,↓,left,←,1.0249618000816554,False,21
44K19,390,experiment,44,→,up,↑,0.15161159995477647,False,21
44K19,391,training,21,←,right,→,0.7216509999707341,False,21
44K19,392,training,33,↓,right,→,0.0016720000421628356,False,21
44K19,393,experiment,24,↑,no_key,no_letter,-1.0,False,21
44K19,394,experiment,49,←,no_key,no_letter,-1.0,False,21
44K19,395,experiment,47,↑,right,→,1.220585300005041,False,21
44K19,396,experiment,53,←,no_key,no_letter,-1.0,False,21
44K19,397,experiment,40,↓,no_key,no_letter,-1.0,False,21
44K19,398,experiment,46,↑,right,→,0.1343334000557661,False,21
44K19,399,experiment,22,↑,right,→,0.7183836000040174,False,21
44K19,400,experiment,28,↓,right,→,0.1203588000498712,False,21
44K19,401,experiment,23,↓,up,↑,0.9631490000756457,False,21
44K19,402,experiment,54,←,down,↓,0.08460800000466406,False,21
44K19,403,experiment,18,←,down,↓,0.9845356999430805,False,21
44K19,404,experiment,52,↑,right,→,0.13508160004857928,False,21
44K19,405,experiment,13,↑,up,↑,0.31829409999772906,True,21
44K19,406,experiment,60,→,up,↑,0.4007040000287816,False,21
44K19,407,experiment,26,↓,down,↓,1.5230586999095976,True,21
44K19,408,experiment,43,←,up,↑,0.40032909996807575,False,21
44K19,409,experiment,51,↑,up,↑,0.23350690002553165,True,21
44K19,410,experiment,19,→,down,↓,0.9914705000119284,False,21
44K19,411,experiment,31,→,up,↑,0.13383249996695668,False,21
44K19,412,experiment,25,↓,right,→,0.1671224000165239,False,21
44K19,413,experiment,57,↑,right,→,0.683578500058502,False,21
44K19,414,experiment,58,←,up,↑,0.31810789997689426,False,21
44K19,415,experiment,48,↓,down,↓,0.2507678000256419,True,21
44K19,416,experiment,42,↓,right,→,0.08497229998465627,False,21
44K19,417,experiment,56,↓,right,→,0.15151029999833554,False,21
44K19,418,experiment,16,→,right,→,0.06821039994247258,True,21
44K19,419,experiment,41,←,right,→,0.0668450000230223,False,21
44K19,420,experiment,38,→,up,↑,0.8344402000075206,False,21
44K19,421,experiment,34,→,up,↑,0.201418700045906,False,21
44K19,422,experiment,45,→,up,↑,0.2848923000274226,False,21
44K19,423,experiment,29,↓,up,↑,0.3337632999755442,False,21
44K19,424,experiment,35,↑,up,↑,0.05191070004366338,True,21
44K19,425,experiment,59,←,up,↑,0.051585600012913346,False,21
44K19,426,experiment,20,↓,up,↑,0.1839335000840947,False,21
44K19,427,experiment,50,→,down,↓,1.0774845000123605,False,21
44K19,428,experiment,32,↓,up,↑,0.1683235999662429,False,21
44K19,429,experiment,44,→,up,↑,0.7400413999566808,False,21
44K19,430,experiment,17,↑,up,↑,0.8521370999515057,True,21
44K19,431,experiment,21,↑,right,→,0.251520499936305,False,21
44K19,432,experiment,27,→,right,→,0.4005414000712335,True,21
44K19,433,experiment,33,←,right,→,0.3337471999693662,False,21
44K19,434,experiment,55,↓,left,←,0.18463210004847497,False,21
44K19,435,experiment,39,←,left,←,0.33381909993477166,True,21
44K19,436,experiment,37,↑,down,↓,0.40041790006216615,False,21
44K19,437,experiment,15,↑,up,↑,0.6227753000566736,True,21
44K19,438,experiment,14,↓,right,→,0.16809570009354502,False,21
44K19,439,experiment,30,↓,up,↑,0.31837499991524965,False,21
44K19,440,experiment,36,←,up,↑,0.13479089993052185,False,21
44K19,441,training,29,→,up,↑,0.3839067999506369,False,21
44K19,442,training,59,↓,right,→,0.21849819994531572,False,21
44K19,443,experiment,25,↑,up,↑,0.25150659994687885,True,21
44K19,444,experiment,20,←,right,→,0.3014905999880284,False,21
44K19,445,experiment,28,↑,right,→,0.03491960000246763,False,21
44K19,446,experiment,44,↑,right,→,0.13482540007680655,False,21
44K19,447,experiment,29,↑,right,→,0.10162709990981966,False,21
44K19,448,experiment,26,↓,right,→,0.034895700053311884,False,21
44K19,449,experiment,46,←,no_key,no_letter,-1.0,False,21
44K19,450,experiment,23,←,no_key,no_letter,-1.0,False,21
44K19,451,experiment,38,↓,up,↑,1.4348299999255687,False,21
44K19,452,experiment,54,↑,up,↑,0.0015970999374985695,True,21
44K19,453,experiment,14,→,right,→,0.3837161000119522,True,21
44K19,454,experiment,32,↑,right,→,0.2515144000062719,False,21
44K19,455,experiment,35,→,right,→,0.018045200034976006,True,21
44K19,456,experiment,22,↓,right,→,0.05187570000998676,False,21
44K19,457,experiment,41,←,left,←,0.08502769994083792,True,21
44K19,458,experiment,58,↑,left,←,0.614987300010398,False,21
44K19,459,experiment,24,←,down,↓,0.03523799998220056,False,21
44K19,460,experiment,34,↑,down,↓,0.35068440006580204,False,21
44K19,461,experiment,45,↑,left,←,0.28481659991666675,False,21
44K19,462,experiment,18,↑,right,→,1.1976852000225335,False,21
44K19,463,experiment,17,←,up,↑,0.4848256999393925,False,21
44K19,464,experiment,27,↑,left,←,0.06833470007404685,False,21
44K19,465,experiment,33,→,right,→,0.0016623999690636992,True,21
44K19,466,experiment,43,→,right,→,0.46673749992623925,True,21
44K19,467,experiment,40,←,down,↓,0.21813179994933307,False,21
44K19,468,experiment,39,→,left,←,0.10158889996819198,False,21
44K19,469,experiment,19,←,right,→,0.38304490002337843,False,21
44K19,470,experiment,37,→,down,↓,0.3504103999584913,False,21
44K19,471,experiment,42,→,left,←,0.08506860001944005,False,21
44K19,472,experiment,53,←,down,↓,0.26812720007728785,False,21
44K19,473,experiment,57,←,right,→,0.40030790003947914,False,21
44K19,474,experiment,60,↑,right,→,0.20147860003635287,False,21
44K19,475,experiment,49,←,right,→,0.08379860001150519,False,21
44K19,476,experiment,21,→,up,↑,0.6206955999368802,False,21
44K19,477,experiment,47,←,right,→,0.08371530007570982,False,21
44K19,478,experiment,56,↓,right,→,0.35037769994232804,False,21
44K19,479,experiment,15,→,up,↑,0.3338268999941647,False,21
44K19,480,experiment,55,→,right,→,0.4169938999693841,True,21
44K19,481,experiment,36,→,right,→,1.5931867000181228,True,21
44K19,482,experiment,59,→,right,→,0.5880423999624327,True,21
44K19,483,experiment,16,↓,right,→,0.866301600006409,False,21
44K19,484,experiment,48,←,right,→,1.2489914000034332,False,21
44K19,485,experiment,31,←,left,←,0.6752064999891445,True,21
44K19,486,experiment,50,↑,up,↑,1.176174300024286,True,21
44K19,487,experiment,30,↑,left,←,0.9429163000313565,False,21
44K19,488,experiment,51,→,left,←,1.216478000045754,False,21
44K19,489,experiment,13,→,down,↓,1.1520767000038177,False,21
44K19,490,experiment,52,←,right,→,0.9529063999652863,False,21
44K19,491,training,57,←,no_key,no_letter,-1.0,False,21
44K19,492,training,36,←,right,→,0.9566096999915317,False,21
44K19,493,experiment,52,↑,up,↑,0.05157600005622953,True,21
44K19,494,experiment,46,←,right,→,0.15170809999108315,False,21
44K19,495,experiment,15,↓,down,↓,1.6499057000037283,True,21
44K19,496,experiment,25,↓,left,←,0.9686279000015929,False,21
44K19,497,experiment,43,→,up,↑,0.9263553000055254,False,21
44K19,498,experiment,29,↓,right,→,1.5753401999827474,False,21
44K19,499,experiment,26,↓,right,→,0.3504258000757545,False,21
44K19,500,experiment,18,↑,right,→,0.30161790002603084,False,21
44K19,501,experiment,47,↓,up,↑,0.40061000001151115,False,21
44K19,502,experiment,39,←,left,←,0.10157139995135367,True,21
44K19,503,experiment,50,↑,down,↓,1.8655931999674067,False,21
44K19,504,experiment,51,↓,down,↓,0.1847146999789402,True,21
44K19,505,experiment,33,←,right,→,0.25019609997980297,False,21
44K19,506,experiment,44,→,up,↑,0.018399500055238605,False,21
44K19,507,experiment,28,←,right,→,1.5848567000357434,False,21
44K19,508,experiment,42,→,no_key,no_letter,-1.0,False,21
44K19,509,experiment,54,→,no_key,no_letter,-1.0,False,21
44K19,510,experiment,31,↓,no_key,no_letter,-1.0,False,21
44K19,511,experiment,24,↓,up,↑,0.26796649990137666,False,21
44K19,512,experiment,59,←,no_key,no_letter,-1.0,False,21
44K19,513,experiment,21,←,down,↓,0.5356467999517918,False,21
44K19,514,experiment,45,↓,up,↑,0.18487400002777576,False,21
44K19,515,experiment,60,→,right,→,1.1839087000116706,True,21
44K19,516,experiment,23,↓,right,→,0.674300399958156,False,21
44K19,517,experiment,14,←,right,→,0.33378959994297475,False,21
44K19,518,experiment,40,→,down,↓,0.36645949992816895,False,21
44K19,519,experiment,34,←,right,→,0.35041920002549887,False,21
44K19,520,experiment,38,←,down,↓,0.28314690000843257,False,21
44K19,521,experiment,36,←,left,←,0.301475299987942,True,21
44K19,522,experiment,32,←,up,↑,0.7868168000131845,False,21
44K19,523,experiment,56,←,down,↓,1.1192315000807866,False,21
44K19,524,experiment,22,←,right,→,0.21691540000028908,False,21
44K19,525,experiment,58,→,up,↑,0.051531000062823296,False,21
44K19,526,experiment,13,↑,left,←,0.4496266000205651,False,21
44K19,527,experiment,16,↓,up,↑,0.16713159997016191,False,21
44K19,528,experiment,41,↑,left,←,0.15180390002205968,False,21
44K19,529,experiment,19,↑,left,←,1.0517944999737665,False,21
44K19,530,experiment,30,→,up,↑,0.582948200055398,False,21
44K19,531,experiment,37,→,down,↓,0.10142369999084622,False,21
44K19,532,experiment,35,←,up,↑,0.234976900042966,False,21
44K19,533,experiment,17,↑,down,↓,0.11863100004848093,False,21
44K19,534,experiment,20,←,up,↑,0.06827469996642321,False,21
44K19,535,experiment,49,↓,right,→,1.314185700030066,False,21
44K19,536,experiment,57,→,no_key,no_letter,-1.0,False,21
44K19,537,experiment,53,↓,right,→,1.0224130999995396,False,21
44K19,538,experiment,55,↓,down,↓,0.3670871000504121,True,21
44K19,539,experiment,27,↑,up,↑,0.0851113999960944,True,21
44K19,540,experiment,48,↑,left,←,0.03493970003910363,False,21
44K19,541,training,17,→,right,→,1.9239747000392526,True,21
44K19,542,training,58,←,right,→,0.03489490004722029,False,21
44K19,543,experiment,41,←,right,→,1.3297273999778554,False,21
44K19,544,experiment,53,→,right,→,0.20135789993219078,True,21
44K19,545,experiment,34,←,right,→,0.18504010001197457,False,21
44K19,546,experiment,30,←,right,→,0.316831799922511,False,21
44K19,547,experiment,54,→,no_key,no_letter,-1.0,False,21
44K19,548,experiment,25,↑,up,↑,0.6442768999841064,True,21
44K19,549,experiment,24,←,no_key,no_letter,-1.0,False,21
44K19,550,experiment,50,→,up,↑,1.3477044999599457,False,21
44K19,551,experiment,42,↑,left,←,0.3337370000081137,False,21
44K19,552,experiment,26,↓,up,↑,1.2839455000357702,False,21
44K19,553,experiment,35,→,up,↑,0.31807150004897267,False,21
44K19,554,experiment,46,↑,up,↑,0.051618200028315187,True,21
44K19,555,experiment,22,→,up,↑,0.18457969999872148,False,21
44K19,556,experiment,14,→,right,→,0.10156630002893507,True,21
44K19,557,experiment,56,↓,right,→,0.3671410999959335,False,21
44K19,558,experiment,13,↓,right,→,0.16821229993365705,False,21
44K19,559,experiment,36,↓,right,→,0.16787660005502403,False,21
44K19,560,experiment,52,↓,right,→,0.11825220007449389,False,21
44K19,561,experiment,27,←,right,→,0.13469390000682324,False,21
44K19,562,experiment,20,↓,right,→,0.06721579993609339,False,21
44K19,563,experiment,39,←,right,→,0.5247268000384793,False,21
44K19,564,experiment,47,↑,right,→,0.10134739999193698,False,21
44K19,565,experiment,17,↑,left,←,0.6874231999972835,False,21
44K19,566,experiment,45,↑,up,↑,0.3838854000205174,True,21
44K19,567,experiment,57,→,up,↑,0.38368730002548546,False,21
44K19,568,experiment,29,←,up,↑,0.5913271000608802,False,21
44K19,569,experiment,31,↓,up,↑,0.5241109000053257,False,21
44K19,570,experiment,38,↑,right,→,1.070427400059998,False,21
44K19,571,experiment,28,↓,right,→,1.6501898999558762,False,21
44K19,572,experiment,59,↓,down,↓,0.6026101999450475,True,21
44K19,573,experiment,33,←,down,↓,0.533067199983634,False,21
44K19,574,experiment,43,→,left,←,0.35046190000139177,False,21
44K19,575,experiment,48,←,right,→,0.3516717000165954,False,21
44K19,576,experiment,55,↓,left,←,1.267100099939853,False,21
44K19,577,experiment,49,→,left,←,0.9534292001044378,False,21
44K19,578,experiment,58,↓,left,←,0.31810889998450875,False,21
44K19,579,experiment,44,→,left,←,0.43372490000911057,False,21
44K19,580,experiment,15,←,right,→,0.2847717000404373,False,21
44K19,581,experiment,16,↓,no_key,no_letter,-1.0,False,21
44K19,582,experiment,18,→,right,→,0.4171794999856502,True,21
44K19,583,experiment,40,↓,no_key,no_letter,-1.0,False,21
44K19,584,experiment,21,←,down,↓,0.3338693999685347,False,21
44K19,585,experiment,32,↓,left,←,1.02569110004697,False,21
44K19,586,experiment,60,←,down,↓,0.01828030007891357,False,21
44K19,587,experiment,19,←,right,→,0.7280194000340998,False,21
44K19,588,experiment,51,←,left,←,0.034186000004410744,True,21
44K19,589,experiment,37,←,down,↓,0.73252110008616,False,21
44K19,590,experiment,23,←,right,→,0.18513909995090216,False,21
