PART_ID,Trial_no,Trial_type,CSI,Stim_letter,Key_pressed,letter_choose,Rt,Corr,Stimulus Time
46K21,1,training,60,→,no_key,no_letter,-1.0,False,30
46K21,2,training,60,↑,up,↑,1.6134257999947295,True,30
46K21,3,training,60,↑,up,↑,0.8999965999973938,True,30
46K21,4,training,60,→,right,→,1.0153493999969214,True,30
46K21,5,training,60,→,right,→,0.845930999959819,True,30
46K21,6,training,60,→,right,→,0.5340339000103995,True,30
46K21,7,training,60,→,right,→,0.5673878999659792,True,30
46K21,8,training,60,↑,up,↑,0.868875400046818,True,30
46K21,9,training,60,↑,up,↑,0.7532316000433639,True,30
46K21,10,training,60,←,left,←,1.146529100020416,True,30
46K21,11,training,60,↑,up,↑,0.6008830999489874,True,30
46K21,12,training,60,←,up,↑,1.1229919999605045,False,30
46K21,13,training,60,↑,up,↑,0.8373069999506697,True,30
46K21,14,training,60,←,left,←,0.9393134999554604,True,30
46K21,15,training,60,↓,down,↓,0.8212150000035763,True,30
46K21,16,training,60,←,left,←,0.7239317999919876,True,30
46K21,17,training,60,→,right,→,0.567226899904199,True,30
46K21,18,training,60,↑,up,↑,0.5674371999921277,True,30
46K21,19,training,60,↑,up,↑,0.5672983000986278,True,30
46K21,20,training,60,↓,down,↓,0.7345474999165162,True,30
46K21,21,training,60,←,left,←,0.8612119000172243,True,18
46K21,22,training,60,→,right,→,0.5540953999152407,True,18
46K21,23,training,60,←,right,→,0.8752052000490949,False,18
46K21,24,training,60,→,right,→,0.6959003999363631,True,18
46K21,25,training,60,←,left,←,0.7632206999696791,True,18
46K21,26,training,60,→,left,←,0.8919956999598071,False,18
46K21,27,training,60,↓,down,↓,0.7039036999922246,True,18
46K21,28,training,60,↓,down,↓,0.7711958999279886,True,18
46K21,29,training,60,↑,up,↑,0.6517878000158817,True,18
46K21,30,training,60,↓,down,↓,0.753398000029847,True,18
46K21,31,training,60,→,right,→,0.9065435999073088,True,18
46K21,32,training,60,←,left,←,0.5498656000709161,True,18
46K21,33,training,60,→,right,→,0.7671126000350341,True,18
46K21,34,training,60,→,right,→,1.0637881000293419,True,18
46K21,35,training,60,↑,up,↑,0.6126012000022456,True,18
46K21,36,training,60,→,right,→,0.6911939000710845,True,18
46K21,37,training,60,←,left,←,0.5111304000020027,True,18
46K21,38,training,60,←,right,→,0.9057038999162614,False,18
46K21,39,training,60,→,right,→,0.949196600005962,True,18
46K21,40,training,60,←,left,←,0.5985490999883041,True,18
46K21,41,training,16,↑,no_key,no_letter,-1.0,False,18
46K21,42,training,30,←,right,→,0.7945440000621602,False,18
46K21,43,experiment,45,↑,up,↑,0.8610717999981716,True,18
46K21,44,experiment,14,↓,down,↓,0.9857166999718174,True,18
46K21,45,experiment,43,↓,down,↓,0.6777973000425845,True,18
46K21,46,experiment,28,←,left,←,0.7124184999847785,True,18
46K21,47,experiment,23,↑,up,↑,0.7330515999346972,True,18
46K21,48,experiment,47,↓,down,↓,0.7045966999139637,True,18
46K21,49,experiment,30,←,left,←,0.4726114999502897,True,18
46K21,50,experiment,53,→,right,→,0.6738266000756994,True,18
46K21,51,experiment,21,←,up,↑,1.1451466999715194,False,18
46K21,52,experiment,34,→,right,→,0.6293084000935778,True,18
46K21,53,experiment,48,↑,up,↑,0.5325098999310285,True,18
46K21,54,experiment,54,→,right,→,0.9550786999752745,True,18
46K21,55,experiment,13,→,right,→,0.6364192999899387,True,18
46K21,56,experiment,55,←,left,←,0.9184624999761581,True,18
46K21,57,experiment,16,→,right,→,0.9029668999137357,True,18
46K21,58,experiment,20,↑,up,↑,0.6859884000150487,True,18
46K21,59,experiment,36,↑,up,↑,0.5705330999335274,True,18
46K21,60,experiment,32,↓,down,↓,0.5744393999921158,True,18
46K21,61,experiment,46,→,right,→,0.6090575000271201,True,18
46K21,62,experiment,29,→,right,→,0.4173163999803364,True,18
46K21,63,experiment,52,→,left,←,0.7856943000806496,False,18
46K21,64,experiment,49,↓,down,↓,0.6657986999489367,True,18
46K21,65,experiment,25,↓,up,↑,0.7903987999306992,False,18
46K21,66,experiment,33,↑,up,↑,0.5292749999789521,True,18
46K21,67,experiment,18,→,right,→,0.512496400042437,True,18
46K21,68,experiment,15,↓,down,↓,0.6423706999048591,True,18
46K21,69,experiment,38,←,left,←,0.7999056000262499,True,18
46K21,70,experiment,50,←,left,←,0.6864160998957232,True,18
46K21,71,experiment,59,↑,up,↑,0.699716700008139,True,18
46K21,72,experiment,51,↓,down,↓,1.1576976999640465,True,18
46K21,73,experiment,35,↑,up,↑,0.5208744000410661,True,18
46K21,74,experiment,27,←,left,←,0.5216361000202596,True,18
46K21,75,experiment,39,↑,up,↑,0.5069933000486344,True,18
46K21,76,experiment,19,→,left,←,0.866324899950996,False,18
46K21,77,experiment,44,↑,up,↑,0.7143120999680832,True,18
46K21,78,experiment,24,→,right,→,0.7256902999943122,True,18
46K21,79,experiment,56,→,right,→,0.6037556999363005,True,18
46K21,80,experiment,37,←,up,↑,1.074943199986592,False,18
46K21,81,experiment,22,↑,up,↑,0.8337005999637768,True,18
46K21,82,experiment,40,←,no_key,no_letter,-1.0,False,18
46K21,83,experiment,41,↑,up,↑,0.611949700047262,True,18
46K21,84,experiment,58,←,left,←,0.79692959995009,True,18
46K21,85,experiment,57,→,right,→,0.5671195999020711,True,18
46K21,86,experiment,26,↑,up,↑,0.5190097000449896,True,18
46K21,87,experiment,17,↑,up,↑,0.5672473000595346,True,18
46K21,88,experiment,31,↑,up,↑,0.5556911000749096,True,18
46K21,89,experiment,42,↑,up,↑,0.4339527999982238,True,18
46K21,90,experiment,60,↓,down,↓,0.727593999938108,True,18
46K21,91,training,56,↑,up,↑,0.5990307000465691,True,18
46K21,92,training,41,→,right,→,0.7475705000106245,True,18
46K21,93,experiment,44,↑,up,↑,0.6963033000938594,True,18
46K21,94,experiment,26,→,right,→,0.5309586999937892,True,18
46K21,95,experiment,23,←,left,←,0.8702589999884367,True,18
46K21,96,experiment,43,↑,up,↑,0.670957800000906,True,18
46K21,97,experiment,30,↓,down,↓,0.896433399990201,True,18
46K21,98,experiment,32,←,left,←,0.5272034000372514,True,18
46K21,99,experiment,21,←,left,←,0.9242151000071317,True,18
46K21,100,experiment,41,←,left,←,0.48506540001835674,True,18
46K21,101,experiment,35,←,left,←,0.7217621000017971,True,18
46K21,102,experiment,39,→,right,→,0.8749590000370517,True,18
46K21,103,experiment,14,↓,down,↓,1.0629164999118075,True,18
46K21,104,experiment,47,↓,down,↓,1.021505199954845,True,18
46K21,105,experiment,19,←,left,←,0.8562104000011459,True,18
46K21,106,experiment,34,↑,up,↑,0.7675897999433801,True,18
46K21,107,experiment,51,↓,down,↓,1.4709422999294475,True,18
46K21,108,experiment,40,↑,up,↑,0.7055366999702528,True,18
46K21,109,experiment,31,←,left,←,0.6969111000653356,True,18
46K21,110,experiment,58,↑,up,↑,0.6946704000001773,True,18
46K21,111,experiment,38,→,right,→,0.6737566000083461,True,18
46K21,112,experiment,50,↑,up,↑,0.8375600000144914,True,18
46K21,113,experiment,18,←,left,←,0.7361541000427678,True,18
46K21,114,experiment,29,→,left,←,0.8394958999706432,False,18
46K21,115,experiment,15,↓,down,↓,0.6921882999595255,True,18
46K21,116,experiment,55,→,right,→,0.6681584999896586,True,18
46K21,117,experiment,60,→,up,↑,1.0015388999599963,False,18
46K21,118,experiment,52,←,left,←,0.6068275000434369,True,18
46K21,119,experiment,16,←,left,←,0.6922056999756023,True,18
46K21,120,experiment,20,↓,down,↓,0.8194409999996424,True,18
46K21,121,experiment,28,↑,up,↑,0.6803799000335857,True,18
46K21,122,experiment,33,↓,down,↓,0.8468815999804065,True,18
46K21,123,experiment,17,↓,down,↓,0.690104499924928,True,18
46K21,124,experiment,49,↓,down,↓,0.6461410999763757,True,18
46K21,125,experiment,36,←,left,←,0.7882272000424564,True,18
46K21,126,experiment,22,↓,down,↓,0.8301842000801116,True,18
46K21,127,experiment,27,↑,up,↑,0.6907313000410795,True,18
46K21,128,experiment,56,←,left,←,0.7460930000524968,True,18
46K21,129,experiment,57,←,left,←,0.6388263000408188,True,18
46K21,130,experiment,24,→,right,→,0.725468400050886,True,18
46K21,131,experiment,13,→,right,→,0.8564952000742778,True,18
46K21,132,experiment,46,←,left,←,0.7757640000199899,True,18
46K21,133,experiment,42,←,left,←,0.53279259998817,True,18
46K21,134,experiment,37,↑,up,↑,0.7187862999271601,True,18
46K21,135,experiment,45,↑,up,↑,0.7481511000078171,True,18
46K21,136,experiment,59,←,left,←,0.6468163999961689,True,18
46K21,137,experiment,54,↑,up,↑,0.6409707999555394,True,18
46K21,138,experiment,53,←,left,←,0.516147100017406,True,18
46K21,139,experiment,25,↑,up,↑,0.590787599910982,True,18
46K21,140,experiment,48,↓,down,↓,0.9915973000461236,True,18
46K21,141,training,49,→,right,→,0.8700454999925569,True,17
46K21,142,training,20,↓,down,↓,0.678130800020881,True,17
46K21,143,experiment,43,↓,down,↓,0.4633540000068024,True,17
46K21,144,experiment,14,↓,down,↓,1.0269518999848515,True,17
46K21,145,experiment,25,←,no_key,no_letter,-1.0,False,17
46K21,146,experiment,20,↑,down,↓,0.8943377999821678,False,17
46K21,147,experiment,38,↑,up,↑,0.5373425999423489,True,17
46K21,148,experiment,18,↑,up,↑,0.8003309000050649,True,17
46K21,149,experiment,57,↑,down,↓,0.7301603999221697,False,17
46K21,150,experiment,58,↑,up,↑,0.5747176000149921,True,17
46K21,151,experiment,40,↑,up,↑,0.9255674000596628,True,17
46K21,152,experiment,19,↑,up,↑,0.6361050000414252,True,17
46K21,153,experiment,31,↑,up,↑,1.7661876999773085,True,17
46K21,154,experiment,50,↓,down,↓,0.5981344000902027,True,17
46K21,155,experiment,45,↑,up,↑,1.2162494000513107,True,17
46K21,156,experiment,48,↑,up,↑,0.7993035999825224,True,17
46K21,157,experiment,21,↑,up,↑,0.7296766999643296,True,17
46K21,158,experiment,29,→,right,→,0.9853891999227926,True,17
46K21,159,experiment,30,↑,down,↓,1.3340033000567928,False,17
46K21,160,experiment,26,→,right,→,0.7034637000178918,True,17
46K21,161,experiment,47,↓,down,↓,0.6200558999553323,True,17
46K21,162,experiment,32,←,left,←,0.61426190007478,True,17
46K21,163,experiment,22,↑,up,↑,0.6627165999962017,True,17
46K21,164,experiment,24,→,right,→,0.9247600000817329,True,17
46K21,165,experiment,16,↑,up,↑,0.7896489999257028,True,17
46K21,166,experiment,33,↓,right,→,0.9362555000698194,False,17
46K21,167,experiment,59,↓,up,↑,1.5153406999306753,False,17
46K21,168,experiment,37,→,right,→,0.8461105999303982,True,17
46K21,169,experiment,56,→,right,→,0.575321999960579,True,17
46K21,170,experiment,52,→,right,→,0.6221064000856131,True,17
46K21,171,experiment,41,↑,up,↑,0.8020791000453755,True,17
46K21,172,experiment,13,↑,right,→,1.7776486999355257,False,17
46K21,173,experiment,53,→,right,→,0.5595917999744415,True,17
46K21,174,experiment,54,↓,down,↓,0.7335423999466002,True,17
46K21,175,experiment,49,→,left,←,0.791630299994722,False,17
46K21,176,experiment,23,→,right,→,0.6326123999897391,True,17
46K21,177,experiment,27,↑,up,↑,1.2053809000644833,True,17
46K21,178,experiment,35,↓,left,←,1.22203800000716,False,17
46K21,179,experiment,39,←,left,←,1.6993319999892265,True,17
46K21,180,experiment,36,→,right,→,0.9113359999610111,True,17
46K21,181,experiment,42,↓,down,↓,0.7675698000239208,True,17
46K21,182,experiment,28,→,right,→,0.8779810999985784,True,17
46K21,183,experiment,55,↑,up,↑,0.5266670000273734,True,17
46K21,184,experiment,46,↓,up,↑,1.011327600106597,False,17
46K21,185,experiment,44,↑,up,↑,0.6300073000602424,True,17
46K21,186,experiment,17,↓,up,↑,1.065449699992314,False,17
46K21,187,experiment,34,←,left,←,0.6642742999829352,True,17
46K21,188,experiment,51,↓,down,↓,1.2035730999195948,True,17
46K21,189,experiment,60,↑,up,↑,0.619278599973768,True,17
46K21,190,experiment,15,↑,up,↑,0.504674999974668,True,17
46K21,191,training,22,↑,up,↑,1.4086716000456363,True,17
46K21,192,training,18,↑,up,↑,0.980632400023751,True,17
46K21,193,experiment,17,↑,up,↑,0.8899372000014409,True,17
46K21,194,experiment,59,→,right,→,0.6792462999001145,True,17
46K21,195,experiment,41,→,right,→,0.6253244000254199,True,17
46K21,196,experiment,21,↑,up,↑,0.9625759000191465,True,17
46K21,197,experiment,27,→,right,→,0.6585995999630541,True,17
46K21,198,experiment,22,→,right,→,0.8899080000119284,True,17
46K21,199,experiment,14,↑,up,↑,0.9572279000421986,True,17
46K21,200,experiment,18,→,right,→,0.6434929999522865,True,17
46K21,201,experiment,15,↓,down,↓,0.8159231999889016,True,17
46K21,202,experiment,33,↑,down,↓,1.1454823999665678,False,17
46K21,203,experiment,13,↓,down,↓,1.0432056999998167,True,17
46K21,204,experiment,45,↓,up,↑,1.764164000051096,False,17
46K21,205,experiment,44,↑,up,↑,0.7759213000535965,True,17
46K21,206,experiment,48,→,right,→,0.609208200010471,True,17
46K21,207,experiment,54,←,left,←,0.7493570999940857,True,17
46K21,208,experiment,23,←,left,←,0.9918706999160349,True,17
46K21,209,experiment,34,→,right,→,0.5858629000140354,True,17
46K21,210,experiment,32,↓,down,↓,0.6612185999983922,True,17
46K21,211,experiment,51,↓,down,↓,0.8571565001038834,True,17
46K21,212,experiment,60,↑,down,↓,0.8711882999632508,False,17
46K21,213,experiment,53,↓,down,↓,0.8972355999285355,True,17
46K21,214,experiment,31,↑,down,↓,0.680526899988763,False,17
46K21,215,experiment,24,↓,down,↓,0.789173600031063,True,17
46K21,216,experiment,35,←,left,←,0.5348172000376508,True,17
46K21,217,experiment,16,←,right,→,1.0547392000444233,False,17
46K21,218,experiment,52,↑,down,↓,0.7298440000740811,False,17
46K21,219,experiment,40,→,right,→,0.8258549000602216,True,17
46K21,220,experiment,47,←,left,←,0.697857900056988,True,17
46K21,221,experiment,57,→,right,→,0.8798536999383941,True,17
46K21,222,experiment,42,↓,down,↓,0.7687097999732941,True,17
46K21,223,experiment,37,↓,down,↓,0.7611809000372887,True,17
46K21,224,experiment,19,↓,down,↓,0.6624727000016719,True,17
46K21,225,experiment,28,→,right,→,0.7222049999982119,True,17
46K21,226,experiment,39,←,left,←,0.7791948000667617,True,17
46K21,227,experiment,20,↓,down,↓,1.2711416999809444,True,17
46K21,228,experiment,36,↓,down,↓,0.6126140999840572,True,17
46K21,229,experiment,49,→,right,→,0.9398154999362305,True,17
46K21,230,experiment,29,→,left,←,0.891217700089328,False,17
46K21,231,experiment,26,↓,right,→,1.1506271000253037,False,17
46K21,232,experiment,38,↑,up,↑,0.6391194999450818,True,17
46K21,233,experiment,30,↓,down,↓,0.593785300035961,True,17
46K21,234,experiment,46,↑,up,↑,0.83593059994746,True,17
46K21,235,experiment,56,→,right,→,0.7571324000600725,True,17
46K21,236,experiment,58,←,left,←,0.6724543999880552,True,17
46K21,237,experiment,43,↓,up,↑,0.9051877999445423,False,17
46K21,238,experiment,25,←,left,←,0.6124284999677911,True,17
46K21,239,experiment,55,↑,up,↑,0.6959678999846801,True,17
46K21,240,experiment,50,↓,down,↓,0.6113493000157177,True,17
46K21,241,training,30,←,left,←,0.5788091999711469,True,17
46K21,242,training,30,←,no_key,no_letter,-1.0,False,17
46K21,243,experiment,60,→,right,→,0.5458899000659585,True,17
46K21,244,experiment,39,↑,up,↑,0.7144202999770641,True,17
46K21,245,experiment,23,↑,up,↑,0.6866474999114871,True,17
46K21,246,experiment,53,←,left,←,0.6082588999997824,True,17
46K21,247,experiment,48,↑,up,↑,0.7277708000037819,True,17
46K21,248,experiment,26,←,left,←,0.6099010000471026,True,17
46K21,249,experiment,59,←,left,←,0.5544969999464229,True,17
46K21,250,experiment,44,→,left,←,0.7511618001153693,False,17
46K21,251,experiment,28,↑,right,→,1.1504280000226572,False,17
46K21,252,experiment,29,←,left,←,0.5171026000753045,True,17
46K21,253,experiment,47,↑,up,↑,0.7053175999317318,True,17
46K21,254,experiment,56,←,left,←,0.5597356000216678,True,17
46K21,255,experiment,49,←,left,←,0.6174023000057787,True,17
46K21,256,experiment,45,→,right,→,0.8824609000002965,True,17
46K21,257,experiment,46,←,left,←,0.6563983999658376,True,17
46K21,258,experiment,13,→,left,←,1.101756399963051,False,17
46K21,259,experiment,17,↑,up,↑,0.6464224000228569,True,17
46K21,260,experiment,38,↓,down,↓,0.8672665999038145,True,17
46K21,261,experiment,36,↑,down,↓,0.7845616000704467,False,17
46K21,262,experiment,20,←,left,←,0.6438296000706032,True,17
46K21,263,experiment,40,↑,up,↑,0.5757776000536978,True,17
46K21,264,experiment,27,←,left,←,0.45570429996587336,True,17
46K21,265,experiment,42,↑,up,↑,1.208317399956286,True,17
46K21,266,experiment,15,↑,up,↑,0.6543830999871716,True,17
46K21,267,experiment,55,←,left,←,0.4636982000665739,True,17
46K21,268,experiment,58,→,right,→,0.6784572000615299,True,17
46K21,269,experiment,16,→,right,→,0.5213103999849409,True,17
46K21,270,experiment,21,←,left,←,0.4865123999770731,True,17
46K21,271,experiment,54,↓,down,↓,0.6790799000300467,True,17
46K21,272,experiment,30,←,right,→,1.1445629999507219,False,17
46K21,273,experiment,19,↓,down,↓,0.6303605999564752,True,17
46K21,274,experiment,41,→,right,→,0.5138193999882787,True,17
46K21,275,experiment,25,←,left,←,0.5883509999839589,True,17
46K21,276,experiment,43,→,right,→,0.4807225000113249,True,17
46K21,277,experiment,22,↑,up,↑,0.9503543000901118,True,17
46K21,278,experiment,51,↓,down,↓,0.6063466999912634,True,17
46K21,279,experiment,57,→,right,→,0.6802850000094622,True,17
46K21,280,experiment,50,↓,down,↓,1.0197095000185072,True,17
46K21,281,experiment,33,→,up,↑,1.2690824000164866,False,17
46K21,282,experiment,37,↓,down,↓,0.5779666999587789,True,17
46K21,283,experiment,14,↓,up,↑,1.185814099968411,False,17
46K21,284,experiment,32,↑,down,↓,0.8290000000270084,False,17
46K21,285,experiment,34,→,right,→,0.669628500007093,True,17
46K21,286,experiment,31,←,right,→,0.6546291999984533,False,17
46K21,287,experiment,18,↑,up,↑,0.6643592999316752,True,17
46K21,288,experiment,24,←,left,←,0.58163929998409,True,17
46K21,289,experiment,35,↓,down,↓,0.8789674999425188,True,17
46K21,290,experiment,52,→,left,←,0.7139165999833494,False,17
46K21,291,training,27,↓,left,←,1.550302300020121,False,17
46K21,292,training,44,↓,down,↓,0.5550162000581622,True,17
46K21,293,experiment,41,←,left,←,1.3615947999060154,True,17
46K21,294,experiment,37,↑,up,↑,0.531175599899143,True,17
46K21,295,experiment,28,↓,down,↓,0.6349754999391735,True,17
46K21,296,experiment,27,↓,down,↓,0.6476744000101462,True,17
46K21,297,experiment,48,↑,up,↑,0.8296312999445945,True,17
46K21,298,experiment,58,←,left,←,0.525657800026238,True,17
46K21,299,experiment,29,→,right,→,0.8377258999971673,True,17
46K21,300,experiment,34,←,left,←,0.829702099901624,True,17
46K21,301,experiment,19,↑,up,↑,0.5756626999936998,True,17
46K21,302,experiment,40,↑,up,↑,0.45486309996340424,True,17
46K21,303,experiment,60,↓,down,↓,0.5798905999399722,True,17
46K21,304,experiment,55,↓,down,↓,0.5923472000285983,True,17
46K21,305,experiment,54,→,left,←,0.9090337998932227,False,17
46K21,306,experiment,15,→,right,→,0.6549233000259846,True,17
46K21,307,experiment,17,→,right,→,0.601613000035286,True,17
46K21,308,experiment,59,↑,left,←,0.5386030001100153,False,17
46K21,309,experiment,38,↑,up,↑,0.4679216000949964,True,17
46K21,310,experiment,44,↑,down,↓,0.675699400017038,False,17
46K21,311,experiment,46,↑,down,↓,0.8182691000401974,False,17
46K21,312,experiment,43,←,left,←,0.5169294999213889,True,17
46K21,313,experiment,23,↑,up,↑,0.5211260999785736,True,17
46K21,314,experiment,50,→,right,→,0.5311698000878096,True,17
46K21,315,experiment,36,↓,down,↓,0.7896195000503212,True,17
46K21,316,experiment,14,↓,down,↓,0.6929259999888018,True,17
46K21,317,experiment,35,→,right,→,0.5063260999741033,True,17
46K21,318,experiment,52,←,left,←,0.6755678000627086,True,17
46K21,319,experiment,25,←,left,←,0.4802313999971375,True,17
46K21,320,experiment,51,↑,up,↑,0.7149136000080034,True,17
46K21,321,experiment,18,↓,down,↓,0.6424328999128193,True,17
46K21,322,experiment,53,←,left,←,1.085551799973473,True,17
46K21,323,experiment,45,→,left,←,0.7004609000869095,False,17
46K21,324,experiment,42,→,right,→,1.0524729000171646,True,17
46K21,325,experiment,47,→,right,→,0.5549590999726206,True,17
46K21,326,experiment,33,→,right,→,0.5109897000947967,True,17
46K21,327,experiment,26,←,right,→,0.6976508999941871,False,17
46K21,328,experiment,13,↑,up,↑,0.5009047000203282,True,17
46K21,329,experiment,32,→,right,→,0.5315659999614581,True,17
46K21,330,experiment,31,↑,up,↑,0.5135827000485733,True,17
46K21,331,experiment,49,→,right,→,0.5801839999621734,True,17
46K21,332,experiment,24,↑,up,↑,0.4768863000208512,True,17
46K21,333,experiment,20,↓,down,↓,0.5728448999579996,True,17
46K21,334,experiment,56,←,left,←,0.7688835000153631,True,17
46K21,335,experiment,39,↑,up,↑,0.7201965000713244,True,17
46K21,336,experiment,22,→,right,→,0.5891785999992862,True,17
46K21,337,experiment,16,↓,down,↓,0.6748374999733642,True,17
46K21,338,experiment,30,→,right,→,0.5164660000009462,True,17
46K21,339,experiment,21,→,right,→,0.5374368000775576,True,17
46K21,340,experiment,57,→,right,→,0.6702221999876201,True,17
46K21,341,training,42,↑,up,↑,0.752911200048402,True,17
46K21,342,training,37,→,right,→,0.5301535000326112,True,17
46K21,343,experiment,54,←,left,←,1.168794900062494,True,17
46K21,344,experiment,55,↓,down,↓,0.9895120000001043,True,17
46K21,345,experiment,58,←,left,←,0.6074926999863237,True,17
46K21,346,experiment,27,←,left,←,0.5575875999638811,True,17
46K21,347,experiment,35,←,left,←,0.3672684000339359,True,17
46K21,348,experiment,53,→,right,→,0.5094716000603512,True,17
46K21,349,experiment,26,↑,up,↑,0.48039459995925426,True,17
46K21,350,experiment,48,↑,down,↓,0.8376145999645814,False,17
46K21,351,experiment,21,←,left,←,0.4784419999923557,True,17
46K21,352,experiment,37,→,right,→,0.4589806000003591,True,17
46K21,353,experiment,17,↑,up,↑,0.5007936001056805,True,17
46K21,354,experiment,59,↑,down,↓,0.8494571999181062,False,17
46K21,355,experiment,44,←,left,←,0.5861045999918133,True,17
46K21,356,experiment,36,↓,down,↓,1.0030135000124574,True,17
46K21,357,experiment,43,→,right,→,0.7421167999273166,True,17
46K21,358,experiment,30,←,right,→,0.7891197999706492,False,17
46K21,359,experiment,14,↑,up,↑,0.7241106999572366,True,17
46K21,360,experiment,57,↓,down,↓,0.6014731000177562,True,17
46K21,361,experiment,56,→,left,←,0.6201015000697225,False,17
46K21,362,experiment,18,←,left,←,0.7514098999090493,True,17
46K21,363,experiment,29,→,right,→,0.7341291999910027,True,17
46K21,364,experiment,25,←,left,←,0.6163472000043839,True,17
46K21,365,experiment,50,↓,down,↓,0.5741052000084892,True,17
46K21,366,experiment,23,→,right,→,0.7763425000011921,True,17
46K21,367,experiment,24,↓,down,↓,0.6494440999813378,True,17
46K21,368,experiment,39,↑,up,↑,0.7974013000493869,True,17
46K21,369,experiment,20,↓,down,↓,0.6720733999973163,True,17
46K21,370,experiment,33,←,left,←,0.41704910004045814,True,17
46K21,371,experiment,15,←,right,→,0.7082022000104189,False,17
46K21,372,experiment,51,↓,down,↓,0.702287400024943,True,17
46K21,373,experiment,34,↑,up,↑,0.5715270999353379,True,17
46K21,374,experiment,60,→,left,←,0.9167369999922812,False,17
46K21,375,experiment,22,←,left,←,0.7295544999651611,True,17
46K21,376,experiment,52,→,right,→,0.5780809000134468,True,17
46K21,377,experiment,16,→,right,→,0.7131439000368118,True,17
46K21,378,experiment,46,→,right,→,0.7584685999900103,True,17
46K21,379,experiment,28,↓,down,↓,0.7413348000263795,True,17
46K21,380,experiment,31,←,left,←,0.5394284999929368,True,17
46K21,381,experiment,19,→,right,→,0.5613948999671265,True,17
46K21,382,experiment,38,↓,down,↓,0.7620476000010967,True,17
46K21,383,experiment,41,←,left,←,0.512666100054048,True,17
46K21,384,experiment,13,→,right,→,0.5721168000018224,True,17
46K21,385,experiment,32,→,right,→,0.5680156999733299,True,17
46K21,386,experiment,42,→,left,←,1.1016317000612617,False,17
46K21,387,experiment,45,←,left,←,0.4593794000102207,True,17
46K21,388,experiment,40,←,right,→,1.1179953999817371,False,17
46K21,389,experiment,49,←,left,←,0.6487192999338731,True,17
46K21,390,experiment,47,↓,down,↓,0.7273780000396073,True,17
46K21,391,training,38,↑,up,↑,0.5141431000083685,True,17
46K21,392,training,48,↓,down,↓,0.5014105000300333,True,17
46K21,393,experiment,18,↓,down,↓,0.5416439000982791,True,17
46K21,394,experiment,32,→,right,→,0.5466812000377104,True,17
46K21,395,experiment,41,↑,up,↑,0.4813397000543773,True,17
46K21,396,experiment,59,↑,up,↑,0.8228444999549538,True,17
46K21,397,experiment,57,→,right,→,0.5842153000412509,True,17
46K21,398,experiment,58,←,left,←,0.48220880003646016,True,17
46K21,399,experiment,33,↑,down,↓,1.1367561999941245,False,17
46K21,400,experiment,23,←,left,←,0.7560145000461489,True,17
46K21,401,experiment,47,←,left,←,0.4866061999928206,True,17
46K21,402,experiment,55,→,left,←,0.5999981999630108,False,17
46K21,403,experiment,42,↑,up,↑,0.5067062000744045,True,17
46K21,404,experiment,14,←,left,←,0.5973062999546528,True,17
46K21,405,experiment,49,↓,down,↓,0.5407127999933437,True,17
46K21,406,experiment,25,↑,up,↑,0.5666824000654742,True,17
46K21,407,experiment,13,↑,up,↑,0.6473443999420851,True,17
46K21,408,experiment,15,→,left,←,1.1394428999628872,False,17
46K21,409,experiment,27,←,left,←,0.6360474999528378,True,17
46K21,410,experiment,44,↑,up,↑,1.2132672000443563,True,17
46K21,411,experiment,29,→,right,→,0.5373430999461561,True,17
46K21,412,experiment,43,↑,up,↑,0.6712632999988273,True,17
46K21,413,experiment,22,→,right,→,0.6379984000232071,True,17
46K21,414,experiment,52,←,left,←,0.5540404999628663,True,17
46K21,415,experiment,36,→,up,↑,0.8919928000541404,False,17
46K21,416,experiment,40,→,left,←,0.5659544999944046,False,17
46K21,417,experiment,28,↑,up,↑,0.6207459999714047,True,17
46K21,418,experiment,60,→,right,→,0.8440252000000328,True,17
46K21,419,experiment,30,↑,up,↑,0.6626527999760583,True,17
46K21,420,experiment,35,↓,down,↓,0.629460799973458,True,17
46K21,421,experiment,26,→,right,→,0.5873415999813005,True,17
46K21,422,experiment,50,↓,down,↓,1.0585632999427617,True,17
46K21,423,experiment,20,↓,down,↓,0.683295700000599,True,17
46K21,424,experiment,38,↓,down,↓,0.7105665999697521,True,17
46K21,425,experiment,21,→,right,→,0.5566438999958336,True,17
46K21,426,experiment,54,←,left,←,0.506548999925144,True,17
46K21,427,experiment,24,→,right,→,0.6148222000338137,True,17
46K21,428,experiment,19,→,right,→,0.7292640999658033,True,17
46K21,429,experiment,39,←,left,←,0.7467042000498623,True,17
46K21,430,experiment,34,←,left,←,0.8066047000465915,True,17
46K21,431,experiment,51,←,left,←,0.540608000010252,True,17
46K21,432,experiment,53,↑,up,↑,0.6760635999962687,True,17
46K21,433,experiment,48,←,left,←,0.4892837000079453,True,17
46K21,434,experiment,31,↓,down,↓,0.5773947000270709,True,17
46K21,435,experiment,16,←,left,←,0.4961291999788955,True,17
46K21,436,experiment,56,↓,down,↓,0.6073410999961197,True,17
46K21,437,experiment,17,↑,up,↑,0.5879808000754565,True,17
46K21,438,experiment,37,→,right,→,0.6599404999287799,True,17
46K21,439,experiment,46,←,right,→,0.4912937000626698,False,17
46K21,440,experiment,45,↑,up,↑,0.6579436999745667,True,17
46K21,441,training,28,↓,down,↓,0.6715546000050381,True,17
46K21,442,training,40,↑,up,↑,1.3938173999777064,True,17
46K21,443,experiment,32,←,left,←,0.5735149999381974,True,17
46K21,444,experiment,21,←,left,←,1.0724969999864697,True,17
46K21,445,experiment,45,→,right,→,0.5598361999727786,True,17
46K21,446,experiment,42,←,left,←,0.5818906000349671,True,17
46K21,447,experiment,43,↑,down,↓,1.0258846000069752,False,17
46K21,448,experiment,37,↑,down,↓,0.8246658999705687,False,17
46K21,449,experiment,28,←,left,←,0.9731833999976516,True,17
46K21,450,experiment,44,←,left,←,0.9692350000841543,True,17
46K21,451,experiment,47,→,right,→,0.5952153999824077,True,17
46K21,452,experiment,27,↑,up,↑,0.6818878999911249,True,17
46K21,453,experiment,25,←,left,←,0.605878800037317,True,17
46K21,454,experiment,39,→,right,→,0.8038650000235066,True,17
46K21,455,experiment,23,→,right,→,0.7965634000720456,True,17
46K21,456,experiment,16,←,left,←,0.6258572998922318,True,17
46K21,457,experiment,22,↓,down,↓,0.7784334000898525,True,17
46K21,458,experiment,51,↓,down,↓,0.8499120000051335,True,17
46K21,459,experiment,46,→,left,←,1.105169599992223,False,17
46K21,460,experiment,57,↓,down,↓,0.6714787000091746,True,17
46K21,461,experiment,60,↓,down,↓,0.7326656999066472,True,17
46K21,462,experiment,52,↑,up,↑,0.6765181000810117,True,17
46K21,463,experiment,26,→,right,→,0.7284527000738308,True,17
46K21,464,experiment,55,←,left,←,0.7911732000065967,True,17
46K21,465,experiment,19,↓,down,↓,0.7231506999814883,True,17
46K21,466,experiment,24,←,left,←,0.6144285999471322,True,17
46K21,467,experiment,49,↑,up,↑,0.5413993999827653,True,17
46K21,468,experiment,17,↑,up,↑,0.9724782999837771,True,17
46K21,469,experiment,20,→,right,→,1.248472800012678,True,17
46K21,470,experiment,56,←,up,↑,1.1371620999416336,False,17
46K21,471,experiment,14,→,right,→,0.9465301999589428,True,17
46K21,472,experiment,15,→,right,→,0.6431639000074938,True,17
46K21,473,experiment,31,↑,up,↑,0.76547679991927,True,17
46K21,474,experiment,36,←,left,←,0.510480200056918,True,17
46K21,475,experiment,35,↓,down,↓,0.8751153000630438,True,17
46K21,476,experiment,58,↑,up,↑,0.506047899951227,True,17
46K21,477,experiment,53,↓,down,↓,0.6424457000102848,True,17
46K21,478,experiment,33,→,right,→,0.8031878999900073,True,17
46K21,479,experiment,38,↑,down,↓,1.2019168001133949,False,17
46K21,480,experiment,48,↓,down,↓,0.6338894999353215,True,17
46K21,481,experiment,59,↑,up,↑,0.5371725000441074,True,17
46K21,482,experiment,29,↓,up,↑,0.6485069999471307,False,17
46K21,483,experiment,40,→,right,→,0.6757723999908194,True,17
46K21,484,experiment,13,←,left,←,0.5924277000594884,True,17
46K21,485,experiment,18,←,left,←,0.6455863000592217,True,17
46K21,486,experiment,54,←,left,←,0.7441371999448165,True,17
46K21,487,experiment,41,→,right,→,0.5830853000516072,True,17
46K21,488,experiment,30,←,left,←,0.45977389998734,True,17
46K21,489,experiment,34,↓,down,↓,0.5784790000179783,True,17
46K21,490,experiment,50,↓,down,↓,0.5466763000003994,True,17
46K21,491,training,44,↓,down,↓,1.0417582000372931,True,17
46K21,492,training,13,↑,up,↑,0.7039372000144795,True,17
46K21,493,experiment,23,↓,down,↓,0.9164200000232086,True,17
46K21,494,experiment,53,↑,up,↑,0.46026740001980215,True,17
46K21,495,experiment,54,→,right,→,0.5659070999827236,True,17
46K21,496,experiment,48,→,right,→,0.6790476999012753,True,17
46K21,497,experiment,44,→,left,←,0.9190923999994993,False,17
46K21,498,experiment,60,←,left,←,1.1144614999648184,True,17
46K21,499,experiment,21,→,right,→,0.7679703999310732,True,17
46K21,500,experiment,52,↓,down,↓,0.8065093000186607,True,17
46K21,501,experiment,22,→,left,←,0.6716497000306845,False,17
46K21,502,experiment,39,←,left,←,0.4751224999781698,True,17
46K21,503,experiment,37,→,right,→,0.5276739000109956,True,17
46K21,504,experiment,30,→,right,→,0.5110659999772906,True,17
46K21,505,experiment,16,↑,up,↑,0.5127217998960987,True,17
46K21,506,experiment,31,↓,down,↓,0.9277445999905467,True,17
46K21,507,experiment,25,↑,up,↑,0.4006076999939978,True,17
46K21,508,experiment,17,→,right,→,0.726430399925448,True,17
46K21,509,experiment,24,←,left,←,0.6816377000650391,True,17
46K21,510,experiment,35,→,left,←,0.6071901000104845,False,17
46K21,511,experiment,41,←,left,←,0.400622499990277,True,17
46K21,512,experiment,49,→,right,→,0.5463109000120312,True,17
46K21,513,experiment,55,←,left,←,0.36745939997490495,True,17
46K21,514,experiment,56,←,left,←,0.8756704999832436,True,17
46K21,515,experiment,59,↓,down,↓,0.529751900001429,True,17
46K21,516,experiment,33,→,right,→,0.5024364000419155,True,17
46K21,517,experiment,28,→,right,→,0.6157279000617564,True,17
46K21,518,experiment,32,↓,down,↓,0.49764229997526854,True,17
46K21,519,experiment,26,←,left,←,0.5243553000036627,True,17
46K21,520,experiment,14,↓,down,↓,0.606618000078015,True,17
46K21,521,experiment,29,←,left,←,0.6030062000500038,True,17
46K21,522,experiment,57,←,left,←,0.5250414999900386,True,17
46K21,523,experiment,20,→,right,→,0.7709515000460669,True,17
46K21,524,experiment,46,→,left,←,1.0776584999402985,False,17
46K21,525,experiment,19,↑,down,↓,0.8706558999838307,False,17
46K21,526,experiment,51,→,right,→,0.5696567000122741,True,17
46K21,527,experiment,42,↑,up,↑,0.7189553000498563,True,17
46K21,528,experiment,50,←,left,←,0.3842800999991596,True,17
46K21,529,experiment,36,←,left,←,0.40004899993073195,True,17
46K21,530,experiment,15,↑,up,↑,0.6142823999980465,True,17
46K21,531,experiment,13,↑,up,↑,0.47695899999234825,True,17
46K21,532,experiment,43,←,left,←,0.3837743999902159,True,17
46K21,533,experiment,18,←,left,←,0.9938828999875113,True,17
46K21,534,experiment,45,←,left,←,0.6362609999487177,True,17
46K21,535,experiment,40,↑,up,↑,0.4562688999576494,True,17
46K21,536,experiment,38,↑,up,↑,0.7003540000878274,True,17
46K21,537,experiment,47,→,up,↑,0.7369602000107989,False,17
46K21,538,experiment,27,→,right,→,1.0096078999340534,True,17
46K21,539,experiment,34,←,left,←,0.7070712000131607,True,17
46K21,540,experiment,58,↑,up,↑,0.576157100033015,True,17
46K21,541,training,31,↑,up,↑,0.9583271000301465,True,17
46K21,542,training,29,←,left,←,0.532922999933362,True,17
46K21,543,experiment,23,→,right,→,0.5202696999767795,True,17
46K21,544,experiment,46,↑,up,↑,0.5491339000873268,True,17
46K21,545,experiment,51,↑,up,↑,0.4172356000635773,True,17
46K21,546,experiment,50,↓,up,↑,0.6262610000558197,False,17
46K21,547,experiment,42,↑,up,↑,0.7095499999122694,True,17
46K21,548,experiment,19,→,left,←,0.8131445000180975,False,17
46K21,549,experiment,36,↑,up,↑,0.7482726000016555,True,17
46K21,550,experiment,54,←,left,←,0.6902652999851853,True,17
46K21,551,experiment,22,←,left,←,0.6803103999700397,True,17
46K21,552,experiment,16,↓,down,↓,0.8102062999969348,True,17
46K21,553,experiment,26,→,right,→,0.7608950999565423,True,17
46K21,554,experiment,33,←,left,←,0.6049203000729904,True,17
46K21,555,experiment,44,↓,down,↓,0.7195952000329271,True,17
46K21,556,experiment,49,↓,down,↓,0.5942089000018314,True,17
46K21,557,experiment,56,←,left,←,0.6202021000208333,True,17
46K21,558,experiment,14,←,left,←,0.6342161000939086,True,17
46K21,559,experiment,15,←,left,←,0.4708484999136999,True,17
46K21,560,experiment,52,→,right,→,0.5937257999321446,True,17
46K21,561,experiment,37,←,right,→,0.833639599964954,False,17
46K21,562,experiment,55,↑,down,↓,0.8676770000020042,False,17
46K21,563,experiment,34,→,right,→,0.5627329000271857,True,17
46K21,564,experiment,47,↓,up,↑,1.1809124998981133,False,17
46K21,565,experiment,25,↑,up,↑,0.48492089996580034,True,17
46K21,566,experiment,39,↓,up,↑,0.7115018999902532,False,17
46K21,567,experiment,35,←,left,←,0.6121896000113338,True,17
46K21,568,experiment,41,↑,up,↑,0.5371283000567928,True,17
46K21,569,experiment,53,↑,up,↑,1.19273379992228,True,17
46K21,570,experiment,27,←,left,←,0.5349040000000969,True,17
46K21,571,experiment,29,→,right,→,0.766165400040336,True,17
46K21,572,experiment,24,←,left,←,0.6155427000485361,True,17
46K21,573,experiment,59,→,right,→,0.5678125999402255,True,17
46K21,574,experiment,32,→,right,→,0.579789699986577,True,17
46K21,575,experiment,20,→,right,→,0.9675026000477374,True,17
46K21,576,experiment,18,↓,down,↓,1.1008713999763131,True,17
46K21,577,experiment,31,←,left,←,0.6362110000336543,True,17
46K21,578,experiment,57,↓,down,↓,0.7808228000067174,True,17
46K21,579,experiment,60,↑,down,↓,0.845484200050123,False,17
46K21,580,experiment,38,←,left,←,0.6908827000297606,True,17
46K21,581,experiment,45,↓,down,↓,0.7694650000194088,True,17
46K21,582,experiment,13,←,left,←,0.5548175999429077,True,17
46K21,583,experiment,28,↓,down,↓,0.5694235999835655,True,17
46K21,584,experiment,30,←,left,←,1.0310906000668183,True,17
46K21,585,experiment,43,↑,up,↑,0.5048797000199556,True,17
46K21,586,experiment,58,↓,down,↓,0.6941690999083221,True,17
46K21,587,experiment,21,→,left,←,1.8288108999840915,False,17
46K21,588,experiment,40,↑,down,↓,1.0257042000303045,False,17
46K21,589,experiment,48,←,left,←,0.5368540000636131,True,17
46K21,590,experiment,17,←,left,←,0.6161782999988645,True,17
