PART_ID,Trial_no,Trial_type,CSI,Stim_letter,Key_pressed,letter_choose,Rt,Corr,Stimulus Time
48K23,1,training,60,↑,no_key,no_letter,-1.0,False,30
48K23,2,training,60,↑,no_key,no_letter,-1.0,False,30
48K23,3,training,60,↑,up,↑,0.7343048000475392,True,30
48K23,4,training,60,→,right,→,0.8579246000153944,True,30
48K23,5,training,60,←,left,←,0.8485344999935478,True,30
48K23,6,training,60,←,left,←,0.5997849999694154,True,30
48K23,7,training,60,↑,down,↓,1.735460800002329,False,30
48K23,8,training,60,→,right,→,0.8597207000711933,True,30
48K23,9,training,60,↓,down,↓,0.9943357000593096,True,30
48K23,10,training,60,→,right,→,0.7077875999966636,True,30
48K23,11,training,60,←,left,←,0.7203313000500202,True,30
48K23,12,training,60,→,right,→,0.5164287999505177,True,30
48K23,13,training,60,←,left,←,0.744087899918668,True,30
48K23,14,training,60,↑,up,↑,0.8588809999637306,True,30
48K23,15,training,60,↑,up,↑,1.3621566999936476,True,30
48K23,16,training,60,←,left,←,0.7724215999478474,True,30
48K23,17,training,60,→,right,→,0.5680268999421969,True,30
48K23,18,training,60,←,left,←,0.6333329000044614,True,30
48K23,19,training,60,↑,up,↑,0.9428134999470785,True,30
48K23,20,training,60,↑,up,↑,0.7217316000023857,True,30
48K23,21,training,60,←,left,←,0.5863706000382081,True,18
48K23,22,training,60,→,left,←,0.9879102999111637,False,18
48K23,23,training,60,↑,up,↑,0.6456866000080481,True,18
48K23,24,training,60,←,left,←,0.6925756999989972,True,18
48K23,25,training,60,→,left,←,0.713289099978283,False,18
48K23,26,training,60,←,left,←,0.7815474000526592,True,18
48K23,27,training,60,↑,up,↑,0.6631900999927893,True,18
48K23,28,training,60,↓,down,↓,0.7334806000581011,True,18
48K23,29,training,60,↓,down,↓,0.841305400012061,True,18
48K23,30,training,60,→,left,←,0.6487697999691591,False,18
48K23,31,training,60,↑,up,↑,0.567701100022532,True,18
48K23,32,training,60,←,left,←,0.7138899000128731,True,18
48K23,33,training,60,←,left,←,0.6146831999067217,True,18
48K23,34,training,60,↑,up,↑,0.6146941999904811,True,18
48K23,35,training,60,←,left,←,0.7432531000813469,True,18
48K23,36,training,60,↑,up,↑,0.561880600056611,True,18
48K23,37,training,60,↑,up,↑,0.9080142999300733,True,18
48K23,38,training,60,↓,up,↑,0.688764899969101,False,18
48K23,39,training,60,↓,down,↓,0.718489499995485,True,18
48K23,40,training,60,←,left,←,0.6270894000772387,True,18
48K23,41,training,32,↓,down,↓,0.8103587999939919,True,18
48K23,42,training,28,←,left,←,0.6246407000580803,True,18
48K23,43,experiment,17,→,left,←,0.8936116000404581,False,18
48K23,44,experiment,50,→,right,→,0.625782800023444,True,18
48K23,45,experiment,31,←,no_key,no_letter,-1.0,False,18
48K23,46,experiment,33,↓,up,↑,1.0501766999950632,False,18
48K23,47,experiment,20,↓,no_key,no_letter,-1.0,False,18
48K23,48,experiment,21,→,right,→,0.5285953000420704,True,18
48K23,49,experiment,18,←,left,←,0.6728348999749869,True,18
48K23,50,experiment,54,↑,up,↑,0.5549579999642447,True,18
48K23,51,experiment,19,↑,up,↑,0.8011634000577033,True,18
48K23,52,experiment,56,↑,up,↑,0.7248416999354959,True,18
48K23,53,experiment,22,↓,down,↓,0.6982404999434948,True,18
48K23,54,experiment,58,↓,down,↓,0.8167373999021947,True,18
48K23,55,experiment,44,→,right,→,0.6039348000194877,True,18
48K23,56,experiment,53,↑,up,↑,0.5056767000351101,True,18
48K23,57,experiment,24,←,left,←,0.654240500065498,True,18
48K23,58,experiment,59,←,left,←,0.47807379998266697,True,18
48K23,59,experiment,46,↑,down,↓,0.9968034999910742,False,18
48K23,60,experiment,34,→,left,←,0.7274602999677882,False,18
48K23,61,experiment,26,↓,down,↓,0.8422887000488117,True,18
48K23,62,experiment,14,↓,down,↓,0.8161196999717504,True,18
48K23,63,experiment,57,↑,down,↓,0.7791844999883324,False,18
48K23,64,experiment,35,→,right,→,1.0616987000685185,True,18
48K23,65,experiment,38,→,right,→,0.611497399979271,True,18
48K23,66,experiment,15,↑,up,↑,1.02623110008426,True,18
48K23,67,experiment,47,→,down,↓,0.8915968999499455,False,18
48K23,68,experiment,42,←,left,←,0.9892417999217287,True,18
48K23,69,experiment,27,←,down,↓,1.3406488000182435,False,18
48K23,70,experiment,40,↑,up,↑,0.5581395999761298,True,18
48K23,71,experiment,32,↓,up,↑,1.523764899931848,False,18
48K23,72,experiment,45,→,right,→,0.6342520999023691,True,18
48K23,73,experiment,16,→,up,↑,1.5907521999906749,False,18
48K23,74,experiment,23,←,left,←,0.6577038000104949,True,18
48K23,75,experiment,60,↑,up,↑,0.8088062000460923,True,18
48K23,76,experiment,30,↑,up,↑,0.7176741999574006,True,18
48K23,77,experiment,49,→,left,←,0.8093912999611348,False,18
48K23,78,experiment,52,↓,left,←,0.33338650001678616,False,18
48K23,79,experiment,36,↓,left,←,1.698507499997504,False,18
48K23,80,experiment,51,↑,left,←,0.3338815999450162,False,18
48K23,81,experiment,39,↑,up,↑,0.5668775000376627,True,18
48K23,82,experiment,13,↑,up,↑,0.599982500076294,True,18
48K23,83,experiment,25,←,left,←,0.7520199998980388,True,18
48K23,84,experiment,29,↓,no_key,no_letter,-1.0,False,18
48K23,85,experiment,48,←,left,←,0.5626692000078037,True,18
48K23,86,experiment,55,→,left,←,1.3202956999884918,False,18
48K23,87,experiment,28,↓,left,←,1.1071400999790058,False,18
48K23,88,experiment,37,→,right,→,0.47884290001820773,True,18
48K23,89,experiment,43,↑,right,→,0.9194362000562251,False,18
48K23,90,experiment,41,↓,no_key,no_letter,-1.0,False,18
48K23,91,training,34,↑,up,↑,0.7344582999357954,True,19
48K23,92,training,29,←,left,←,0.574374399962835,True,19
48K23,93,experiment,22,←,left,←,1.1699948000023142,True,19
48K23,94,experiment,17,←,no_key,no_letter,-1.0,False,19
48K23,95,experiment,41,←,left,←,1.2639821999473497,True,19
48K23,96,experiment,37,↑,up,↑,0.6537718999898061,True,19
48K23,97,experiment,18,←,left,←,0.696680000051856,True,19
48K23,98,experiment,21,→,right,→,0.6073892000131309,True,19
48K23,99,experiment,51,→,right,→,0.6140826999908313,True,19
48K23,100,experiment,20,↓,down,↓,0.800907599972561,True,19
48K23,101,experiment,35,→,no_key,no_letter,-1.0,False,19
48K23,102,experiment,40,←,left,←,0.5780589999631047,True,19
48K23,103,experiment,46,↓,right,→,0.48599279997870326,False,19
48K23,104,experiment,53,↑,up,↑,0.6552649000659585,True,19
48K23,105,experiment,16,←,right,→,0.651514400029555,False,19
48K23,106,experiment,32,←,right,→,0.36710649996530265,False,19
48K23,107,experiment,23,↑,no_key,no_letter,-1.0,False,19
48K23,108,experiment,43,→,right,→,0.6045732999918982,True,19
48K23,109,experiment,60,↑,up,↑,0.6136574000120163,True,19
48K23,110,experiment,13,↓,down,↓,0.7169401000719517,True,19
48K23,111,experiment,19,←,left,←,0.5565175000810996,True,19
48K23,112,experiment,15,↓,up,↑,1.1012592000188306,False,19
48K23,113,experiment,34,↓,down,↓,0.6997663000365719,True,19
48K23,114,experiment,39,↑,down,↓,0.798948899959214,False,19
48K23,115,experiment,55,←,left,←,1.4111777000362054,True,19
48K23,116,experiment,54,←,left,←,0.5524519999744371,True,19
48K23,117,experiment,56,→,left,←,0.8861420000903308,False,19
48K23,118,experiment,45,←,left,←,0.5500126000260934,True,19
48K23,119,experiment,57,←,up,↑,1.5150614000158384,False,19
48K23,120,experiment,52,→,left,←,0.5092185999965295,False,19
48K23,121,experiment,42,↑,left,←,1.813796899979934,False,19
48K23,122,experiment,25,→,right,→,1.1501301999669522,True,19
48K23,123,experiment,38,↑,up,↑,1.3757890000706539,True,19
48K23,124,experiment,59,←,left,←,0.6112479000585154,True,19
48K23,125,experiment,33,←,left,←,0.7582426000153646,True,19
48K23,126,experiment,27,→,right,→,0.6627085000509396,True,19
48K23,127,experiment,24,←,left,←,0.8532203999347985,True,19
48K23,128,experiment,49,→,left,←,0.7553585000569001,False,19
48K23,129,experiment,58,↑,up,↑,0.8158996999263763,True,19
48K23,130,experiment,48,←,left,←,0.6722555999876931,True,19
48K23,131,experiment,26,←,left,←,0.5571975000202656,True,19
48K23,132,experiment,29,↓,down,↓,0.7646750999847427,True,19
48K23,133,experiment,30,←,left,←,0.595011799945496,True,19
48K23,134,experiment,28,→,right,→,0.5778419999405742,True,19
48K23,135,experiment,31,→,right,→,0.7033944999566302,True,19
48K23,136,experiment,50,↑,left,←,0.7948292000219226,False,19
48K23,137,experiment,36,↑,up,↑,0.8046869999961928,True,19
48K23,138,experiment,44,←,up,↑,0.7044601000379771,False,19
48K23,139,experiment,47,↑,down,↓,0.9178050000919029,False,19
48K23,140,experiment,14,→,right,→,0.984887900063768,True,19
48K23,141,training,14,→,right,→,0.5130071000894532,True,19
48K23,142,training,44,↓,down,↓,0.8157475999323651,True,19
48K23,143,experiment,34,↑,no_key,no_letter,-1.0,False,19
48K23,144,experiment,32,↓,down,↓,0.6222089000511914,True,19
48K23,145,experiment,20,→,right,→,0.7131628999486566,True,19
48K23,146,experiment,24,→,right,→,0.4865428999764845,True,19
48K23,147,experiment,16,→,right,→,0.5278312000446022,True,19
48K23,148,experiment,21,↓,left,←,0.5498119000112638,False,19
48K23,149,experiment,43,↓,down,↓,0.580188799998723,True,19
48K23,150,experiment,28,↓,down,↓,0.64350809995085,True,19
48K23,151,experiment,49,→,right,→,0.5064491999801248,True,19
48K23,152,experiment,54,→,right,→,0.4914469999494031,True,19
48K23,153,experiment,56,→,left,←,0.7550863999640569,False,19
48K23,154,experiment,42,↓,down,↓,0.6342083000345156,True,19
48K23,155,experiment,58,↓,down,↓,0.627204499905929,True,19
48K23,156,experiment,53,←,right,→,0.6963785999687389,False,19
48K23,157,experiment,36,↓,down,↓,0.7091180999996141,True,19
48K23,158,experiment,39,←,left,←,0.704117999994196,True,19
48K23,159,experiment,22,↓,down,↓,0.8464754999149591,True,19
48K23,160,experiment,35,→,right,→,0.45224759995471686,True,19
48K23,161,experiment,14,→,right,→,0.6185168999945745,True,19
48K23,162,experiment,52,←,left,←,0.544430400012061,True,19
48K23,163,experiment,55,←,left,←,0.5753452000208199,True,19
48K23,164,experiment,13,→,right,→,0.5607562999939546,True,19
48K23,165,experiment,44,→,right,→,0.5502198999747634,True,19
48K23,166,experiment,15,↑,right,→,1.3670213000150397,False,19
48K23,167,experiment,46,↑,right,→,0.619222000008449,False,19
48K23,168,experiment,29,↑,up,↑,0.5596384999807924,True,19
48K23,169,experiment,18,←,right,→,1.0623652000213042,False,19
48K23,170,experiment,26,↑,up,↑,1.0114308999618515,True,19
48K23,171,experiment,50,↓,down,↓,0.5952589999651536,True,19
48K23,172,experiment,60,←,left,←,0.7172373000066727,True,19
48K23,173,experiment,37,↓,down,↓,0.6246383000398055,True,19
48K23,174,experiment,45,←,left,←,0.5627917000092566,True,19
48K23,175,experiment,25,→,right,→,0.6042850000085309,True,19
48K23,176,experiment,59,←,left,←,0.7501835000002757,True,19
48K23,177,experiment,57,←,left,←,0.8431318999500945,True,19
48K23,178,experiment,17,→,right,→,0.6153041999787092,True,19
48K23,179,experiment,33,←,left,←,0.5614982999395579,True,19
48K23,180,experiment,47,↓,up,↑,1.1410742999287322,False,19
48K23,181,experiment,19,←,left,←,0.7319265999831259,True,19
48K23,182,experiment,31,↓,up,↑,0.8271657000295818,False,19
48K23,183,experiment,41,←,left,←,0.5439623000565916,True,19
48K23,184,experiment,51,↓,down,↓,1.097827999969013,True,19
48K23,185,experiment,48,→,left,←,0.7751117999432608,False,19
48K23,186,experiment,27,←,down,↓,0.9673825000645593,False,19
48K23,187,experiment,38,→,right,→,0.6481740999734029,True,19
48K23,188,experiment,30,↓,down,↓,0.8431776999495924,True,19
48K23,189,experiment,40,↓,down,↓,0.7603077000239864,True,19
48K23,190,experiment,23,↑,up,↑,0.6914796000346541,True,19
48K23,191,training,43,↓,up,↑,1.1928798001026735,False,19
48K23,192,training,24,↓,down,↓,0.7788275999482721,True,19
48K23,193,experiment,54,↑,up,↑,1.2330930999014527,True,19
48K23,194,experiment,53,→,right,→,0.8216646000510082,True,19
48K23,195,experiment,59,→,left,←,0.8388757000211626,False,19
48K23,196,experiment,46,←,left,←,0.6481335000135005,True,19
48K23,197,experiment,22,↓,down,↓,0.8486321000382304,True,19
48K23,198,experiment,32,↓,down,↓,0.713739600032568,True,19
48K23,199,experiment,28,↑,up,↑,0.6834938999963924,True,19
48K23,200,experiment,30,←,left,←,0.564802199951373,True,19
48K23,201,experiment,52,←,no_key,no_letter,-1.0,False,19
48K23,202,experiment,58,↑,up,↑,0.6241387000773102,True,19
48K23,203,experiment,40,↑,up,↑,0.6296959000173956,True,19
48K23,204,experiment,24,←,left,←,0.8131204000674188,True,19
48K23,205,experiment,39,→,left,←,1.435446299961768,False,19
48K23,206,experiment,42,↑,up,↑,0.7918130999896675,True,19
48K23,207,experiment,56,→,right,→,0.7481625999789685,True,19
48K23,208,experiment,49,←,left,←,0.5582148999674246,True,19
48K23,209,experiment,55,←,left,←,0.6686215999070555,True,19
48K23,210,experiment,51,→,left,←,0.6409829000476748,False,19
48K23,211,experiment,19,↓,up,↑,0.7800335000501946,False,19
48K23,212,experiment,27,→,right,→,0.8195514999097213,True,19
48K23,213,experiment,36,↑,left,←,1.931649100035429,False,19
48K23,214,experiment,14,↓,no_key,no_letter,-1.0,False,19
48K23,215,experiment,34,↑,up,↑,0.7539072000654414,True,19
48K23,216,experiment,33,→,up,↑,0.9271048000082374,False,19
48K23,217,experiment,41,←,left,←,0.5121957000810653,True,19
48K23,218,experiment,18,↑,left,←,1.7925157999852672,False,19
48K23,219,experiment,50,↑,left,←,0.7215423999587074,False,19
48K23,220,experiment,26,←,up,↑,1.1887661999789998,False,19
48K23,221,experiment,57,↓,right,→,0.7042424000101164,False,19
48K23,222,experiment,48,↓,right,→,1.4453627000330016,False,19
48K23,223,experiment,45,←,left,←,0.6953065000707284,True,19
48K23,224,experiment,15,←,left,←,0.5470259999856353,True,19
48K23,225,experiment,13,←,left,←,0.9815916999941692,True,19
48K23,226,experiment,37,↓,left,←,0.7906584000447765,False,19
48K23,227,experiment,17,←,left,←,0.6928763999603689,True,19
48K23,228,experiment,35,→,left,←,0.7868294999934733,False,19
48K23,229,experiment,43,↑,up,↑,0.9360581999644637,True,19
48K23,230,experiment,38,←,left,←,0.7704728000098839,True,19
48K23,231,experiment,21,↓,left,←,1.3103699999628589,False,19
48K23,232,experiment,47,↑,up,↑,0.652586399926804,True,19
48K23,233,experiment,44,↑,up,↑,0.3504909999901429,True,19
48K23,234,experiment,25,↑,up,↑,0.1999187000328675,True,19
48K23,235,experiment,29,↓,right,→,0.4337523999856785,False,19
48K23,236,experiment,20,←,right,→,0.1672592000104487,False,19
48K23,237,experiment,60,→,right,→,0.3828411999857053,True,19
48K23,238,experiment,31,↑,up,↑,0.6337525999406353,True,19
48K23,239,experiment,16,↑,up,↑,0.8867072999710217,True,19
48K23,240,experiment,23,↓,no_key,no_letter,-1.0,False,19
48K23,241,training,52,↓,no_key,no_letter,-1.0,False,19
48K23,242,training,15,←,right,→,1.722646399983205,False,19
48K23,243,experiment,44,↑,up,↑,0.5541270999237895,True,19
48K23,244,experiment,29,↓,down,↓,0.7135848000179976,True,19
48K23,245,experiment,50,→,right,→,0.5723337000235915,True,19
48K23,246,experiment,59,→,right,→,0.5836816999362782,True,19
48K23,247,experiment,53,↓,down,↓,0.5818405000027269,True,19
48K23,248,experiment,54,←,left,←,0.7717751000309363,True,19
48K23,249,experiment,48,←,left,←,0.614108799956739,True,19
48K23,250,experiment,16,↑,up,↑,0.5473118999507278,True,19
48K23,251,experiment,36,←,left,←,0.6700958999572322,True,19
48K23,252,experiment,43,→,left,←,0.5757264000130817,False,19
48K23,253,experiment,21,←,up,↑,0.5158042999682948,False,19
48K23,254,experiment,23,↑,left,←,0.33419530000537634,False,19
48K23,255,experiment,60,↑,up,↑,0.5315773000475019,True,19
48K23,256,experiment,15,↓,up,↑,0.6609952000435442,False,19
48K23,257,experiment,47,→,up,↑,0.5165880999993533,False,19
48K23,258,experiment,35,←,left,←,0.7535882000811398,True,19
48K23,259,experiment,14,→,left,←,1.0988195000682026,False,19
48K23,260,experiment,24,←,left,←,0.5118948000017554,True,19
48K23,261,experiment,34,↓,left,←,0.7738898999523371,False,19
48K23,262,experiment,51,↓,left,←,0.8304797998862341,False,19
48K23,263,experiment,38,↑,up,↑,0.8928515000734478,True,19
48K23,264,experiment,26,→,right,→,0.7214875998906791,True,19
48K23,265,experiment,31,↓,down,↓,0.624554599984549,True,19
48K23,266,experiment,55,↑,up,↑,0.6122481999918818,True,19
48K23,267,experiment,17,↑,up,↑,1.537768599926494,True,19
48K23,268,experiment,25,←,up,↑,0.5968558000167832,False,19
48K23,269,experiment,18,↓,down,↓,1.041527400026098,True,19
48K23,270,experiment,28,↑,up,↑,0.6786053999094293,True,19
48K23,271,experiment,41,↓,down,↓,0.6898276000283659,True,19
48K23,272,experiment,46,→,right,→,0.7774689999641851,True,19
48K23,273,experiment,30,↓,down,↓,0.8627644999651238,True,19
48K23,274,experiment,32,↓,up,↑,0.9685695000225678,False,19
48K23,275,experiment,58,↑,up,↑,0.5165147000225261,True,19
48K23,276,experiment,45,↑,up,↑,0.7385698000434786,True,19
48K23,277,experiment,27,↑,up,↑,0.6681460000108927,True,19
48K23,278,experiment,37,↓,down,↓,0.8576672000344843,True,19
48K23,279,experiment,39,↓,down,↓,0.8147158999927342,True,19
48K23,280,experiment,20,↓,down,↓,0.7297209999524057,True,19
48K23,281,experiment,56,→,right,→,0.6081749000586569,True,19
48K23,282,experiment,19,→,no_key,no_letter,-1.0,False,19
48K23,283,experiment,57,↑,up,↑,0.7365240999497473,True,19
48K23,284,experiment,13,→,right,→,0.7312427000142634,True,19
48K23,285,experiment,42,→,right,→,0.5070628999965265,True,19
48K23,286,experiment,22,↓,left,←,1.1771543000359088,False,19
48K23,287,experiment,52,→,right,→,0.6090422000270337,True,19
48K23,288,experiment,33,←,right,→,0.7155360999749973,False,19
48K23,289,experiment,49,↑,up,↑,0.5433393999701366,True,19
48K23,290,experiment,40,→,up,↑,0.5364851000485942,False,19
48K23,291,training,27,←,left,←,0.5798204999882728,True,19
48K23,292,training,24,→,right,→,0.6296465999912471,True,19
48K23,293,experiment,22,↓,down,↓,0.670104100019671,True,19
48K23,294,experiment,19,→,left,←,0.7195454000029713,False,19
48K23,295,experiment,48,→,right,→,0.7722510000457987,True,19
48K23,296,experiment,30,↑,up,↑,0.5941195000195876,True,19
48K23,297,experiment,39,↓,left,←,0.9056263000238687,False,19
48K23,298,experiment,29,↓,left,←,1.051445099990815,False,19
48K23,299,experiment,58,↓,left,←,0.6837939000688493,False,19
48K23,300,experiment,44,↓,down,↓,0.7003439000109211,True,19
48K23,301,experiment,14,→,no_key,no_letter,-1.0,False,19
48K23,302,experiment,36,→,right,→,0.5539305999409407,True,19
48K23,303,experiment,15,↓,down,↓,0.8663948000175878,True,19
48K23,304,experiment,26,↓,down,↓,0.7433003999758512,True,19
48K23,305,experiment,53,←,down,↓,0.9837331000017002,False,19
48K23,306,experiment,18,↑,no_key,no_letter,-1.0,False,19
48K23,307,experiment,16,→,down,↓,1.2207433000439778,False,19
48K23,308,experiment,33,←,down,↓,1.151519399951212,False,19
48K23,309,experiment,41,→,down,↓,1.0231071999296546,False,19
48K23,310,experiment,43,↑,down,↓,0.6669436000520363,False,19
48K23,311,experiment,60,→,down,↓,0.7693627999396995,False,19
48K23,312,experiment,24,↑,up,↑,0.6914358000503853,True,19
48K23,313,experiment,27,←,up,↑,1.039310299907811,False,19
48K23,314,experiment,52,↑,up,↑,0.43380150001030415,True,19
48K23,315,experiment,32,↑,up,↑,0.48563280003145337,True,19
48K23,316,experiment,21,↓,up,↑,0.6685405999887735,False,19
48K23,317,experiment,45,↓,down,↓,0.6609681999543682,True,19
48K23,318,experiment,51,↑,up,↑,0.5137321000220254,True,19
48K23,319,experiment,20,↑,up,↑,0.5688795000314713,True,19
48K23,320,experiment,59,←,left,←,0.6196738999569789,True,19
48K23,321,experiment,28,↓,down,↓,0.7128866000566632,True,19
48K23,322,experiment,54,→,up,↑,0.9536489000311121,False,19
48K23,323,experiment,37,↓,down,↓,0.6120037999935448,True,19
48K23,324,experiment,57,←,right,→,1.174890200025402,False,19
48K23,325,experiment,34,↑,up,↑,0.5866885000141338,True,19
48K23,326,experiment,46,→,right,→,0.6774174000602216,True,19
48K23,327,experiment,55,↓,down,↓,0.7114485000493005,True,19
48K23,328,experiment,42,→,up,↑,1.2801729999482632,False,19
48K23,329,experiment,49,←,left,←,0.8537883000681177,True,19
48K23,330,experiment,56,→,left,←,0.5596839999780059,False,19
48K23,331,experiment,25,←,left,←,0.5934119999874383,True,19
48K23,332,experiment,31,→,left,←,0.9502181999851018,False,19
48K23,333,experiment,40,↓,left,←,0.4167601999361068,False,19
48K23,334,experiment,13,←,right,→,0.5264171999879181,False,19
48K23,335,experiment,35,↑,up,↑,0.6741663999855518,True,19
48K23,336,experiment,47,↑,left,←,0.1679971000412479,False,19
48K23,337,experiment,17,←,right,→,0.8098755999235436,False,19
48K23,338,experiment,23,↓,down,↓,0.6592893999768421,True,19
48K23,339,experiment,50,↑,up,↑,0.7930134000489488,True,19
48K23,340,experiment,38,↑,up,↑,0.537183600012213,True,19
48K23,341,training,49,↓,down,↓,0.748658400028944,True,20
48K23,342,training,32,←,left,←,0.7223231999669224,True,20
48K23,343,experiment,29,↑,up,↑,0.5150891999946907,True,20
48K23,344,experiment,38,↓,down,↓,0.6380391001002863,True,20
48K23,345,experiment,45,↓,down,↓,0.7596037000184879,True,20
48K23,346,experiment,30,↑,no_key,no_letter,-1.0,False,20
48K23,347,experiment,59,←,left,←,0.7369297000113875,True,20
48K23,348,experiment,36,↓,down,↓,0.548338400083594,True,20
48K23,349,experiment,33,→,right,→,0.7294696999015287,True,20
48K23,350,experiment,55,↑,up,↑,0.7284673000685871,True,20
48K23,351,experiment,32,↓,down,↓,0.6632766999537125,True,20
48K23,352,experiment,54,←,left,←,0.5937830000184476,True,20
48K23,353,experiment,58,↓,left,←,0.5730546999257058,False,20
48K23,354,experiment,31,←,left,←,0.9703541999915615,True,20
48K23,355,experiment,19,←,right,→,0.6955775000387803,False,20
48K23,356,experiment,40,→,right,→,0.7065995000302792,True,20
48K23,357,experiment,39,↓,down,↓,0.6778081000084057,True,20
48K23,358,experiment,35,↓,down,↓,0.6845208000158891,True,20
48K23,359,experiment,17,←,left,←,0.7504579999949783,True,20
48K23,360,experiment,47,↑,left,←,0.5142068000277504,False,20
48K23,361,experiment,49,↓,up,↑,0.28362520004156977,False,20
48K23,362,experiment,41,←,down,↓,1.1260497000766918,False,20
48K23,363,experiment,18,→,left,←,0.6383186000166461,False,20
48K23,364,experiment,57,→,up,↑,0.21841630002018064,False,20
48K23,365,experiment,43,↓,right,→,0.23375709995161742,False,20
48K23,366,experiment,37,→,down,↓,0.38346530008129776,False,20
48K23,367,experiment,14,←,left,←,0.5369386998936534,True,20
48K23,368,experiment,23,↑,left,←,0.5488993999315426,False,20
48K23,369,experiment,44,←,up,↑,0.9947331000585109,False,20
48K23,370,experiment,25,↓,down,↓,0.4339682999998331,True,20
48K23,371,experiment,20,↑,right,→,0.508863199967891,False,20
48K23,372,experiment,52,→,down,↓,0.01746489992365241,False,20
48K23,373,experiment,27,↑,left,←,0.46662199997808784,False,20
48K23,374,experiment,22,←,left,←,0.035249399952590466,True,20
48K23,375,experiment,24,←,down,↓,0.8980391999939457,False,20
48K23,376,experiment,56,→,down,↓,1.0821326000150293,False,20
48K23,377,experiment,51,→,left,←,0.9338348000310361,False,20
48K23,378,experiment,53,→,right,→,1.0462189998943359,True,20
48K23,379,experiment,46,→,right,→,0.9994966000085697,True,20
48K23,380,experiment,26,←,down,↓,0.8393517000367865,False,20
48K23,381,experiment,48,→,right,→,0.6626155000412837,True,20
48K23,382,experiment,28,↑,left,←,0.9303335000295192,False,20
48K23,383,experiment,16,↑,up,↑,0.699312899960205,True,20
48K23,384,experiment,50,↑,up,↑,1.0308118000393733,True,20
48K23,385,experiment,42,↓,up,↑,0.6986588999861851,False,20
48K23,386,experiment,34,←,up,↑,0.6727622000034899,False,20
48K23,387,experiment,13,→,up,↑,0.6463717999868095,False,20
48K23,388,experiment,15,→,down,↓,0.3500086999265477,False,20
48K23,389,experiment,60,↑,down,↓,0.933821199927479,False,20
48K23,390,experiment,21,→,down,↓,0.8199308000039309,False,20
48K23,391,training,48,↑,up,↑,0.6593618000624701,True,21
48K23,392,training,39,→,left,←,0.7363369999220595,False,21
48K23,393,experiment,34,↓,up,↑,0.5652753999456763,False,21
48K23,394,experiment,41,↑,down,↓,0.6920320999342948,False,21
48K23,395,experiment,48,↓,down,↓,0.6336278000380844,True,21
48K23,396,experiment,27,←,left,←,0.5593701000325382,True,21
48K23,397,experiment,30,↑,up,↑,0.6778496999759227,True,21
48K23,398,experiment,19,→,right,→,0.5756271000718698,True,21
48K23,399,experiment,38,↑,up,↑,0.5681502999505028,True,21
48K23,400,experiment,15,→,up,↑,0.8324782000854611,False,21
48K23,401,experiment,59,↓,down,↓,1.3770550000481308,True,21
48K23,402,experiment,16,↑,down,↓,1.0005282000638545,False,21
48K23,403,experiment,55,←,down,↓,0.6132593000074849,False,21
48K23,404,experiment,14,→,right,→,0.6120732999406755,True,21
48K23,405,experiment,20,↑,down,↓,0.5275741000659764,False,21
48K23,406,experiment,25,↓,right,→,0.3843458000337705,False,21
48K23,407,experiment,36,↓,down,↓,0.5468101999722421,True,21
48K23,408,experiment,56,↓,down,↓,0.6326299000065774,True,21
48K23,409,experiment,32,→,right,→,0.5625936000142246,True,21
48K23,410,experiment,29,←,left,←,1.0980527000501752,True,21
48K23,411,experiment,52,↑,left,←,0.8768003999721259,False,21
48K23,412,experiment,58,↑,left,←,0.43394320004153997,False,21
48K23,413,experiment,50,→,right,→,0.5543495999881998,True,21
48K23,414,experiment,18,↓,right,→,1.457104100030847,False,21
48K23,415,experiment,33,→,right,→,0.674215400009416,True,21
48K23,416,experiment,45,←,right,→,0.35050149995367974,False,21
48K23,417,experiment,46,→,right,→,0.5738810999318957,True,21
48K23,418,experiment,54,←,left,←,0.7642531999154016,True,21
48K23,419,experiment,13,→,left,←,0.9421101999469101,False,21
48K23,420,experiment,47,→,right,→,0.706353300018236,True,21
48K23,421,experiment,24,↓,no_key,no_letter,-1.0,False,21
48K23,422,experiment,21,↑,up,↑,0.5457397999707609,True,21
48K23,423,experiment,39,↑,left,←,0.7312565000029281,False,21
48K23,424,experiment,28,↑,down,↓,1.0280858000041917,False,21
48K23,425,experiment,17,↑,down,↓,0.8573693999787793,False,21
48K23,426,experiment,22,→,down,↓,0.7131812999723479,False,21
48K23,427,experiment,60,→,right,→,0.6143550999695435,True,21
48K23,428,experiment,44,↑,up,↑,0.577405699994415,True,21
48K23,429,experiment,35,←,left,←,0.5803371999645606,True,21
48K23,430,experiment,42,←,down,↓,0.5547551000490785,False,21
48K23,431,experiment,43,←,left,←,0.6167251999722794,True,21
48K23,432,experiment,51,↓,down,↓,0.6952123999362811,True,21
48K23,433,experiment,49,↓,no_key,no_letter,-1.0,False,21
48K23,434,experiment,53,↑,up,↑,0.5780339000048116,True,21
48K23,435,experiment,37,→,up,↑,0.9394753000233322,False,21
48K23,436,experiment,57,←,left,←,0.6571822999976575,True,21
48K23,437,experiment,26,↓,no_key,no_letter,-1.0,False,21
48K23,438,experiment,31,→,right,→,0.6828310999553651,True,21
48K23,439,experiment,40,↑,left,←,0.6379946999950334,False,21
48K23,440,experiment,23,↓,down,↓,0.814037200063467,True,21
48K23,441,training,15,↓,no_key,no_letter,-1.0,False,21
48K23,442,training,34,↓,up,↑,1.783543900004588,False,21
48K23,443,experiment,46,↑,up,↑,0.5309435999952257,True,21
48K23,444,experiment,36,→,up,↑,1.3104496999876574,False,21
48K23,445,experiment,53,↓,up,↑,1.2642626999877393,False,21
48K23,446,experiment,57,←,up,↑,0.16844619996845722,False,21
48K23,447,experiment,19,↓,up,↑,0.43385679996572435,False,21
48K23,448,experiment,34,←,down,↓,0.5670230999821797,False,21
48K23,449,experiment,37,→,right,→,0.736637800000608,True,21
48K23,450,experiment,21,↓,down,↓,0.8944802999030799,True,21
48K23,451,experiment,42,↑,up,↑,0.6641016999492422,True,21
48K23,452,experiment,51,↑,up,↑,0.61244880000595,True,21
48K23,453,experiment,58,↓,down,↓,0.7987734000198543,True,21
48K23,454,experiment,26,↓,no_key,no_letter,-1.0,False,21
48K23,455,experiment,48,↑,down,↓,0.3663715000730008,False,21
48K23,456,experiment,22,↓,down,↓,0.1849015000043437,True,21
48K23,457,experiment,17,↑,up,↑,0.7449569999007508,True,21
48K23,458,experiment,60,↓,down,↓,0.48301700002048165,True,21
48K23,459,experiment,50,←,down,↓,0.10020940005779266,False,21
48K23,460,experiment,25,→,down,↓,0.017344900057651103,False,21
48K23,461,experiment,49,↓,down,↓,0.46664210001472384,True,21
48K23,462,experiment,41,↓,right,→,0.3679470999632031,False,21
48K23,463,experiment,45,↑,down,↓,0.36743740004021674,False,21
48K23,464,experiment,35,←,up,↑,0.9797457999084145,False,21
48K23,465,experiment,27,→,up,↑,0.450134199927561,False,21
48K23,466,experiment,14,↑,up,↑,0.46635309990961105,True,21
48K23,467,experiment,32,→,up,↑,0.4170170999132097,False,21
48K23,468,experiment,54,↑,right,→,0.5719757999759167,False,21
48K23,469,experiment,59,→,right,→,0.3520442999433726,True,21
48K23,470,experiment,29,↑,down,↓,0.861125500057824,False,21
48K23,471,experiment,44,↑,down,↓,0.7426006000023335,False,21
48K23,472,experiment,40,←,down,↓,0.6237572999671102,False,21
48K23,473,experiment,38,↓,down,↓,0.2682522999821231,True,21
48K23,474,experiment,18,↑,down,↓,0.3839394000824541,False,21
48K23,475,experiment,13,←,down,↓,0.3336657000472769,False,21
48K23,476,experiment,28,←,down,↓,0.08520059997681528,False,21
48K23,477,experiment,56,←,down,↓,0.10139640001580119,False,21
48K23,478,experiment,31,↓,up,↑,0.21722730004694313,False,21
48K23,479,experiment,23,←,right,→,0.03502060007303953,False,21
48K23,480,experiment,33,→,right,→,0.34982909995596856,True,21
48K23,481,experiment,30,↑,up,↑,0.8709600000875071,True,21
48K23,482,experiment,20,↑,down,↓,0.6878810999915004,False,21
48K23,483,experiment,15,←,right,→,0.08365990000311285,False,21
48K23,484,experiment,39,→,right,→,0.7238489999435842,True,21
48K23,485,experiment,55,←,left,←,0.7397576000075787,True,21
48K23,486,experiment,52,←,left,←,0.5728241000324488,True,21
48K23,487,experiment,24,←,left,←,0.8787175000179559,True,21
48K23,488,experiment,16,↑,up,↑,0.8904496999457479,True,21
48K23,489,experiment,43,↓,down,↓,0.7315266999648884,True,21
48K23,490,experiment,47,↓,up,↑,0.43366059998515993,False,21
48K23,491,training,28,↑,up,↑,0.724714000010863,True,21
48K23,492,training,54,→,right,→,0.66100770002231,True,21
48K23,493,experiment,41,→,up,↑,0.6883078999817371,False,21
48K23,494,experiment,16,→,right,→,0.4677935999352485,True,21
48K23,495,experiment,18,→,up,↑,1.4999224999919534,False,21
48K23,496,experiment,13,↓,down,↓,0.6324072999414057,True,21
48K23,497,experiment,34,↑,no_key,no_letter,-1.0,False,21
48K23,498,experiment,35,→,down,↓,0.13486370001919568,False,21
48K23,499,experiment,36,→,right,→,0.5817049999022856,True,21
48K23,500,experiment,32,←,up,↑,0.657556299935095,False,21
48K23,501,experiment,27,→,right,→,0.3677453000564128,True,21
48K23,502,experiment,50,↓,up,↑,0.7026287999469787,False,21
48K23,503,experiment,54,→,right,→,0.41650509997271,True,21
48K23,504,experiment,25,↑,up,↑,0.5423908000811934,True,21
48K23,505,experiment,39,←,left,←,0.5200850000837818,True,21
48K23,506,experiment,44,↓,up,↑,0.4829490000847727,False,21
48K23,507,experiment,55,↑,up,↑,0.46669759997166693,True,21
48K23,508,experiment,22,→,right,→,0.5971841000718996,True,21
48K23,509,experiment,59,↑,left,←,0.4837765000993386,False,21
48K23,510,experiment,33,→,left,←,0.3835150001104921,False,21
48K23,511,experiment,51,←,left,←,0.4504728000611067,True,21
48K23,512,experiment,56,↑,left,←,0.2503618999617174,False,21
48K23,513,experiment,49,↑,left,←,0.30016189999878407,False,21
48K23,514,experiment,26,↓,down,↓,0.737345700035803,True,21
48K23,515,experiment,43,→,left,←,0.5362570999423042,False,21
48K23,516,experiment,29,←,left,←,0.4672786000883207,True,21
48K23,517,experiment,57,←,left,←,0.5440619000000879,True,21
48K23,518,experiment,30,→,left,←,0.6076926999958232,False,21
48K23,519,experiment,46,↑,up,↑,0.6338946000905707,True,21
48K23,520,experiment,40,←,up,↑,0.3673269000137225,False,21
48K23,521,experiment,31,←,no_key,no_letter,-1.0,False,21
48K23,522,experiment,19,→,left,←,0.5264431999530643,False,21
48K23,523,experiment,52,←,left,←,0.20160549995489419,True,21
48K23,524,experiment,42,↑,up,↑,0.8387460999656469,True,21
48K23,525,experiment,60,↓,up,↑,0.4176708000013605,False,21
48K23,526,experiment,37,↓,up,↑,0.10015239997301251,False,21
48K23,527,experiment,21,→,up,↑,0.5538462999975309,False,21
48K23,528,experiment,38,↑,down,↓,0.20175710006151348,False,21
48K23,529,experiment,47,→,up,↑,0.28396180004347116,False,21
48K23,530,experiment,15,→,right,→,0.7677081000292674,True,21
48K23,531,experiment,45,→,right,→,0.05057490000035614,True,21
48K23,532,experiment,23,←,right,→,0.03498210001271218,False,21
48K23,533,experiment,28,↑,up,↑,0.5513826999813318,True,21
48K23,534,experiment,14,←,left,←,0.5205925999907777,True,21
48K23,535,experiment,53,→,right,→,0.46704829996451735,True,21
48K23,536,experiment,24,←,left,←,0.467128699994646,True,21
48K23,537,experiment,58,→,left,←,0.6535554999718443,False,21
48K23,538,experiment,17,←,left,←,0.21734520001336932,True,21
48K23,539,experiment,20,↓,left,←,0.2835422999924049,False,21
48K23,540,experiment,48,↑,left,←,0.8006910999538377,False,21
48K23,541,training,56,←,left,←,0.5279719999525696,True,21
48K23,542,training,37,↓,down,↓,0.7544828000245616,True,21
48K23,543,experiment,24,↓,down,↓,0.885557800065726,True,21
48K23,544,experiment,43,↑,up,↑,0.35168229998089373,True,21
48K23,545,experiment,22,↓,down,↓,0.6973678000504151,True,21
48K23,546,experiment,48,→,no_key,no_letter,-1.0,False,21
48K23,547,experiment,35,→,down,↓,0.20161880005616695,False,21
48K23,548,experiment,19,←,up,↑,0.1010205999482423,False,21
48K23,549,experiment,52,↑,up,↑,1.5897522000595927,True,21
48K23,550,experiment,33,↓,down,↓,0.5938312000362203,True,21
48K23,551,experiment,55,→,right,→,0.5268460999941453,True,21
48K23,552,experiment,36,→,left,←,0.7386017000535503,False,21
48K23,553,experiment,59,↑,up,↑,0.40049999998882413,True,21
48K23,554,experiment,31,↑,up,↑,0.0341224999865517,True,21
48K23,555,experiment,50,→,up,↑,0.6201025999616832,False,21
48K23,556,experiment,46,→,left,←,0.5180841999826953,False,21
48K23,557,experiment,49,↑,right,→,1.3365513000171632,False,21
48K23,558,experiment,37,↑,right,→,0.03504689992405474,False,21
48K23,559,experiment,28,→,up,↑,0.7718947998946533,False,21
48K23,560,experiment,32,↑,right,→,0.9205449000000954,False,21
48K23,561,experiment,42,↓,right,→,0.33389830007217824,False,21
48K23,562,experiment,44,←,left,←,0.5894198000896722,True,21
48K23,563,experiment,14,←,left,←,0.9974271000828594,True,21
48K23,564,experiment,45,↑,up,↑,0.5445818000007421,True,21
48K23,565,experiment,27,↑,down,↓,0.38376740005332977,False,21
48K23,566,experiment,17,→,up,↑,0.5672508999705315,False,21
48K23,567,experiment,15,→,right,→,0.3169826999073848,True,21
48K23,568,experiment,26,→,right,→,0.36669200006872416,True,21
48K23,569,experiment,41,↑,right,→,0.38318239990621805,False,21
48K23,570,experiment,29,↑,up,↑,0.151808200054802,True,21
48K23,571,experiment,25,→,right,→,0.5820169999497011,True,21
48K23,572,experiment,40,↓,up,↑,0.4173684000270441,False,21
48K23,573,experiment,13,→,down,↓,0.48387159989215434,False,21
48K23,574,experiment,18,→,down,↓,0.26824190001934767,False,21
48K23,575,experiment,23,→,down,↓,0.2840206000255421,False,21
48K23,576,experiment,57,↓,right,→,1.2445389999775216,False,21
48K23,577,experiment,38,→,down,↓,0.3673805999569595,False,21
48K23,578,experiment,34,→,right,→,0.5655902000144124,True,21
48K23,579,experiment,21,↑,up,↑,0.41705849999561906,True,21
48K23,580,experiment,16,→,up,↑,0.5583681999705732,False,21
48K23,581,experiment,47,↑,up,↑,1.8902259999886155,True,21
48K23,582,experiment,54,↑,up,↑,0.4673426999943331,True,21
48K23,583,experiment,58,←,no_key,no_letter,-1.0,False,21
48K23,584,experiment,30,↑,up,↑,0.5283236999530345,True,21
48K23,585,experiment,60,←,up,↑,0.8200200001010671,False,21
48K23,586,experiment,53,↑,up,↑,0.44973670004401356,True,21
48K23,587,experiment,56,←,up,↑,1.0419944999739528,False,21
48K23,588,experiment,20,↑,up,↑,0.30115610000211746,True,21
48K23,589,experiment,39,←,up,↑,0.3662513999734074,False,21
48K23,590,experiment,51,↑,up,↑,0.5406702000182122,True,21
