PART_ID,Trial_no,Trial_type,CSI,Stim_letter,Key_pressed,letter_choose,Rt,Corr,Stimulus Time
55K22,1,training,60,↓,no_key,no_letter,-1.0,False,30
55K22,2,training,60,←,up,↑,0.46861069998703897,False,30
55K22,3,training,60,↓,down,↓,0.5833820999832824,True,30
55K22,4,training,60,↑,down,↓,0.5501299999887124,False,30
55K22,5,training,60,↑,up,↑,1.0993567999685183,True,30
55K22,6,training,60,↓,down,↓,0.7047459998866543,True,30
55K22,7,training,60,→,right,→,0.8934013000689447,True,30
55K22,8,training,60,←,left,←,0.810506199952215,True,30
55K22,9,training,60,←,left,←,0.7385760999750346,True,30
55K22,10,training,60,↑,up,↑,0.8782877000048757,True,30
55K22,11,training,60,↑,up,↑,0.6921927999937907,True,30
55K22,12,training,60,←,left,←,0.4832059000618756,True,30
55K22,13,training,60,↑,up,↑,0.5830217999173328,True,30
55K22,14,training,60,→,right,→,0.5998577000573277,True,30
55K22,15,training,60,↓,left,←,0.45156499999575317,False,30
55K22,16,training,60,↓,no_key,no_letter,-1.0,False,30
55K22,17,training,60,↑,up,↑,0.4337234999984503,True,30
55K22,18,training,60,←,left,←,1.9962407000130042,True,30
55K22,19,training,60,↑,up,↑,0.6170537999132648,True,30
55K22,20,training,60,↓,down,↓,0.5335547999711707,True,30
55K22,21,training,60,←,down,↓,0.43344490008894354,False,18
55K22,22,training,60,↑,up,↑,0.6281945999944583,True,18
55K22,23,training,60,↓,down,↓,0.627688999986276,True,18
55K22,24,training,60,→,right,→,0.5795089999446645,True,18
55K22,25,training,60,←,left,←,0.7567903000162914,True,18
55K22,26,training,60,↑,up,↑,0.624000999960117,True,18
55K22,27,training,60,→,left,←,0.496249399962835,False,18
55K22,28,training,60,↑,up,↑,0.9888649999629706,True,18
55K22,29,training,60,↑,down,↓,0.5746514999773353,False,18
55K22,30,training,60,←,right,→,0.6890014000236988,False,18
55K22,31,training,60,↓,down,↓,0.5186041999841109,True,18
55K22,32,training,60,→,right,→,0.5865811000112444,True,18
55K22,33,training,60,↓,down,↓,0.49242379993665963,True,18
55K22,34,training,60,←,right,→,1.2333308000816032,False,18
55K22,35,training,60,↓,down,↓,0.544893000042066,True,18
55K22,36,training,60,↑,up,↑,0.7077189999399707,True,18
55K22,37,training,60,↑,up,↑,0.6006369999377057,True,18
55K22,38,training,60,↓,up,↑,0.9535756000550464,False,18
55K22,39,training,60,↑,up,↑,0.652907699928619,True,18
55K22,40,training,60,↑,up,↑,0.6757628000341356,True,18
55K22,41,training,38,→,up,↑,0.6359476000070572,False,18
55K22,42,training,15,→,right,→,0.47315910004545003,True,18
55K22,43,experiment,27,→,right,→,0.5173571000341326,True,18
55K22,44,experiment,26,←,right,→,0.47184270003344864,False,18
55K22,45,experiment,53,↓,down,↓,0.6578282000264153,True,18
55K22,46,experiment,29,↑,up,↑,1.6131224000127986,True,18
55K22,47,experiment,23,↓,down,↓,0.558882600045763,True,18
55K22,48,experiment,51,↑,up,↑,0.4721166999079287,True,18
55K22,49,experiment,28,→,right,→,0.3833398000570014,True,18
55K22,50,experiment,15,↓,up,↑,0.9848513000179082,False,18
55K22,51,experiment,30,→,right,→,0.5025647999718785,True,18
55K22,52,experiment,47,→,right,→,0.8280473999911919,True,18
55K22,53,experiment,18,↓,down,↓,0.5683687999844551,True,18
55K22,54,experiment,20,↑,up,↑,0.5730141999665648,True,18
55K22,55,experiment,33,←,left,←,0.705401600105688,True,18
55K22,56,experiment,31,←,down,↓,1.8093641999876127,False,18
55K22,57,experiment,40,←,left,←,0.7201902000233531,True,18
55K22,58,experiment,41,↓,down,↓,0.5533274000044912,True,18
55K22,59,experiment,57,→,right,→,0.6461917000124231,True,18
55K22,60,experiment,50,←,left,←,0.6679061000468209,True,18
55K22,61,experiment,13,←,right,→,0.6415606000227854,False,18
55K22,62,experiment,22,↑,up,↑,0.8020507999463007,True,18
55K22,63,experiment,49,→,right,→,0.5707434000214562,True,18
55K22,64,experiment,35,↓,up,↑,0.7896114999894053,False,18
55K22,65,experiment,59,→,right,→,0.568072900059633,True,18
55K22,66,experiment,32,←,left,←,0.4767297001089901,True,18
55K22,67,experiment,60,↓,down,↓,0.6747215000214055,True,18
55K22,68,experiment,34,↓,right,→,0.4904149000067264,False,18
55K22,69,experiment,44,→,right,→,0.47406859998591244,True,18
55K22,70,experiment,45,↑,up,↑,0.4899110000114888,True,18
55K22,71,experiment,39,←,left,←,0.645135400001891,True,18
55K22,72,experiment,17,→,right,→,0.561410199967213,True,18
55K22,73,experiment,46,→,right,→,0.6297055000904948,True,18
55K22,74,experiment,54,→,right,→,0.5061101999599487,True,18
55K22,75,experiment,19,→,right,→,0.6656930000754073,True,18
55K22,76,experiment,14,←,right,→,0.9345923999790102,False,18
55K22,77,experiment,37,↑,up,↑,0.5295667999889702,True,18
55K22,78,experiment,25,←,right,→,0.46917070006020367,False,18
55K22,79,experiment,55,↑,up,↑,0.6456726000178605,True,18
55K22,80,experiment,24,↑,up,↑,0.756831799983047,True,18
55K22,81,experiment,36,→,right,→,1.7600426999852061,True,18
55K22,82,experiment,58,→,right,→,0.3831209000200033,True,18
55K22,83,experiment,38,→,right,→,0.4923468000488356,True,18
55K22,84,experiment,16,↑,right,→,0.5030746000120416,False,18
55K22,85,experiment,56,←,right,→,0.5428392000030726,False,18
55K22,86,experiment,48,←,right,→,0.5380550998961553,False,18
55K22,87,experiment,42,←,right,→,0.8339019999839365,False,18
55K22,88,experiment,52,←,left,←,0.663069500005804,True,18
55K22,89,experiment,43,→,right,→,0.7289058000314981,True,18
55K22,90,experiment,21,←,left,←,0.4948152999859303,True,18
55K22,91,training,50,↑,right,→,0.4762120000086725,False,18
55K22,92,training,54,←,left,←,0.5256500999676064,True,18
55K22,93,experiment,26,←,left,←,0.5288667000131682,True,18
55K22,94,experiment,21,←,right,→,0.574637999990955,False,18
55K22,95,experiment,56,→,left,←,0.5635319999419153,False,18
55K22,96,experiment,60,↑,up,↑,0.5020545999286696,True,18
55K22,97,experiment,51,←,left,←,0.6808496000012383,True,18
55K22,98,experiment,46,←,left,←,0.5998389000305906,True,18
55K22,99,experiment,43,→,left,←,0.572300500003621,False,18
55K22,100,experiment,30,←,left,←,0.6902116000419483,True,18
55K22,101,experiment,40,→,right,→,0.7733572999713942,True,18
55K22,102,experiment,55,↓,down,↓,0.6431764999870211,True,18
55K22,103,experiment,58,←,left,←,0.732173900003545,True,18
55K22,104,experiment,52,→,right,→,1.8930920000420883,True,18
55K22,105,experiment,47,↓,down,↓,0.691949600004591,True,18
55K22,106,experiment,59,↑,up,↑,0.7065462999744341,True,18
55K22,107,experiment,18,→,left,←,0.6754543998977169,False,18
55K22,108,experiment,49,→,left,←,0.72111279994715,False,18
55K22,109,experiment,14,↓,down,↓,0.6118434000527486,True,18
55K22,110,experiment,50,→,left,←,0.5234017999609932,False,18
55K22,111,experiment,48,→,right,→,0.6236701000016183,True,18
55K22,112,experiment,35,↑,left,←,0.7047383000608534,False,18
55K22,113,experiment,33,↑,up,↑,0.7753515000222251,True,18
55K22,114,experiment,57,→,right,→,0.6757857000920922,True,18
55K22,115,experiment,15,→,right,→,0.6399431000463665,True,18
55K22,116,experiment,34,↓,down,↓,0.7289358000271022,True,18
55K22,117,experiment,41,↑,down,↓,0.7462066999869421,False,18
55K22,118,experiment,16,→,right,→,0.6578192000743002,True,18
55K22,119,experiment,45,↑,up,↑,0.8749114000238478,True,18
55K22,120,experiment,28,→,right,→,0.53453800000716,True,18
55K22,121,experiment,25,→,right,→,0.5054563999874517,True,18
55K22,122,experiment,42,↑,up,↑,0.6583145000040531,True,18
55K22,123,experiment,36,→,down,↓,0.8808489000657573,False,18
55K22,124,experiment,20,↑,up,↑,0.7611308000050485,True,18
55K22,125,experiment,32,↑,up,↑,0.7830683001084253,True,18
55K22,126,experiment,27,←,left,←,0.6865129999350756,True,18
55K22,127,experiment,38,↑,up,↑,0.714589900104329,True,18
55K22,128,experiment,24,↓,down,↓,0.5028082999633625,True,18
55K22,129,experiment,37,↓,right,→,0.43381939991377294,False,18
55K22,130,experiment,17,←,down,↓,0.5505203999346122,False,18
55K22,131,experiment,44,←,left,←,0.6598037000512704,True,18
55K22,132,experiment,53,←,right,→,0.6557150000007823,False,18
55K22,133,experiment,31,↓,down,↓,0.5218956000171602,True,18
55K22,134,experiment,19,↓,down,↓,0.7130277999676764,True,18
55K22,135,experiment,39,←,left,←,0.5478862000163645,True,18
55K22,136,experiment,29,↑,right,→,0.6590538000455126,False,18
55K22,137,experiment,54,←,left,←,1.5341044999659061,True,18
55K22,138,experiment,23,↑,down,↓,0.6426262999884784,False,18
55K22,139,experiment,22,→,right,→,0.46782219992019236,True,18
55K22,140,experiment,13,↑,left,←,0.7679638999979943,False,18
55K22,141,training,39,←,left,←,1.1144567000446841,True,18
55K22,142,training,22,↓,left,←,0.5440198000287637,False,18
55K22,143,experiment,50,↑,down,↓,0.7067849000450224,False,18
55K22,144,experiment,44,↓,down,↓,0.5623409999534488,True,18
55K22,145,experiment,59,↓,down,↓,0.6055406000232324,True,18
55K22,146,experiment,15,↓,down,↓,0.5482879999326542,True,18
55K22,147,experiment,13,↓,left,←,0.6302835000678897,False,18
55K22,148,experiment,26,←,left,←,0.6607354000443593,True,18
55K22,149,experiment,41,↓,left,←,0.5600708000129089,False,18
55K22,150,experiment,35,→,down,↓,0.699699499993585,False,18
55K22,151,experiment,48,←,left,←,0.5127114000497386,True,18
55K22,152,experiment,53,→,right,→,0.49830909993033856,True,18
55K22,153,experiment,21,↑,up,↑,0.5210149000631645,True,18
55K22,154,experiment,52,↑,down,↓,0.6185305000981316,False,18
55K22,155,experiment,43,←,left,←,0.5501561999553815,True,18
55K22,156,experiment,49,←,left,←,0.584368700045161,True,18
55K22,157,experiment,42,↓,down,↓,0.6062891000183299,True,18
55K22,158,experiment,38,→,right,→,0.4776091000530869,True,18
55K22,159,experiment,32,↓,down,↓,0.7739462999161333,True,18
55K22,160,experiment,33,↓,left,←,0.5061598001047969,False,18
55K22,161,experiment,25,↓,down,↓,0.49404390004929155,True,18
55K22,162,experiment,18,↓,down,↓,0.6395527999848127,True,18
55K22,163,experiment,20,↑,down,↓,0.5375586000736803,False,18
55K22,164,experiment,37,↓,up,↑,1.3883198000257835,False,18
55K22,165,experiment,28,↑,down,↓,1.5316757999826223,False,18
55K22,166,experiment,29,↓,down,↓,0.5962346999440342,True,18
55K22,167,experiment,16,→,right,→,0.6982431999640539,True,18
55K22,168,experiment,34,←,left,←,0.8889090999728069,True,18
55K22,169,experiment,31,→,right,→,0.6092802999773994,True,18
55K22,170,experiment,55,→,right,→,0.5660630000056699,True,18
55K22,171,experiment,24,↑,right,→,1.0960346999345347,False,18
55K22,172,experiment,17,→,right,→,0.625497700064443,True,18
55K22,173,experiment,19,→,right,→,0.4337312000570819,True,18
55K22,174,experiment,39,→,right,→,0.6975895999930799,True,18
55K22,175,experiment,54,↑,up,↑,0.8907957000192255,True,18
55K22,176,experiment,58,↑,up,↑,0.6899637000169605,True,18
55K22,177,experiment,60,→,right,→,1.0239820999559015,True,18
55K22,178,experiment,23,↑,up,↑,0.6812525000423193,True,18
55K22,179,experiment,30,↓,down,↓,0.7867761999368668,True,18
55K22,180,experiment,22,↑,up,↑,0.6853600000031292,True,18
55K22,181,experiment,47,↑,up,↑,0.4834434000076726,True,18
55K22,182,experiment,36,↑,up,↑,0.48117270006332546,True,18
55K22,183,experiment,27,↓,down,↓,0.5723283999832347,True,18
55K22,184,experiment,40,↓,down,↓,0.7479556000325829,True,18
55K22,185,experiment,51,→,right,→,0.5811875000363216,True,18
55K22,186,experiment,45,←,left,←,0.48078300000634044,True,18
55K22,187,experiment,57,→,right,→,0.5525716999545693,True,18
55K22,188,experiment,56,↑,up,↑,0.5502231999998912,True,18
55K22,189,experiment,46,↑,down,↓,0.642154400004074,False,18
55K22,190,experiment,14,→,right,→,0.6084711999865249,True,18
55K22,191,training,34,←,right,→,0.4740786000620574,False,18
55K22,192,training,58,←,left,←,0.5128143000183627,True,18
55K22,193,experiment,37,↓,down,↓,0.6684880000539124,True,18
55K22,194,experiment,42,→,right,→,0.6308506999630481,True,18
55K22,195,experiment,39,→,right,→,0.5081833999138325,True,18
55K22,196,experiment,19,↓,down,↓,0.7003917000256479,True,18
55K22,197,experiment,51,↑,up,↑,0.6473735999315977,True,18
55K22,198,experiment,29,↓,down,↓,0.6267583000008017,True,18
55K22,199,experiment,56,↑,up,↑,0.5259925000136718,True,18
55K22,200,experiment,53,→,right,→,0.534698500065133,True,18
55K22,201,experiment,49,↓,down,↓,0.4980148000176996,True,18
55K22,202,experiment,46,←,left,←,0.49632570007815957,True,18
55K22,203,experiment,20,→,right,→,0.5992505000904202,True,18
55K22,204,experiment,44,↓,left,←,0.40001700003631413,False,18
55K22,205,experiment,15,→,right,→,1.2088970999466255,True,18
55K22,206,experiment,60,↑,up,↑,0.754166099941358,True,18
55K22,207,experiment,35,↓,down,↓,0.4940317999571562,True,18
55K22,208,experiment,31,↓,down,↓,0.6307988000335172,True,18
55K22,209,experiment,47,→,right,→,0.4712478999281302,True,18
55K22,210,experiment,21,↑,right,→,1.1904999000253156,False,18
55K22,211,experiment,33,→,right,→,0.5781982999760658,True,18
55K22,212,experiment,54,→,right,→,0.9046419999795035,True,18
55K22,213,experiment,55,←,left,←,0.5531116999918595,True,18
55K22,214,experiment,59,←,left,←,0.5005907999584451,True,18
55K22,215,experiment,32,↓,down,↓,0.6841058999998495,True,18
55K22,216,experiment,41,→,right,→,0.566654899972491,True,18
55K22,217,experiment,13,↓,down,↓,1.1437737999949604,True,18
55K22,218,experiment,52,←,left,←,0.7931962000438944,True,18
55K22,219,experiment,30,←,left,←,0.6304956000531092,True,18
55K22,220,experiment,26,↑,left,←,1.244987600017339,False,18
55K22,221,experiment,58,↑,up,↑,0.5504092000192031,True,18
55K22,222,experiment,28,←,left,←,0.6784748999634758,True,18
55K22,223,experiment,24,→,right,→,0.5083299999823794,True,18
55K22,224,experiment,50,↓,down,↓,0.5919894999824464,True,18
55K22,225,experiment,27,←,right,→,0.5916141000343487,False,18
55K22,226,experiment,43,↑,up,↑,0.7162622000323609,True,18
55K22,227,experiment,48,→,right,→,0.5610703000565991,True,18
55K22,228,experiment,40,↓,right,→,0.5689953999826685,False,18
55K22,229,experiment,36,→,right,→,0.5952053000219166,True,18
55K22,230,experiment,14,↓,down,↓,0.6270688999211416,True,18
55K22,231,experiment,38,↑,down,↓,1.0741207000100985,False,18
55K22,232,experiment,57,↓,down,↓,0.7629183999961242,True,18
55K22,233,experiment,18,→,right,→,0.7610311999451369,True,18
55K22,234,experiment,34,←,left,←,0.7491810000501573,True,18
55K22,235,experiment,25,→,right,→,0.5513038999633864,True,18
55K22,236,experiment,17,←,right,→,0.6308435000246391,False,18
55K22,237,experiment,23,→,right,→,0.7269744999939576,True,18
55K22,238,experiment,16,↓,down,↓,1.0001273000380024,True,18
55K22,239,experiment,45,↑,up,↑,0.8032594999531284,True,18
55K22,240,experiment,22,↑,up,↑,0.5654319999739528,True,18
55K22,241,training,42,↑,up,↑,0.4750961000099778,True,18
55K22,242,training,54,↑,up,↑,1.2207063999958336,True,18
55K22,243,experiment,31,←,left,←,1.112457099952735,True,18
55K22,244,experiment,21,→,right,→,0.49485559994354844,True,18
55K22,245,experiment,41,→,right,→,0.5375230999197811,True,18
55K22,246,experiment,28,↓,down,↓,0.7617960999486968,True,18
55K22,247,experiment,52,↑,up,↑,0.5624502999708056,True,18
55K22,248,experiment,13,↓,down,↓,0.73236599995289,True,18
55K22,249,experiment,44,←,right,→,0.5947614000178874,False,18
55K22,250,experiment,58,↓,down,↓,1.0377380999270827,True,18
55K22,251,experiment,23,↓,down,↓,0.4706075999420136,True,18
55K22,252,experiment,54,→,right,→,0.4797073999652639,True,18
55K22,253,experiment,36,→,right,→,0.4931946999859065,True,18
55K22,254,experiment,33,←,right,→,0.7566411999287084,False,18
55K22,255,experiment,16,→,right,→,0.6208761000307277,True,18
55K22,256,experiment,14,→,right,→,0.6593577000312507,True,18
55K22,257,experiment,43,↓,right,→,0.5258349999785423,False,18
55K22,258,experiment,27,→,right,→,0.5196779000107199,True,18
55K22,259,experiment,34,↓,down,↓,0.525351999909617,True,18
55K22,260,experiment,49,→,right,→,0.5929664999712259,True,18
55K22,261,experiment,26,↑,up,↑,0.5931074999971315,True,18
55K22,262,experiment,59,→,right,→,0.5234906000550836,True,18
55K22,263,experiment,18,↑,right,→,1.3075601999880746,False,18
55K22,264,experiment,50,→,right,→,0.47942839993629605,True,18
55K22,265,experiment,25,→,right,→,0.5402562000090256,True,18
55K22,266,experiment,48,↑,up,↑,0.5997965999413282,True,18
55K22,267,experiment,22,↓,down,↓,0.7538835000013933,True,18
55K22,268,experiment,57,→,right,→,0.49506480002310127,True,18
55K22,269,experiment,20,↓,left,←,1.1587931000394747,False,18
55K22,270,experiment,56,←,left,←,0.5650422999169677,True,18
55K22,271,experiment,30,↓,down,↓,0.674988100072369,True,18
55K22,272,experiment,46,↑,up,↑,0.5786066999426112,True,18
55K22,273,experiment,19,→,up,↑,0.8880377999739721,False,18
55K22,274,experiment,15,↑,up,↑,0.6835005000466481,True,18
55K22,275,experiment,47,←,up,↑,0.43318699998781085,False,18
55K22,276,experiment,37,→,right,→,0.7120667999843135,True,18
55K22,277,experiment,55,→,right,→,0.5283522000536323,True,18
55K22,278,experiment,45,→,right,→,0.5668469000374898,True,18
55K22,279,experiment,53,↑,down,↓,0.7738719000481069,False,18
55K22,280,experiment,38,←,left,←,0.6308149000396952,True,18
55K22,281,experiment,60,↑,down,↓,0.7265669000335038,False,18
55K22,282,experiment,51,↑,up,↑,0.697076000040397,True,18
55K22,283,experiment,40,→,right,→,0.5312907000770792,True,18
55K22,284,experiment,35,→,right,→,1.3194564000004902,True,18
55K22,285,experiment,29,↑,up,↑,0.6084167999215424,True,18
55K22,286,experiment,17,→,right,→,0.8218596000224352,True,18
55K22,287,experiment,24,↑,up,↑,0.8302623999770731,True,18
55K22,288,experiment,42,↑,up,↑,0.4745325999101624,True,18
55K22,289,experiment,39,←,left,←,0.7498807000229135,True,18
55K22,290,experiment,32,→,right,→,0.5636480998946354,True,18
55K22,291,training,14,↓,down,↓,0.7651238000253215,True,18
55K22,292,training,52,←,up,↑,0.6929860999807715,False,18
55K22,293,experiment,35,↑,up,↑,0.5471329999854788,True,18
55K22,294,experiment,55,←,left,←,0.6571587000507861,True,18
55K22,295,experiment,52,↑,up,↑,0.41713710001204163,True,18
55K22,296,experiment,57,→,right,→,0.527182099991478,True,18
55K22,297,experiment,23,↑,up,↑,0.5559185999445617,True,18
55K22,298,experiment,27,→,right,→,0.5167418000055477,True,18
55K22,299,experiment,49,↓,down,↓,0.536459399969317,True,18
55K22,300,experiment,14,←,up,↑,0.8825530000030994,False,18
55K22,301,experiment,18,↑,up,↑,0.5958345000399277,True,18
55K22,302,experiment,28,←,left,←,0.6906354000093415,True,18
55K22,303,experiment,53,←,left,←,0.7172146000666544,True,18
55K22,304,experiment,25,↑,up,↑,0.6885092000011355,True,18
55K22,305,experiment,31,↓,down,↓,0.641458100057207,True,18
55K22,306,experiment,16,↓,down,↓,0.7822649000445381,True,18
55K22,307,experiment,47,←,left,←,1.2727729000616819,True,18
55K22,308,experiment,30,→,down,↓,1.0592031000414863,False,18
55K22,309,experiment,15,←,left,←,0.5361477999249473,True,18
55K22,310,experiment,21,↑,up,↑,0.6055914000608027,True,18
55K22,311,experiment,36,↓,down,↓,0.7745068999938667,True,18
55K22,312,experiment,24,→,right,→,0.7126261000521481,True,18
55K22,313,experiment,37,→,right,→,0.5648163999430835,True,18
55K22,314,experiment,56,↓,down,↓,1.1619391000131145,True,18
55K22,315,experiment,59,↑,down,↓,0.4703790000639856,False,18
55K22,316,experiment,34,←,right,→,0.572472000028938,False,18
55K22,317,experiment,41,→,right,→,0.483428799896501,True,18
55K22,318,experiment,39,↑,up,↑,0.8146272000158206,True,18
55K22,319,experiment,38,↑,up,↑,0.5821713999612257,True,18
55K22,320,experiment,20,↓,down,↓,0.6340459000784904,True,18
55K22,321,experiment,44,→,right,→,0.564309100038372,True,18
55K22,322,experiment,45,↑,up,↑,0.6886868999572471,True,18
55K22,323,experiment,60,↑,down,↓,0.822603499982506,False,18
55K22,324,experiment,33,←,right,→,0.6886068000458181,False,18
55K22,325,experiment,13,→,right,→,0.5733249000040814,True,18
55K22,326,experiment,58,↑,up,↑,0.801479100016877,True,18
55K22,327,experiment,26,↓,right,→,0.5365295000374317,False,18
55K22,328,experiment,32,↓,down,↓,0.5267877000151202,True,18
55K22,329,experiment,46,←,left,←,1.292314299964346,True,18
55K22,330,experiment,48,↓,down,↓,0.48245639994274825,True,18
55K22,331,experiment,19,↓,down,↓,0.5869476000079885,True,18
55K22,332,experiment,17,→,right,→,0.6330677000805736,True,18
55K22,333,experiment,43,→,right,→,0.6040358999744058,True,18
55K22,334,experiment,42,↑,right,→,0.6490922000957653,False,18
55K22,335,experiment,29,↓,down,↓,0.5565868999110535,True,18
55K22,336,experiment,51,↓,down,↓,0.15083299996331334,True,18
55K22,337,experiment,22,→,right,→,1.1555589999770746,True,18
55K22,338,experiment,40,↑,down,↓,0.8279003000352532,False,18
55K22,339,experiment,50,↑,up,↑,0.6348915999988094,True,18
55K22,340,experiment,54,↑,up,↑,0.6868290000129491,True,18
55K22,341,training,54,→,right,→,0.5886736999964342,True,18
55K22,342,training,31,→,right,→,0.43379619996994734,True,18
55K22,343,experiment,24,→,right,→,0.4335399999981746,True,18
55K22,344,experiment,58,←,left,←,0.7445378999691457,True,18
55K22,345,experiment,46,↑,up,↑,0.5413593999110162,True,18
55K22,346,experiment,45,↓,right,→,0.5389430000213906,False,18
55K22,347,experiment,13,→,right,→,0.7095888999756426,True,18
55K22,348,experiment,39,→,left,←,0.38317509996704757,False,18
55K22,349,experiment,19,↑,right,→,1.8366864999989048,False,18
55K22,350,experiment,18,↑,up,↑,0.7764835000270978,True,18
55K22,351,experiment,48,↑,up,↑,1.1548643000423908,True,18
55K22,352,experiment,37,←,left,←,0.5655571999959648,True,18
55K22,353,experiment,51,↑,up,↑,0.7818848999449983,True,18
55K22,354,experiment,16,←,up,↑,0.5326668999623507,False,18
55K22,355,experiment,49,↑,up,↑,0.599686799920164,True,18
55K22,356,experiment,50,→,right,→,0.6233395000454038,True,18
55K22,357,experiment,59,→,right,→,0.520437499973923,True,18
55K22,358,experiment,15,↑,up,↑,0.5381247000768781,True,18
55K22,359,experiment,36,→,right,→,0.5019244999857619,True,18
55K22,360,experiment,33,←,right,→,0.9886857999954373,False,18
55K22,361,experiment,25,↑,up,↑,0.5176731999963522,True,18
55K22,362,experiment,14,→,right,→,0.6082969000563025,True,18
55K22,363,experiment,28,↓,down,↓,0.526282100006938,True,18
55K22,364,experiment,34,←,left,←,1.027895100065507,True,18
55K22,365,experiment,35,↓,down,↓,0.469318600022234,True,18
55K22,366,experiment,60,←,right,→,0.5224171000299975,False,18
55K22,367,experiment,53,←,left,←,0.4171904999529943,True,18
55K22,368,experiment,43,←,left,←,0.49427749996539205,True,18
55K22,369,experiment,40,↑,up,↑,0.6896160000469536,True,18
55K22,370,experiment,29,→,right,→,0.5315877000102773,True,18
55K22,371,experiment,22,↓,left,←,0.4162835000315681,False,18
55K22,372,experiment,47,←,left,←,0.5124675000552088,True,18
55K22,373,experiment,26,↑,up,↑,0.5799192999256775,True,18
55K22,374,experiment,21,→,right,→,0.7590901999501511,True,18
55K22,375,experiment,17,↑,up,↑,0.5745625999988988,True,18
55K22,376,experiment,56,↓,down,↓,0.6995557999471202,True,18
55K22,377,experiment,52,→,right,→,0.5821708000730723,True,18
55K22,378,experiment,27,→,right,→,0.717413300066255,True,18
55K22,379,experiment,32,↑,up,↑,0.7726070999633521,True,18
55K22,380,experiment,38,→,right,→,0.5252031999407336,True,18
55K22,381,experiment,20,↓,right,→,0.7882535000098869,False,18
55K22,382,experiment,41,↑,up,↑,0.5144051000243053,True,18
55K22,383,experiment,42,↑,up,↑,0.6825807000277564,True,18
55K22,384,experiment,31,↑,up,↑,0.539449300034903,True,18
55K22,385,experiment,30,←,left,←,0.5869882999686524,True,18
55K22,386,experiment,55,↑,up,↑,1.0318705999525264,True,18
55K22,387,experiment,57,→,right,→,0.5138083000201732,True,18
55K22,388,experiment,23,↓,up,↑,0.6148469999898225,False,18
55K22,389,experiment,54,↑,up,↑,0.7869969999883324,True,18
55K22,390,experiment,44,↓,down,↓,0.6872719000093639,True,18
55K22,391,training,46,←,left,←,0.6930111000547186,True,18
55K22,392,training,33,↑,up,↑,1.124204800114967,True,18
55K22,393,experiment,55,←,left,←,0.5403616999974474,True,18
55K22,394,experiment,47,↓,down,↓,0.5204223999753594,True,18
55K22,395,experiment,17,→,up,↑,0.5530492999823764,False,18
55K22,396,experiment,58,↑,up,↑,0.6457095000660047,True,18
55K22,397,experiment,35,↑,up,↑,0.47785540006589144,True,18
55K22,398,experiment,52,↓,down,↓,0.7046959000872448,True,18
55K22,399,experiment,21,→,right,→,0.5035033000167459,True,18
55K22,400,experiment,53,↓,down,↓,0.48929379996843636,True,18
55K22,401,experiment,18,→,right,→,0.5866735000163317,True,18
55K22,402,experiment,51,↑,up,↑,0.5300721999956295,True,18
55K22,403,experiment,28,→,right,→,0.7308214000659063,True,18
55K22,404,experiment,60,←,right,→,0.5025079000042751,False,18
55K22,405,experiment,34,→,left,←,1.2607790000038221,False,18
55K22,406,experiment,57,←,left,←,0.8864432000555098,True,18
55K22,407,experiment,40,→,right,→,0.6573573999339715,True,18
55K22,408,experiment,27,←,left,←,0.7820212000515312,True,18
55K22,409,experiment,46,↓,down,↓,0.7215534000424668,True,18
55K22,410,experiment,45,↓,up,↑,0.5114496999885887,False,18
55K22,411,experiment,37,←,right,→,0.5235163000179455,False,18
55K22,412,experiment,22,↓,down,↓,0.6331897999625653,True,18
55K22,413,experiment,33,→,right,→,0.7545817999634892,True,18
55K22,414,experiment,32,←,left,←,0.49601939995773137,True,18
55K22,415,experiment,54,↓,down,↓,0.6412444999441504,True,18
55K22,416,experiment,48,←,right,→,0.6009483999805525,False,18
55K22,417,experiment,26,↑,up,↑,0.7284544999711215,True,18
55K22,418,experiment,20,↓,down,↓,0.7749077000189573,True,18
55K22,419,experiment,44,↑,up,↑,0.524090199964121,True,18
55K22,420,experiment,24,←,left,←,0.568217399995774,True,18
55K22,421,experiment,39,→,right,→,0.6402291000122204,True,18
55K22,422,experiment,23,→,left,←,0.632658899994567,False,18
55K22,423,experiment,14,←,left,←,0.5425874000648037,True,18
55K22,424,experiment,38,↓,down,↓,0.5848926000762731,True,18
55K22,425,experiment,42,→,left,←,0.35052899993024766,False,18
55K22,426,experiment,25,←,left,←,0.5751093999715522,True,18
55K22,427,experiment,31,↓,down,↓,0.7403815999859944,True,18
55K22,428,experiment,56,↑,up,↑,0.6749520000303164,True,18
55K22,429,experiment,50,←,left,←,0.6400632999138907,True,18
55K22,430,experiment,43,↑,up,↑,0.6270184000022709,True,18
55K22,431,experiment,15,←,left,←,0.7050181999802589,True,18
55K22,432,experiment,36,↓,left,←,0.7897247000364587,False,18
55K22,433,experiment,29,←,left,←,0.556042299955152,True,18
55K22,434,experiment,13,↑,up,↑,0.5580953999888152,True,18
55K22,435,experiment,19,↓,up,↑,1.3721386999823153,False,18
55K22,436,experiment,16,→,left,←,0.6437763000139967,False,18
55K22,437,experiment,59,↑,up,↑,0.5321910999482498,True,18
55K22,438,experiment,49,→,left,←,0.5031245000427589,False,18
55K22,439,experiment,30,←,left,←,1.1123243999900296,True,18
55K22,440,experiment,41,→,left,←,0.48988550005014986,False,18
55K22,441,training,49,↓,down,↓,0.6675391000462696,True,18
55K22,442,training,21,↑,down,↓,0.6118884000461549,False,18
55K22,443,experiment,53,↑,down,↓,0.5936466000275686,False,18
55K22,444,experiment,21,↓,down,↓,0.5407656000461429,True,18
55K22,445,experiment,39,↑,up,↑,0.654142800020054,True,18
55K22,446,experiment,48,→,right,→,0.7172602999489754,True,18
55K22,447,experiment,13,↓,up,↑,0.712648699991405,False,18
55K22,448,experiment,33,→,right,→,1.1991670000134036,True,18
55K22,449,experiment,45,↑,up,↑,0.4901484000729397,True,18
55K22,450,experiment,52,←,left,←,0.5250764000229537,True,18
55K22,451,experiment,23,→,right,→,0.5780271000694484,True,18
55K22,452,experiment,27,↓,down,↓,0.474658599938266,True,18
55K22,453,experiment,35,←,left,←,0.5522594000212848,True,18
55K22,454,experiment,25,↓,down,↓,0.6503344000084326,True,18
55K22,455,experiment,29,→,right,→,0.5337093999842182,True,18
55K22,456,experiment,22,↑,up,↑,0.7703972000163049,True,18
55K22,457,experiment,26,←,left,←,0.5153643999947235,True,18
55K22,458,experiment,54,↑,up,↑,0.5396471000276506,True,18
55K22,459,experiment,18,←,left,←,0.6108269999967888,True,18
55K22,460,experiment,56,↑,up,↑,1.1347040999680758,True,18
55K22,461,experiment,41,→,right,→,0.6154592999955639,True,18
55K22,462,experiment,17,→,right,→,0.5240540000377223,True,18
55K22,463,experiment,47,↑,up,↑,0.496844100067392,True,18
55K22,464,experiment,51,→,right,→,0.492013500072062,True,18
55K22,465,experiment,49,→,right,→,0.5448866999940947,True,18
55K22,466,experiment,19,↑,up,↑,0.4874730999581516,True,18
55K22,467,experiment,38,→,right,→,0.5236462000757456,True,18
55K22,468,experiment,28,←,left,←,0.47729680000338703,True,18
55K22,469,experiment,55,↑,up,↑,0.6699353000149131,True,18
55K22,470,experiment,58,←,down,↓,0.630102900089696,False,18
55K22,471,experiment,36,↑,up,↑,0.4701719000004232,True,18
55K22,472,experiment,40,→,left,←,0.38380660000257194,False,18
55K22,473,experiment,24,↑,up,↑,0.5211225999519229,True,18
55K22,474,experiment,15,↑,up,↑,0.4750804000068456,True,18
55K22,475,experiment,50,↓,down,↓,0.6152999000623822,True,18
55K22,476,experiment,46,→,right,→,0.4337910999311134,True,18
55K22,477,experiment,59,↓,down,↓,1.1766417000908405,True,18
55K22,478,experiment,14,↑,right,→,0.7614751000655815,False,18
55K22,479,experiment,57,←,down,↓,0.8707551000406966,False,18
55K22,480,experiment,37,↓,down,↓,0.6843998999102041,True,18
55K22,481,experiment,30,↑,up,↑,0.6056968999328092,True,18
55K22,482,experiment,44,↓,down,↓,0.5933675999986008,True,18
55K22,483,experiment,43,←,left,←,0.510264000040479,True,18
55K22,484,experiment,32,←,left,←,1.1418177000014111,True,18
55K22,485,experiment,31,←,left,←,1.284966200008057,True,18
55K22,486,experiment,20,↓,down,↓,0.5973381999647245,True,18
55K22,487,experiment,16,↑,up,↑,0.6194828000152484,True,18
55K22,488,experiment,60,↓,down,↓,0.9557188999606296,True,18
55K22,489,experiment,42,↓,down,↓,0.5227518000174314,True,18
55K22,490,experiment,34,←,left,←,1.0083563000662252,True,18
55K22,491,training,36,→,right,→,0.612409400055185,True,18
55K22,492,training,13,→,right,→,0.5167192000662908,True,18
55K22,493,experiment,15,←,left,←,0.5667319999774918,True,18
55K22,494,experiment,35,↑,right,→,0.41719389997888356,False,18
55K22,495,experiment,44,←,up,↑,0.3337067000102252,False,18
55K22,496,experiment,21,←,left,←,0.5841819999041036,True,18
55K22,497,experiment,39,↓,down,↓,0.7519760999130085,True,18
55K22,498,experiment,58,→,right,→,0.500193800078705,True,18
55K22,499,experiment,52,↑,down,↓,0.7345544999698177,False,18
55K22,500,experiment,16,↑,down,↓,1.0077476999722421,False,18
55K22,501,experiment,23,↓,down,↓,0.769137299968861,True,18
55K22,502,experiment,41,↑,up,↑,0.5758908999850973,True,18
55K22,503,experiment,31,↓,down,↓,0.6133741000667214,True,18
55K22,504,experiment,30,↓,down,↓,0.5384288000641391,True,18
55K22,505,experiment,53,↑,up,↑,0.5868054999737069,True,18
55K22,506,experiment,26,↑,down,↓,0.47470910008996725,False,18
55K22,507,experiment,43,→,down,↓,0.7157432000385597,False,18
55K22,508,experiment,56,→,right,→,0.7466038999846205,True,18
55K22,509,experiment,49,↓,down,↓,0.7410429000156,True,18
55K22,510,experiment,45,←,left,←,0.6108321000356227,True,18
55K22,511,experiment,28,←,left,←,0.7450750999851152,True,18
55K22,512,experiment,36,←,left,←,0.5565388000104576,True,18
55K22,513,experiment,22,←,left,←,0.41755449993070215,True,18
55K22,514,experiment,60,←,right,→,0.6163950000191107,False,18
55K22,515,experiment,17,↓,down,↓,0.7170504999812692,True,18
55K22,516,experiment,54,←,left,←,0.4853346000891179,True,18
55K22,517,experiment,40,→,right,→,0.5042722999351099,True,18
55K22,518,experiment,51,↑,up,↑,0.835351699963212,True,18
55K22,519,experiment,48,↓,down,↓,0.7468091000337154,True,18
55K22,520,experiment,20,↑,up,↑,0.5525233999360353,True,18
55K22,521,experiment,42,←,left,←,0.48752120009157807,True,18
55K22,522,experiment,27,→,right,→,0.467380499932915,True,18
55K22,523,experiment,13,→,right,→,0.4953311999561265,True,18
55K22,524,experiment,57,→,left,←,0.478904299903661,False,18
55K22,525,experiment,25,→,right,→,0.4757543000159785,True,18
55K22,526,experiment,24,↓,right,→,0.8892818000167608,False,18
55K22,527,experiment,37,↑,up,↑,0.5582987000234425,True,18
55K22,528,experiment,32,←,left,←,0.5075719999149442,True,18
55K22,529,experiment,14,→,right,→,0.5828486999962479,True,18
55K22,530,experiment,55,↓,down,↓,0.7321352000581101,True,18
55K22,531,experiment,34,→,right,→,0.6729421999771148,True,18
55K22,532,experiment,46,→,right,→,0.5607091999845579,True,18
55K22,533,experiment,47,←,left,←,0.5400881000095978,True,18
55K22,534,experiment,29,→,right,→,0.6605605999939144,True,18
55K22,535,experiment,33,→,right,→,0.5893847000552341,True,18
55K22,536,experiment,59,↑,up,↑,0.7437244999455288,True,18
55K22,537,experiment,18,↑,down,↓,1.2389627000084147,False,18
55K22,538,experiment,19,←,left,←,0.5940876000095159,True,18
55K22,539,experiment,50,↓,down,↓,0.6582779999589548,True,18
55K22,540,experiment,38,↑,up,↑,0.6400826000608504,True,18
55K22,541,training,29,↑,down,↓,0.5694081999827176,False,18
55K22,542,training,60,↑,up,↑,0.667655700002797,True,18
55K22,543,experiment,14,↑,up,↑,0.7041652000043541,True,18
55K22,544,experiment,48,↑,up,↑,0.637248299899511,True,18
55K22,545,experiment,44,←,left,←,0.6234144999179989,True,18
55K22,546,experiment,27,↑,up,↑,0.6216090999078006,True,18
55K22,547,experiment,19,↓,down,↓,0.5931587000377476,True,18
55K22,548,experiment,13,↓,down,↓,0.4896657000062987,True,18
55K22,549,experiment,30,←,right,→,0.8519851999590173,False,18
55K22,550,experiment,60,→,right,→,0.7222994000185281,True,18
55K22,551,experiment,35,↓,down,↓,1.207255300018005,True,18
55K22,552,experiment,54,←,right,→,0.5005977000109851,False,18
55K22,553,experiment,32,→,right,→,0.58036720007658,True,18
55K22,554,experiment,57,↓,down,↓,0.5357680999441072,True,18
55K22,555,experiment,39,↑,down,↓,0.7522256000665948,False,18
55K22,556,experiment,28,→,right,→,0.6482117000268772,True,18
55K22,557,experiment,21,→,right,→,0.5689790000906214,True,18
55K22,558,experiment,52,←,left,←,0.5045391999883577,True,18
55K22,559,experiment,34,→,right,→,0.5350816999562085,True,18
55K22,560,experiment,51,↓,down,↓,0.6725295999785885,True,18
55K22,561,experiment,26,↓,down,↓,0.5654361000051722,True,18
55K22,562,experiment,40,←,left,←,0.6928433999419212,True,18
55K22,563,experiment,22,→,right,→,0.5638701999559999,True,18
55K22,564,experiment,24,↓,down,↓,0.4777042999630794,True,18
55K22,565,experiment,45,↑,up,↑,0.6854182999813929,True,18
55K22,566,experiment,46,↓,down,↓,0.6284510999685153,True,18
55K22,567,experiment,37,→,down,↓,0.8279242999851704,False,18
55K22,568,experiment,33,↑,right,→,0.6063348000170663,False,18
55K22,569,experiment,58,↓,down,↓,1.168501399923116,True,18
55K22,570,experiment,16,←,left,←,0.6561250999802724,True,18
55K22,571,experiment,15,←,right,→,0.6689000999322161,False,18
55K22,572,experiment,49,↓,down,↓,0.6186163000529632,True,18
55K22,573,experiment,55,↓,down,↓,0.606424400000833,True,18
55K22,574,experiment,42,→,right,→,0.5074617000063881,True,18
55K22,575,experiment,17,↑,down,↓,0.6764873000793159,False,18
55K22,576,experiment,18,↓,down,↓,0.5265828999690711,True,18
55K22,577,experiment,25,↑,down,↓,0.658281399984844,False,18
55K22,578,experiment,41,←,left,←,0.6059413000475615,True,18
55K22,579,experiment,47,↓,down,↓,1.1192097999155521,True,18
55K22,580,experiment,59,→,right,→,0.572597400052473,True,18
55K22,581,experiment,31,←,left,←,0.6743030999787152,True,18
55K22,582,experiment,43,→,right,→,0.6759703999850899,True,18
55K22,583,experiment,38,→,up,↑,1.256656700046733,False,18
55K22,584,experiment,20,↓,down,↓,0.5543928000843152,True,18
55K22,585,experiment,53,↑,down,↓,0.6339498000452295,False,18
55K22,586,experiment,36,↑,up,↑,0.593410599976778,True,18
55K22,587,experiment,23,→,right,→,0.6362480000825599,True,18
55K22,588,experiment,29,←,left,←,0.520011700107716,True,18
55K22,589,experiment,56,↑,up,↑,0.5828378000296652,True,18
55K22,590,experiment,50,→,right,→,0.5993068999378011,True,18
