PART_ID,Trial_no,Trial_type,CSI,Stim_letter,Key_pressed,letter_choose,Rt,Corr,Stimulus Time
58M30,1,training,60,→,right,→,0.7060066999401897,True,30
58M30,2,training,60,→,left,←,0.43351999996230006,False,30
58M30,3,training,60,↑,up,↑,0.7071886999765411,True,30
58M30,4,training,60,↑,up,↑,0.6011901999590918,True,30
58M30,5,training,60,←,left,←,0.6167457000119612,True,30
58M30,6,training,60,↑,up,↑,0.7672482000198215,True,30
58M30,7,training,60,←,left,←,0.6171813999535516,True,30
58M30,8,training,60,↓,down,↓,0.7452458000043407,True,30
58M30,9,training,60,→,left,←,0.5004109999863431,False,30
58M30,10,training,60,→,left,←,0.6013144000899047,False,30
58M30,11,training,60,↓,down,↓,0.7919036999810487,True,30
58M30,12,training,60,↓,down,↓,0.6337548999581486,True,30
58M30,13,training,60,←,left,←,0.5336291000712663,True,30
58M30,14,training,60,←,left,←,0.434867599979043,True,30
58M30,15,training,60,→,right,→,0.6335684999357909,True,30
58M30,16,training,60,→,left,←,0.5838686999632046,False,30
58M30,17,training,60,←,left,←,0.6002543000504375,True,30
58M30,18,training,60,↑,up,↑,0.6876210999907926,True,30
58M30,19,training,60,→,no_key,no_letter,-1.0,False,30
58M30,20,training,60,←,left,←,0.5513578000245616,True,30
58M30,21,training,60,↑,up,↑,0.5330831999890506,True,18
58M30,22,training,60,↑,up,↑,0.5286437999457121,True,18
58M30,23,training,60,→,up,↑,0.5158733000280336,False,18
58M30,24,training,60,→,right,→,0.6000832000281662,True,18
58M30,25,training,60,↑,up,↑,0.5772596999304369,True,18
58M30,26,training,60,↓,down,↓,0.5227343000005931,True,18
58M30,27,training,60,→,right,→,0.6872279000235721,True,18
58M30,28,training,60,↓,down,↓,0.492460900102742,True,18
58M30,29,training,60,←,left,←,0.6253046999918297,True,18
58M30,30,training,60,→,right,→,0.4890173999592662,True,18
58M30,31,training,60,↓,down,↓,0.6542938000056893,True,18
58M30,32,training,60,↓,down,↓,0.4852084999438375,True,18
58M30,33,training,60,→,right,→,0.4676146999699995,True,18
58M30,34,training,60,→,right,→,0.4724110000533983,True,18
58M30,35,training,60,→,right,→,0.6539729000069201,True,18
58M30,36,training,60,←,left,←,0.6207271000603214,True,18
58M30,37,training,60,→,right,→,0.6370987000409514,True,18
58M30,38,training,60,←,left,←,0.5404823999851942,True,18
58M30,39,training,60,↑,up,↑,0.647950500017032,True,18
58M30,40,training,60,←,left,←,0.5269037000834942,True,18
58M30,41,training,22,→,right,→,0.5483561001019552,True,18
58M30,42,training,18,↑,down,↓,1.379177900031209,False,18
58M30,43,experiment,43,→,right,→,0.6645084000192583,True,18
58M30,44,experiment,54,↑,up,↑,0.7626344000454992,True,18
58M30,45,experiment,17,←,right,→,0.8018995999591425,False,18
58M30,46,experiment,45,←,right,→,0.5088917999528348,False,18
58M30,47,experiment,44,↑,down,↓,1.6202394000720233,False,18
58M30,48,experiment,59,→,right,→,0.7658583000302315,True,18
58M30,49,experiment,14,↑,up,↑,0.6786464999895543,True,18
58M30,50,experiment,20,←,no_key,no_letter,-1.0,False,18
58M30,51,experiment,47,↓,down,↓,0.5310014999704435,True,18
58M30,52,experiment,58,↓,down,↓,0.7438802999677137,True,18
58M30,53,experiment,13,←,up,↑,1.77869720000308,False,18
58M30,54,experiment,19,→,right,→,0.7760856000240892,True,18
58M30,55,experiment,60,↑,up,↑,0.7546907999785617,True,18
58M30,56,experiment,22,→,right,→,0.7186718999873847,True,18
58M30,57,experiment,15,↓,down,↓,1.4727270000148565,True,18
58M30,58,experiment,52,←,left,←,0.62080060003791,True,18
58M30,59,experiment,18,←,left,←,0.8728663000511006,True,18
58M30,60,experiment,28,↓,left,←,0.5565349999815226,False,18
58M30,61,experiment,27,←,left,←,0.5973002999089658,True,18
58M30,62,experiment,31,↓,down,↓,0.5134324999526143,True,18
58M30,63,experiment,40,↓,down,↓,0.515806500101462,True,18
58M30,64,experiment,42,↑,down,↓,0.5558738999534398,False,18
58M30,65,experiment,25,↑,up,↑,0.6379889000672847,True,18
58M30,66,experiment,32,↓,down,↓,0.5841808000113815,True,18
58M30,67,experiment,24,↓,down,↓,0.5456382000120357,True,18
58M30,68,experiment,50,↓,down,↓,0.5238519000122324,True,18
58M30,69,experiment,23,←,down,↓,0.5686209000414237,False,18
58M30,70,experiment,49,→,down,↓,0.47422739991452545,False,18
58M30,71,experiment,35,↓,down,↓,0.472579300054349,True,18
58M30,72,experiment,34,←,left,←,0.5832653000252321,True,18
58M30,73,experiment,21,↑,up,↑,1.6585917000193149,True,18
58M30,74,experiment,41,←,up,↑,1.5267877000151202,False,18
58M30,75,experiment,29,→,right,→,0.7279469999484718,True,18
58M30,76,experiment,26,↑,up,↑,0.5710977000417188,True,18
58M30,77,experiment,16,↑,no_key,no_letter,-1.0,False,18
58M30,78,experiment,39,↓,down,↓,0.7073295000009239,True,18
58M30,79,experiment,55,←,left,←,0.6034004000248387,True,18
58M30,80,experiment,37,←,up,↑,1.3716732999309897,False,18
58M30,81,experiment,30,→,right,→,0.5141657999483868,True,18
58M30,82,experiment,33,→,right,→,0.43330629996489733,True,18
58M30,83,experiment,51,↑,up,↑,0.41685090004466474,True,18
58M30,84,experiment,48,↑,no_key,no_letter,-1.0,False,18
58M30,85,experiment,57,↑,up,↑,0.8739709999645129,True,18
58M30,86,experiment,46,→,right,→,0.6499573999317363,True,18
58M30,87,experiment,53,←,left,←,1.2773887000512332,True,18
58M30,88,experiment,56,↓,down,↓,1.0548525999765843,True,18
58M30,89,experiment,38,→,right,→,0.6924591999268159,True,18
58M30,90,experiment,36,→,right,→,1.1626049999613315,True,18
58M30,91,training,18,↓,up,↑,1.3016779000172392,False,18
58M30,92,training,51,←,left,←,0.9208372000139207,True,18
58M30,93,experiment,14,↓,down,↓,0.7479124000528827,True,18
58M30,94,experiment,50,→,right,→,0.7575971999904141,True,18
58M30,95,experiment,36,←,right,→,0.6326131999958307,False,18
58M30,96,experiment,20,↑,up,↑,0.6503761999774724,True,18
58M30,97,experiment,34,↓,down,↓,0.46657319995574653,True,18
58M30,98,experiment,48,↑,down,↓,0.8564400000032037,False,18
58M30,99,experiment,30,↓,down,↓,0.4912607000442222,True,18
58M30,100,experiment,53,←,no_key,no_letter,-1.0,False,18
58M30,101,experiment,57,←,left,←,0.5307334000244737,True,18
58M30,102,experiment,37,↓,down,↓,0.6773472999921069,True,18
58M30,103,experiment,45,→,right,→,0.6856634999858215,True,18
58M30,104,experiment,29,←,left,←,0.5520267999963835,True,18
58M30,105,experiment,13,↑,up,↑,0.6178250000812113,True,18
58M30,106,experiment,49,↑,up,↑,0.513708799961023,True,18
58M30,107,experiment,27,↓,down,↓,0.7956004999577999,True,18
58M30,108,experiment,39,↓,down,↓,0.6355739000719041,True,18
58M30,109,experiment,56,←,left,←,1.3098549999995157,True,18
58M30,110,experiment,23,→,right,→,0.5714116999879479,True,18
58M30,111,experiment,55,→,left,←,0.5132627000566572,False,18
58M30,112,experiment,41,↓,down,↓,0.50598729995545,True,18
58M30,113,experiment,35,↑,up,↑,0.6474237000802532,True,18
58M30,114,experiment,58,←,left,←,0.519808099954389,True,18
58M30,115,experiment,32,↓,down,↓,0.8147504000226036,True,18
58M30,116,experiment,33,↓,down,↓,0.5853145000291988,True,18
58M30,117,experiment,24,←,left,←,0.5863949001068249,True,18
58M30,118,experiment,17,↓,down,↓,0.41700869996566325,True,18
58M30,119,experiment,38,←,right,→,1.3268315999303013,False,18
58M30,120,experiment,16,←,left,←,0.744400899973698,True,18
58M30,121,experiment,40,↓,down,↓,0.6492886000778526,True,18
58M30,122,experiment,43,↓,left,←,0.587649799999781,False,18
58M30,123,experiment,47,→,right,→,1.1815549000166357,True,18
58M30,124,experiment,51,←,left,←,0.5177456000819802,True,18
58M30,125,experiment,59,←,right,→,0.9068216999294236,False,18
58M30,126,experiment,26,→,right,→,0.47847930004354566,True,18
58M30,127,experiment,19,←,left,←,0.5594292999012396,True,18
58M30,128,experiment,42,↑,up,↑,0.4861337998881936,True,18
58M30,129,experiment,46,↓,down,↓,0.5169618000509217,True,18
58M30,130,experiment,28,↓,down,↓,0.6463755000149831,True,18
58M30,131,experiment,22,→,right,→,0.4171477999771014,True,18
58M30,132,experiment,21,←,right,→,0.7837575000012293,False,18
58M30,133,experiment,52,→,down,↓,0.542937699938193,False,18
58M30,134,experiment,25,↓,down,↓,0.6499651999911293,True,18
58M30,135,experiment,44,↑,up,↑,1.6434545998927206,True,18
58M30,136,experiment,15,↓,down,↓,0.4811498000053689,True,18
58M30,137,experiment,18,↑,up,↑,0.6505122999660671,True,18
58M30,138,experiment,54,→,right,→,0.6138509000884369,True,18
58M30,139,experiment,60,↑,up,↑,0.4859839000273496,True,18
58M30,140,experiment,31,↓,up,↑,0.943087000050582,False,18
58M30,141,training,15,↓,down,↓,0.6351413000375032,True,18
58M30,142,training,38,↓,down,↓,0.7453121000435203,True,18
58M30,143,experiment,36,↑,down,↓,0.6770684999646619,False,18
58M30,144,experiment,21,→,right,→,1.493084100075066,True,18
58M30,145,experiment,32,↓,down,↓,0.5257909999927506,True,18
58M30,146,experiment,55,→,right,→,0.7334364000707865,True,18
58M30,147,experiment,53,↑,up,↑,1.1258596000261605,True,18
58M30,148,experiment,25,↑,left,←,1.297781000030227,False,18
58M30,149,experiment,23,↓,down,↓,0.5032892000162974,True,18
58M30,150,experiment,13,→,right,→,0.6112123999046162,True,18
58M30,151,experiment,56,←,left,←,0.5908244999591261,True,18
58M30,152,experiment,20,↑,up,↑,0.5870522999903187,True,18
58M30,153,experiment,43,→,right,→,0.43394809996243566,True,18
58M30,154,experiment,26,←,left,←,0.49330990004818887,True,18
58M30,155,experiment,35,←,left,←,0.47548379993531853,True,18
58M30,156,experiment,47,↑,up,↑,0.7697074000025168,True,18
58M30,157,experiment,16,→,right,→,0.7211285000666976,True,18
58M30,158,experiment,44,→,right,→,0.5044654000084847,True,18
58M30,159,experiment,30,←,left,←,0.47637679998297244,True,18
58M30,160,experiment,38,↑,up,↑,0.6214084000093862,True,18
58M30,161,experiment,40,↓,up,↑,1.2749171999748796,False,18
58M30,162,experiment,45,↓,no_key,no_letter,-1.0,False,18
58M30,163,experiment,50,↑,up,↑,0.5889783999882638,True,18
58M30,164,experiment,18,↓,down,↓,0.7703043000074103,True,18
58M30,165,experiment,52,→,right,→,0.6101681999862194,True,18
58M30,166,experiment,41,↑,up,↑,1.8476457999786362,True,18
58M30,167,experiment,19,←,left,←,0.7784344999818131,True,18
58M30,168,experiment,33,→,right,→,0.5825790000380948,True,18
58M30,169,experiment,22,→,left,←,0.5933781999628991,False,18
58M30,170,experiment,37,↑,up,↑,0.5062738000415266,True,18
58M30,171,experiment,46,→,right,→,0.4725656999507919,True,18
58M30,172,experiment,24,↑,up,↑,0.9498579000355676,True,18
58M30,173,experiment,28,←,left,←,0.4863156999927014,True,18
58M30,174,experiment,14,↑,up,↑,0.6101358999731019,True,18
58M30,175,experiment,58,→,right,→,0.5965972000267357,True,18
58M30,176,experiment,31,←,left,←,0.4806417999789119,True,18
58M30,177,experiment,54,←,left,←,0.6985998000018299,True,18
58M30,178,experiment,17,←,left,←,0.7880450000520796,True,18
58M30,179,experiment,49,←,left,←,0.5651663000462577,True,18
58M30,180,experiment,39,→,right,→,0.43338439997751266,True,18
58M30,181,experiment,59,←,left,←,0.708765699993819,True,18
58M30,182,experiment,57,←,left,←,0.6038411000045016,True,18
58M30,183,experiment,42,←,left,←,0.47264970000833273,True,18
58M30,184,experiment,51,←,right,→,0.5084129999158904,False,18
58M30,185,experiment,15,→,right,→,0.6549831000156701,True,18
58M30,186,experiment,34,→,no_key,no_letter,-1.0,False,18
58M30,187,experiment,27,↓,right,→,1.0080392999807373,False,18
58M30,188,experiment,29,↓,right,→,0.7977091999491677,False,18
58M30,189,experiment,48,←,left,←,0.5430386000080034,True,18
58M30,190,experiment,60,↑,up,↑,1.0024911999935284,True,18
58M30,191,training,56,←,right,→,0.6838029999053106,False,18
58M30,192,training,55,←,left,←,0.5329675000393763,True,18
58M30,193,experiment,43,↓,down,↓,0.659783500013873,True,18
58M30,194,experiment,45,↑,down,↓,0.6288831999991089,False,18
58M30,195,experiment,27,↑,up,↑,0.6109747999580577,True,18
58M30,196,experiment,56,→,left,←,0.5986641000490636,False,18
58M30,197,experiment,21,←,left,←,0.6892170999199152,True,18
58M30,198,experiment,13,↓,down,↓,0.5660718999570236,True,18
58M30,199,experiment,51,↓,down,↓,0.3994865999557078,True,18
58M30,200,experiment,31,←,left,←,0.5538446999853477,True,18
58M30,201,experiment,19,←,left,←,0.47206009994260967,True,18
58M30,202,experiment,38,↓,down,↓,0.4685673000058159,True,18
58M30,203,experiment,58,←,left,←,0.6111542000435293,True,18
58M30,204,experiment,37,↓,down,↓,0.46768860006704926,True,18
58M30,205,experiment,47,↑,up,↑,0.48137130006216466,True,18
58M30,206,experiment,29,↑,up,↑,0.627585000009276,True,18
58M30,207,experiment,32,→,up,↑,0.734427300048992,False,18
58M30,208,experiment,57,→,right,→,0.7001630000304431,True,18
58M30,209,experiment,33,→,right,→,0.8351285000098869,True,18
58M30,210,experiment,26,↓,down,↓,0.7212820999557152,True,18
58M30,211,experiment,15,↓,down,↓,0.48345810000319034,True,18
58M30,212,experiment,49,↑,up,↑,0.4722952999873087,True,18
58M30,213,experiment,48,↓,left,←,0.6382425000192598,False,18
58M30,214,experiment,30,←,left,←,0.5455306000076234,True,18
58M30,215,experiment,50,↑,up,↑,0.3999177999794483,True,18
58M30,216,experiment,17,←,left,←,0.8803753000684083,True,18
58M30,217,experiment,54,↑,up,↑,0.586166900000535,True,18
58M30,218,experiment,25,↓,down,↓,0.5392349000321701,True,18
58M30,219,experiment,35,↓,up,↑,1.5590691999532282,False,18
58M30,220,experiment,55,↑,up,↑,1.5741891000652686,True,18
58M30,221,experiment,24,↑,up,↑,0.7926328999456018,True,18
58M30,222,experiment,18,←,left,←,0.6461050999350846,True,18
58M30,223,experiment,16,↓,up,↑,0.5303945000050589,False,18
58M30,224,experiment,42,↓,down,↓,0.6183112999424338,True,18
58M30,225,experiment,52,→,down,↓,0.6000773999840021,False,18
58M30,226,experiment,28,←,left,←,1.43843039998319,True,18
58M30,227,experiment,40,↓,down,↓,0.795477700070478,True,18
58M30,228,experiment,23,↓,down,↓,0.5256232999963686,True,18
58M30,229,experiment,53,↓,down,↓,0.6066375999944285,True,18
58M30,230,experiment,34,→,down,↓,0.7930722999153659,False,18
58M30,231,experiment,46,↑,up,↑,0.6279834000160918,True,18
58M30,232,experiment,36,↑,down,↓,0.7563358000479639,False,18
58M30,233,experiment,20,↓,down,↓,0.6659015999175608,True,18
58M30,234,experiment,60,→,down,↓,0.5040356999961659,False,18
58M30,235,experiment,39,→,left,←,0.5871052000438794,False,18
58M30,236,experiment,59,→,right,→,0.4932162999175489,True,18
58M30,237,experiment,22,→,right,→,0.7639906000113115,True,18
58M30,238,experiment,41,↑,up,↑,0.49898799997754395,True,18
58M30,239,experiment,14,↑,up,↑,0.5022698000539094,True,18
58M30,240,experiment,44,←,left,←,0.6457998999394476,True,18
58M30,241,training,44,↑,down,↓,1.172357799950987,False,18
58M30,242,training,47,↓,right,→,0.5195288999238983,False,18
58M30,243,experiment,28,→,right,→,0.537259400007315,True,18
58M30,244,experiment,26,←,left,←,1.2910496999975294,True,18
58M30,245,experiment,37,←,left,←,1.776310499990359,True,18
58M30,246,experiment,36,←,left,←,0.5790463999146596,True,18
58M30,247,experiment,46,→,left,←,0.6299480000743642,False,18
58M30,248,experiment,16,→,left,←,0.5797481000190601,False,18
58M30,249,experiment,29,→,right,→,0.5301686000311747,True,18
58M30,250,experiment,55,↓,down,↓,1.1692104999674484,True,18
58M30,251,experiment,50,↑,down,↓,1.386459800065495,False,18
58M30,252,experiment,41,→,right,→,0.8891201999504119,True,18
58M30,253,experiment,22,↓,down,↓,0.8720864000497386,True,18
58M30,254,experiment,17,→,right,→,0.930842199944891,True,18
58M30,255,experiment,43,↓,down,↓,0.5779444000218064,True,18
58M30,256,experiment,51,↓,down,↓,0.5942078999942169,True,18
58M30,257,experiment,21,↓,down,↓,0.6856323999818414,True,18
58M30,258,experiment,45,→,right,→,0.7654254999943078,True,18
58M30,259,experiment,33,↓,down,↓,0.7298935999860987,True,18
58M30,260,experiment,19,←,left,←,0.9524073000065982,True,18
58M30,261,experiment,35,↑,up,↑,0.7722194999223575,True,18
58M30,262,experiment,27,←,left,←,0.6122628999873996,True,18
58M30,263,experiment,24,↑,up,↑,0.644411800079979,True,18
58M30,264,experiment,59,→,right,→,0.6371332999551669,True,18
58M30,265,experiment,60,→,right,→,0.6126577999675646,True,18
58M30,266,experiment,30,↑,up,↑,0.584813000052236,True,18
58M30,267,experiment,42,→,right,→,0.5262840000214055,True,18
58M30,268,experiment,53,↓,down,↓,0.5033471999922767,True,18
58M30,269,experiment,13,↑,up,↑,0.5072707999497652,True,18
58M30,270,experiment,20,↑,up,↑,1.275146899977699,True,18
58M30,271,experiment,34,↓,up,↑,0.8665467998944223,False,18
58M30,272,experiment,57,↓,down,↓,0.658981200074777,True,18
58M30,273,experiment,54,↓,down,↓,0.7501006000675261,True,18
58M30,274,experiment,47,←,left,←,0.7387594999745488,True,18
58M30,275,experiment,49,←,left,←,0.5567476000869647,True,18
58M30,276,experiment,32,↑,up,↑,1.0182401000056416,True,18
58M30,277,experiment,15,↓,down,↓,0.761128899990581,True,18
58M30,278,experiment,58,↑,up,↑,0.6689714000094682,True,18
58M30,279,experiment,25,→,right,→,0.746456400025636,True,18
58M30,280,experiment,18,→,left,←,0.7780121000250801,False,18
58M30,281,experiment,23,↑,up,↑,0.94086609990336,True,18
58M30,282,experiment,44,↑,up,↑,0.7715160000370815,True,18
58M30,283,experiment,38,←,left,←,0.5085298999911174,True,18
58M30,284,experiment,31,←,left,←,0.7403125000419095,True,18
58M30,285,experiment,48,↑,left,←,0.7520616000983864,False,18
58M30,286,experiment,56,→,left,←,0.5418528999434784,False,18
58M30,287,experiment,39,→,right,→,0.5753634000429884,True,18
58M30,288,experiment,14,↓,down,↓,1.7760112000396475,True,18
58M30,289,experiment,40,→,right,→,0.6321355999680236,True,18
58M30,290,experiment,52,↓,down,↓,0.7251496000681072,True,18
58M30,291,training,24,←,right,→,0.5333926000166684,False,18
58M30,292,training,22,←,left,←,0.7219850999535993,True,18
58M30,293,experiment,16,→,right,→,0.6358335999539122,True,18
58M30,294,experiment,26,↓,down,↓,0.5295675999950618,True,18
58M30,295,experiment,45,↓,down,↓,1.2957655999343842,True,18
58M30,296,experiment,32,→,right,→,0.5841965998988599,True,18
58M30,297,experiment,60,→,right,→,0.4333135000197217,True,18
58M30,298,experiment,52,←,right,→,1.5336720999330282,False,18
58M30,299,experiment,41,↑,up,↑,0.9104222001042217,True,18
58M30,300,experiment,48,←,left,←,0.6833955999463797,True,18
58M30,301,experiment,14,↓,down,↓,0.6634798999875784,True,18
58M30,302,experiment,49,↑,up,↑,0.4933352000080049,True,18
58M30,303,experiment,34,↑,down,↓,0.7479814999969676,False,18
58M30,304,experiment,28,↑,up,↑,0.8043301999568939,True,18
58M30,305,experiment,46,↓,down,↓,0.6148505000164732,True,18
58M30,306,experiment,25,↑,up,↑,1.3820461999857798,True,18
58M30,307,experiment,40,←,left,←,0.6055406000232324,True,18
58M30,308,experiment,29,←,left,←,0.5390580999664962,True,18
58M30,309,experiment,22,←,left,←,0.8397307000122964,True,18
58M30,310,experiment,13,←,left,←,0.8145300000905991,True,18
58M30,311,experiment,30,→,right,→,0.6186071999836713,True,18
58M30,312,experiment,58,↑,up,↑,0.6683937000343576,True,18
58M30,313,experiment,47,→,right,→,0.7153280000202358,True,18
58M30,314,experiment,33,←,left,←,0.6817324999719858,True,18
58M30,315,experiment,57,←,right,→,0.7612857000203803,False,18
58M30,316,experiment,44,↓,down,↓,0.8710213999729604,True,18
58M30,317,experiment,27,↑,up,↑,0.8272753999335691,True,18
58M30,318,experiment,54,←,left,←,0.7597444000421092,True,18
58M30,319,experiment,19,↓,down,↓,0.5659571000142023,True,18
58M30,320,experiment,55,→,right,→,0.7316631000721827,True,18
58M30,321,experiment,17,↓,down,↓,0.7716089999303222,True,18
58M30,322,experiment,24,←,left,←,0.7423204999649897,True,18
58M30,323,experiment,31,↓,right,→,0.46919790003448725,False,18
58M30,324,experiment,42,↓,down,↓,0.5583028999390081,True,18
58M30,325,experiment,21,↓,down,↓,0.8032708999235183,True,18
58M30,326,experiment,15,←,left,←,0.553732999949716,True,18
58M30,327,experiment,18,↓,down,↓,1.4404361000051722,True,18
58M30,328,experiment,38,↓,down,↓,0.5911907000700012,True,18
58M30,329,experiment,35,↓,down,↓,0.7056245000567287,True,18
58M30,330,experiment,36,←,left,←,0.614306699950248,True,18
58M30,331,experiment,56,↑,up,↑,0.6893744000699371,True,18
58M30,332,experiment,20,←,left,←,0.6894199000671506,True,18
58M30,333,experiment,59,↓,up,↑,1.4799579000100493,False,18
58M30,334,experiment,53,←,left,←,0.8826095999684185,True,18
58M30,335,experiment,37,←,left,←,0.656970200012438,True,18
58M30,336,experiment,51,↓,down,↓,0.6448099999688566,True,18
58M30,337,experiment,39,↑,up,↑,0.5468059000559151,True,18
58M30,338,experiment,23,←,left,←,0.6696495999349281,True,18
58M30,339,experiment,50,←,left,←,0.7307701000245288,True,18
58M30,340,experiment,43,↑,up,↑,0.5537225001025945,True,18
58M30,341,training,50,←,right,→,0.5368790000211447,False,18
58M30,342,training,60,→,right,→,0.5644058000762016,True,18
58M30,343,experiment,35,↑,up,↑,0.5672421000199392,True,18
58M30,344,experiment,55,←,left,←,0.5808212999254465,True,18
58M30,345,experiment,49,→,right,→,0.6461290000006557,True,18
58M30,346,experiment,52,→,left,←,0.5149814001051709,False,18
58M30,347,experiment,30,↑,up,↑,0.6269669999601319,True,18
58M30,348,experiment,33,→,right,→,0.7012615000130609,True,18
58M30,349,experiment,16,↑,up,↑,1.0075553000206128,True,18
58M30,350,experiment,31,↓,up,↑,0.49989720003213733,False,18
58M30,351,experiment,36,→,right,→,0.5925014000386,True,18
58M30,352,experiment,25,←,left,←,0.6817301000701264,True,18
58M30,353,experiment,51,→,right,→,0.653124799951911,True,18
58M30,354,experiment,50,↑,up,↑,0.890666100080125,True,18
58M30,355,experiment,60,←,left,←,0.6804444000590593,True,18
58M30,356,experiment,56,←,left,←,0.7049145000055432,True,18
58M30,357,experiment,40,↑,up,↑,1.0591678000055254,True,18
58M30,358,experiment,46,↑,down,↓,1.8277561001013964,False,18
58M30,359,experiment,20,↓,down,↓,0.7430933000287041,True,18
58M30,360,experiment,57,→,right,→,0.6608743999386206,True,18
58M30,361,experiment,22,←,down,↓,1.452926199999638,False,18
58M30,362,experiment,44,↑,up,↑,0.5837948999833316,True,18
58M30,363,experiment,54,↓,down,↓,0.49259519996121526,True,18
58M30,364,experiment,38,→,right,→,0.6568886000895873,True,18
58M30,365,experiment,18,↓,down,↓,0.5875700000906363,True,18
58M30,366,experiment,29,→,right,→,0.5296932000201195,True,18
58M30,367,experiment,34,↑,up,↑,0.6065179000142962,True,18
58M30,368,experiment,47,←,left,←,0.6803022000240162,True,18
58M30,369,experiment,23,↑,up,↑,0.47079649998340756,True,18
58M30,370,experiment,37,→,right,→,0.555147200007923,True,18
58M30,371,experiment,39,←,left,←,0.6520132999867201,True,18
58M30,372,experiment,43,↓,up,↑,1.2303063999861479,False,18
58M30,373,experiment,41,→,right,→,0.62694579991512,True,18
58M30,374,experiment,17,←,left,←,0.6797405999386683,True,18
58M30,375,experiment,27,↑,up,↑,0.8350921999663115,True,18
58M30,376,experiment,58,↓,down,↓,0.740273299976252,True,18
58M30,377,experiment,48,↑,up,↑,0.43373869999777526,True,18
58M30,378,experiment,15,←,left,←,0.61265780008398,True,18
58M30,379,experiment,24,↑,right,→,1.5247039999812841,False,18
58M30,380,experiment,14,↓,up,↑,1.3841063999570906,False,18
58M30,381,experiment,19,←,left,←,0.6769913999596611,True,18
58M30,382,experiment,32,→,right,→,0.7101027999306098,True,18
58M30,383,experiment,42,↑,up,↑,0.48678370006382465,True,18
58M30,384,experiment,13,→,right,→,0.5396637000376359,True,18
58M30,385,experiment,59,↓,down,↓,0.7119031000183895,True,18
58M30,386,experiment,28,→,right,→,0.6980938999913633,True,18
58M30,387,experiment,45,→,right,→,0.4893655999330804,True,18
58M30,388,experiment,53,←,left,←,0.7792916001053527,True,18
58M30,389,experiment,21,↑,no_key,no_letter,-1.0,False,18
58M30,390,experiment,26,↓,down,↓,1.2486275000264868,True,18
58M30,391,training,33,←,right,→,0.5719040000112727,False,18
58M30,392,training,30,→,right,→,0.5859868000261486,True,18
58M30,393,experiment,15,←,left,←,0.5213609000202268,True,18
58M30,394,experiment,50,→,right,→,0.4336500000208616,True,18
58M30,395,experiment,26,→,right,→,0.537930199992843,True,18
58M30,396,experiment,19,←,left,←,0.4722788999788463,True,18
58M30,397,experiment,32,←,right,→,0.48055470001418144,False,18
58M30,398,experiment,35,→,right,→,0.5666402999777347,True,18
58M30,399,experiment,47,↑,up,↑,1.5215249001048505,True,18
58M30,400,experiment,57,←,left,←,0.5763396000256762,True,18
58M30,401,experiment,58,↓,down,↓,0.7239576999563724,True,18
58M30,402,experiment,30,↑,up,↑,0.6365075999638066,True,18
58M30,403,experiment,31,→,right,→,0.5193791000638157,True,18
58M30,404,experiment,51,↑,up,↑,0.6173963999608532,True,18
58M30,405,experiment,46,↓,down,↓,1.0830988999223337,True,18
58M30,406,experiment,52,↑,up,↑,0.6863295000512153,True,18
58M30,407,experiment,45,↓,down,↓,0.6620378000661731,True,18
58M30,408,experiment,44,↑,up,↑,0.647614200017415,True,18
58M30,409,experiment,21,↓,down,↓,0.840377299929969,True,18
58M30,410,experiment,33,←,left,←,0.5303438999690115,True,18
58M30,411,experiment,34,←,left,←,0.4875922000501305,True,18
58M30,412,experiment,16,↓,down,↓,0.49866739998105913,True,18
58M30,413,experiment,48,↑,up,↑,0.5991111000766978,True,18
58M30,414,experiment,36,←,left,←,0.6399771999567747,True,18
58M30,415,experiment,41,→,right,→,0.6282125000143424,True,18
58M30,416,experiment,59,↓,down,↓,1.0292523999232799,True,18
58M30,417,experiment,13,→,right,→,0.5324120000004768,True,18
58M30,418,experiment,53,→,right,→,1.2686641999753192,True,18
58M30,419,experiment,54,→,left,←,0.823184399981983,False,18
58M30,420,experiment,42,←,down,↓,1.6115120999747887,False,18
58M30,421,experiment,17,↓,down,↓,0.7614152999594808,True,18
58M30,422,experiment,22,↑,up,↑,0.6375689000124112,True,18
58M30,423,experiment,55,↓,down,↓,0.8165895999409258,True,18
58M30,424,experiment,18,↑,up,↑,0.4848107999423519,True,18
58M30,425,experiment,38,→,right,→,0.6411385000683367,True,18
58M30,426,experiment,29,↓,down,↓,0.685053399996832,True,18
58M30,427,experiment,40,↑,up,↑,0.9920869999332353,True,18
58M30,428,experiment,56,←,right,→,0.596687400015071,False,18
58M30,429,experiment,49,→,right,→,1.1169517999514937,True,18
58M30,430,experiment,28,←,right,→,0.8786903999280185,False,18
58M30,431,experiment,14,↓,down,↓,1.4595231999410316,True,18
58M30,432,experiment,27,↑,up,↑,0.6733197999419644,True,18
58M30,433,experiment,43,↑,up,↑,0.5622854999965057,True,18
58M30,434,experiment,60,↓,down,↓,0.6607752999989316,True,18
58M30,435,experiment,25,↑,up,↑,0.46766419999767095,True,18
58M30,436,experiment,39,↓,down,↓,0.5744322000537068,True,18
58M30,437,experiment,23,→,right,→,0.6252115000970662,True,18
58M30,438,experiment,24,↓,down,↓,0.713258899981156,True,18
58M30,439,experiment,37,←,left,←,1.036909299902618,True,18
58M30,440,experiment,20,↑,up,↑,0.791114299907349,True,18
58M30,441,training,27,↑,up,↑,1.5294310000026599,True,18
58M30,442,training,30,←,left,←,0.6010939999250695,True,18
58M30,443,experiment,42,↑,up,↑,0.6379495000001043,True,18
58M30,444,experiment,26,↑,up,↑,0.6681119999848306,True,18
58M30,445,experiment,23,↓,down,↓,1.7628576999995857,True,18
58M30,446,experiment,22,→,right,→,0.4722304999595508,True,18
58M30,447,experiment,34,↑,up,↑,0.40034860000014305,True,18
58M30,448,experiment,24,←,right,→,0.49371950002387166,False,18
58M30,449,experiment,45,↓,down,↓,0.5173629999626428,True,18
58M30,450,experiment,38,→,right,→,0.4800690000411123,True,18
58M30,451,experiment,57,↓,down,↓,1.1118035999825224,True,18
58M30,452,experiment,58,←,left,←,1.0303544000489637,True,18
58M30,453,experiment,48,←,left,←,1.0943357999203727,True,18
58M30,454,experiment,55,→,right,→,1.0475027000065893,True,18
58M30,455,experiment,59,→,right,→,0.35055249999277294,True,18
58M30,456,experiment,53,←,left,←,0.6463867999846116,True,18
58M30,457,experiment,19,↑,down,↓,1.4885362000204623,False,18
58M30,458,experiment,51,→,right,→,0.5406302000628784,True,18
58M30,459,experiment,29,→,right,→,0.6766455000033602,True,18
58M30,460,experiment,60,→,right,→,0.5311415999894962,True,18
58M30,461,experiment,16,↓,left,←,1.3798450999893248,False,18
58M30,462,experiment,49,↑,up,↑,0.7652978000696748,True,18
58M30,463,experiment,32,→,right,→,0.5301713000517339,True,18
58M30,464,experiment,15,↑,up,↑,0.8994914999930188,True,18
58M30,465,experiment,27,↓,down,↓,0.7344199999934062,True,18
58M30,466,experiment,21,→,up,↑,1.340197200071998,False,18
58M30,467,experiment,39,→,right,→,0.7017558000516146,True,18
58M30,468,experiment,17,↑,up,↑,0.5115081000840291,True,18
58M30,469,experiment,33,↓,down,↓,0.5099979999940842,True,18
58M30,470,experiment,56,←,down,↓,1.2697238000109792,False,18
58M30,471,experiment,28,←,left,←,1.2814531000331044,True,18
58M30,472,experiment,46,→,right,→,0.4807893999386579,True,18
58M30,473,experiment,52,↓,down,↓,0.7478580999886617,True,18
58M30,474,experiment,25,→,right,→,1.1419176999479532,True,18
58M30,475,experiment,36,→,right,→,0.5536526000360027,True,18
58M30,476,experiment,40,→,right,→,0.8419335999060422,True,18
58M30,477,experiment,13,↑,down,↓,0.848846499924548,False,18
58M30,478,experiment,31,↑,up,↑,0.4909763999748975,True,18
58M30,479,experiment,43,↓,down,↓,0.46830960002262145,True,18
58M30,480,experiment,35,↑,up,↑,0.6260373999830335,True,18
58M30,481,experiment,50,↓,down,↓,0.7451017000712454,True,18
58M30,482,experiment,44,→,down,↓,1.367317600059323,False,18
58M30,483,experiment,30,↓,down,↓,0.6058516000630334,True,18
58M30,484,experiment,47,↑,up,↑,1.295489199925214,True,18
58M30,485,experiment,18,→,right,→,0.8887880999827757,True,18
58M30,486,experiment,41,→,right,→,0.5949228999670595,True,18
58M30,487,experiment,20,↑,up,↑,1.1192901000613347,True,18
58M30,488,experiment,54,↓,down,↓,1.567674900055863,True,18
58M30,489,experiment,37,←,left,←,0.7938898999709636,True,18
58M30,490,experiment,14,↓,down,↓,0.7618882999522611,True,18
58M30,491,training,33,↓,down,↓,0.7344381000148132,True,18
58M30,492,training,48,↑,down,↓,0.49011259991675615,False,18
58M30,493,experiment,59,→,right,→,0.7364092000061646,True,18
58M30,494,experiment,22,↑,up,↑,0.8533812999958172,True,18
58M30,495,experiment,13,→,right,→,0.5395854000234976,True,18
58M30,496,experiment,58,↓,left,←,0.4728842000477016,False,18
58M30,497,experiment,17,←,left,←,0.8103102999739349,True,18
58M30,498,experiment,21,↑,up,↑,0.749407000024803,True,18
58M30,499,experiment,24,↑,up,↑,0.9360672000329942,True,18
58M30,500,experiment,55,→,right,→,0.6872599000344053,True,18
58M30,501,experiment,19,←,left,←,0.5521131000714377,True,18
58M30,502,experiment,45,→,right,→,0.5010557000059634,True,18
58M30,503,experiment,23,↓,down,↓,0.490581399993971,True,18
58M30,504,experiment,51,→,right,→,0.4705599000444636,True,18
58M30,505,experiment,44,↑,up,↑,0.6301752999424934,True,18
58M30,506,experiment,35,↑,up,↑,0.8383755999384448,True,18
58M30,507,experiment,47,↓,down,↓,0.6311583999777213,True,18
58M30,508,experiment,50,↓,down,↓,1.0853634000523016,True,18
58M30,509,experiment,60,←,left,←,0.8112171000102535,True,18
58M30,510,experiment,57,→,right,→,1.4623129999963567,True,18
58M30,511,experiment,42,↑,up,↑,0.6650238999864087,True,18
58M30,512,experiment,14,→,right,→,0.6777257000794634,True,18
58M30,513,experiment,52,←,left,←,0.6253951999824494,True,18
58M30,514,experiment,53,→,left,←,0.8544851000187919,False,18
58M30,515,experiment,49,→,left,←,0.5088139999425039,False,18
58M30,516,experiment,18,↑,down,↓,1.9335289999144152,False,18
58M30,517,experiment,36,↑,up,↑,0.7059301000554115,True,18
58M30,518,experiment,37,↑,up,↑,0.6699689999222755,True,18
58M30,519,experiment,15,↑,up,↑,1.0420298000099137,True,18
58M30,520,experiment,56,↑,up,↑,0.4171000000787899,True,18
58M30,521,experiment,30,←,up,↑,1.1760601999703795,False,18
58M30,522,experiment,27,→,right,→,0.6725508000236005,True,18
58M30,523,experiment,39,↓,down,↓,0.5490170998964459,True,18
58M30,524,experiment,29,←,left,←,0.5081224999157712,True,18
58M30,525,experiment,32,↑,up,↑,0.5957040000939742,True,18
58M30,526,experiment,40,↓,down,↓,0.5382773000746965,True,18
58M30,527,experiment,25,↑,right,→,0.7646455999929458,False,18
58M30,528,experiment,46,←,left,←,0.7606069000903517,True,18
58M30,529,experiment,48,↓,down,↓,0.6914987999480218,True,18
58M30,530,experiment,16,↓,down,↓,0.7343765000114217,True,18
58M30,531,experiment,26,↑,up,↑,0.7283565000398085,True,18
58M30,532,experiment,43,←,left,←,0.7359750000759959,True,18
58M30,533,experiment,31,↓,down,↓,0.5268899999791756,True,18
58M30,534,experiment,28,↓,down,↓,1.0083419000729918,True,18
58M30,535,experiment,34,↓,down,↓,0.6347055999794975,True,18
58M30,536,experiment,20,↑,down,↓,1.0929119000211358,False,18
58M30,537,experiment,41,↓,down,↓,0.5192134999670088,True,18
58M30,538,experiment,54,→,down,↓,0.4717629000078887,False,18
58M30,539,experiment,33,↓,down,↓,0.47906229994259775,True,18
58M30,540,experiment,38,↓,down,↓,1.2671833999920636,True,18
58M30,541,training,47,↑,right,→,1.6320248999400064,False,18
58M30,542,training,15,←,left,←,0.6298215999267995,True,18
58M30,543,experiment,50,→,right,→,0.48423709999769926,True,18
58M30,544,experiment,35,←,left,←,0.482205200009048,True,18
58M30,545,experiment,41,↓,down,↓,0.3999012999702245,True,18
58M30,546,experiment,32,↑,up,↑,0.695551099954173,True,18
58M30,547,experiment,28,←,up,↑,0.9620389000046998,False,18
58M30,548,experiment,56,↑,up,↑,1.0636635998962447,True,18
58M30,549,experiment,40,←,left,←,0.5790669000707567,True,18
58M30,550,experiment,14,↓,down,↓,1.2831131999846548,True,18
58M30,551,experiment,45,←,left,←,1.4754544000606984,True,18
58M30,552,experiment,23,↑,up,↑,1.3383004000643268,True,18
58M30,553,experiment,57,←,left,←,0.7044438000302762,True,18
58M30,554,experiment,59,→,right,→,0.5741370000177994,True,18
58M30,555,experiment,55,↑,up,↑,0.5398149999091402,True,18
58M30,556,experiment,20,→,right,→,0.6659978000679985,True,18
58M30,557,experiment,34,→,left,←,0.7854470999445766,False,18
58M30,558,experiment,31,↑,up,↑,0.49451250000856817,True,18
58M30,559,experiment,38,←,left,←,0.5865428999532014,True,18
58M30,560,experiment,44,←,left,←,0.5987137000774965,True,18
58M30,561,experiment,33,↓,down,↓,0.4815427999710664,True,18
58M30,562,experiment,13,←,left,←,0.5981848000083119,True,18
58M30,563,experiment,52,↓,down,↓,1.204486500006169,True,18
58M30,564,experiment,25,↑,up,↑,0.5569751999573782,True,18
58M30,565,experiment,43,→,right,→,1.1152281999820843,True,18
58M30,566,experiment,19,↑,up,↑,0.7549959999741986,True,18
58M30,567,experiment,37,→,right,→,0.6214151999447495,True,18
58M30,568,experiment,21,→,right,→,0.6392039000056684,True,18
58M30,569,experiment,54,→,left,←,1.3310171000193805,False,18
58M30,570,experiment,49,↓,down,↓,0.5267856999998912,True,18
58M30,571,experiment,18,→,right,→,0.526318300049752,True,18
58M30,572,experiment,30,←,left,←,1.2306913000065833,True,18
58M30,573,experiment,47,↓,left,←,1.327172699966468,False,18
58M30,574,experiment,42,→,right,→,0.5356951000867411,True,18
58M30,575,experiment,27,←,right,→,0.8571540999691933,False,18
58M30,576,experiment,16,→,right,→,1.2694144999841228,True,18
58M30,577,experiment,46,↑,up,↑,0.582181700039655,True,18
58M30,578,experiment,22,↓,up,↑,1.3842000999720767,False,18
58M30,579,experiment,24,→,left,←,0.6498775999061763,False,18
58M30,580,experiment,51,→,right,→,0.6869556000456214,True,18
58M30,581,experiment,29,←,left,←,0.47299879998899996,True,18
58M30,582,experiment,17,←,left,←,1.1550946000497788,True,18
58M30,583,experiment,36,↓,down,↓,0.7421701999846846,True,18
58M30,584,experiment,39,→,right,→,0.559785999939777,True,18
58M30,585,experiment,53,↓,down,↓,0.6715150000527501,True,18
58M30,586,experiment,58,→,right,→,0.8152729999274015,True,18
58M30,587,experiment,26,→,right,→,0.9824351000133902,True,18
58M30,588,experiment,15,←,left,←,0.5576328999595717,True,18
58M30,589,experiment,48,↓,down,↓,0.5206201000837609,True,18
58M30,590,experiment,60,↓,down,↓,0.6529244999401271,True,18
