PART_ID,Trial_no,Trial_type,CSI,Stim_letter,Key_pressed,letter_choose,Rt,Corr,Stimulus Time
64K20,1,training,60,←,left,←,0.700952299986966,True,30
64K20,2,training,60,↓,down,↓,0.984313299995847,True,30
64K20,3,training,60,←,left,←,0.8723379999864846,True,30
64K20,4,training,60,→,right,→,0.6689836999867111,True,30
64K20,5,training,60,→,right,→,0.7289280999684706,True,30
64K20,6,training,60,↑,up,↑,0.7148567999247462,True,30
64K20,7,training,60,↓,down,↓,0.8535942999878898,True,30
64K20,8,training,60,↑,up,↑,0.6172987999161705,True,30
64K20,9,training,60,←,no_key,no_letter,-1.0,False,30
64K20,10,training,60,↑,up,↑,0.8177007000194862,True,30
64K20,11,training,60,↑,up,↑,0.8641663000453264,True,30
64K20,12,training,60,↑,up,↑,0.6767681000055745,True,30
64K20,13,training,60,→,right,→,0.6172826000256464,True,30
64K20,14,training,60,↑,up,↑,0.6000902999658138,True,30
64K20,15,training,60,→,right,→,0.8615370000479743,True,30
64K20,16,training,60,↑,up,↑,0.7541290000081062,True,30
64K20,17,training,60,↑,up,↑,0.5675281999865547,True,30
64K20,18,training,60,→,no_key,no_letter,-1.0,False,30
64K20,19,training,60,↓,down,↓,0.7641508999513462,True,30
64K20,20,training,60,↑,up,↑,0.6848433000268415,True,30
64K20,21,training,60,←,left,←,0.7647926999488845,True,18
64K20,22,training,60,↓,down,↓,0.7896144000114873,True,18
64K20,23,training,60,↓,down,↓,0.7414680001093075,True,18
64K20,24,training,60,↓,down,↓,0.5996121000498533,True,18
64K20,25,training,60,→,right,→,0.5511218999745324,True,18
64K20,26,training,60,→,right,→,0.5524086999939755,True,18
64K20,27,training,60,↑,up,↑,0.5456823999993503,True,18
64K20,28,training,60,←,left,←,0.5309199000475928,True,18
64K20,29,training,60,←,left,←,0.5729583000065759,True,18
64K20,30,training,60,↓,down,↓,0.6536413000430912,True,18
64K20,31,training,60,→,right,→,0.49863630009349436,True,18
64K20,32,training,60,→,right,→,0.6700776000507176,True,18
64K20,33,training,60,←,left,←,0.5788347999332473,True,18
64K20,34,training,60,↑,up,↑,0.5707805000711232,True,18
64K20,35,training,60,→,right,→,0.8114018999040127,True,18
64K20,36,training,60,→,right,→,0.538047399953939,True,18
64K20,37,training,60,↓,down,↓,0.7241793998982757,True,18
64K20,38,training,60,→,right,→,0.574698599986732,True,18
64K20,39,training,60,↓,down,↓,0.783356299973093,True,18
64K20,40,training,60,→,right,→,0.47935929999221116,True,18
64K20,41,training,26,↑,up,↑,0.7127331000519916,True,18
64K20,42,training,31,↑,up,↑,0.7840225000400096,True,18
64K20,43,experiment,25,→,right,→,0.5602748000528663,True,18
64K20,44,experiment,35,→,no_key,no_letter,-1.0,False,18
64K20,45,experiment,41,↓,up,↑,0.7767241999972612,False,18
64K20,46,experiment,26,→,right,→,0.4338780000107363,True,18
64K20,47,experiment,14,←,no_key,no_letter,-1.0,False,18
64K20,48,experiment,31,←,left,←,0.6020440000575036,True,18
64K20,49,experiment,28,←,left,←,0.7353583999210969,True,18
64K20,50,experiment,55,↑,up,↑,0.6853915998945013,True,18
64K20,51,experiment,15,↑,right,→,1.3360031000338495,False,18
64K20,52,experiment,29,↑,up,↑,0.639318700064905,True,18
64K20,53,experiment,45,↓,up,↑,0.6720106999855489,False,18
64K20,54,experiment,51,↑,up,↑,0.651379800052382,True,18
64K20,55,experiment,49,←,left,←,0.5846001000609249,True,18
64K20,56,experiment,40,↑,up,↑,0.4868586000520736,True,18
64K20,57,experiment,16,↑,up,↑,0.5448205000720918,True,18
64K20,58,experiment,57,↑,no_key,no_letter,-1.0,False,18
64K20,59,experiment,13,→,right,→,0.7420192999998108,True,18
64K20,60,experiment,54,↑,up,↑,0.5006610999116674,True,18
64K20,61,experiment,36,←,left,←,0.434393799980171,True,18
64K20,62,experiment,32,←,no_key,no_letter,-1.0,False,18
64K20,63,experiment,56,↑,up,↑,0.5252610000316054,True,18
64K20,64,experiment,50,↓,down,↓,0.7194459999445826,True,18
64K20,65,experiment,19,←,left,←,0.43338780000340194,True,18
64K20,66,experiment,37,←,no_key,no_letter,-1.0,False,18
64K20,67,experiment,53,↓,down,↓,0.4972370999166742,True,18
64K20,68,experiment,20,↓,up,↑,0.4958854999858886,False,18
64K20,69,experiment,52,→,no_key,no_letter,-1.0,False,18
64K20,70,experiment,38,→,no_key,no_letter,-1.0,False,18
64K20,71,experiment,46,←,up,↑,0.47650899994187057,False,18
64K20,72,experiment,59,↑,up,↑,0.6419897000305355,True,18
64K20,73,experiment,23,→,right,→,0.4893115001032129,True,18
64K20,74,experiment,18,←,right,→,0.43388199992477894,False,18
64K20,75,experiment,43,↑,up,↑,0.5392917999997735,True,18
64K20,76,experiment,58,↓,up,↑,0.9752572000725195,False,18
64K20,77,experiment,21,↓,left,←,1.7546793000074103,False,18
64K20,78,experiment,47,↑,up,↑,0.7412161999382079,True,18
64K20,79,experiment,24,←,left,←,0.5278996999841183,True,18
64K20,80,experiment,30,→,right,→,0.5271533000050113,True,18
64K20,81,experiment,22,→,right,→,0.4760351999429986,True,18
64K20,82,experiment,17,←,left,←,0.7892586999805644,True,18
64K20,83,experiment,44,↑,up,↑,0.5365735000232235,True,18
64K20,84,experiment,27,→,right,→,0.5294877999695018,True,18
64K20,85,experiment,42,←,right,→,0.4966407000320032,False,18
64K20,86,experiment,33,←,left,←,1.4632632000138983,True,18
64K20,87,experiment,34,→,right,→,0.8139138000551611,True,18
64K20,88,experiment,48,↓,up,↑,0.6932382999220863,False,18
64K20,89,experiment,60,↑,up,↑,0.6661682999692857,True,18
64K20,90,experiment,39,→,right,→,0.5972832000115886,True,18
64K20,91,training,23,←,left,←,0.48120769998058677,True,18
64K20,92,training,46,↓,down,↓,0.7671462999423966,True,18
64K20,93,experiment,49,←,left,←,0.40032339992467314,True,18
64K20,94,experiment,33,↓,down,↓,0.6332928999327123,True,18
64K20,95,experiment,39,←,left,←,0.7021507000317797,True,18
64K20,96,experiment,50,↑,up,↑,0.6565893000224605,True,18
64K20,97,experiment,25,←,left,←,0.5738274999894202,True,18
64K20,98,experiment,15,↑,down,↓,0.7571264000143856,False,18
64K20,99,experiment,51,↓,left,←,0.7972106999950483,False,18
64K20,100,experiment,27,→,right,→,0.7631386999273673,True,18
64K20,101,experiment,28,↑,up,↑,0.9698837999021634,True,18
64K20,102,experiment,40,↓,down,↓,0.608604000066407,True,18
64K20,103,experiment,47,←,right,→,0.6971792000113055,False,18
64K20,104,experiment,35,←,no_key,no_letter,-1.0,False,18
64K20,105,experiment,48,←,left,←,0.6711584000149742,True,18
64K20,106,experiment,45,↑,up,↑,0.6226398000726476,True,18
64K20,107,experiment,29,→,right,→,0.658652100013569,True,18
64K20,108,experiment,58,→,right,→,0.5300393999787048,True,18
64K20,109,experiment,53,↑,up,↑,0.593182299984619,True,18
64K20,110,experiment,19,←,left,←,0.7012131999945268,True,18
64K20,111,experiment,31,→,right,→,1.0203941999934614,True,18
64K20,112,experiment,52,↓,down,↓,0.8011921999277547,True,18
64K20,113,experiment,59,→,right,→,0.7219657000387087,True,18
64K20,114,experiment,44,↑,up,↑,0.9437819999875501,True,18
64K20,115,experiment,43,←,left,←,0.6378354999469593,True,18
64K20,116,experiment,57,↑,up,↑,0.8304425000678748,True,18
64K20,117,experiment,18,→,left,←,0.8330793000059202,False,18
64K20,118,experiment,60,→,right,→,0.5997902998933569,True,18
64K20,119,experiment,42,←,left,←,0.5398098999867216,True,18
64K20,120,experiment,30,↓,down,↓,0.6830654999939725,True,18
64K20,121,experiment,32,↑,down,↓,1.145801999955438,False,18
64K20,122,experiment,21,←,left,←,0.6865874999202788,True,18
64K20,123,experiment,23,↓,down,↓,0.515841499902308,True,18
64K20,124,experiment,46,→,left,←,1.240654999972321,False,18
64K20,125,experiment,20,←,left,←,0.7138129000086337,True,18
64K20,126,experiment,41,→,right,→,0.5140068000182509,True,18
64K20,127,experiment,34,↑,up,↑,1.0464303999906406,True,18
64K20,128,experiment,13,→,right,→,0.8199089000700042,True,18
64K20,129,experiment,55,←,left,←,0.6624545999802649,True,18
64K20,130,experiment,24,←,left,←,0.6924744000425562,True,18
64K20,131,experiment,22,←,left,←,0.5625037000281736,True,18
64K20,132,experiment,17,↑,up,↑,1.00130249990616,True,18
64K20,133,experiment,54,↑,up,↑,0.49307810002937913,True,18
64K20,134,experiment,16,↓,down,↓,1.903048099949956,True,18
64K20,135,experiment,56,↑,no_key,no_letter,-1.0,False,18
64K20,136,experiment,36,↓,down,↓,1.631386399967596,True,18
64K20,137,experiment,26,↑,up,↑,0.500516299973242,True,18
64K20,138,experiment,37,↓,down,↓,0.5920569999143481,True,18
64K20,139,experiment,38,↓,up,↑,0.29992589994799346,False,18
64K20,140,experiment,14,→,right,→,0.889271599939093,True,18
64K20,141,training,30,↓,down,↓,0.6891064000083134,True,18
64K20,142,training,47,←,down,↓,0.9103835999267176,False,18
64K20,143,experiment,47,↓,down,↓,0.6430545999901369,True,18
64K20,144,experiment,36,↑,no_key,no_letter,-1.0,False,18
64K20,145,experiment,40,↑,down,↓,0.7844842999475077,False,18
64K20,146,experiment,31,↓,down,↓,0.5166290000779554,True,18
64K20,147,experiment,57,↓,down,↓,0.5459655000595376,True,18
64K20,148,experiment,41,↓,down,↓,0.689107000012882,True,18
64K20,149,experiment,28,←,left,←,0.7150609000818804,True,18
64K20,150,experiment,26,→,right,→,0.7013012999668717,True,18
64K20,151,experiment,52,←,left,←,0.822375199990347,True,18
64K20,152,experiment,20,↓,down,↓,0.5844409000128508,True,18
64K20,153,experiment,42,→,right,→,1.389096500002779,True,18
64K20,154,experiment,25,→,up,↑,1.6611336999339983,False,18
64K20,155,experiment,38,↑,up,↑,0.7217047000303864,True,18
64K20,156,experiment,30,↑,up,↑,1.0969956000335515,True,18
64K20,157,experiment,44,←,left,←,0.8796998000470921,True,18
64K20,158,experiment,48,↑,left,←,0.8923720000311732,False,18
64K20,159,experiment,22,↑,up,↑,1.3863213000586256,True,18
64K20,160,experiment,56,→,right,→,0.8539559000637382,True,18
64K20,161,experiment,58,↓,up,↑,1.4850934999994934,False,18
64K20,162,experiment,39,←,left,←,0.6958507000235841,True,18
64K20,163,experiment,13,→,left,←,1.0596527999732643,False,18
64K20,164,experiment,35,→,right,→,0.6183036000002176,True,18
64K20,165,experiment,34,↓,up,↑,0.8349825999466702,False,18
64K20,166,experiment,37,↑,down,↓,1.2892996999435127,False,18
64K20,167,experiment,15,→,left,←,0.6279917999636382,False,18
64K20,168,experiment,51,↑,up,↑,0.6890910000074655,True,18
64K20,169,experiment,24,→,right,→,0.6936302999965847,True,18
64K20,170,experiment,45,→,right,→,0.6443774999352172,True,18
64K20,171,experiment,32,↑,up,↑,0.4702775999903679,True,18
64K20,172,experiment,43,←,left,←,0.661647200002335,True,18
64K20,173,experiment,19,←,left,←,0.7589754000073299,True,18
64K20,174,experiment,54,↑,up,↑,0.7089470999781042,True,18
64K20,175,experiment,50,←,left,←,0.7996298000216484,True,18
64K20,176,experiment,21,↑,up,↑,0.8898362000472844,True,18
64K20,177,experiment,60,→,right,→,0.7823736999416724,True,18
64K20,178,experiment,59,→,right,→,0.6316299000754952,True,18
64K20,179,experiment,55,↓,down,↓,0.7296343999914825,True,18
64K20,180,experiment,23,←,left,←,0.6370305999880657,True,18
64K20,181,experiment,46,↑,up,↑,0.636925800004974,True,18
64K20,182,experiment,33,→,right,→,0.6218531999038532,True,18
64K20,183,experiment,14,→,right,→,0.43393990001641214,True,18
64K20,184,experiment,17,←,left,←,0.416608199942857,True,18
64K20,185,experiment,18,↑,up,↑,0.609137500054203,True,18
64K20,186,experiment,27,↑,up,↑,1.1189699999522418,True,18
64K20,187,experiment,29,↑,up,↑,0.8549864999949932,True,18
64K20,188,experiment,49,→,right,→,0.7643825000850484,True,18
64K20,189,experiment,53,↑,up,↑,0.826280300039798,True,18
64K20,190,experiment,16,→,right,→,0.6788516000378877,True,18
64K20,191,training,54,→,right,→,0.6637075999751687,True,18
64K20,192,training,29,←,right,→,0.6824226001044735,False,18
64K20,193,experiment,29,←,right,→,0.6511449998943135,False,18
64K20,194,experiment,30,→,right,→,0.5891694000456482,True,18
64K20,195,experiment,55,→,right,→,0.5128553999820724,True,18
64K20,196,experiment,19,↑,up,↑,1.2964800000190735,True,18
64K20,197,experiment,33,↓,down,↓,0.6944348000688478,True,18
64K20,198,experiment,34,↓,down,↓,0.5326089999871328,True,18
64K20,199,experiment,40,←,left,←,1.0762204999336973,True,18
64K20,200,experiment,24,↑,up,↑,0.7055031999479979,True,18
64K20,201,experiment,18,↓,down,↓,0.6176491000223905,True,18
64K20,202,experiment,59,←,left,←,0.6335472000064328,True,18
64K20,203,experiment,31,→,right,→,0.5955205000936985,True,18
64K20,204,experiment,38,→,left,←,0.4989919000072405,False,18
64K20,205,experiment,44,↑,down,↓,0.9456288999645039,False,18
64K20,206,experiment,28,↑,up,↑,0.6656259000301361,True,18
64K20,207,experiment,47,↓,down,↓,0.519521199981682,True,18
64K20,208,experiment,26,↑,up,↑,0.697553800069727,True,18
64K20,209,experiment,36,→,right,→,0.7575421000365168,True,18
64K20,210,experiment,53,↑,up,↑,0.8041863000253215,True,18
64K20,211,experiment,22,↓,down,↓,0.7575162999564782,True,18
64K20,212,experiment,58,←,left,←,0.6887477999553084,True,18
64K20,213,experiment,17,↑,up,↑,1.2901558000594378,True,18
64K20,214,experiment,23,→,right,→,0.5515943999635056,True,18
64K20,215,experiment,51,→,right,→,0.41681740002240986,True,18
64K20,216,experiment,39,→,no_key,no_letter,-1.0,False,18
64K20,217,experiment,27,↓,down,↓,0.77163129998371,True,18
64K20,218,experiment,45,↑,up,↑,1.1428132000146434,True,18
64K20,219,experiment,35,↑,down,↓,0.9140769999939948,False,18
64K20,220,experiment,25,→,right,→,0.6050784999970347,True,18
64K20,221,experiment,54,←,left,←,0.6175204999744892,True,18
64K20,222,experiment,13,←,right,→,0.4957124999491498,False,18
64K20,223,experiment,49,←,left,←,0.5396063999505714,True,18
64K20,224,experiment,37,↓,down,↓,1.1736520000267774,True,18
64K20,225,experiment,20,↓,down,↓,1.705519700073637,True,18
64K20,226,experiment,15,←,left,←,0.4754615999991074,True,18
64K20,227,experiment,48,→,right,→,1.0881511999759823,True,18
64K20,228,experiment,41,↑,up,↑,0.8894900000886992,True,18
64K20,229,experiment,32,↑,no_key,no_letter,-1.0,False,18
64K20,230,experiment,60,←,right,→,0.5141752000199631,False,18
64K20,231,experiment,50,→,right,→,0.9561233998974785,True,18
64K20,232,experiment,52,↑,up,↑,0.8596254999283701,True,18
64K20,233,experiment,57,→,right,→,0.8194694999838248,True,18
64K20,234,experiment,43,←,left,←,0.5741345999995247,True,18
64K20,235,experiment,46,←,no_key,no_letter,-1.0,False,18
64K20,236,experiment,42,←,left,←,0.47842890000902116,True,18
64K20,237,experiment,56,↑,up,↑,0.6697402999270707,True,18
64K20,238,experiment,16,←,left,←,0.5441046999767423,True,18
64K20,239,experiment,21,↓,down,↓,0.7329691000049934,True,18
64K20,240,experiment,14,↑,up,↑,0.8381443999242038,True,18
64K20,241,training,30,↑,up,↑,0.5947646999265999,True,18
64K20,242,training,56,←,left,←,0.48598460003267974,True,18
64K20,243,experiment,26,↑,down,↓,0.6496685000602156,False,18
64K20,244,experiment,22,←,left,←,0.47276099992450327,True,18
64K20,245,experiment,58,↓,right,→,0.35054800007492304,False,18
64K20,246,experiment,16,←,left,←,0.4934799999464303,True,18
64K20,247,experiment,15,←,left,←,0.47223420010413975,True,18
64K20,248,experiment,41,↓,down,↓,0.633371299947612,True,18
64K20,249,experiment,17,←,left,←,0.5249034999869764,True,18
64K20,250,experiment,43,→,left,←,0.49942460004240274,False,18
64K20,251,experiment,55,↓,down,↓,0.8427152999211103,True,18
64K20,252,experiment,30,←,left,←,0.9973821999737993,True,18
64K20,253,experiment,59,→,right,→,0.6141012000152841,True,18
64K20,254,experiment,33,↑,down,↓,0.5593733000569046,False,18
64K20,255,experiment,49,←,left,←,0.5132339999545366,True,18
64K20,256,experiment,34,↓,down,↓,0.6054887999780476,True,18
64K20,257,experiment,37,←,left,←,0.7568068999098614,True,18
64K20,258,experiment,42,→,right,→,0.5946861000265926,True,18
64K20,259,experiment,24,↑,no_key,no_letter,-1.0,False,18
64K20,260,experiment,31,↓,down,↓,0.5605384999653324,True,18
64K20,261,experiment,38,↑,up,↑,0.7207778999581933,True,18
64K20,262,experiment,21,↓,down,↓,0.7100356000009924,True,18
64K20,263,experiment,44,↓,up,↑,1.1566621999954805,False,18
64K20,264,experiment,36,→,right,→,0.5187667000573128,True,18
64K20,265,experiment,28,←,left,←,1.8955399999395013,True,18
64K20,266,experiment,35,↑,up,↑,0.7652870999881998,True,18
64K20,267,experiment,60,←,left,←,0.7023603999987245,True,18
64K20,268,experiment,53,↑,up,↑,0.8626960000256076,True,18
64K20,269,experiment,14,↓,down,↓,0.8513672000262886,True,18
64K20,270,experiment,32,↑,up,↑,0.7479954999871552,True,18
64K20,271,experiment,56,↓,down,↓,0.8167128000641242,True,18
64K20,272,experiment,39,↑,up,↑,0.7182737000985071,True,18
64K20,273,experiment,18,→,right,→,0.749369699973613,True,18
64K20,274,experiment,20,↑,up,↑,0.7380263999802992,True,18
64K20,275,experiment,54,↓,down,↓,1.032673200010322,True,18
64K20,276,experiment,48,↓,down,↓,0.7754206999670714,True,18
64K20,277,experiment,19,→,right,→,0.7562884000362828,True,18
64K20,278,experiment,45,↑,up,↑,0.5360448000719771,True,18
64K20,279,experiment,27,→,right,→,0.6646751000080258,True,18
64K20,280,experiment,29,↑,up,↑,0.7229567999020219,True,18
64K20,281,experiment,51,↓,down,↓,0.6921852000523359,True,18
64K20,282,experiment,46,←,left,←,0.5941671000327915,True,18
64K20,283,experiment,23,↑,up,↑,0.5232967999763787,True,18
64K20,284,experiment,57,→,right,→,0.4806731999851763,True,18
64K20,285,experiment,25,→,right,→,0.7326045000227168,True,18
64K20,286,experiment,52,←,up,↑,1.5886485000373796,False,18
64K20,287,experiment,50,↑,up,↑,0.7640146999619901,True,18
64K20,288,experiment,47,↑,up,↑,0.7819719000253826,True,18
64K20,289,experiment,40,←,left,←,0.5719554000534117,True,18
64K20,290,experiment,13,↑,up,↑,0.5087364999344572,True,18
64K20,291,training,27,→,left,←,0.8300495999865234,False,18
64K20,292,training,58,↓,up,↑,0.6859399999957532,False,18
64K20,293,experiment,28,→,right,→,0.7920887999935076,True,18
64K20,294,experiment,46,↓,down,↓,0.5539187000831589,True,18
64K20,295,experiment,52,↑,up,↑,0.9372548001119867,True,18
64K20,296,experiment,18,↓,down,↓,0.568176900036633,True,18
64K20,297,experiment,25,↓,down,↓,0.5446382999652997,True,18
64K20,298,experiment,19,←,right,→,0.6466698000440374,False,18
64K20,299,experiment,13,←,left,←,0.6845724999438971,True,18
64K20,300,experiment,54,←,left,←,0.6692791000241414,True,18
64K20,301,experiment,39,↓,down,↓,0.8726169998990372,True,18
64K20,302,experiment,55,↓,down,↓,0.69720369996503,True,18
64K20,303,experiment,41,←,left,←,0.5939043000107631,True,18
64K20,304,experiment,29,→,right,→,0.6392859000479802,True,18
64K20,305,experiment,23,→,right,→,0.598605899955146,True,18
64K20,306,experiment,53,→,right,→,0.6991874000523239,True,18
64K20,307,experiment,24,↓,down,↓,0.831300999969244,True,18
64K20,308,experiment,37,↓,down,↓,0.6535476999124512,True,18
64K20,309,experiment,58,←,left,←,0.5645510000176728,True,18
64K20,310,experiment,27,→,right,→,0.6918758999090642,True,18
64K20,311,experiment,21,↓,left,←,1.506540699978359,False,18
64K20,312,experiment,26,→,right,→,0.8053122001001611,True,18
64K20,313,experiment,40,↓,down,↓,0.7385247000493109,True,18
64K20,314,experiment,45,←,left,←,0.6311423999723047,True,18
64K20,315,experiment,47,↓,down,↓,0.7585058000404388,True,18
64K20,316,experiment,42,↓,down,↓,0.80456520000007,True,18
64K20,317,experiment,48,→,right,→,0.6846010000444949,True,18
64K20,318,experiment,56,←,left,←,0.5959461000747979,True,18
64K20,319,experiment,31,↓,down,↓,0.663851699908264,True,18
64K20,320,experiment,32,↓,down,↓,0.7039061000104994,True,18
64K20,321,experiment,57,←,left,←,0.6539215999655426,True,18
64K20,322,experiment,43,←,left,←,0.6872026000637561,True,18
64K20,323,experiment,60,↑,up,↑,0.6601315999869257,True,18
64K20,324,experiment,30,←,left,←,0.5658666000235826,True,18
64K20,325,experiment,20,↓,down,↓,0.7061530000064522,True,18
64K20,326,experiment,49,→,right,→,0.41724850004538894,True,18
64K20,327,experiment,38,↑,left,←,0.4825349999591708,False,18
64K20,328,experiment,14,→,left,←,1.637830700026825,False,18
64K20,329,experiment,51,↑,up,↑,0.5786964000435546,True,18
64K20,330,experiment,33,←,left,←,0.6777531000552699,True,18
64K20,331,experiment,35,←,left,←,1.2198618999682367,True,18
64K20,332,experiment,17,←,left,←,0.7438755000475794,True,18
64K20,333,experiment,15,↓,down,↓,0.7767098000040278,True,18
64K20,334,experiment,34,↑,up,↑,1.115111899911426,True,18
64K20,335,experiment,50,↑,up,↑,0.5251998000312597,True,18
64K20,336,experiment,44,↑,up,↑,0.5071505999658257,True,18
64K20,337,experiment,22,↓,down,↓,1.9608012000098825,True,18
64K20,338,experiment,36,↓,up,↑,1.010502399993129,False,18
64K20,339,experiment,59,↓,down,↓,0.5872126000467688,True,18
64K20,340,experiment,16,→,right,→,0.561180799966678,True,18
64K20,341,training,19,↓,down,↓,0.6754807999823242,True,18
64K20,342,training,39,←,left,←,0.5745408000657335,True,18
64K20,343,experiment,38,↓,down,↓,0.5585274999029934,True,18
64K20,344,experiment,25,→,right,→,0.47984629997517914,True,18
64K20,345,experiment,40,←,no_key,no_letter,-1.0,False,18
64K20,346,experiment,41,↓,down,↓,0.5919331000186503,True,18
64K20,347,experiment,50,←,left,←,0.7670871000736952,True,18
64K20,348,experiment,23,↓,down,↓,0.5211096999701113,True,18
64K20,349,experiment,18,←,left,←,0.5445872000418603,True,18
64K20,350,experiment,30,→,right,→,0.5591771999606863,True,18
64K20,351,experiment,29,↓,down,↓,0.4937539999373257,True,18
64K20,352,experiment,27,←,left,←,0.6645183999789879,True,18
64K20,353,experiment,16,→,right,→,0.6991823998978361,True,18
64K20,354,experiment,22,←,left,←,0.5284363999962807,True,18
64K20,355,experiment,35,←,left,←,0.5644767000339925,True,18
64K20,356,experiment,19,↑,up,↑,0.7292405000189319,True,18
64K20,357,experiment,56,↑,up,↑,0.5111225999426097,True,18
64K20,358,experiment,54,↑,up,↑,0.5751530000707135,True,18
64K20,359,experiment,15,→,up,↑,0.6223893000278622,False,18
64K20,360,experiment,32,↑,down,↓,1.8324021000880748,False,18
64K20,361,experiment,49,→,right,→,0.6863154999446124,True,18
64K20,362,experiment,17,↓,down,↓,0.6397384000010788,True,18
64K20,363,experiment,44,←,left,←,0.6171552001032978,True,18
64K20,364,experiment,13,→,right,→,0.5520377999637276,True,18
64K20,365,experiment,59,↓,down,↓,0.5304260000120848,True,18
64K20,366,experiment,28,↑,up,↑,0.6024860000470653,True,18
64K20,367,experiment,42,→,right,→,0.5664332000305876,True,18
64K20,368,experiment,48,←,left,←,0.5197213999927044,True,18
64K20,369,experiment,55,←,left,←,0.6784101000521332,True,18
64K20,370,experiment,24,←,left,←,0.57175629993435,True,18
64K20,371,experiment,37,←,left,←,0.6924751000478864,True,18
64K20,372,experiment,57,↓,up,↑,0.5230677999788895,False,18
64K20,373,experiment,14,→,right,→,0.8850561999715865,True,18
64K20,374,experiment,26,→,left,←,0.8804319999180734,False,18
64K20,375,experiment,47,↑,up,↑,0.5577951000304893,True,18
64K20,376,experiment,45,←,left,←,0.5697182000149041,True,18
64K20,377,experiment,20,→,right,→,0.6139872999629006,True,18
64K20,378,experiment,53,→,right,→,0.6816984999459237,True,18
64K20,379,experiment,52,→,right,→,0.5480002999538556,True,18
64K20,380,experiment,51,↓,down,↓,0.5799264999805018,True,18
64K20,381,experiment,21,→,right,→,0.5583800000604242,True,18
64K20,382,experiment,33,↑,no_key,no_letter,-1.0,False,18
64K20,383,experiment,39,↓,down,↓,0.6017486000200734,True,18
64K20,384,experiment,58,↑,up,↑,0.5230293999193236,True,18
64K20,385,experiment,36,←,left,←,0.7022764999419451,True,18
64K20,386,experiment,43,←,right,→,1.085731300059706,False,18
64K20,387,experiment,60,←,left,←,0.8504183000186458,True,18
64K20,388,experiment,34,↑,no_key,no_letter,-1.0,False,18
64K20,389,experiment,46,←,left,←,0.5724189999746159,True,18
64K20,390,experiment,31,↑,up,↑,1.1289914000080898,True,18
64K20,391,training,33,↑,up,↑,1.4970635999925435,True,18
64K20,392,training,36,↑,up,↑,0.47769890003837645,True,18
64K20,393,experiment,18,↓,up,↑,0.3838848000159487,False,18
64K20,394,experiment,38,←,left,←,0.6371780999470502,True,18
64K20,395,experiment,43,↑,up,↑,0.7352159000001848,True,18
64K20,396,experiment,50,↓,down,↓,0.5366859999485314,True,18
64K20,397,experiment,22,←,left,←,0.5244544000597671,True,18
64K20,398,experiment,34,↑,up,↑,0.7689558999845758,True,18
64K20,399,experiment,24,←,left,←,0.6902763999532908,True,18
64K20,400,experiment,57,←,left,←,0.6971022000070661,True,18
64K20,401,experiment,27,→,left,←,0.7949094999348745,False,18
64K20,402,experiment,33,↑,up,↑,0.549723600037396,True,18
64K20,403,experiment,44,↑,up,↑,0.5865332999965176,True,18
64K20,404,experiment,37,→,right,→,0.6824829000979662,True,18
64K20,405,experiment,42,←,left,←,0.6189858999568969,True,18
64K20,406,experiment,39,→,right,→,0.7122518999967724,True,18
64K20,407,experiment,55,←,left,←,0.6075983999762684,True,18
64K20,408,experiment,16,↓,down,↓,0.7089820000110194,True,18
64K20,409,experiment,20,→,right,→,0.49183049995917827,True,18
64K20,410,experiment,13,→,left,←,0.8956596000352874,False,18
64K20,411,experiment,40,↑,up,↑,0.5056643999414518,True,18
64K20,412,experiment,15,↓,down,↓,0.6918959999457002,True,18
64K20,413,experiment,47,←,left,←,0.5534386000363156,True,18
64K20,414,experiment,58,←,left,←,0.748473500018008,True,18
64K20,415,experiment,19,↓,up,↑,0.48956819996237755,False,18
64K20,416,experiment,59,↓,down,↓,0.8309346000896767,True,18
64K20,417,experiment,46,↑,up,↑,0.6069653999293223,True,18
64K20,418,experiment,30,↓,down,↓,0.5549361000303179,True,18
64K20,419,experiment,14,←,left,←,0.6435526000568643,True,18
64K20,420,experiment,35,↓,down,↓,0.8108749999664724,True,18
64K20,421,experiment,45,↓,down,↓,0.6129045000998303,True,18
64K20,422,experiment,51,←,left,←,0.6188919000560418,True,18
64K20,423,experiment,32,↑,up,↑,0.8289152999641374,True,18
64K20,424,experiment,26,↓,down,↓,0.6749682000372559,True,18
64K20,425,experiment,52,→,right,→,0.6378619000315666,True,18
64K20,426,experiment,36,↑,up,↑,0.6762448999797925,True,18
64K20,427,experiment,23,↑,up,↑,0.570286100031808,True,18
64K20,428,experiment,56,←,left,←,0.71030629996676,True,18
64K20,429,experiment,25,→,right,→,0.5455595999956131,True,18
64K20,430,experiment,28,↓,down,↓,0.5860827000578865,True,18
64K20,431,experiment,29,↑,up,↑,0.6628794999560341,True,18
64K20,432,experiment,17,↑,up,↑,0.8737971999216825,True,18
64K20,433,experiment,49,←,left,←,0.8381990999914706,True,18
64K20,434,experiment,54,→,right,→,1.3448873999295756,True,18
64K20,435,experiment,48,↑,up,↑,0.6916781000327319,True,18
64K20,436,experiment,41,↓,down,↓,0.6689540999941528,True,18
64K20,437,experiment,21,↓,down,↓,0.6682125000515953,True,18
64K20,438,experiment,60,←,right,→,0.5135664000408724,False,18
64K20,439,experiment,53,↑,up,↑,0.7776274000061676,True,18
64K20,440,experiment,31,←,right,→,0.8142099999822676,False,18
64K20,441,training,33,→,right,→,0.5603225999511778,True,18
64K20,442,training,31,↑,up,↑,0.5657532999757677,True,18
64K20,443,experiment,30,↑,up,↑,0.5229085000464693,True,18
64K20,444,experiment,24,→,left,←,0.48612330004107207,False,18
64K20,445,experiment,56,→,right,→,0.8694057000102475,True,18
64K20,446,experiment,37,↑,up,↑,0.6662272000685334,True,18
64K20,447,experiment,32,↑,up,↑,0.570423600031063,True,18
64K20,448,experiment,21,↑,up,↑,0.5814883999992162,True,18
64K20,449,experiment,43,→,right,→,0.5215582000091672,True,18
64K20,450,experiment,29,↓,down,↓,0.6895478999940678,True,18
64K20,451,experiment,47,←,left,←,0.7588800999801606,True,18
64K20,452,experiment,45,←,left,←,0.5468721999786794,True,18
64K20,453,experiment,40,←,left,←,0.5628668999997899,True,18
64K20,454,experiment,42,←,left,←,0.5128924999153242,True,18
64K20,455,experiment,48,↓,down,↓,0.7808590999338776,True,18
64K20,456,experiment,58,→,right,→,0.6388495999854058,True,18
64K20,457,experiment,49,↓,down,↓,0.589144799974747,True,18
64K20,458,experiment,14,↑,up,↑,0.6602039999561384,True,18
64K20,459,experiment,52,→,right,→,0.7114124000072479,True,18
64K20,460,experiment,51,←,left,←,0.6894211999606341,True,18
64K20,461,experiment,38,←,no_key,no_letter,-1.0,False,18
64K20,462,experiment,46,→,right,→,0.6634612999623641,True,18
64K20,463,experiment,15,↑,no_key,no_letter,-1.0,False,18
64K20,464,experiment,31,→,right,→,0.6155397000256926,True,18
64K20,465,experiment,18,←,left,←,0.6507653000298887,True,18
64K20,466,experiment,50,↑,up,↑,0.7995216998970136,True,18
64K20,467,experiment,36,←,right,→,1.4953979999991134,False,18
64K20,468,experiment,60,←,left,←,0.5321100999135524,True,18
64K20,469,experiment,59,↓,down,↓,0.6713998999912292,True,18
64K20,470,experiment,41,↑,up,↑,0.5854103999445215,True,18
64K20,471,experiment,44,→,right,→,0.6128879000898451,True,18
64K20,472,experiment,53,→,right,→,0.6014838999835774,True,18
64K20,473,experiment,39,↓,down,↓,0.5435021999292076,True,18
64K20,474,experiment,16,→,down,↓,1.407415800029412,False,18
64K20,475,experiment,34,↓,down,↓,0.9772647999925539,True,18
64K20,476,experiment,27,←,right,→,0.5123488999670371,False,18
64K20,477,experiment,26,→,right,→,0.8588322999421507,True,18
64K20,478,experiment,17,↑,up,↑,0.9897448999108747,True,18
64K20,479,experiment,35,↓,down,↓,0.663310099975206,True,18
64K20,480,experiment,23,↑,up,↑,0.5968124000355601,True,18
64K20,481,experiment,22,→,no_key,no_letter,-1.0,False,18
64K20,482,experiment,55,↑,up,↑,0.5947725001024082,True,18
64K20,483,experiment,54,↓,up,↑,0.6633256999775767,False,18
64K20,484,experiment,57,↓,down,↓,0.6313974999357015,True,18
64K20,485,experiment,28,↑,up,↑,0.47534560004714876,True,18
64K20,486,experiment,19,↓,down,↓,0.5396061000647023,True,18
64K20,487,experiment,20,←,left,←,0.5613649999722838,True,18
64K20,488,experiment,25,↑,up,↑,0.610468800063245,True,18
64K20,489,experiment,33,→,right,→,0.6122839999152347,True,18
64K20,490,experiment,13,←,left,←,0.603491900023073,True,18
64K20,491,training,39,↑,up,↑,1.3466726000187919,True,18
64K20,492,training,19,↓,down,↓,0.5760349000338465,True,18
64K20,493,experiment,57,←,right,→,0.4994334999937564,False,18
64K20,494,experiment,44,↑,up,↑,0.4338363000424579,True,18
64K20,495,experiment,47,↑,up,↑,0.5367165000643581,True,18
64K20,496,experiment,31,↓,down,↓,0.6946937999455258,True,18
64K20,497,experiment,42,←,left,←,0.4720029999734834,True,18
64K20,498,experiment,27,↑,up,↑,0.49824099999386817,True,18
64K20,499,experiment,59,↑,up,↑,0.471536900033243,True,18
64K20,500,experiment,15,↑,up,↑,0.5133074000477791,True,18
64K20,501,experiment,56,→,right,→,0.6873486000113189,True,18
64K20,502,experiment,58,→,left,←,0.5492933000205085,False,18
64K20,503,experiment,28,↓,down,↓,0.8288878999883309,True,18
64K20,504,experiment,17,←,left,←,0.9286555000580847,True,18
64K20,505,experiment,36,↑,up,↑,0.5000428999774158,True,18
64K20,506,experiment,50,←,right,→,0.5346586999949068,False,18
64K20,507,experiment,32,↓,down,↓,0.8521267999894917,True,18
64K20,508,experiment,23,↓,down,↓,0.8187185999704525,True,18
64K20,509,experiment,34,←,left,←,0.707259300048463,True,18
64K20,510,experiment,55,→,right,→,0.8425901000155136,True,18
64K20,511,experiment,26,↓,down,↓,0.6879329999210313,True,18
64K20,512,experiment,22,↑,up,↑,0.662160100066103,True,18
64K20,513,experiment,60,←,right,→,0.8041920999530703,False,18
64K20,514,experiment,53,←,left,←,1.016607999918051,True,18
64K20,515,experiment,37,↓,down,↓,0.6472677000565454,True,18
64K20,516,experiment,40,→,right,→,0.49852839997038245,True,18
64K20,517,experiment,51,↑,up,↑,0.5885799000971019,True,18
64K20,518,experiment,25,→,right,→,0.4687908000778407,True,18
64K20,519,experiment,46,↓,down,↓,0.6905792000470683,True,18
64K20,520,experiment,21,→,right,→,0.617314700037241,True,18
64K20,521,experiment,49,←,left,←,0.5919450999936089,True,18
64K20,522,experiment,43,→,right,→,0.5799477000255138,True,18
64K20,523,experiment,33,→,right,→,0.6313363999361172,True,18
64K20,524,experiment,24,↑,up,↑,0.5018664000090212,True,18
64K20,525,experiment,19,→,right,→,0.5171808000886813,True,18
64K20,526,experiment,52,↑,up,↑,0.5021632000571117,True,18
64K20,527,experiment,38,→,right,→,0.4173598000779748,True,18
64K20,528,experiment,39,←,left,←,0.597350399941206,True,18
64K20,529,experiment,13,→,left,←,0.7886304000858217,False,18
64K20,530,experiment,41,→,right,→,1.8499094999860972,True,18
64K20,531,experiment,54,↑,up,↑,0.4999750000424683,True,18
64K20,532,experiment,14,→,right,→,0.5111482000211254,True,18
64K20,533,experiment,45,←,left,←,0.6365576999960467,True,18
64K20,534,experiment,35,↑,up,↑,0.6039590999716893,True,18
64K20,535,experiment,30,←,left,←,0.5279245999408886,True,18
64K20,536,experiment,29,↓,down,↓,0.5119152999250218,True,18
64K20,537,experiment,16,↓,up,↑,0.8171787000028417,False,18
64K20,538,experiment,20,↑,up,↑,0.5649339000228792,True,18
64K20,539,experiment,48,←,left,←,0.4692240000003949,True,18
64K20,540,experiment,18,←,left,←,0.7091511000180617,True,18
64K20,541,training,58,→,up,↑,1.8940658000065014,False,18
64K20,542,training,37,→,right,→,0.721975399996154,True,18
64K20,543,experiment,58,→,right,→,0.43401229998562485,True,18
64K20,544,experiment,56,↓,down,↓,0.6712500000139698,True,18
64K20,545,experiment,13,↑,up,↑,0.5720090999966487,True,18
64K20,546,experiment,48,↑,up,↑,0.4851731000235304,True,18
64K20,547,experiment,55,↓,no_key,no_letter,-1.0,False,18
64K20,548,experiment,43,↓,down,↓,0.8018921000184491,True,18
64K20,549,experiment,54,←,left,←,0.4703709000023082,True,18
64K20,550,experiment,40,↑,no_key,no_letter,-1.0,False,18
64K20,551,experiment,14,↓,down,↓,0.6962001000065356,True,18
64K20,552,experiment,23,→,right,→,0.6211790000088513,True,18
64K20,553,experiment,60,↑,up,↑,0.604665599996224,True,18
64K20,554,experiment,19,↑,down,↓,0.5518422999884933,False,18
64K20,555,experiment,25,↓,up,↑,0.5450835999799892,False,18
64K20,556,experiment,18,←,left,←,0.760095699923113,True,18
64K20,557,experiment,34,↑,up,↑,0.5297745000571012,True,18
64K20,558,experiment,26,↓,down,↓,0.5631902000168338,True,18
64K20,559,experiment,51,↓,down,↓,0.539155300008133,True,18
64K20,560,experiment,35,←,left,←,0.6465341999428347,True,18
64K20,561,experiment,59,↑,up,↑,0.5813397999154404,True,18
64K20,562,experiment,46,→,right,→,0.6071744000073522,True,18
64K20,563,experiment,30,↑,up,↑,0.4831918999552727,True,18
64K20,564,experiment,44,→,right,→,0.578508900012821,True,18
64K20,565,experiment,50,→,right,→,0.6424434999935329,True,18
64K20,566,experiment,38,←,left,←,0.5197859000181779,True,18
64K20,567,experiment,42,→,right,→,0.6152303999988362,True,18
64K20,568,experiment,41,↓,left,←,0.8431370999896899,False,18
64K20,569,experiment,15,←,left,←,0.6158107999945059,True,18
64K20,570,experiment,36,↓,up,↑,1.1430812999606133,False,18
64K20,571,experiment,39,↑,up,↑,0.6239086000714451,True,18
64K20,572,experiment,28,↓,down,↓,0.7245690999552608,True,18
64K20,573,experiment,27,↓,down,↓,0.5897889999905601,True,18
64K20,574,experiment,57,←,left,←,0.9686221999581903,True,18
64K20,575,experiment,49,←,left,←,0.5693975000176579,True,18
64K20,576,experiment,31,←,no_key,no_letter,-1.0,False,18
64K20,577,experiment,32,↓,up,↑,0.8898049000417814,False,18
64K20,578,experiment,20,↓,down,↓,0.609114499995485,True,18
64K20,579,experiment,37,↓,down,↓,0.5204835999757051,True,18
64K20,580,experiment,52,←,left,←,0.5051751000573859,True,18
64K20,581,experiment,29,↓,down,↓,0.5378571000183001,True,18
64K20,582,experiment,16,↓,down,↓,0.5459877999965101,True,18
64K20,583,experiment,53,↓,down,↓,0.6814006998902187,True,18
64K20,584,experiment,17,↓,down,↓,0.5865005999803543,True,18
64K20,585,experiment,33,←,left,←,0.5253272000700235,True,18
64K20,586,experiment,21,←,right,→,0.4824769999831915,False,18
64K20,587,experiment,22,→,no_key,no_letter,-1.0,False,18
64K20,588,experiment,24,←,left,←,1.2737656000535935,True,18
64K20,589,experiment,47,↓,down,↓,0.6078098999569193,True,18
64K20,590,experiment,45,↓,down,↓,0.6099719000048935,True,18
