PART_ID,Trial_no,Trial_type,CSI,Stim_letter,Key_pressed,letter_choose,Rt,Corr,Stimulus Time
71K27,1,training,60,↑,no_key,no_letter,-1.0,False,30
71K27,2,training,60,←,left,←,0.9684909000061452,True,30
71K27,3,training,60,→,right,→,0.8991290999110788,True,30
71K27,4,training,60,↓,down,↓,0.87980019999668,True,30
71K27,5,training,60,←,left,←,1.1096818000078201,True,30
71K27,6,training,60,↑,up,↑,0.8499376999679953,True,30
71K27,7,training,60,↑,up,↑,0.7292143001686782,True,30
71K27,8,training,60,→,right,→,0.6847051000222564,True,30
71K27,9,training,60,↓,down,↓,0.8104103000368923,True,30
71K27,10,training,60,←,left,←,0.7465182000305504,True,30
71K27,11,training,60,←,left,←,0.5827304001431912,True,30
71K27,12,training,60,←,left,←,0.5164723000489175,True,30
71K27,13,training,60,→,right,→,0.7541682999581099,True,30
71K27,14,training,60,←,left,←,0.7409629998728633,True,30
71K27,15,training,60,→,right,→,0.5669822001364082,True,30
71K27,16,training,60,←,no_key,no_letter,-1.0,False,30
71K27,17,training,60,↓,down,↓,1.0850821000058204,True,30
71K27,18,training,60,→,right,→,0.6332841999828815,True,30
71K27,19,training,60,→,right,→,0.9539310000836849,True,30
71K27,20,training,60,↓,down,↓,0.9813224000390619,True,30
71K27,21,training,60,↓,down,↓,0.7057667998597026,True,18
71K27,22,training,60,↑,up,↑,0.8627183001954108,True,18
71K27,23,training,60,→,right,→,0.7495055999606848,True,18
71K27,24,training,60,←,left,←,0.8162976999301463,True,18
71K27,25,training,60,←,left,←,0.7043377999216318,True,18
71K27,26,training,60,→,right,→,0.7573922998271883,True,18
71K27,27,training,60,↓,down,↓,0.7205721999052912,True,18
71K27,28,training,60,↓,down,↓,0.7886289998423308,True,18
71K27,29,training,60,←,right,→,1.3825103000272065,False,18
71K27,30,training,60,↑,up,↑,0.6724521000869572,True,18
71K27,31,training,60,→,right,→,0.7586200998630375,True,18
71K27,32,training,60,↑,up,↑,1.0334002999588847,True,18
71K27,33,training,60,←,left,←,0.6571913999505341,True,18
71K27,34,training,60,↓,up,↑,1.040042599895969,False,18
71K27,35,training,60,→,right,→,0.7758773001842201,True,18
71K27,36,training,60,↑,up,↑,0.7621839998755604,True,18
71K27,37,training,60,↓,down,↓,0.9567503000143915,True,18
71K27,38,training,60,↓,down,↓,0.7035455000586808,True,18
71K27,39,training,60,↑,up,↑,0.7486922000534832,True,18
71K27,40,training,60,→,right,→,0.6637204000726342,True,18
71K27,41,training,32,↑,up,↑,0.7423700999934226,True,18
71K27,42,training,38,→,right,→,0.9047970999963582,True,18
71K27,43,experiment,45,→,right,→,0.6237279002089053,True,18
71K27,44,experiment,57,↑,up,↑,1.242020099889487,True,18
71K27,45,experiment,30,→,right,→,0.6779304998926818,True,18
71K27,46,experiment,19,↑,up,↑,0.7432864001020789,True,18
71K27,47,experiment,18,↑,up,↑,0.6230542999692261,True,18
71K27,48,experiment,44,←,left,←,0.6899194000288844,True,18
71K27,49,experiment,48,↓,down,↓,0.8712857998907566,True,18
71K27,50,experiment,43,←,right,→,0.8813936999067664,False,18
71K27,51,experiment,13,↓,up,↑,1.0220123999752104,False,18
71K27,52,experiment,51,↓,down,↓,0.6765416001435369,True,18
71K27,53,experiment,50,↑,right,→,1.1135096999350935,False,18
71K27,54,experiment,24,↓,down,↓,0.8298569000326097,True,18
71K27,55,experiment,56,→,right,→,0.7044114000163972,True,18
71K27,56,experiment,52,→,right,→,0.6827134999912232,True,18
71K27,57,experiment,25,↑,right,→,1.6715569000225514,False,18
71K27,58,experiment,32,↓,down,↓,0.6809465000405908,True,18
71K27,59,experiment,15,←,left,←,0.796547899954021,True,18
71K27,60,experiment,21,↑,up,↑,0.7591738000046462,True,18
71K27,61,experiment,28,←,left,←,1.232010900042951,True,18
71K27,62,experiment,55,↑,up,↑,0.7467008999083191,True,18
71K27,63,experiment,17,←,left,←,0.8345002999994904,True,18
71K27,64,experiment,33,↓,up,↑,1.155985200079158,False,18
71K27,65,experiment,37,←,left,←,0.75836839992553,True,18
71K27,66,experiment,29,↑,up,↑,0.8061708998866379,True,18
71K27,67,experiment,39,↑,up,↑,0.7330631001386791,True,18
71K27,68,experiment,58,↓,down,↓,0.6586742999497801,True,18
71K27,69,experiment,20,→,down,↓,0.8916384999174625,False,18
71K27,70,experiment,42,→,right,→,0.6934944000095129,True,18
71K27,71,experiment,41,↓,down,↓,0.8234300999902189,True,18
71K27,72,experiment,26,←,down,↓,0.9902353000361472,False,18
71K27,73,experiment,34,→,right,→,0.5853744000196457,True,18
71K27,74,experiment,40,→,right,→,0.720325700007379,True,18
71K27,75,experiment,47,→,right,→,0.7415537000633776,True,18
71K27,76,experiment,53,↑,down,↓,0.862039300147444,False,18
71K27,77,experiment,59,→,right,→,0.5578554000239819,True,18
71K27,78,experiment,14,→,right,→,0.9029267001897097,True,18
71K27,79,experiment,16,→,right,→,0.6251095999032259,True,18
71K27,80,experiment,27,←,left,←,0.8314703998621553,True,18
71K27,81,experiment,54,→,right,→,0.7474472001194954,True,18
71K27,82,experiment,23,↓,down,↓,0.8629403000231832,True,18
71K27,83,experiment,31,←,down,↓,0.8562260998878628,False,18
71K27,84,experiment,22,→,right,→,0.7523562998976558,True,18
71K27,85,experiment,36,→,right,→,0.5636045001447201,True,18
71K27,86,experiment,38,↑,up,↑,1.0682052001357079,True,18
71K27,87,experiment,49,↓,down,↓,1.2502951000351459,True,18
71K27,88,experiment,46,→,right,→,0.6508887999225408,True,18
71K27,89,experiment,35,←,right,→,0.9145901999436319,False,18
71K27,90,experiment,60,←,right,→,0.8631027999799699,False,18
71K27,91,training,19,→,right,→,0.6985132999252528,True,18
71K27,92,training,23,←,right,→,1.1998346999753267,False,18
71K27,93,experiment,59,↓,down,↓,0.7140029999427497,True,18
71K27,94,experiment,50,→,left,←,1.2134260998573154,False,18
71K27,95,experiment,35,→,right,→,0.6787341998424381,True,18
71K27,96,experiment,32,↑,down,↓,0.8237956000957638,False,18
71K27,97,experiment,21,↓,down,↓,0.8257645000703633,True,18
71K27,98,experiment,42,→,right,→,0.7422640998847783,True,18
71K27,99,experiment,53,←,left,←,0.6785528999753296,True,18
71K27,100,experiment,30,↓,down,↓,0.8087164000608027,True,18
71K27,101,experiment,44,↑,left,←,0.9886886000167578,False,18
71K27,102,experiment,16,→,left,←,0.8755658001173288,False,18
71K27,103,experiment,51,↑,up,↑,0.9439997000154108,True,18
71K27,104,experiment,58,↑,up,↑,0.8132931999862194,True,18
71K27,105,experiment,56,↓,down,↓,0.8083558999933302,True,18
71K27,106,experiment,26,←,left,←,1.3756733001209795,True,18
71K27,107,experiment,31,←,right,→,0.8614986999891698,False,18
71K27,108,experiment,36,↓,down,↓,0.8525537999812514,True,18
71K27,109,experiment,34,↓,down,↓,0.901090000057593,True,18
71K27,110,experiment,46,↓,down,↓,0.6592757999897003,True,18
71K27,111,experiment,14,↓,down,↓,0.7212792001664639,True,18
71K27,112,experiment,37,←,left,←,1.012568400008604,True,18
71K27,113,experiment,15,→,down,↓,1.1868543999735266,False,18
71K27,114,experiment,28,←,down,↓,0.7218370998743922,False,18
71K27,115,experiment,52,←,down,↓,0.9953177999705076,False,18
71K27,116,experiment,39,↑,left,←,0.9871321998070925,False,18
71K27,117,experiment,29,←,left,←,0.7774833000730723,True,18
71K27,118,experiment,49,→,left,←,0.7631745999678969,False,18
71K27,119,experiment,24,←,left,←,0.83737439988181,True,18
71K27,120,experiment,38,↑,up,↑,1.2998291000258178,True,18
71K27,121,experiment,33,↓,up,↑,1.098923800047487,False,18
71K27,122,experiment,41,←,up,↑,1.252788000041619,False,18
71K27,123,experiment,23,↓,down,↓,0.9965601998846978,True,18
71K27,124,experiment,17,↓,left,←,1.2348180999979377,False,18
71K27,125,experiment,55,←,left,←,0.6540995999239385,True,18
71K27,126,experiment,54,↓,right,→,1.2812208000104874,False,18
71K27,127,experiment,25,↑,down,↓,0.9182887000497431,False,18
71K27,128,experiment,60,↓,down,↓,0.691037500044331,True,18
71K27,129,experiment,45,↑,up,↑,1.0585373002104461,True,18
71K27,130,experiment,40,↓,up,↑,0.8391624998766929,False,18
71K27,131,experiment,13,→,up,↑,0.9658019999042153,False,18
71K27,132,experiment,22,↓,left,←,1.4573458000086248,False,18
71K27,133,experiment,48,←,up,↑,0.9846802998799831,False,18
71K27,134,experiment,57,→,up,↑,1.7089024998713285,False,18
71K27,135,experiment,19,→,right,→,0.9172925997991115,True,18
71K27,136,experiment,47,↓,down,↓,0.9625514999497682,True,18
71K27,137,experiment,43,→,up,↑,1.27260939986445,False,18
71K27,138,experiment,20,←,up,↑,0.8175143001135439,False,18
71K27,139,experiment,27,↑,up,↑,0.8154114000499249,True,18
71K27,140,experiment,18,←,left,←,0.7237926998641342,True,18
71K27,141,training,48,↑,right,→,1.4690823999699205,False,19
71K27,142,training,45,↑,up,↑,0.7577261999249458,True,19
71K27,143,experiment,43,↑,up,↑,0.7321687000803649,True,19
71K27,144,experiment,13,←,left,←,0.8466405000071973,True,19
71K27,145,experiment,19,←,right,→,0.9695367000531405,False,19
71K27,146,experiment,48,↓,down,↓,0.9558311998844147,True,19
71K27,147,experiment,41,→,right,→,1.3474771999754012,True,19
71K27,148,experiment,28,↓,up,↑,1.0040853000245988,False,19
71K27,149,experiment,24,↓,down,↓,1.3890700000338256,True,19
71K27,150,experiment,14,↑,up,↑,1.2616822000127286,True,19
71K27,151,experiment,52,↑,up,↑,1.1141540999524295,True,19
71K27,152,experiment,42,↓,down,↓,0.8268548999913037,True,19
71K27,153,experiment,50,→,left,←,1.185978699941188,False,19
71K27,154,experiment,56,↑,up,↑,0.6944129001349211,True,19
71K27,155,experiment,16,↑,up,↑,1.465360000031069,True,19
71K27,156,experiment,33,↓,down,↓,0.7377293000463396,True,19
71K27,157,experiment,20,→,right,→,0.695803799899295,True,19
71K27,158,experiment,25,↑,right,→,0.9320382999721915,False,19
71K27,159,experiment,55,↑,up,↑,0.6354714999906719,True,19
71K27,160,experiment,22,↑,down,↓,1.1082725001033396,False,19
71K27,161,experiment,21,↑,up,↑,0.6911435998044908,True,19
71K27,162,experiment,32,↓,down,↓,0.787484799977392,True,19
71K27,163,experiment,47,↑,up,↑,0.6618038001470268,True,19
71K27,164,experiment,36,↓,down,↓,0.6687337998300791,True,19
71K27,165,experiment,39,←,right,→,1.0489044000860304,False,19
71K27,166,experiment,54,←,left,←,0.6760404999367893,True,19
71K27,167,experiment,27,↓,down,↓,0.7921553999185562,True,19
71K27,168,experiment,53,↑,right,→,1.0066319000907242,False,19
71K27,169,experiment,34,↑,down,↓,1.0012117999140173,False,19
71K27,170,experiment,60,←,left,←,0.7222383001353592,True,19
71K27,171,experiment,37,↑,up,↑,0.805843000067398,True,19
71K27,172,experiment,30,←,left,←,0.7070674998685718,True,19
71K27,173,experiment,57,←,left,←,1.009913899935782,True,19
71K27,174,experiment,29,↓,up,↑,1.0558494001161307,False,19
71K27,175,experiment,31,←,left,←,0.8659276999533176,True,19
71K27,176,experiment,15,←,left,←,0.6460688000079244,True,19
71K27,177,experiment,35,↓,right,→,1.3016580999828875,False,19
71K27,178,experiment,44,←,left,←,0.6055698001291603,True,19
71K27,179,experiment,38,→,left,←,0.8610901001375169,False,19
71K27,180,experiment,58,↑,up,↑,0.9019885999150574,True,19
71K27,181,experiment,40,→,down,↓,1.3120263000018895,False,19
71K27,182,experiment,23,↓,down,↓,0.86116460012272,True,19
71K27,183,experiment,51,←,left,←,0.6905036000534892,True,19
71K27,184,experiment,45,↑,up,↑,0.6182450000196695,True,19
71K27,185,experiment,59,→,right,→,1.0761172999627888,True,19
71K27,186,experiment,17,↑,up,↑,0.6782125998288393,True,19
71K27,187,experiment,26,↑,up,↑,0.8028881000354886,True,19
71K27,188,experiment,46,↓,down,↓,0.9814806999638677,True,19
71K27,189,experiment,49,←,left,←,0.6064020001795143,True,19
71K27,190,experiment,18,↓,right,→,1.0830189001280814,False,19
71K27,191,training,20,↑,up,↑,0.9016965001355857,True,19
71K27,192,training,26,←,left,←,0.6971481000073254,True,19
71K27,193,experiment,21,←,left,←,0.7758094000164419,True,19
71K27,194,experiment,36,↑,up,↑,0.738177599851042,True,19
71K27,195,experiment,48,↓,down,↓,0.7258045000489801,True,19
71K27,196,experiment,33,←,left,←,0.6763026998378336,True,19
71K27,197,experiment,43,↓,down,↓,0.6778950998559594,True,19
71K27,198,experiment,46,←,left,←,0.7574225999414921,True,19
71K27,199,experiment,60,↑,left,←,0.928830600110814,False,19
71K27,200,experiment,57,↓,down,↓,0.8793506999500096,True,19
71K27,201,experiment,53,←,left,←,0.6978103001601994,True,19
71K27,202,experiment,32,→,right,→,0.7291069000493735,True,19
71K27,203,experiment,15,→,right,→,0.6431866001803428,True,19
71K27,204,experiment,51,↓,down,↓,1.0329438999760896,True,19
71K27,205,experiment,16,←,left,←,0.702082899864763,True,19
71K27,206,experiment,54,→,right,→,1.2071692000608891,True,19
71K27,207,experiment,30,←,left,←,0.6600172999314964,True,19
71K27,208,experiment,31,↑,up,↑,1.1024860998149961,True,19
71K27,209,experiment,29,↑,up,↑,0.9999774000607431,True,19
71K27,210,experiment,44,↑,up,↑,1.035900899907574,True,19
71K27,211,experiment,59,←,left,←,0.5642942998092622,True,19
71K27,212,experiment,39,←,left,←,0.9805292999371886,True,19
71K27,213,experiment,28,→,right,→,0.6117857000790536,True,19
71K27,214,experiment,47,↓,down,↓,0.6774230999872088,True,19
71K27,215,experiment,56,←,left,←,0.9343956999946386,True,19
71K27,216,experiment,55,↑,down,↓,0.8213468000758439,False,19
71K27,217,experiment,13,→,right,→,0.636858900077641,True,19
71K27,218,experiment,37,→,right,→,0.5399719001725316,True,19
71K27,219,experiment,24,→,right,→,0.7754810999613255,True,19
71K27,220,experiment,52,←,left,←,0.5513061999808997,True,19
71K27,221,experiment,35,↑,down,↓,1.290757599985227,False,19
71K27,222,experiment,58,←,left,←,0.746046100044623,True,19
71K27,223,experiment,14,↑,left,←,1.411212099948898,False,19
71K27,224,experiment,41,→,right,→,0.697536300169304,True,19
71K27,225,experiment,20,↑,up,↑,0.7526903999969363,True,19
71K27,226,experiment,23,↓,down,↓,1.356212600134313,True,19
71K27,227,experiment,22,↓,down,↓,1.0009145999792963,True,19
71K27,228,experiment,17,↑,up,↑,1.1502261999994516,True,19
71K27,229,experiment,18,→,right,→,1.021245000185445,True,19
71K27,230,experiment,50,→,right,→,0.9246729000005871,True,19
71K27,231,experiment,25,←,right,→,0.9361246998887509,False,19
71K27,232,experiment,49,←,left,←,0.8191257999278605,True,19
71K27,233,experiment,40,↑,right,→,0.9692339000757784,False,19
71K27,234,experiment,27,→,right,→,0.8411650999914855,True,19
71K27,235,experiment,38,←,left,←,0.5596871001180261,True,19
71K27,236,experiment,45,←,left,←,0.5084857000038028,True,19
71K27,237,experiment,26,↓,down,↓,1.1519616998266429,True,19
71K27,238,experiment,34,↓,down,↓,0.7964032001327723,True,19
71K27,239,experiment,42,→,right,→,0.665452899876982,True,19
71K27,240,experiment,19,↑,down,↓,1.0110621000640094,False,19
71K27,241,training,25,→,left,←,1.0142884000670165,False,19
71K27,242,training,19,←,left,←,0.5297433000523597,True,19
71K27,243,experiment,17,←,left,←,0.9543560999445617,True,19
71K27,244,experiment,16,↑,up,↑,0.8666783000808209,True,19
71K27,245,experiment,24,→,right,→,0.7370334998704493,True,19
71K27,246,experiment,36,↓,down,↓,0.7084402998443693,True,19
71K27,247,experiment,54,↑,up,↑,0.805764100048691,True,19
71K27,248,experiment,47,←,left,←,0.7274581000674516,True,19
71K27,249,experiment,15,→,right,→,0.6812996999360621,True,19
71K27,250,experiment,29,↓,down,↓,0.8917406001128256,True,19
71K27,251,experiment,21,↑,up,↑,0.6991018999833614,True,19
71K27,252,experiment,28,↑,left,←,1.2372524999082088,False,19
71K27,253,experiment,39,←,left,←,0.4992852001450956,True,19
71K27,254,experiment,38,→,right,→,0.6465132001321763,True,19
71K27,255,experiment,25,←,left,←,0.7411277999635786,True,19
71K27,256,experiment,30,←,right,→,1.5563475999515504,False,19
71K27,257,experiment,33,↑,up,↑,0.7296734000556171,True,19
71K27,258,experiment,50,↑,up,↑,0.8767327999230474,True,19
71K27,259,experiment,14,→,right,→,0.7378768001217395,True,19
71K27,260,experiment,26,←,left,←,0.6917262000497431,True,19
71K27,261,experiment,56,↑,down,↓,0.9721564999781549,False,19
71K27,262,experiment,13,←,left,←,0.7496325999964029,True,19
71K27,263,experiment,43,↑,up,↑,0.9320060000754893,True,19
71K27,264,experiment,48,→,right,→,0.5757971000857651,True,19
71K27,265,experiment,57,←,left,←,0.6121821000706404,True,19
71K27,266,experiment,52,←,left,←,0.5387017000466585,True,19
71K27,267,experiment,44,↓,down,↓,0.9128619998227805,True,19
71K27,268,experiment,46,↓,down,↓,0.743353100027889,True,19
71K27,269,experiment,23,↓,down,↓,0.7875687000341713,True,19
71K27,270,experiment,35,←,left,←,0.5096138000953943,True,19
71K27,271,experiment,41,↓,down,↓,0.6713441000320017,True,19
71K27,272,experiment,34,→,right,→,0.5827497001737356,True,19
71K27,273,experiment,45,→,right,→,0.706317099975422,True,19
71K27,274,experiment,42,↑,down,↓,0.8835945001337677,False,19
71K27,275,experiment,55,←,left,←,0.8285688001196831,True,19
71K27,276,experiment,49,↓,down,↓,0.7724103000946343,True,19
71K27,277,experiment,60,→,right,→,0.5589874000288546,True,19
71K27,278,experiment,31,←,left,←,0.556891200132668,True,19
71K27,279,experiment,20,→,right,→,0.6262256000190973,True,19
71K27,280,experiment,58,→,right,→,0.7479401000309736,True,19
71K27,281,experiment,51,→,right,→,0.6450104999821633,True,19
71K27,282,experiment,27,→,right,→,0.7304877999704331,True,19
71K27,283,experiment,22,↑,right,→,1.7353982999920845,False,19
71K27,284,experiment,19,→,right,→,0.5987861000467092,True,19
71K27,285,experiment,40,↑,up,↑,0.7570313001051545,True,19
71K27,286,experiment,59,↓,up,↑,0.9292880001012236,False,19
71K27,287,experiment,53,↑,down,↓,1.8819162000436336,False,19
71K27,288,experiment,37,←,left,←,0.6954364001285285,True,19
71K27,289,experiment,32,→,right,→,0.6555144998710603,True,19
71K27,290,experiment,18,↓,down,↓,0.7944094999693334,True,19
71K27,291,training,45,↑,left,←,0.6885581000242382,False,19
71K27,292,training,51,↑,left,←,1.1721890999469906,False,19
71K27,293,experiment,47,↑,up,↑,0.8955211001448333,True,19
71K27,294,experiment,42,↑,up,↑,0.7531325002200902,True,19
71K27,295,experiment,17,→,right,→,0.5207529000472277,True,19
71K27,296,experiment,37,←,right,→,0.8203245000913739,False,19
71K27,297,experiment,50,←,left,←,0.7472490000072867,True,19
71K27,298,experiment,58,↑,up,↑,0.7515500001609325,True,19
71K27,299,experiment,29,←,left,←,0.6792301000095904,True,19
71K27,300,experiment,40,↓,down,↓,0.7784100000280887,True,19
71K27,301,experiment,14,←,left,←,0.7391862999647856,True,19
71K27,302,experiment,27,↓,down,↓,0.780740600079298,True,19
71K27,303,experiment,44,→,right,→,0.5368374001700431,True,19
71K27,304,experiment,55,↓,down,↓,0.6079371999949217,True,19
71K27,305,experiment,21,↓,down,↓,0.7465945000294596,True,19
71K27,306,experiment,53,←,left,←,0.7144694998860359,True,19
71K27,307,experiment,45,→,left,←,0.7207638998515904,False,19
71K27,308,experiment,46,←,left,←,0.5825255999807268,True,19
71K27,309,experiment,22,←,left,←,0.8653673999942839,True,19
71K27,310,experiment,57,↓,down,↓,0.7615928000304848,True,19
71K27,311,experiment,23,←,left,←,1.0055382000282407,True,19
71K27,312,experiment,20,→,right,→,0.8967152000404894,True,19
71K27,313,experiment,26,↑,down,↓,1.2203232999891043,False,19
71K27,314,experiment,54,←,left,←,0.5613531998824328,True,19
71K27,315,experiment,56,→,right,→,0.5670046999584883,True,19
71K27,316,experiment,16,←,left,←,0.5820778000634164,True,19
71K27,317,experiment,31,←,left,←,0.5468194999266416,True,19
71K27,318,experiment,41,↑,right,→,0.7865044001955539,False,19
71K27,319,experiment,33,↓,down,↓,0.9183972999453545,True,19
71K27,320,experiment,49,↑,up,↑,0.8340725998859853,True,19
71K27,321,experiment,36,↓,down,↓,0.6894402999896556,True,19
71K27,322,experiment,32,↑,up,↑,0.7219512001611292,True,19
71K27,323,experiment,13,↑,up,↑,0.6453269000630826,True,19
71K27,324,experiment,38,→,right,→,0.5953330998308957,True,19
71K27,325,experiment,60,↑,up,↑,0.5413643000647426,True,19
71K27,326,experiment,25,↑,down,↓,0.8478224000427872,False,19
71K27,327,experiment,24,→,right,→,0.6309853000566363,True,19
71K27,328,experiment,34,↓,left,←,0.7355396000202745,False,19
71K27,329,experiment,39,→,right,→,0.7136051000561565,True,19
71K27,330,experiment,18,→,right,→,0.7063771998509765,True,19
71K27,331,experiment,15,→,right,→,0.7331046999897808,True,19
71K27,332,experiment,43,↓,down,↓,0.7717653000727296,True,19
71K27,333,experiment,28,↓,down,↓,0.9954111000988632,True,19
71K27,334,experiment,35,→,right,→,0.5577079998329282,True,19
71K27,335,experiment,52,→,right,→,0.49403780000284314,True,19
71K27,336,experiment,19,→,right,→,1.158045700052753,True,19
71K27,337,experiment,48,↓,down,↓,1.0732442999724299,True,19
71K27,338,experiment,51,↑,down,↓,0.9258767999708652,False,19
71K27,339,experiment,30,←,right,→,1.0142063000239432,False,19
71K27,340,experiment,59,↑,up,↑,0.7834467000793666,True,19
71K27,341,training,31,↑,up,↑,0.5999142001383007,True,19
71K27,342,training,57,↓,down,↓,0.8668827000074089,True,19
71K27,343,experiment,19,↓,down,↓,0.8444255001377314,True,19
71K27,344,experiment,50,←,left,←,0.5867055000271648,True,19
71K27,345,experiment,44,↓,down,↓,0.7909677000716329,True,19
71K27,346,experiment,59,↓,down,↓,1.073480100138113,True,19
71K27,347,experiment,60,↑,up,↑,0.7122555999085307,True,19
71K27,348,experiment,36,↑,up,↑,0.6532691000029445,True,19
71K27,349,experiment,24,↓,right,→,1.2677414000499994,False,19
71K27,350,experiment,17,↑,up,↑,0.671200199984014,True,19
71K27,351,experiment,27,←,left,←,0.7392229998949915,True,19
71K27,352,experiment,37,↓,down,↓,1.3740004999563098,True,19
71K27,353,experiment,32,↑,down,↓,1.0273736000526696,False,19
71K27,354,experiment,41,→,right,→,0.6802707000169903,True,19
71K27,355,experiment,23,↓,down,↓,0.99876350001432,True,19
71K27,356,experiment,13,→,right,→,0.7747279000468552,True,19
71K27,357,experiment,58,↓,down,↓,0.5547448999714106,True,19
71K27,358,experiment,21,←,left,←,0.8392423000186682,True,19
71K27,359,experiment,57,↓,down,↓,0.6891014999710023,True,19
71K27,360,experiment,39,→,right,→,0.5567207999993116,True,19
71K27,361,experiment,28,↑,down,↓,1.0289297997951508,False,19
71K27,362,experiment,48,↓,down,↓,0.8297853001859039,True,19
71K27,363,experiment,20,←,left,←,0.5993604001123458,True,19
71K27,364,experiment,22,↑,up,↑,0.8104558000341058,True,19
71K27,365,experiment,14,→,left,←,0.7209955998696387,False,19
71K27,366,experiment,51,↑,up,↑,0.6035018998663872,True,19
71K27,367,experiment,16,↓,down,↓,1.1219375000800937,True,19
71K27,368,experiment,15,↑,up,↑,0.6918191001750529,True,19
71K27,369,experiment,52,↑,left,←,0.449983200058341,False,19
71K27,370,experiment,42,←,left,←,0.5848778998479247,True,19
71K27,371,experiment,54,↑,up,↑,0.7508551001083106,True,19
71K27,372,experiment,40,↓,down,↓,0.8071033998858184,True,19
71K27,373,experiment,55,←,left,←,0.5797161001246423,True,19
71K27,374,experiment,49,↑,up,↑,0.5803336999379098,True,19
71K27,375,experiment,18,↓,down,↓,1.2496613000985235,True,19
71K27,376,experiment,35,↓,down,↓,0.7859837000723928,True,19
71K27,377,experiment,29,↑,down,↓,0.7600583999883384,False,19
71K27,378,experiment,30,→,right,→,0.8149421000853181,True,19
71K27,379,experiment,38,←,left,←,0.5578183999750763,True,19
71K27,380,experiment,47,→,right,→,0.5215272998902947,True,19
71K27,381,experiment,46,↑,up,↑,0.6311488000210375,True,19
71K27,382,experiment,25,←,left,←,0.7179062999784946,True,19
71K27,383,experiment,45,↑,up,↑,0.6922875000163913,True,19
71K27,384,experiment,43,→,right,→,0.5650873999111354,True,19
71K27,385,experiment,33,←,left,←,0.689478199928999,True,19
71K27,386,experiment,53,↑,up,↑,0.6439183000475168,True,19
71K27,387,experiment,31,↓,down,↓,1.1104627999011427,True,19
71K27,388,experiment,34,→,right,→,0.7168509000912309,True,19
71K27,389,experiment,26,→,right,→,0.5277196997776628,True,19
71K27,390,experiment,56,↓,down,↓,1.0309342998079956,True,19
71K27,391,training,48,↓,right,→,0.9560562998522073,False,19
71K27,392,training,55,↑,up,↑,0.6504556001164019,True,19
71K27,393,experiment,30,↓,down,↓,0.7413470998872072,True,19
71K27,394,experiment,23,↓,down,↓,0.8176164000760764,True,19
71K27,395,experiment,37,←,left,←,0.5929421000182629,True,19
71K27,396,experiment,57,→,right,→,0.5965600998606533,True,19
71K27,397,experiment,35,↑,up,↑,0.7581978000234812,True,19
71K27,398,experiment,38,→,right,→,0.6323538001161069,True,19
71K27,399,experiment,33,↑,down,↓,0.8013624998275191,False,19
71K27,400,experiment,56,→,left,←,0.7254127999767661,False,19
71K27,401,experiment,54,→,right,→,0.48631189996376634,True,19
71K27,402,experiment,27,↓,down,↓,0.7765348998364061,True,19
71K27,403,experiment,43,→,right,→,0.6619174000807106,True,19
71K27,404,experiment,31,←,right,→,0.6644075999502093,False,19
71K27,405,experiment,45,↓,down,↓,0.86499989987351,True,19
71K27,406,experiment,32,←,left,←,0.6738339001312852,True,19
71K27,407,experiment,50,→,right,→,0.542717200005427,True,19
71K27,408,experiment,14,↓,down,↓,0.9367810999974608,True,19
71K27,409,experiment,46,→,right,→,0.669529200065881,True,19
71K27,410,experiment,49,↓,down,↓,0.6832808998879045,True,19
71K27,411,experiment,58,↑,down,↓,0.770508199930191,False,19
71K27,412,experiment,17,↑,up,↑,0.9933160999789834,True,19
71K27,413,experiment,51,→,right,→,0.5616258000954986,True,19
71K27,414,experiment,47,↓,down,↓,0.6126572999637574,True,19
71K27,415,experiment,36,→,right,→,0.5569774999748915,True,19
71K27,416,experiment,20,↑,down,↓,1.3144704001024365,False,19
71K27,417,experiment,52,↑,down,↓,1.1007067000027746,False,19
71K27,418,experiment,15,←,left,←,0.5674010999500751,True,19
71K27,419,experiment,18,←,right,→,0.533267900114879,False,19
71K27,420,experiment,13,→,right,→,0.6159828000236303,True,19
71K27,421,experiment,25,←,left,←,0.5593451999593526,True,19
71K27,422,experiment,44,↑,left,←,0.5250383000820875,False,19
71K27,423,experiment,22,→,right,→,0.7226925999857485,True,19
71K27,424,experiment,34,→,right,→,0.8162310998886824,True,19
71K27,425,experiment,28,↓,up,↑,0.8776332999113947,False,19
71K27,426,experiment,42,↑,up,↑,0.6002060000319034,True,19
71K27,427,experiment,21,→,right,→,0.5547162001021206,True,19
71K27,428,experiment,40,→,right,→,0.7951891000848264,True,19
71K27,429,experiment,48,↑,up,↑,0.5650019999593496,True,19
71K27,430,experiment,26,↓,down,↓,0.7414020001888275,True,19
71K27,431,experiment,24,↓,right,→,0.7288627999369055,False,19
71K27,432,experiment,16,←,left,←,1.7626674000639468,True,19
71K27,433,experiment,39,↓,down,↓,0.883315300103277,True,19
71K27,434,experiment,55,→,right,→,0.5565911000594497,True,19
71K27,435,experiment,60,↓,right,→,1.1676898000296205,False,19
71K27,436,experiment,19,↓,right,→,0.7733155000023544,False,19
71K27,437,experiment,41,↓,down,↓,0.9562667000573128,True,19
71K27,438,experiment,53,←,right,→,0.5640447998885065,False,19
71K27,439,experiment,29,→,right,→,0.7226690000388771,True,19
71K27,440,experiment,59,↓,down,↓,0.663785699987784,True,19
71K27,441,training,34,→,right,→,0.6086071999743581,True,19
71K27,442,training,55,→,right,→,0.6529022001195699,True,19
71K27,443,experiment,44,↑,up,↑,0.8465551000554115,True,19
71K27,444,experiment,55,←,left,←,0.7693332999479026,True,19
71K27,445,experiment,60,←,left,←,0.8038418998476118,True,19
71K27,446,experiment,38,↑,up,↑,0.803428600076586,True,19
71K27,447,experiment,41,↓,down,↓,0.9131004998926073,True,19
71K27,448,experiment,50,↑,up,↑,0.5880055001471192,True,19
71K27,449,experiment,25,←,left,←,0.7326690000481904,True,19
71K27,450,experiment,33,↑,up,↑,0.6103648999705911,True,19
71K27,451,experiment,24,←,left,←,0.787409899989143,True,19
71K27,452,experiment,57,←,left,←,0.6950194998644292,True,19
71K27,453,experiment,29,←,left,←,1.537157799815759,True,19
71K27,454,experiment,45,←,left,←,1.0314575999509543,True,19
71K27,455,experiment,32,→,right,→,0.697862499859184,True,19
71K27,456,experiment,23,↑,up,↑,1.1432141999248415,True,19
71K27,457,experiment,42,↑,up,↑,0.6069503000471741,True,19
71K27,458,experiment,51,↑,up,↑,0.5102117001079023,True,19
71K27,459,experiment,40,→,right,→,0.9606292999815196,True,19
71K27,460,experiment,59,→,right,→,0.572106699924916,True,19
71K27,461,experiment,37,→,right,→,0.5256982001010329,True,19
71K27,462,experiment,15,↑,down,↓,1.127777700079605,False,19
71K27,463,experiment,31,↑,up,↑,0.8235565999057144,True,19
71K27,464,experiment,21,→,left,←,0.9296830000821501,False,19
71K27,465,experiment,19,←,left,←,0.7126516001299024,True,19
71K27,466,experiment,28,←,left,←,0.570821600034833,True,19
71K27,467,experiment,49,↓,up,↑,0.9003947000019252,False,19
71K27,468,experiment,39,↓,down,↓,0.7674591999966651,True,19
71K27,469,experiment,14,↓,down,↓,1.0963938999921083,True,19
71K27,470,experiment,53,↑,left,←,0.8578957999125123,False,19
71K27,471,experiment,20,↓,down,↓,1.0037159000057727,True,19
71K27,472,experiment,26,↓,down,↓,0.8034339000005275,True,19
71K27,473,experiment,16,←,right,→,0.8494708999060094,False,19
71K27,474,experiment,47,→,right,→,0.825072200037539,True,19
71K27,475,experiment,30,→,right,→,0.6133787999860942,True,19
71K27,476,experiment,34,↑,down,↓,0.9672880999278277,False,19
71K27,477,experiment,13,↑,left,←,1.056659399997443,False,19
71K27,478,experiment,54,→,right,→,0.8278997999150306,True,19
71K27,479,experiment,46,→,right,→,0.7096333999652416,True,19
71K27,480,experiment,48,↓,down,↓,0.8026131999213248,True,19
71K27,481,experiment,43,←,left,←,0.5509871998801827,True,19
71K27,482,experiment,52,↓,right,→,1.0792978000827134,False,19
71K27,483,experiment,22,←,left,←,0.5902052000164986,True,19
71K27,484,experiment,36,↓,down,↓,0.8635499000083655,True,19
71K27,485,experiment,56,→,right,→,0.6408455001655966,True,19
71K27,486,experiment,17,↓,right,→,0.8528909999877214,False,19
71K27,487,experiment,35,↑,up,↑,1.2287508000154048,True,19
71K27,488,experiment,27,→,right,→,0.6592091000638902,True,19
71K27,489,experiment,58,→,right,→,0.7392703001387417,True,19
71K27,490,experiment,18,→,right,→,0.8031035999301821,True,19
71K27,491,training,50,→,right,→,0.5569473998621106,True,19
71K27,492,training,58,↑,left,←,0.6411328001413494,False,19
71K27,493,experiment,53,↓,up,↑,1.181559800170362,False,19
71K27,494,experiment,26,→,right,→,0.7021319000050426,True,19
71K27,495,experiment,13,↓,right,→,0.8019616999663413,False,19
71K27,496,experiment,24,↑,right,→,0.9071116000413895,False,19
71K27,497,experiment,49,↓,down,↓,0.9033638997934759,True,19
71K27,498,experiment,28,↓,down,↓,0.7378104000817984,True,19
71K27,499,experiment,15,←,down,↓,1.2671471000649035,False,19
71K27,500,experiment,18,↑,up,↑,0.797782699810341,True,19
71K27,501,experiment,41,↓,down,↓,0.9634314000140876,True,19
71K27,502,experiment,47,←,left,←,0.7183876999188215,True,19
71K27,503,experiment,43,↓,down,↓,0.6459393999539316,True,19
71K27,504,experiment,14,↓,left,←,1.4999156000558287,False,19
71K27,505,experiment,55,→,right,→,1.436754300026223,True,19
71K27,506,experiment,27,←,left,←,0.6506425999104977,True,19
71K27,507,experiment,19,→,right,→,1.0286409999243915,True,19
71K27,508,experiment,36,←,left,←,0.5971291000023484,True,19
71K27,509,experiment,39,→,right,→,0.5643312002066523,True,19
71K27,510,experiment,17,↑,left,←,0.8587160999886692,False,19
71K27,511,experiment,59,←,left,←,0.8428483998868614,True,19
71K27,512,experiment,52,↑,down,↓,0.9360501000192016,False,19
71K27,513,experiment,34,←,left,←,0.7487027000170201,True,19
71K27,514,experiment,57,↑,left,←,0.7142457999289036,False,19
71K27,515,experiment,40,←,left,←,0.9474406000226736,True,19
71K27,516,experiment,37,↑,up,↑,0.7501540998928249,True,19
71K27,517,experiment,56,→,right,→,0.8838478999678046,True,19
71K27,518,experiment,60,↑,left,←,0.7461165999993682,False,19
71K27,519,experiment,54,↑,left,←,1.0812176000326872,False,19
71K27,520,experiment,20,↑,left,←,0.6896214000880718,False,19
71K27,521,experiment,38,←,left,←,0.5901389000937343,True,19
71K27,522,experiment,33,←,left,←,0.48954640002921224,True,19
71K27,523,experiment,16,→,right,→,0.6034372998401523,True,19
71K27,524,experiment,23,↑,right,→,1.2372589998412877,False,19
71K27,525,experiment,21,↓,left,←,0.510711400071159,False,19
71K27,526,experiment,25,↑,left,←,0.586541100172326,False,19
71K27,527,experiment,58,←,left,←,0.5976421998348087,True,19
71K27,528,experiment,35,→,left,←,0.7433275000657886,False,19
71K27,529,experiment,50,←,left,←,0.577688200166449,True,19
71K27,530,experiment,42,↑,up,↑,0.8397869998589158,True,19
71K27,531,experiment,30,→,right,→,0.7394171999767423,True,19
71K27,532,experiment,22,↑,down,↓,0.8408697999548167,False,19
71K27,533,experiment,31,↓,down,↓,0.8514698001090437,True,19
71K27,534,experiment,29,↓,down,↓,0.6869927998632193,True,19
71K27,535,experiment,32,↓,down,↓,0.7430065998341888,True,19
71K27,536,experiment,45,→,left,←,0.7647412999067456,False,19
71K27,537,experiment,48,↓,down,↓,0.7671095000114292,True,19
71K27,538,experiment,44,→,right,→,0.6842743000015616,True,19
71K27,539,experiment,46,↑,down,↓,0.8110585999675095,False,19
71K27,540,experiment,51,↓,down,↓,0.7224873001687229,True,19
71K27,541,training,36,↓,left,←,1.2676176000386477,False,19
71K27,542,training,38,↑,right,→,0.9290561999659985,False,19
71K27,543,experiment,42,↑,up,↑,0.9775151999201626,True,19
71K27,544,experiment,20,↑,up,↑,0.8380801000166684,True,19
71K27,545,experiment,39,→,down,↓,0.8040151000022888,False,19
71K27,546,experiment,36,↓,down,↓,0.8847119999118149,True,19
71K27,547,experiment,23,↓,down,↓,0.6030723999720067,True,19
71K27,548,experiment,56,←,right,→,0.8949849000200629,False,19
71K27,549,experiment,35,↑,left,←,0.6773051000200212,False,19
71K27,550,experiment,17,←,left,←,0.6638394999317825,True,19
71K27,551,experiment,43,→,right,→,0.7695835002232343,True,19
71K27,552,experiment,40,→,right,→,0.656940600136295,True,19
71K27,553,experiment,48,↑,up,↑,0.6001794999465346,True,19
71K27,554,experiment,13,↑,up,↑,0.9201205000281334,True,19
71K27,555,experiment,50,↓,down,↓,0.7153463000431657,True,19
71K27,556,experiment,27,↓,down,↓,0.7497773000504822,True,19
71K27,557,experiment,53,→,right,→,0.6051843999885023,True,19
71K27,558,experiment,24,→,right,→,0.718271599849686,True,19
71K27,559,experiment,28,→,right,→,0.5755140997935086,True,19
71K27,560,experiment,51,↓,right,→,0.6477592000737786,False,19
71K27,561,experiment,31,↓,right,→,1.0102717999834567,False,19
71K27,562,experiment,44,↓,down,↓,0.8859590000938624,True,19
71K27,563,experiment,58,←,left,←,0.6852274998091161,True,19
71K27,564,experiment,38,↑,left,←,0.9279314999002963,False,19
71K27,565,experiment,16,↑,up,↑,0.6814091999549419,True,19
71K27,566,experiment,60,↑,up,↑,0.5754547999240458,True,19
71K27,567,experiment,15,↓,up,↑,0.9354552999138832,False,19
71K27,568,experiment,59,←,left,←,0.6520561999641359,True,19
71K27,569,experiment,41,↑,up,↑,0.7836677001323551,True,19
71K27,570,experiment,34,↓,down,↓,0.882484900066629,True,19
71K27,571,experiment,37,↑,up,↑,0.7756662000901997,True,19
71K27,572,experiment,49,↑,up,↑,0.8093654999975115,True,19
71K27,573,experiment,45,↑,up,↑,0.6921622999943793,True,19
71K27,574,experiment,57,→,right,→,0.7401185999624431,True,19
71K27,575,experiment,33,↑,up,↑,0.7616932999808341,True,19
71K27,576,experiment,25,↓,up,↑,0.8840077000204474,False,19
71K27,577,experiment,26,←,left,←,0.6242720999289304,True,19
71K27,578,experiment,46,→,left,←,1.0097297998145223,False,19
71K27,579,experiment,22,↓,left,←,1.0201564999297261,False,19
71K27,580,experiment,47,↓,down,↓,0.8532924000173807,True,19
71K27,581,experiment,18,↑,down,↓,0.6079369999933988,False,19
71K27,582,experiment,19,←,left,←,0.6121501000598073,True,19
71K27,583,experiment,54,↑,up,↑,0.6408578001428396,True,19
71K27,584,experiment,21,↑,up,↑,0.7549085000064224,True,19
71K27,585,experiment,52,↓,down,↓,0.8108399999327958,True,19
71K27,586,experiment,55,→,right,→,0.7351866001263261,True,19
71K27,587,experiment,29,←,left,←,0.5517498999834061,True,19
71K27,588,experiment,14,↑,left,←,0.8969255001284182,False,19
71K27,589,experiment,32,→,right,→,0.7524280999787152,True,19
71K27,590,experiment,30,←,left,←,0.4877109001390636,True,19
