PART_ID,Trial_no,Trial_type,CSI,Stim_letter,Key_pressed,letter_choose,Rt,Corr,Stimulus Time
74K26,1,training,60,→,no_key,no_letter,-1.0,False,30
74K26,2,training,60,→,right,→,0.8646253000479192,True,30
74K26,3,training,60,→,right,→,0.7429426000453532,True,30
74K26,4,training,60,←,left,←,0.6902315998449922,True,30
74K26,5,training,60,←,left,←,0.999755600001663,True,30
74K26,6,training,60,↑,up,↑,0.8647664000745863,True,30
74K26,7,training,60,←,left,←,0.9272034000605345,True,30
74K26,8,training,60,↑,up,↑,0.7546982001513243,True,30
74K26,9,training,60,↓,down,↓,0.7017039998900145,True,30
74K26,10,training,60,→,right,→,0.9546264000236988,True,30
74K26,11,training,60,↓,down,↓,0.8538703999947757,True,30
74K26,12,training,60,↓,down,↓,0.8527330998331308,True,30
74K26,13,training,60,↓,down,↓,0.7877180001232773,True,30
74K26,14,training,60,←,left,←,0.7096500000916421,True,30
74K26,15,training,60,↓,down,↓,0.7458678998518735,True,30
74K26,16,training,60,→,right,→,0.6927302998956293,True,30
74K26,17,training,60,↑,up,↑,0.7856042000930756,True,30
74K26,18,training,60,↓,no_key,no_letter,-1.0,False,30
74K26,19,training,60,↓,down,↓,0.8144871001131833,True,30
74K26,20,training,60,↓,down,↓,0.6000577001832426,True,30
74K26,21,training,60,←,left,←,0.6466185001190752,True,18
74K26,22,training,60,→,right,→,0.6216806001029909,True,18
74K26,23,training,60,→,right,→,0.7019313999917358,True,18
74K26,24,training,60,↑,up,↑,0.6188221999909729,True,18
74K26,25,training,60,→,left,←,0.5231498000212014,False,18
74K26,26,training,60,↓,right,→,1.1510851001366973,False,18
74K26,27,training,60,→,right,→,0.6185027998872101,True,18
74K26,28,training,60,←,left,←,0.5464904999826103,True,18
74K26,29,training,60,↑,down,↓,0.7174526997841895,False,18
74K26,30,training,60,←,left,←,0.7540804001037031,True,18
74K26,31,training,60,→,right,→,0.6366524000186473,True,18
74K26,32,training,60,→,right,→,0.620270200073719,True,18
74K26,33,training,60,↑,right,→,0.41708679986186326,False,18
74K26,34,training,60,↑,down,↓,0.804061200004071,False,18
74K26,35,training,60,←,left,←,0.6611541998572648,True,18
74K26,36,training,60,←,left,←,0.9635280999355018,True,18
74K26,37,training,60,↑,up,↑,0.613783200038597,True,18
74K26,38,training,60,↓,down,↓,0.6458548000082374,True,18
74K26,39,training,60,→,left,←,0.5969529999420047,False,18
74K26,40,training,60,↓,down,↓,0.725671200081706,True,18
74K26,41,training,41,↓,down,↓,0.6789912001695484,True,18
74K26,42,training,49,←,left,←,0.6367635999340564,True,18
74K26,43,experiment,53,↑,up,↑,0.6970952998381108,True,18
74K26,44,experiment,47,→,left,←,0.6065495000220835,False,18
74K26,45,experiment,37,↑,up,↑,0.38370030000805855,True,18
74K26,46,experiment,34,↑,up,↑,0.5528313999529928,True,18
74K26,47,experiment,58,←,up,↑,0.7573166999500245,False,18
74K26,48,experiment,50,↑,up,↑,0.5750411001499742,True,18
74K26,49,experiment,33,↓,up,↑,0.707149300025776,False,18
74K26,50,experiment,59,↓,down,↓,0.7452072999440134,True,18
74K26,51,experiment,22,←,down,↓,1.3338617000263184,False,18
74K26,52,experiment,15,→,right,→,0.4877416000235826,True,18
74K26,53,experiment,35,←,no_key,no_letter,-1.0,False,18
74K26,54,experiment,32,↑,no_key,no_letter,-1.0,False,18
74K26,55,experiment,54,→,up,↑,0.3165078000165522,False,18
74K26,56,experiment,16,→,right,→,1.378976299893111,True,18
74K26,57,experiment,56,↑,up,↑,0.4809170998632908,True,18
74K26,58,experiment,25,↓,up,↑,0.6369243999943137,False,18
74K26,59,experiment,46,→,right,→,0.5418187000323087,True,18
74K26,60,experiment,17,←,right,→,0.5756057999096811,False,18
74K26,61,experiment,51,←,left,←,0.3332279999740422,True,18
74K26,62,experiment,42,→,right,→,0.49322429997846484,True,18
74K26,63,experiment,26,↑,up,↑,0.9531067998614162,True,18
74K26,64,experiment,14,←,left,←,0.5708054001443088,True,18
74K26,65,experiment,38,→,right,→,0.5314404999371618,True,18
74K26,66,experiment,40,←,right,→,0.36730689997784793,False,18
74K26,67,experiment,57,←,left,←,0.5762353998143226,True,18
74K26,68,experiment,18,↓,down,↓,0.6541384998708963,True,18
74K26,69,experiment,28,↑,down,↓,0.6422888999804854,False,18
74K26,70,experiment,31,↓,down,↓,0.7493171999230981,True,18
74K26,71,experiment,48,→,left,←,0.41664119996130466,False,18
74K26,72,experiment,30,↑,down,↓,0.731449100188911,False,18
74K26,73,experiment,19,←,no_key,no_letter,-1.0,False,18
74K26,74,experiment,36,→,left,←,0.5493295998312533,False,18
74K26,75,experiment,41,↑,up,↑,0.636782799847424,True,18
74K26,76,experiment,55,→,right,→,0.7676910001318902,True,18
74K26,77,experiment,49,↑,up,↑,0.4815265000797808,True,18
74K26,78,experiment,52,↓,up,↑,0.46907479991205037,False,18
74K26,79,experiment,21,↓,up,↑,0.8281757000368088,False,18
74K26,80,experiment,39,↓,up,↑,0.5146961999125779,False,18
74K26,81,experiment,27,↑,up,↑,0.3507746998220682,True,18
74K26,82,experiment,29,↑,up,↑,0.4174677999690175,True,18
74K26,83,experiment,20,↓,up,↑,0.4173773000948131,False,18
74K26,84,experiment,13,↓,down,↓,0.7234631997998804,True,18
74K26,85,experiment,24,↓,up,↑,0.49591569998301566,False,18
74K26,86,experiment,60,←,right,→,0.6373680999968201,False,18
74K26,87,experiment,23,↓,down,↓,0.5736956000328064,True,18
74K26,88,experiment,45,↑,up,↑,0.6098105001728982,True,18
74K26,89,experiment,44,←,left,←,0.30010080011561513,True,18
74K26,90,experiment,43,↑,left,←,0.3334745999891311,False,18
74K26,91,training,13,↑,up,↑,0.5063100000843406,True,19
74K26,92,training,50,↓,up,↑,0.40062440000474453,False,19
74K26,93,experiment,49,↑,up,↑,0.5092448000796139,True,19
74K26,94,experiment,56,↑,up,↑,0.812859500059858,True,19
74K26,95,experiment,17,→,right,→,0.5696437999140471,True,19
74K26,96,experiment,57,↑,up,↑,0.3997232001274824,True,19
74K26,97,experiment,43,↓,down,↓,0.41742399986833334,True,19
74K26,98,experiment,54,↑,up,↑,0.3997068000026047,True,19
74K26,99,experiment,58,→,down,↓,0.41730870003812015,False,19
74K26,100,experiment,42,↓,down,↓,0.7303500999696553,True,19
74K26,101,experiment,31,↓,up,↑,0.6811718000099063,False,19
74K26,102,experiment,48,→,no_key,no_letter,-1.0,False,19
74K26,103,experiment,14,↓,no_key,no_letter,-1.0,False,19
74K26,104,experiment,13,↓,down,↓,0.49708630004897714,True,19
74K26,105,experiment,36,↓,down,↓,0.733958899974823,True,19
74K26,106,experiment,27,↓,down,↓,0.7275606000330299,True,19
74K26,107,experiment,25,↑,up,↑,0.81877680006437,True,19
74K26,108,experiment,39,→,right,→,0.705381500069052,True,19
74K26,109,experiment,24,→,right,→,0.6782143001910299,True,19
74K26,110,experiment,16,↑,up,↑,0.60938709997572,True,19
74K26,111,experiment,29,↓,up,↑,0.4873860999941826,False,19
74K26,112,experiment,37,↓,up,↑,0.4509745000395924,False,19
74K26,113,experiment,51,↓,down,↓,0.5914777999278158,True,19
74K26,114,experiment,26,←,left,←,0.5274149000179023,True,19
74K26,115,experiment,34,↓,down,↓,0.7248454999644309,True,19
74K26,116,experiment,22,→,down,↓,1.506394499912858,False,19
74K26,117,experiment,45,↑,up,↑,0.5937621998600662,True,19
74K26,118,experiment,44,↓,down,↓,0.710068300133571,True,19
74K26,119,experiment,32,→,right,→,0.6616962999105453,True,19
74K26,120,experiment,50,↑,up,↑,0.6115957999136299,True,19
74K26,121,experiment,23,↑,up,↑,1.3567597998771816,True,19
74K26,122,experiment,15,←,up,↑,1.0541107000317425,False,19
74K26,123,experiment,53,↑,up,↑,0.5939896001946181,True,19
74K26,124,experiment,28,←,right,→,0.7844432999845594,False,19
74K26,125,experiment,18,←,left,←,0.7502074001822621,True,19
74K26,126,experiment,47,↓,down,↓,0.7138915001414716,True,19
74K26,127,experiment,19,↓,down,↓,0.5451066000387073,True,19
74K26,128,experiment,46,↓,down,↓,0.5102679999545217,True,19
74K26,129,experiment,35,→,right,→,0.7478370000608265,True,19
74K26,130,experiment,41,↓,down,↓,0.49918459984473884,True,19
74K26,131,experiment,30,→,right,→,0.6042124999221414,True,19
74K26,132,experiment,55,←,right,→,0.7523260000161827,False,19
74K26,133,experiment,40,←,left,←,0.8087345999665558,True,19
74K26,134,experiment,59,←,left,←,0.5304351998493075,True,19
74K26,135,experiment,21,↑,up,↑,0.7918636000249535,True,19
74K26,136,experiment,38,→,right,→,0.6244615998584777,True,19
74K26,137,experiment,33,↓,down,↓,0.6663420000113547,True,19
74K26,138,experiment,20,↑,down,↓,0.8032647001091391,False,19
74K26,139,experiment,60,↓,down,↓,0.5883142000529915,True,19
74K26,140,experiment,52,↓,down,↓,0.450003300094977,True,19
74K26,141,training,52,←,left,←,0.6583243000786752,True,19
74K26,142,training,13,↑,down,↓,0.616156900068745,False,19
74K26,143,experiment,38,↓,down,↓,0.43407650012522936,True,19
74K26,144,experiment,46,→,down,↓,0.4956374999601394,False,19
74K26,145,experiment,47,↓,down,↓,0.5811429000459611,True,19
74K26,146,experiment,26,→,right,→,0.4168331001419574,True,19
74K26,147,experiment,25,↓,down,↓,0.49167839996516705,True,19
74K26,148,experiment,52,→,right,→,0.7822251000907272,True,19
74K26,149,experiment,16,↓,down,↓,1.0210403001401573,True,19
74K26,150,experiment,60,↓,down,↓,0.5494655999355018,True,19
74K26,151,experiment,58,↑,up,↑,0.7699526001233608,True,19
74K26,152,experiment,59,→,right,→,0.7171497999224812,True,19
74K26,153,experiment,29,↑,up,↑,0.5259744001086801,True,19
74K26,154,experiment,34,↓,down,↓,0.7232734998688102,True,19
74K26,155,experiment,13,←,left,←,0.6549146000761539,True,19
74K26,156,experiment,56,↑,up,↑,0.632689299993217,True,19
74K26,157,experiment,35,↓,down,↓,0.632590200053528,True,19
74K26,158,experiment,54,↓,down,↓,0.7482904000207782,True,19
74K26,159,experiment,43,↓,down,↓,0.6269392999820411,True,19
74K26,160,experiment,22,←,left,←,0.5880597000941634,True,19
74K26,161,experiment,28,↑,no_key,no_letter,-1.0,False,19
74K26,162,experiment,19,←,left,←,0.6323859000112861,True,19
74K26,163,experiment,14,↓,down,↓,0.5266197000164539,True,19
74K26,164,experiment,15,←,left,←,0.5443762000650167,True,19
74K26,165,experiment,44,→,left,←,0.8547980000730604,False,19
74K26,166,experiment,40,↓,down,↓,0.7231368999928236,True,19
74K26,167,experiment,32,←,left,←,0.5538426998537034,True,19
74K26,168,experiment,24,→,right,→,0.548665399895981,True,19
74K26,169,experiment,51,↑,up,↑,0.717543600127101,True,19
74K26,170,experiment,42,←,left,←,0.5259992000646889,True,19
74K26,171,experiment,53,→,right,→,0.49474609992466867,True,19
74K26,172,experiment,30,↑,up,↑,0.5037932998966426,True,19
74K26,173,experiment,41,↑,up,↑,0.5293684999924153,True,19
74K26,174,experiment,39,↑,up,↑,0.8114142999984324,True,19
74K26,175,experiment,45,↑,up,↑,0.6866266999859363,True,19
74K26,176,experiment,17,↓,down,↓,0.5766284000128508,True,19
74K26,177,experiment,21,↓,down,↓,0.7406192999333143,True,19
74K26,178,experiment,18,↑,up,↑,0.6759961000643671,True,19
74K26,179,experiment,36,↓,up,↑,0.7704647998325527,False,19
74K26,180,experiment,37,↓,down,↓,0.5325023999903351,True,19
74K26,181,experiment,55,→,right,→,0.7472274000756443,True,19
74K26,182,experiment,20,→,right,→,0.704418099950999,True,19
74K26,183,experiment,33,←,left,←,0.6635733000002801,True,19
74K26,184,experiment,48,↑,up,↑,0.6536310000810772,True,19
74K26,185,experiment,49,←,left,←,0.644009199924767,True,19
74K26,186,experiment,27,↑,up,↑,0.8254793998785317,True,19
74K26,187,experiment,50,←,no_key,no_letter,-1.0,False,19
74K26,188,experiment,57,↓,up,↑,0.7330298000015318,False,19
74K26,189,experiment,23,←,left,←,0.49723859992809594,True,19
74K26,190,experiment,31,←,left,←,0.6171983000822365,True,19
74K26,191,training,57,←,left,←,0.45048010000027716,True,19
74K26,192,training,16,↑,up,↑,0.6059642999898642,True,19
74K26,193,experiment,15,→,right,→,0.7089197998866439,True,19
74K26,194,experiment,20,↓,down,↓,0.7240029000677168,True,19
74K26,195,experiment,46,←,left,←,0.6097057999577373,True,19
74K26,196,experiment,39,→,right,→,0.6248858000617474,True,19
74K26,197,experiment,42,↓,down,↓,0.8451790998224169,True,19
74K26,198,experiment,30,↑,up,↑,0.8007384999655187,True,19
74K26,199,experiment,22,←,left,←,0.6988381999544799,True,19
74K26,200,experiment,29,→,right,→,0.5003611000720412,True,19
74K26,201,experiment,54,↓,down,↓,0.6774905999191105,True,19
74K26,202,experiment,43,↓,down,↓,0.5670048999600112,True,19
74K26,203,experiment,50,↑,up,↑,0.767764599993825,True,19
74K26,204,experiment,59,←,no_key,no_letter,-1.0,False,19
74K26,205,experiment,17,↑,up,↑,0.7617415999993682,True,19
74K26,206,experiment,57,↓,down,↓,0.7190460001584142,True,19
74K26,207,experiment,21,→,left,←,0.7811420001089573,False,19
74K26,208,experiment,40,→,right,→,0.6358944999519736,True,19
74K26,209,experiment,26,→,left,←,0.770069400081411,False,19
74K26,210,experiment,24,↑,left,←,0.9642872998956591,False,19
74K26,211,experiment,13,↑,up,↑,0.5740812998265028,True,19
74K26,212,experiment,37,↑,up,↑,0.5673366000410169,True,19
74K26,213,experiment,33,↓,up,↑,0.7477835998870432,False,19
74K26,214,experiment,55,↑,up,↑,0.5940115000121295,True,19
74K26,215,experiment,52,→,right,→,0.49729719990864396,True,19
74K26,216,experiment,16,→,left,←,0.6829115999862552,False,19
74K26,217,experiment,27,→,right,→,0.6063758998643607,True,19
74K26,218,experiment,28,↑,left,←,0.5008719998877496,False,19
74K26,219,experiment,34,→,up,↑,0.7469530999660492,False,19
74K26,220,experiment,35,→,right,→,0.7585553000681102,True,19
74K26,221,experiment,56,↓,left,←,0.5960697000846267,False,19
74K26,222,experiment,23,↓,down,↓,0.5985479999799281,True,19
74K26,223,experiment,31,↓,down,↓,0.6743932000827044,True,19
74K26,224,experiment,41,↑,down,↓,1.093428699998185,False,19
74K26,225,experiment,51,↑,up,↑,0.5451803999021649,True,19
74K26,226,experiment,53,↓,no_key,no_letter,-1.0,False,19
74K26,227,experiment,38,←,right,→,0.6666336997877806,False,19
74K26,228,experiment,32,→,right,→,0.5554493002127856,True,19
74K26,229,experiment,47,↓,left,←,0.4948945001233369,False,19
74K26,230,experiment,19,→,down,↓,0.7509389000479132,False,19
74K26,231,experiment,49,↓,down,↓,0.7057819999754429,True,19
74K26,232,experiment,14,←,down,↓,0.8446521998848766,False,19
74K26,233,experiment,36,→,right,→,0.9164030000101775,True,19
74K26,234,experiment,48,→,right,→,0.7608490998391062,True,19
74K26,235,experiment,25,→,right,→,0.6034442998934537,True,19
74K26,236,experiment,58,←,left,←,0.5660002999939024,True,19
74K26,237,experiment,60,↑,up,↑,0.8240341998171061,True,19
74K26,238,experiment,45,→,right,→,0.810409199912101,True,19
74K26,239,experiment,18,→,left,←,0.8072994002141058,False,19
74K26,240,experiment,44,↓,down,↓,0.5869408999569714,True,19
74K26,241,training,35,→,right,→,0.6266461000777781,True,19
74K26,242,training,31,↑,no_key,no_letter,-1.0,False,19
74K26,243,experiment,59,↑,up,↑,0.8009519001934677,True,19
74K26,244,experiment,46,↓,down,↓,0.6356613000389189,True,19
74K26,245,experiment,26,↓,down,↓,0.5934498999267817,True,19
74K26,246,experiment,52,↑,down,↓,0.5764619000256062,False,19
74K26,247,experiment,27,←,right,→,0.6647871998138726,False,19
74K26,248,experiment,41,←,up,↑,0.6675923001021147,False,19
74K26,249,experiment,58,↑,up,↑,0.5635155001655221,True,19
74K26,250,experiment,51,↑,up,↑,0.5488621001131833,True,19
74K26,251,experiment,16,→,up,↑,0.5803994999732822,False,19
74K26,252,experiment,20,←,left,←,0.6006125002168119,True,19
74K26,253,experiment,29,←,no_key,no_letter,-1.0,False,19
74K26,254,experiment,53,↓,down,↓,0.6208760000299662,True,19
74K26,255,experiment,39,↑,up,↑,0.4990958000998944,True,19
74K26,256,experiment,25,↑,up,↑,0.40041669993661344,True,19
74K26,257,experiment,38,↑,up,↑,0.40133489994332194,True,19
74K26,258,experiment,28,←,left,←,0.5716288001276553,True,19
74K26,259,experiment,57,↑,up,↑,0.4506437999662012,True,19
74K26,260,experiment,17,↑,up,↑,0.6505608002189547,True,19
74K26,261,experiment,21,→,up,↑,0.6991655000019819,False,19
74K26,262,experiment,42,←,left,←,0.6283362999092788,True,19
74K26,263,experiment,34,↑,down,↓,0.8697093001101166,False,19
74K26,264,experiment,50,↓,down,↓,0.835048699984327,True,19
74K26,265,experiment,56,↑,up,↑,0.8693356001749635,True,19
74K26,266,experiment,32,↓,down,↓,0.534453900065273,True,19
74K26,267,experiment,40,←,left,←,0.9917255002073944,True,19
74K26,268,experiment,36,↓,down,↓,0.43329429998993874,True,19
74K26,269,experiment,44,↓,down,↓,0.5386028999928385,True,19
74K26,270,experiment,35,↑,down,↓,0.7989435000345111,False,19
74K26,271,experiment,54,↑,up,↑,0.5636903999838978,True,19
74K26,272,experiment,60,↑,up,↑,0.8383669999893755,True,19
74K26,273,experiment,24,→,right,→,0.5736340000294149,True,19
74K26,274,experiment,55,←,left,←,0.4166396001819521,True,19
74K26,275,experiment,47,→,right,→,0.5236284001730382,True,19
74K26,276,experiment,13,↓,up,↑,1.1428342999424785,False,19
74K26,277,experiment,14,↓,right,→,1.6011484998743981,False,19
74K26,278,experiment,23,↑,up,↑,0.49125130008906126,True,19
74K26,279,experiment,30,↓,up,↑,0.7717945000622422,False,19
74K26,280,experiment,45,→,right,→,0.5121744000352919,True,19
74K26,281,experiment,49,↓,left,←,0.8203994000796229,False,19
74K26,282,experiment,48,↑,up,↑,0.8450657001230866,True,19
74K26,283,experiment,33,←,left,←,0.5185058999340981,True,19
74K26,284,experiment,22,←,left,←,0.38411170011386275,True,19
74K26,285,experiment,15,→,right,→,0.7706973000895232,True,19
74K26,286,experiment,31,→,right,→,0.4164630000013858,True,19
74K26,287,experiment,43,→,left,←,0.7550957000348717,False,19
74K26,288,experiment,18,↓,down,↓,0.5457331999205053,True,19
74K26,289,experiment,37,←,no_key,no_letter,-1.0,False,19
74K26,290,experiment,19,←,left,←,0.6180370000656694,True,19
74K26,291,training,53,←,right,→,0.5198754998855293,False,19
74K26,292,training,34,←,no_key,no_letter,-1.0,False,19
74K26,293,experiment,15,↓,left,←,0.7253527999855578,False,19
74K26,294,experiment,30,↑,up,↑,0.69381930003874,True,19
74K26,295,experiment,41,→,right,→,0.6164434999227524,True,19
74K26,296,experiment,40,↑,left,←,0.5416919998824596,False,19
74K26,297,experiment,58,↑,up,↑,0.40052740019746125,True,19
74K26,298,experiment,22,←,up,↑,0.851679699961096,False,19
74K26,299,experiment,23,→,right,→,0.4915686999447644,True,19
74K26,300,experiment,59,↓,down,↓,0.5210122999269515,True,19
74K26,301,experiment,36,↑,up,↑,0.45017679990269244,True,19
74K26,302,experiment,52,←,left,←,0.5930918999947608,True,19
74K26,303,experiment,49,↑,no_key,no_letter,-1.0,False,19
74K26,304,experiment,38,↓,down,↓,0.6187889999710023,True,19
74K26,305,experiment,26,←,left,←,0.5937054001260549,True,19
74K26,306,experiment,35,→,left,←,0.8037256998941302,False,19
74K26,307,experiment,17,↓,down,↓,0.8655420998111367,True,19
74K26,308,experiment,32,↑,up,↑,0.6102995001710951,True,19
74K26,309,experiment,46,↓,down,↓,0.4923290000297129,True,19
74K26,310,experiment,18,←,left,←,0.6451473999768496,True,19
74K26,311,experiment,29,←,left,←,0.48943320009857416,True,19
74K26,312,experiment,56,←,left,←,0.4502328000962734,True,19
74K26,313,experiment,20,↓,up,↑,0.6498744999989867,False,19
74K26,314,experiment,60,←,left,←,0.5449500998947769,True,19
74K26,315,experiment,14,↑,up,↑,1.642930299974978,True,19
74K26,316,experiment,54,←,left,←,0.6310968000907451,True,19
74K26,317,experiment,28,←,left,←,0.41713329986669123,True,19
74K26,318,experiment,53,→,right,→,0.8242697999812663,True,19
74K26,319,experiment,43,←,right,→,0.6917868999298662,False,19
74K26,320,experiment,48,←,left,←,0.5776180000975728,True,19
74K26,321,experiment,50,↑,no_key,no_letter,-1.0,False,19
74K26,322,experiment,13,←,no_key,no_letter,-1.0,False,19
74K26,323,experiment,27,↑,left,←,0.5478682001121342,False,19
74K26,324,experiment,39,←,up,↑,0.7807234998326749,False,19
74K26,325,experiment,55,→,right,→,0.6981119001284242,True,19
74K26,326,experiment,34,→,right,→,0.5680583000648767,True,19
74K26,327,experiment,45,→,right,→,0.5563156998250633,True,19
74K26,328,experiment,44,→,right,→,0.43452779995277524,True,19
74K26,329,experiment,57,→,right,→,0.3337228000164032,True,19
74K26,330,experiment,16,↑,up,↑,0.6183042000047863,True,19
74K26,331,experiment,19,↑,up,↑,0.7018575998954475,True,19
74K26,332,experiment,51,→,right,→,0.512828900013119,True,19
74K26,333,experiment,42,↓,down,↓,0.5451514001470059,True,19
74K26,334,experiment,47,→,right,→,0.6851580999791622,True,19
74K26,335,experiment,31,↓,down,↓,0.3499541999772191,True,19
74K26,336,experiment,25,←,left,←,0.5513367000967264,True,19
74K26,337,experiment,24,←,left,←,0.6581979000475258,True,19
74K26,338,experiment,33,↑,left,←,0.5071413998957723,False,19
74K26,339,experiment,37,↓,down,↓,0.6472591001074761,True,19
74K26,340,experiment,21,↑,down,↓,0.5038193999789655,False,19
74K26,341,training,49,→,right,→,0.3999323002062738,True,19
74K26,342,training,60,→,left,←,0.6492840000428259,False,19
74K26,343,experiment,19,→,right,→,0.4331460001412779,True,19
74K26,344,experiment,40,←,left,←,0.3845450000371784,True,19
74K26,345,experiment,45,→,left,←,0.5459397998638451,False,19
74K26,346,experiment,53,→,left,←,0.4004149998072535,False,19
74K26,347,experiment,18,→,right,→,0.6940037000458688,True,19
74K26,348,experiment,14,↓,down,↓,0.5142531001474708,True,19
74K26,349,experiment,47,→,right,→,0.5430275998078287,True,19
74K26,350,experiment,20,→,no_key,no_letter,-1.0,False,19
74K26,351,experiment,29,→,right,→,0.5241390001028776,True,19
74K26,352,experiment,27,↑,left,←,0.5104570998810232,False,19
74K26,353,experiment,24,↓,right,→,0.6107143999543041,False,19
74K26,354,experiment,58,→,right,→,0.43387759989127517,True,19
74K26,355,experiment,38,↓,down,↓,0.5868176000658423,True,19
74K26,356,experiment,26,↑,down,↓,0.6829651999287307,False,19
74K26,357,experiment,15,←,left,←,0.501986299874261,True,19
74K26,358,experiment,39,→,right,→,0.48908460000529885,True,19
74K26,359,experiment,34,←,left,←,0.759060800075531,True,19
74K26,360,experiment,57,↓,left,←,0.5562549999449402,False,19
74K26,361,experiment,50,↑,up,↑,0.434008999960497,True,19
74K26,362,experiment,52,↑,up,↑,1.0580529000144452,True,19
74K26,363,experiment,21,→,right,→,0.547169900033623,True,19
74K26,364,experiment,48,↓,down,↓,0.5100508001632988,True,19
74K26,365,experiment,30,→,right,→,0.7989231999963522,True,19
74K26,366,experiment,13,↑,right,→,1.1989175002090633,False,19
74K26,367,experiment,56,↓,left,←,1.7071338000241667,False,19
74K26,368,experiment,42,←,right,→,1.6043825999367982,False,19
74K26,369,experiment,54,↑,up,↑,0.43461489980109036,True,19
74K26,370,experiment,31,↓,down,↓,0.5474648999515921,True,19
74K26,371,experiment,49,↑,down,↓,0.7095697999466211,False,19
74K26,372,experiment,32,←,left,←,0.573169199982658,True,19
74K26,373,experiment,51,←,right,→,0.6137014999985695,False,19
74K26,374,experiment,59,←,no_key,no_letter,-1.0,False,19
74K26,375,experiment,35,←,right,→,0.5854428999591619,False,19
74K26,376,experiment,23,←,left,←,0.41702189994975924,True,19
74K26,377,experiment,60,↓,down,↓,0.7313572999555618,True,19
74K26,378,experiment,46,↓,no_key,no_letter,-1.0,False,19
74K26,379,experiment,25,→,right,→,0.5056600000243634,True,19
74K26,380,experiment,16,→,right,→,0.7158531998284161,True,19
74K26,381,experiment,36,↓,down,↓,0.6879657998215407,True,19
74K26,382,experiment,44,←,right,→,0.6244614999741316,False,19
74K26,383,experiment,41,↓,down,↓,0.5174161000177264,True,19
74K26,384,experiment,33,→,right,→,0.5715282000601292,True,19
74K26,385,experiment,43,→,right,→,0.6891208000015467,True,19
74K26,386,experiment,55,←,right,→,0.5541576000396162,False,19
74K26,387,experiment,17,↓,down,↓,0.8812543998938054,True,19
74K26,388,experiment,28,↓,down,↓,0.4337414000183344,True,19
74K26,389,experiment,22,→,right,→,0.5887172999791801,True,19
74K26,390,experiment,37,→,down,↓,0.3497775001451373,False,19
74K26,391,training,24,↑,up,↑,0.5958662999328226,True,19
74K26,392,training,29,↑,up,↑,0.8097425999585539,True,19
74K26,393,experiment,50,↓,down,↓,0.48979609995149076,True,19
74K26,394,experiment,35,↓,down,↓,0.9911707998253405,True,19
74K26,395,experiment,31,←,left,←,0.48394960002042353,True,19
74K26,396,experiment,34,↑,up,↑,0.6343066000845283,True,19
74K26,397,experiment,15,↑,up,↑,0.5518118001054972,True,19
74K26,398,experiment,33,→,up,↑,0.7485054000280797,False,19
74K26,399,experiment,55,→,right,→,0.6829388001933694,True,19
74K26,400,experiment,40,↑,up,↑,0.6699289998505265,True,19
74K26,401,experiment,21,↑,up,↑,0.5180835002101958,True,19
74K26,402,experiment,32,←,right,→,0.5648672000970691,False,19
74K26,403,experiment,24,↑,up,↑,0.5054216000717133,True,19
74K26,404,experiment,17,↓,right,→,0.7362249998841435,False,19
74K26,405,experiment,59,↓,no_key,no_letter,-1.0,False,19
74K26,406,experiment,16,←,no_key,no_letter,-1.0,False,19
74K26,407,experiment,14,↓,left,←,0.3998986000660807,False,19
74K26,408,experiment,37,↑,down,↓,0.3673942999448627,False,19
74K26,409,experiment,20,←,right,→,0.6163848999422044,False,19
74K26,410,experiment,25,→,right,→,0.5274678999558091,True,19
74K26,411,experiment,23,→,right,→,0.5241849001031369,True,19
74K26,412,experiment,58,←,left,←,0.4898675000295043,True,19
74K26,413,experiment,52,↑,up,↑,0.660492000170052,True,19
74K26,414,experiment,57,→,right,→,0.6296180998906493,True,19
74K26,415,experiment,30,↓,up,↑,0.6409775000065565,False,19
74K26,416,experiment,28,↓,right,→,0.773611499927938,False,19
74K26,417,experiment,47,→,right,→,0.6406572998967022,True,19
74K26,418,experiment,29,↓,down,↓,0.6210668999701738,True,19
74K26,419,experiment,56,↓,down,↓,0.6881285000126809,True,19
74K26,420,experiment,41,→,right,→,0.5142644001170993,True,19
74K26,421,experiment,13,←,left,←,0.5418040999211371,True,19
74K26,422,experiment,42,←,left,←,0.5573936000000685,True,19
74K26,423,experiment,46,↓,down,↓,0.7212854002136737,True,19
74K26,424,experiment,53,→,right,→,0.6503780998755246,True,19
74K26,425,experiment,22,→,right,→,0.6907416000030935,True,19
74K26,426,experiment,18,←,left,←,0.9319352998863906,True,19
74K26,427,experiment,38,←,left,←,0.6143698999658227,True,19
74K26,428,experiment,36,↓,down,↓,0.542520800139755,True,19
74K26,429,experiment,43,←,left,←,0.8374920999631286,True,19
74K26,430,experiment,49,→,left,←,0.540565799921751,False,19
74K26,431,experiment,60,←,right,→,0.5602034998591989,False,19
74K26,432,experiment,19,↓,down,↓,1.0783881000243127,True,19
74K26,433,experiment,44,↑,down,↓,0.7116638999432325,False,19
74K26,434,experiment,45,↓,down,↓,0.3844232000410557,True,19
74K26,435,experiment,54,→,right,→,1.067610900150612,True,19
74K26,436,experiment,26,↑,up,↑,0.7046340999659151,True,19
74K26,437,experiment,51,↓,down,↓,0.7314284997992218,True,19
74K26,438,experiment,27,↑,up,↑,0.5329831000417471,True,19
74K26,439,experiment,39,↓,left,←,0.5187391999643296,False,19
74K26,440,experiment,48,→,left,←,0.5470964999403805,False,19
74K26,441,training,41,↓,no_key,no_letter,-1.0,False,19
74K26,442,training,34,→,right,→,0.6671572998166084,True,19
74K26,443,experiment,16,→,right,→,0.6068028998561203,True,19
74K26,444,experiment,53,↑,up,↑,0.49219230003654957,True,19
74K26,445,experiment,52,←,left,←,0.7184906001202762,True,19
74K26,446,experiment,22,←,right,→,0.8359839001204818,False,19
74K26,447,experiment,38,↓,down,↓,0.770451599964872,True,19
74K26,448,experiment,31,↑,down,↓,0.7041391001548618,False,19
74K26,449,experiment,37,↓,down,↓,0.508677399950102,True,19
74K26,450,experiment,49,→,down,↓,0.664418299915269,False,19
74K26,451,experiment,45,↓,down,↓,0.5690172999165952,True,19
74K26,452,experiment,29,↑,up,↑,0.5835270998068154,True,19
74K26,453,experiment,56,←,right,→,0.827914800029248,False,19
74K26,454,experiment,17,→,right,→,0.7449788998346776,True,19
74K26,455,experiment,30,↑,up,↑,0.5525076000485569,True,19
74K26,456,experiment,27,↓,down,↓,0.6411045999266207,True,19
74K26,457,experiment,51,←,left,←,0.7029766999185085,True,19
74K26,458,experiment,46,↓,up,↑,0.7970123998820782,False,19
74K26,459,experiment,48,←,left,←,0.6543672999832779,True,19
74K26,460,experiment,42,←,left,←,0.8414271001238376,True,19
74K26,461,experiment,34,↓,down,↓,0.6183462999761105,True,19
74K26,462,experiment,13,→,left,←,0.6255322000943124,False,19
74K26,463,experiment,35,↓,down,↓,0.6985754000488669,True,19
74K26,464,experiment,58,←,left,←,0.6730550997890532,True,19
74K26,465,experiment,15,→,right,→,0.7328751001041383,True,19
74K26,466,experiment,25,→,right,→,0.6877517001703382,True,19
74K26,467,experiment,55,↑,up,↑,0.5128770000301301,True,19
74K26,468,experiment,18,→,right,→,0.7848525000736117,True,19
74K26,469,experiment,20,←,down,↓,0.7572403000667691,False,19
74K26,470,experiment,47,←,up,↑,0.6247793000657111,False,19
74K26,471,experiment,21,↓,left,←,0.9949625001754612,False,19
74K26,472,experiment,28,←,left,←,0.5938081000931561,True,19
74K26,473,experiment,44,←,left,←,0.7903506001457572,True,19
74K26,474,experiment,36,←,left,←,0.5116906999610364,True,19
74K26,475,experiment,43,↑,up,↑,0.8801285000517964,True,19
74K26,476,experiment,23,↓,down,↓,0.8141206000000238,True,19
74K26,477,experiment,24,↓,down,↓,0.4508401998318732,True,19
74K26,478,experiment,39,↑,up,↑,0.9866417997982353,True,19
74K26,479,experiment,33,→,right,→,0.6621838000137359,True,19
74K26,480,experiment,14,←,left,←,0.4917352998163551,True,19
74K26,481,experiment,26,→,no_key,no_letter,-1.0,False,19
74K26,482,experiment,50,←,left,←,0.5759495000820607,True,19
74K26,483,experiment,19,↑,up,↑,0.6136543999891728,True,19
74K26,484,experiment,54,→,left,←,0.7219060000497848,False,19
74K26,485,experiment,57,←,left,←,0.41632830002345145,True,19
74K26,486,experiment,40,↓,up,↑,0.6933156000450253,False,19
74K26,487,experiment,32,↓,down,↓,0.5176707999780774,True,19
74K26,488,experiment,59,←,left,←,0.514246900100261,True,19
74K26,489,experiment,41,←,no_key,no_letter,-1.0,False,19
74K26,490,experiment,60,↓,up,↑,0.5976821000222117,False,19
74K26,491,training,26,↑,up,↑,0.508000599918887,True,19
74K26,492,training,23,↑,up,↑,0.6812394999433309,True,19
74K26,493,experiment,52,↑,down,↓,0.40075559983961284,False,19
74K26,494,experiment,46,↓,down,↓,0.7336619000416249,True,19
74K26,495,experiment,27,↑,up,↑,0.5752206000033766,True,19
74K26,496,experiment,57,↑,up,↑,0.5318303999956697,True,19
74K26,497,experiment,15,→,no_key,no_letter,-1.0,False,19
74K26,498,experiment,22,←,left,←,0.6244902999605983,True,19
74K26,499,experiment,20,↓,down,↓,0.7391426998656243,True,19
74K26,500,experiment,39,←,left,←,0.7090249999891967,True,19
74K26,501,experiment,23,↑,up,↑,0.5225472000893205,True,19
74K26,502,experiment,49,←,right,→,0.8221408000681549,False,19
74K26,503,experiment,34,↑,up,↑,0.527718500001356,True,19
74K26,504,experiment,56,←,left,←,0.49448440014384687,True,19
74K26,505,experiment,53,→,left,←,0.6483707998413593,False,19
74K26,506,experiment,14,↓,down,↓,0.6937476000748575,True,19
74K26,507,experiment,59,↓,down,↓,0.6201748000457883,True,19
74K26,508,experiment,35,↓,no_key,no_letter,-1.0,False,19
74K26,509,experiment,43,←,right,→,0.6424712999723852,False,19
74K26,510,experiment,47,→,right,→,0.6749855000525713,True,19
74K26,511,experiment,18,↓,down,↓,0.7648377001751214,True,19
74K26,512,experiment,40,↓,down,↓,0.6848772000521421,True,19
74K26,513,experiment,13,→,right,→,0.7051442000083625,True,19
74K26,514,experiment,29,←,left,←,0.6907430000137538,True,19
74K26,515,experiment,26,↓,down,↓,0.5989882999565452,True,19
74K26,516,experiment,21,↑,no_key,no_letter,-1.0,False,19
74K26,517,experiment,16,→,up,↑,0.8973609998356551,False,19
74K26,518,experiment,48,←,no_key,no_letter,-1.0,False,19
74K26,519,experiment,60,↑,up,↑,0.6006851999554783,True,19
74K26,520,experiment,51,←,left,←,0.433641399955377,True,19
74K26,521,experiment,17,←,left,←,0.5710919999983162,True,19
74K26,522,experiment,19,↓,up,↑,0.40014229994267225,False,19
74K26,523,experiment,55,↑,up,↑,0.6918690002057701,True,19
74K26,524,experiment,45,←,left,←,0.6275424999184906,True,19
74K26,525,experiment,58,←,left,←,0.6533356998115778,True,19
74K26,526,experiment,42,↑,up,↑,0.5921867000870407,True,19
74K26,527,experiment,33,→,left,←,0.9957336999941617,False,19
74K26,528,experiment,50,←,no_key,no_letter,-1.0,False,19
74K26,529,experiment,32,↑,up,↑,0.5284864001441747,True,19
74K26,530,experiment,41,↓,down,↓,0.7455768999643624,True,19
74K26,531,experiment,54,↓,left,←,0.30045969993807375,False,19
74K26,532,experiment,24,→,left,←,0.6532864000182599,False,19
74K26,533,experiment,37,→,right,→,0.6597853000275791,True,19
74K26,534,experiment,36,↑,up,↑,0.7701546000316739,True,19
74K26,535,experiment,44,→,right,→,0.5912730998825282,True,19
74K26,536,experiment,31,↓,down,↓,0.6600556001067162,True,19
74K26,537,experiment,25,←,no_key,no_letter,-1.0,False,19
74K26,538,experiment,38,↑,up,↑,0.7070053000934422,True,19
74K26,539,experiment,28,↑,up,↑,0.6615221998654306,True,19
74K26,540,experiment,30,↑,down,↓,0.6564012998715043,False,19
74K26,541,training,38,↓,down,↓,0.7506649999413639,True,19
74K26,542,training,45,←,right,→,0.956026199972257,False,19
74K26,543,experiment,21,↓,down,↓,0.4496172000654042,True,19
74K26,544,experiment,48,→,right,→,0.670812200056389,True,19
74K26,545,experiment,23,→,right,→,0.661797899985686,True,19
74K26,546,experiment,29,←,left,←,0.5374760997947305,True,19
74K26,547,experiment,42,→,right,→,0.6886339001357555,True,19
74K26,548,experiment,36,↑,right,→,0.7101801000535488,False,19
74K26,549,experiment,40,↑,no_key,no_letter,-1.0,False,19
74K26,550,experiment,16,←,left,←,0.5599605001043528,True,19
74K26,551,experiment,14,→,right,→,0.7535334001295269,True,19
74K26,552,experiment,37,←,right,→,0.6596472999081016,False,19
74K26,553,experiment,47,→,right,→,0.603176899952814,True,19
74K26,554,experiment,57,←,left,←,0.5901883998885751,True,19
74K26,555,experiment,53,↓,down,↓,0.548737000208348,True,19
74K26,556,experiment,35,↓,up,↑,0.8479720000177622,False,19
74K26,557,experiment,15,→,right,→,0.6127729001455009,True,19
74K26,558,experiment,39,←,no_key,no_letter,-1.0,False,19
74K26,559,experiment,27,↑,right,→,0.7553868000395596,False,19
74K26,560,experiment,26,←,right,→,0.5648004000540823,False,19
74K26,561,experiment,31,→,right,→,0.4904385998379439,True,19
74K26,562,experiment,38,→,right,→,0.43330959999002516,True,19
74K26,563,experiment,56,→,right,→,0.3840116001665592,True,19
74K26,564,experiment,46,↓,down,↓,0.6656474999617785,True,19
74K26,565,experiment,41,←,right,→,0.5647005001083016,False,19
74K26,566,experiment,22,↓,down,↓,0.6238837998826057,True,19
74K26,567,experiment,30,→,right,→,0.6282947999425232,True,19
74K26,568,experiment,54,→,right,→,0.560626900056377,True,19
74K26,569,experiment,52,↑,up,↑,0.703482500044629,True,19
74K26,570,experiment,55,←,no_key,no_letter,-1.0,False,19
74K26,571,experiment,33,←,left,←,0.5723542999476194,True,19
74K26,572,experiment,45,→,right,→,0.7123285999987274,True,19
74K26,573,experiment,32,→,right,→,0.5278298000339419,True,19
74K26,574,experiment,59,←,left,←,0.5568389999680221,True,19
74K26,575,experiment,17,→,right,→,0.4850289998576045,True,19
74K26,576,experiment,49,↓,down,↓,0.5364740998484194,True,19
74K26,577,experiment,19,→,right,→,0.5594381000846624,True,19
74K26,578,experiment,24,←,left,←,0.4979950000997633,True,19
74K26,579,experiment,60,↑,up,↑,0.5750547000207007,True,19
74K26,580,experiment,51,→,up,↑,0.527411499992013,False,19
74K26,581,experiment,58,←,left,←,0.7170184999704361,True,19
74K26,582,experiment,43,→,right,→,0.45004040002822876,True,19
74K26,583,experiment,13,↑,up,↑,0.793897100025788,True,19
74K26,584,experiment,50,↑,up,↑,0.45050549996085465,True,19
74K26,585,experiment,28,←,up,↑,0.669695399934426,False,19
74K26,586,experiment,20,↓,up,↑,0.5906654000282288,False,19
74K26,587,experiment,25,↓,down,↓,0.5433346999343485,True,19
74K26,588,experiment,18,↓,down,↓,0.7507096999324858,True,19
74K26,589,experiment,44,↑,no_key,no_letter,-1.0,False,19
74K26,590,experiment,34,→,right,→,0.6078693999443203,True,19
