PART_ID,Trial_no,Trial_type,CSI,Stim_letter,Key_pressed,letter_choose,Rt,Corr,Stimulus Time
79M24,1,training,60,→,no_key,no_letter,-1.0,False,30
79M24,2,training,60,↑,no_key,no_letter,-1.0,False,30
79M24,3,training,60,↑,no_key,no_letter,-1.0,False,30
79M24,4,training,60,←,right,→,0.583682200172916,False,30
79M24,5,training,60,→,right,→,0.35178250004537404,True,30
79M24,6,training,60,↑,right,→,0.33515339996665716,False,30
79M24,7,training,60,←,right,→,0.3848367999307811,False,30
79M24,8,training,60,→,no_key,no_letter,-1.0,False,30
79M24,9,training,60,↓,no_key,no_letter,-1.0,False,30
79M24,10,training,60,↑,up,↑,0.6337938001379371,True,30
79M24,11,training,60,←,left,←,0.5169571000151336,True,30
79M24,12,training,60,←,left,←,0.4513130998238921,True,30
79M24,13,training,60,↑,up,↑,0.6828304999507964,True,30
79M24,14,training,60,→,left,←,0.4517443999648094,False,30
79M24,15,training,60,←,left,←,0.4353245000820607,True,30
79M24,16,training,60,↑,up,↑,1.4579683998599648,True,30
79M24,17,training,60,↑,up,↑,0.41808959981426597,True,30
79M24,18,training,60,↓,down,↓,1.390251599950716,True,30
79M24,19,training,60,→,right,→,0.5497866999357939,True,30
79M24,20,training,60,→,right,→,1.4262800000142306,True,30
79M24,21,training,60,→,no_key,no_letter,-1.0,False,18
79M24,22,training,60,↑,up,↑,0.9904788001440465,True,18
79M24,23,training,60,↓,down,↓,0.9513475000858307,True,18
79M24,24,training,60,←,left,←,0.9383381998632103,True,18
79M24,25,training,60,←,left,←,0.6061555000487715,True,18
79M24,26,training,60,↑,up,↑,0.6389333999250084,True,18
79M24,27,training,60,↑,up,↑,0.47109060012735426,True,18
79M24,28,training,60,↓,down,↓,0.8361139998305589,True,18
79M24,29,training,60,↑,up,↑,0.7156961001455784,True,18
79M24,30,training,60,←,left,←,0.8562960000708699,True,18
79M24,31,training,60,←,left,←,0.8469716999679804,True,18
79M24,32,training,60,↑,up,↑,0.5660790998954326,True,18
79M24,33,training,60,↓,down,↓,0.720547900069505,True,18
79M24,34,training,60,→,right,→,0.6365590998902917,True,18
79M24,35,training,60,←,left,←,0.48437879979610443,True,18
79M24,36,training,60,↑,up,↑,0.6896337999496609,True,18
79M24,37,training,60,↑,up,↑,1.1593085997737944,True,18
79M24,38,training,60,→,right,→,0.7299635999370366,True,18
79M24,39,training,60,↑,up,↑,0.7173534000758082,True,18
79M24,40,training,60,↓,up,↑,0.9617237998172641,False,18
79M24,41,training,37,↑,no_key,no_letter,-1.0,False,18
79M24,42,training,38,↑,down,↓,0.9755559000186622,False,18
79M24,43,experiment,34,↑,up,↑,0.7870004000142217,True,18
79M24,44,experiment,41,→,right,→,0.985290199983865,True,18
79M24,45,experiment,28,←,left,←,0.9123102000448853,True,18
79M24,46,experiment,17,→,right,→,0.586137400008738,True,18
79M24,47,experiment,26,↓,down,↓,0.6659775001462549,True,18
79M24,48,experiment,19,→,right,→,0.7072771999519318,True,18
79M24,49,experiment,39,→,right,→,1.0863686997909099,True,18
79M24,50,experiment,42,↓,down,↓,0.7444356998894364,True,18
79M24,51,experiment,30,↓,down,↓,0.6157413001637906,True,18
79M24,52,experiment,45,↓,no_key,no_letter,-1.0,False,18
79M24,53,experiment,49,→,right,→,0.4922488001175225,True,18
79M24,54,experiment,14,↓,down,↓,0.7765332998242229,True,18
79M24,55,experiment,20,↓,down,↓,0.7411748999729753,True,18
79M24,56,experiment,35,→,no_key,no_letter,-1.0,False,18
79M24,57,experiment,43,←,right,→,0.719675799831748,False,18
79M24,58,experiment,50,↓,down,↓,0.6827068000566214,True,18
79M24,59,experiment,38,←,right,→,0.8630254000891,False,18
79M24,60,experiment,16,←,no_key,no_letter,-1.0,False,18
79M24,61,experiment,40,↑,no_key,no_letter,-1.0,False,18
79M24,62,experiment,47,↓,down,↓,0.847083899891004,True,18
79M24,63,experiment,33,↓,down,↓,0.7123315001372248,True,18
79M24,64,experiment,56,↓,down,↓,0.7757371000479907,True,18
79M24,65,experiment,13,↓,down,↓,0.6413271999917924,True,18
79M24,66,experiment,37,↓,no_key,no_letter,-1.0,False,18
79M24,67,experiment,31,→,no_key,no_letter,-1.0,False,18
79M24,68,experiment,51,↓,down,↓,0.7754480000585318,True,18
79M24,69,experiment,25,↑,no_key,no_letter,-1.0,False,18
79M24,70,experiment,32,←,left,←,0.5984957998152822,True,18
79M24,71,experiment,36,←,left,←,0.5752433999441564,True,18
79M24,72,experiment,53,↑,up,↑,0.5342800000216812,True,18
79M24,73,experiment,48,↓,down,↓,0.8898549999576062,True,18
79M24,74,experiment,24,→,right,→,0.735415400005877,True,18
79M24,75,experiment,18,↓,down,↓,0.7988525999244303,True,18
79M24,76,experiment,27,←,left,←,1.853744300082326,True,18
79M24,77,experiment,60,↓,down,↓,0.7013425000477582,True,18
79M24,78,experiment,59,→,right,→,0.5954115998465568,True,18
79M24,79,experiment,55,→,right,→,0.6403981000185013,True,18
79M24,80,experiment,57,↓,down,↓,0.8099492001347244,True,18
79M24,81,experiment,46,→,right,→,0.7486525001004338,True,18
79M24,82,experiment,22,↓,down,↓,0.7131332999560982,True,18
79M24,83,experiment,29,→,right,→,0.7540432000532746,True,18
79M24,84,experiment,21,←,right,→,0.855051500024274,False,18
79M24,85,experiment,52,→,right,→,0.5393716001417488,True,18
79M24,86,experiment,23,←,no_key,no_letter,-1.0,False,18
79M24,87,experiment,58,↓,no_key,no_letter,-1.0,False,18
79M24,88,experiment,54,←,no_key,no_letter,-1.0,False,18
79M24,89,experiment,15,←,left,←,1.8356214999221265,True,18
79M24,90,experiment,44,→,right,→,0.7266317999456078,True,18
79M24,91,training,45,↓,down,↓,0.8835752999875695,True,18
79M24,92,training,37,←,left,←,0.6487195999361575,True,18
79M24,93,experiment,38,↑,up,↑,0.5344823999330401,True,18
79M24,94,experiment,43,→,right,→,0.4697395998518914,True,18
79M24,95,experiment,24,↑,no_key,no_letter,-1.0,False,18
79M24,96,experiment,34,←,left,←,0.4787091000471264,True,18
79M24,97,experiment,41,↓,no_key,no_letter,-1.0,False,18
79M24,98,experiment,19,→,no_key,no_letter,-1.0,False,18
79M24,99,experiment,23,↑,no_key,no_letter,-1.0,False,18
79M24,100,experiment,18,↑,up,↑,0.48918849998153746,True,18
79M24,101,experiment,32,↑,no_key,no_letter,-1.0,False,18
79M24,102,experiment,56,↓,no_key,no_letter,-1.0,False,18
79M24,103,experiment,20,→,right,→,0.7323933001607656,True,18
79M24,104,experiment,33,→,right,→,0.5778508000075817,True,18
79M24,105,experiment,42,→,right,→,0.5843424000777304,True,18
79M24,106,experiment,29,←,left,←,0.9423269000835717,True,18
79M24,107,experiment,52,↑,up,↑,0.6714870000723749,True,18
79M24,108,experiment,51,↑,up,↑,0.6997970000375062,True,18
79M24,109,experiment,49,←,left,←,0.48022989998571575,True,18
79M24,110,experiment,36,↑,up,↑,0.5259338000323623,True,18
79M24,111,experiment,58,↑,no_key,no_letter,-1.0,False,18
79M24,112,experiment,21,←,left,←,0.62436189991422,True,18
79M24,113,experiment,57,→,right,→,0.594487400026992,True,18
79M24,114,experiment,45,→,right,→,0.7423392001073807,True,18
79M24,115,experiment,50,↑,up,↑,0.792691299924627,True,18
79M24,116,experiment,54,↑,up,↑,0.5262430999428034,True,18
79M24,117,experiment,44,←,right,→,0.6692681999411434,False,18
79M24,118,experiment,30,↑,up,↑,0.8794719001743942,True,18
79M24,119,experiment,60,↓,down,↓,0.8132603000849485,True,18
79M24,120,experiment,47,←,right,→,0.7185826997738332,False,18
79M24,121,experiment,13,←,right,→,1.0176760000176728,False,18
79M24,122,experiment,22,↑,no_key,no_letter,-1.0,False,18
79M24,123,experiment,14,↑,no_key,no_letter,-1.0,False,18
79M24,124,experiment,16,←,right,→,0.8367532999254763,False,18
79M24,125,experiment,37,←,left,←,0.5078132001217455,True,18
79M24,126,experiment,59,←,no_key,no_letter,-1.0,False,18
79M24,127,experiment,17,→,right,→,0.8569096999708563,True,18
79M24,128,experiment,48,↓,no_key,no_letter,-1.0,False,18
79M24,129,experiment,55,←,left,←,0.6623515000101179,True,18
79M24,130,experiment,28,←,left,←,0.946367499884218,True,18
79M24,131,experiment,53,←,left,←,0.6909266000147909,True,18
79M24,132,experiment,35,←,no_key,no_letter,-1.0,False,18
79M24,133,experiment,27,←,no_key,no_letter,-1.0,False,18
79M24,134,experiment,15,←,right,→,0.73074010014534,False,18
79M24,135,experiment,31,→,left,←,1.2735284001100808,False,18
79M24,136,experiment,40,→,no_key,no_letter,-1.0,False,18
79M24,137,experiment,26,←,no_key,no_letter,-1.0,False,18
79M24,138,experiment,46,↑,no_key,no_letter,-1.0,False,18
79M24,139,experiment,25,←,no_key,no_letter,-1.0,False,18
79M24,140,experiment,39,↑,up,↑,0.5343901999294758,True,18
79M24,141,training,58,↑,up,↑,0.7655598998535424,True,19
79M24,142,training,25,↓,down,↓,0.7431623998563737,True,19
79M24,143,experiment,20,→,no_key,no_letter,-1.0,False,19
79M24,144,experiment,33,←,left,←,0.5134680999908596,True,19
79M24,145,experiment,35,↑,up,↑,0.7422191998921335,True,19
79M24,146,experiment,41,↑,up,↑,0.5104995998553932,True,19
79M24,147,experiment,37,→,right,→,0.5947193000465631,True,19
79M24,148,experiment,28,↓,down,↓,0.9135223000776023,True,19
79M24,149,experiment,30,↓,down,↓,0.6497919999528676,True,19
79M24,150,experiment,25,↑,up,↑,0.8082387999165803,True,19
79M24,151,experiment,40,↓,no_key,no_letter,-1.0,False,19
79M24,152,experiment,32,→,no_key,no_letter,-1.0,False,19
79M24,153,experiment,22,→,right,→,0.5985829001292586,True,19
79M24,154,experiment,49,←,no_key,no_letter,-1.0,False,19
79M24,155,experiment,52,↓,down,↓,0.7107176000718027,True,19
79M24,156,experiment,43,↓,no_key,no_letter,-1.0,False,19
79M24,157,experiment,26,↓,no_key,no_letter,-1.0,False,19
79M24,158,experiment,51,↓,down,↓,1.0560393000487238,True,19
79M24,159,experiment,48,↓,down,↓,0.6073131000157446,True,19
79M24,160,experiment,47,←,no_key,no_letter,-1.0,False,19
79M24,161,experiment,38,→,no_key,no_letter,-1.0,False,19
79M24,162,experiment,34,↓,down,↓,1.7092956001870334,True,19
79M24,163,experiment,58,↑,up,↑,0.9161921001505107,True,19
79M24,164,experiment,17,←,no_key,no_letter,-1.0,False,19
79M24,165,experiment,36,←,no_key,no_letter,-1.0,False,19
79M24,166,experiment,23,↓,no_key,no_letter,-1.0,False,19
79M24,167,experiment,45,↑,no_key,no_letter,-1.0,False,19
79M24,168,experiment,31,↑,up,↑,0.6759544999804348,True,19
79M24,169,experiment,55,←,no_key,no_letter,-1.0,False,19
79M24,170,experiment,60,→,left,←,0.8480393001809716,False,19
79M24,171,experiment,50,↑,up,↑,0.5497473999857903,True,19
79M24,172,experiment,46,→,no_key,no_letter,-1.0,False,19
79M24,173,experiment,57,↑,up,↑,0.5743876998312771,True,19
79M24,174,experiment,29,↑,up,↑,0.5331296001095325,True,19
79M24,175,experiment,53,↑,up,↑,0.3834552001208067,True,19
79M24,176,experiment,15,←,left,←,1.0361099001020193,True,19
79M24,177,experiment,44,→,no_key,no_letter,-1.0,False,19
79M24,178,experiment,18,←,left,←,0.7086128999944776,True,19
79M24,179,experiment,54,↓,no_key,no_letter,-1.0,False,19
79M24,180,experiment,27,→,no_key,no_letter,-1.0,False,19
79M24,181,experiment,56,←,no_key,no_letter,-1.0,False,19
79M24,182,experiment,21,←,no_key,no_letter,-1.0,False,19
79M24,183,experiment,24,↓,down,↓,0.7615190001670271,True,19
79M24,184,experiment,39,←,right,→,0.9621626001317054,False,19
79M24,185,experiment,59,↓,no_key,no_letter,-1.0,False,19
79M24,186,experiment,42,←,no_key,no_letter,-1.0,False,19
79M24,187,experiment,14,→,no_key,no_letter,-1.0,False,19
79M24,188,experiment,16,←,left,←,0.6844739001244307,True,19
79M24,189,experiment,19,↑,up,↑,0.6294271999504417,True,19
79M24,190,experiment,13,↑,up,↑,0.6283936998806894,True,19
79M24,191,training,51,←,left,←,1.1776397998910397,True,20
79M24,192,training,37,→,right,→,0.6114956000819802,True,20
79M24,193,experiment,15,→,right,→,0.6264986998867244,True,20
79M24,194,experiment,45,←,left,←,0.7803879000712186,True,20
79M24,195,experiment,60,→,right,→,0.7742655999027193,True,20
79M24,196,experiment,40,↓,down,↓,0.7181180000770837,True,20
79M24,197,experiment,16,→,right,→,0.6074018001090735,True,20
79M24,198,experiment,17,↓,down,↓,0.6849093998316675,True,20
79M24,199,experiment,24,←,no_key,no_letter,-1.0,False,20
79M24,200,experiment,19,↓,down,↓,0.6310354999732226,True,20
79M24,201,experiment,38,↓,down,↓,0.45066590001806617,True,20
79M24,202,experiment,32,→,no_key,no_letter,-1.0,False,20
79M24,203,experiment,26,←,left,←,0.526161199901253,True,20
79M24,204,experiment,50,↑,up,↑,0.537151399999857,True,20
79M24,205,experiment,51,↓,no_key,no_letter,-1.0,False,20
79M24,206,experiment,58,↓,no_key,no_letter,-1.0,False,20
79M24,207,experiment,47,↑,up,↑,1.1121050000656396,True,20
79M24,208,experiment,36,←,left,←,0.6133129000663757,True,20
79M24,209,experiment,44,→,right,→,0.5922846000175923,True,20
79M24,210,experiment,43,↓,no_key,no_letter,-1.0,False,20
79M24,211,experiment,55,←,left,←,0.5146171001251787,True,20
79M24,212,experiment,30,↑,right,→,1.0025102000217885,False,20
79M24,213,experiment,48,↓,down,↓,1.099463100079447,True,20
79M24,214,experiment,23,↓,down,↓,0.7930926999542862,True,20
79M24,215,experiment,20,↓,down,↓,0.450635600136593,True,20
79M24,216,experiment,28,←,no_key,no_letter,-1.0,False,20
79M24,217,experiment,56,←,left,←,0.7892232998274267,True,20
79M24,218,experiment,59,←,no_key,no_letter,-1.0,False,20
79M24,219,experiment,31,↑,up,↑,0.6126290999818593,True,20
79M24,220,experiment,57,←,left,←,0.5117350001819432,True,20
79M24,221,experiment,33,←,left,←,1.2135702001396567,True,20
79M24,222,experiment,37,→,right,→,0.9574582001660019,True,20
79M24,223,experiment,34,→,right,→,0.7381469998508692,True,20
79M24,224,experiment,22,→,right,→,0.4670323000755161,True,20
79M24,225,experiment,42,↑,up,↑,0.536236499901861,True,20
79M24,226,experiment,53,↓,no_key,no_letter,-1.0,False,20
79M24,227,experiment,39,→,no_key,no_letter,-1.0,False,20
79M24,228,experiment,13,↓,no_key,no_letter,-1.0,False,20
79M24,229,experiment,41,↑,no_key,no_letter,-1.0,False,20
79M24,230,experiment,25,→,right,→,0.9038432999514043,True,20
79M24,231,experiment,14,←,no_key,no_letter,-1.0,False,20
79M24,232,experiment,49,←,left,←,0.5244320000056177,True,20
79M24,233,experiment,54,↑,up,↑,0.5726453000679612,True,20
79M24,234,experiment,27,→,no_key,no_letter,-1.0,False,20
79M24,235,experiment,52,↑,up,↑,0.7400487998966128,True,20
79M24,236,experiment,29,←,left,←,0.6839958999771625,True,20
79M24,237,experiment,18,→,no_key,no_letter,-1.0,False,20
79M24,238,experiment,35,↓,down,↓,1.0237108999863267,True,20
79M24,239,experiment,21,←,no_key,no_letter,-1.0,False,20
79M24,240,experiment,46,↑,up,↑,0.8530176999047399,True,20
79M24,241,training,17,→,right,→,0.8903081000316888,True,20
79M24,242,training,23,↑,up,↑,1.6645001000724733,True,20
79M24,243,experiment,53,↓,no_key,no_letter,-1.0,False,20
79M24,244,experiment,26,↓,down,↓,0.5884444999974221,True,20
79M24,245,experiment,48,↑,up,↑,0.7737463000230491,True,20
79M24,246,experiment,51,↓,no_key,no_letter,-1.0,False,20
79M24,247,experiment,43,↓,down,↓,0.5474531999789178,True,20
79M24,248,experiment,30,↑,up,↑,0.5539410000201315,True,20
79M24,249,experiment,15,↓,down,↓,0.8346694000065327,True,20
79M24,250,experiment,35,←,left,←,0.74720189999789,True,20
79M24,251,experiment,31,↑,up,↑,0.6412396999076009,True,20
79M24,252,experiment,47,←,left,←,0.5375465999823064,True,20
79M24,253,experiment,44,←,left,←,0.4334914998617023,True,20
79M24,254,experiment,34,←,left,←,0.46705579990521073,True,20
79M24,255,experiment,58,↑,up,↑,0.6871720000635833,True,20
79M24,256,experiment,50,←,left,←,0.6675186001230031,True,20
79M24,257,experiment,56,→,right,→,0.7245506001636386,True,20
79M24,258,experiment,32,→,no_key,no_letter,-1.0,False,20
79M24,259,experiment,14,→,right,→,0.9714138999115676,True,20
79M24,260,experiment,18,↑,up,↑,0.8334987999405712,True,20
79M24,261,experiment,46,↑,up,↑,1.0106840000953525,True,20
79M24,262,experiment,13,↓,no_key,no_letter,-1.0,False,20
79M24,263,experiment,41,↓,no_key,no_letter,-1.0,False,20
79M24,264,experiment,23,←,no_key,no_letter,-1.0,False,20
79M24,265,experiment,49,↓,down,↓,0.9804427998606116,True,20
79M24,266,experiment,28,↑,no_key,no_letter,-1.0,False,20
79M24,267,experiment,60,↓,down,↓,0.860958700068295,True,20
79M24,268,experiment,52,↑,up,↑,0.5855787999462336,True,20
79M24,269,experiment,42,←,right,→,0.9670508000999689,False,20
79M24,270,experiment,37,←,left,←,0.9207240999676287,True,20
79M24,271,experiment,24,↑,up,↑,0.6529852000530809,True,20
79M24,272,experiment,21,←,left,←,0.6218080001417547,True,20
79M24,273,experiment,17,↑,no_key,no_letter,-1.0,False,20
79M24,274,experiment,39,←,left,←,0.6260573999024928,True,20
79M24,275,experiment,16,↓,down,↓,0.8714935998432338,True,20
79M24,276,experiment,57,↑,up,↑,0.6961517999880016,True,20
79M24,277,experiment,20,→,right,→,0.6553899000864476,True,20
79M24,278,experiment,38,→,right,→,0.5570606000255793,True,20
79M24,279,experiment,19,↑,up,↑,0.6750228998716921,True,20
79M24,280,experiment,36,←,left,←,0.7933278998825699,True,20
79M24,281,experiment,55,↓,down,↓,0.9664402999915183,True,20
79M24,282,experiment,45,↓,down,↓,0.9388055999297649,True,20
79M24,283,experiment,29,↓,down,↓,0.971174200065434,True,20
79M24,284,experiment,27,↓,down,↓,0.8034727000631392,True,20
79M24,285,experiment,40,↑,up,↑,0.6018024999648333,True,20
79M24,286,experiment,22,←,right,→,0.9239717999007553,False,20
79M24,287,experiment,25,↑,up,↑,0.9115554001182318,True,20
79M24,288,experiment,33,←,left,←,0.7344764000736177,True,20
79M24,289,experiment,59,↑,no_key,no_letter,-1.0,False,20
79M24,290,experiment,54,→,right,→,0.8728728999849409,True,20
79M24,291,training,33,↓,down,↓,1.2931926001328975,True,20
79M24,292,training,60,←,no_key,no_letter,-1.0,False,20
79M24,293,experiment,17,←,left,←,0.41744930017739534,True,20
79M24,294,experiment,25,←,no_key,no_letter,-1.0,False,20
79M24,295,experiment,43,←,left,←,0.41711540007963777,True,20
79M24,296,experiment,30,→,no_key,no_letter,-1.0,False,20
79M24,297,experiment,38,→,no_key,no_letter,-1.0,False,20
79M24,298,experiment,58,↑,up,↑,0.5077108000405133,True,20
79M24,299,experiment,29,→,right,→,0.7886004000902176,True,20
79M24,300,experiment,15,↑,no_key,no_letter,-1.0,False,20
79M24,301,experiment,27,↓,no_key,no_letter,-1.0,False,20
79M24,302,experiment,57,←,left,←,0.54305630014278,True,20
79M24,303,experiment,35,→,no_key,no_letter,-1.0,False,20
79M24,304,experiment,33,↓,down,↓,1.142920299898833,True,20
79M24,305,experiment,22,↓,down,↓,0.7559996000491083,True,20
79M24,306,experiment,45,→,down,↓,1.4570373001042753,False,20
79M24,307,experiment,60,↓,no_key,no_letter,-1.0,False,20
79M24,308,experiment,42,↓,no_key,no_letter,-1.0,False,20
79M24,309,experiment,40,↑,up,↑,0.7091161999851465,True,20
79M24,310,experiment,55,→,no_key,no_letter,-1.0,False,20
79M24,311,experiment,21,↓,no_key,no_letter,-1.0,False,20
79M24,312,experiment,48,→,right,→,1.234565099934116,True,20
79M24,313,experiment,23,→,no_key,no_letter,-1.0,False,20
79M24,314,experiment,59,→,no_key,no_letter,-1.0,False,20
79M24,315,experiment,37,↓,down,↓,0.7821235000155866,True,20
79M24,316,experiment,34,↓,no_key,no_letter,-1.0,False,20
79M24,317,experiment,51,↑,up,↑,0.6806357998866588,True,20
79M24,318,experiment,52,←,no_key,no_letter,-1.0,False,20
79M24,319,experiment,14,↑,up,↑,0.7557463999837637,True,20
79M24,320,experiment,20,↑,no_key,no_letter,-1.0,False,20
79M24,321,experiment,46,↓,down,↓,0.9722713998053223,True,20
79M24,322,experiment,19,←,no_key,no_letter,-1.0,False,20
79M24,323,experiment,44,↓,no_key,no_letter,-1.0,False,20
79M24,324,experiment,31,←,left,←,0.6351119999308139,True,20
79M24,325,experiment,50,↓,down,↓,0.8492478998377919,True,20
79M24,326,experiment,28,↑,up,↑,1.029603499919176,True,20
79M24,327,experiment,41,↓,no_key,no_letter,-1.0,False,20
79M24,328,experiment,56,→,right,→,0.854463400086388,True,20
79M24,329,experiment,47,←,no_key,no_letter,-1.0,False,20
79M24,330,experiment,49,↓,down,↓,0.9431074000895023,True,20
79M24,331,experiment,16,↑,no_key,no_letter,-1.0,False,20
79M24,332,experiment,32,↓,no_key,no_letter,-1.0,False,20
79M24,333,experiment,18,↑,no_key,no_letter,-1.0,False,20
79M24,334,experiment,54,↓,down,↓,0.6154332000296563,True,20
79M24,335,experiment,24,↓,down,↓,1.1033430001698434,True,20
79M24,336,experiment,53,→,no_key,no_letter,-1.0,False,20
79M24,337,experiment,36,→,right,→,0.6110033001750708,True,20
79M24,338,experiment,39,↑,up,↑,0.889751800103113,True,20
79M24,339,experiment,13,←,left,←,1.2306222000624985,True,20
79M24,340,experiment,26,↓,down,↓,0.7730791999492794,True,20
79M24,341,training,60,↓,down,↓,0.8246286001522094,True,21
79M24,342,training,13,→,right,→,0.5999125998932868,True,21
79M24,343,experiment,32,↓,down,↓,0.8114064000546932,True,21
79M24,344,experiment,44,↓,down,↓,0.9430253999307752,True,21
79M24,345,experiment,25,←,left,←,0.7701789999846369,True,21
79M24,346,experiment,43,→,right,→,1.8077393001876771,True,21
79M24,347,experiment,49,↓,down,↓,0.5607431000098586,True,21
79M24,348,experiment,48,→,right,→,0.7555581999476999,True,21
79M24,349,experiment,13,←,left,←,0.7337128000799567,True,21
79M24,350,experiment,34,↓,down,↓,0.6026665000244975,True,21
79M24,351,experiment,57,←,left,←,0.5895360000431538,True,21
79M24,352,experiment,47,←,left,←,1.039832699811086,True,21
79M24,353,experiment,45,↓,down,↓,0.5858340000268072,True,21
79M24,354,experiment,18,↑,up,↑,0.7671576000284404,True,21
79M24,355,experiment,58,↓,down,↓,0.7875365999061614,True,21
79M24,356,experiment,16,←,left,←,0.8096710999961942,True,21
79M24,357,experiment,54,←,left,←,0.5989850000478327,True,21
79M24,358,experiment,41,↓,down,↓,0.6284338999539614,True,21
79M24,359,experiment,29,↑,up,↑,0.6092197999823838,True,21
79M24,360,experiment,55,→,right,→,0.8775911999400705,True,21
79M24,361,experiment,56,←,left,←,0.630911499960348,True,21
79M24,362,experiment,37,↓,down,↓,0.9340278001036495,True,21
79M24,363,experiment,24,→,right,→,0.8173201000317931,True,21
79M24,364,experiment,46,↑,up,↑,0.547226799884811,True,21
79M24,365,experiment,60,→,right,→,0.8542909999378026,True,21
79M24,366,experiment,31,←,right,→,0.9843518000561744,False,21
79M24,367,experiment,53,↑,up,↑,0.6309370000381023,True,21
79M24,368,experiment,30,↑,up,↑,1.9864209000952542,True,21
79M24,369,experiment,15,↑,up,↑,0.6024027999956161,True,21
79M24,370,experiment,20,↓,down,↓,0.8538285999093205,True,21
79M24,371,experiment,28,↑,up,↑,0.6101319000590593,True,21
79M24,372,experiment,59,↓,down,↓,0.835848500020802,True,21
79M24,373,experiment,36,→,right,→,0.6834617001004517,True,21
79M24,374,experiment,22,↑,no_key,no_letter,-1.0,False,21
79M24,375,experiment,33,←,no_key,no_letter,-1.0,False,21
79M24,376,experiment,26,↓,down,↓,0.7728108000010252,True,21
79M24,377,experiment,35,↓,down,↓,1.5915891001932323,True,21
79M24,378,experiment,38,←,left,←,0.8162771000061184,True,21
79M24,379,experiment,21,↑,up,↑,0.586539100157097,True,21
79M24,380,experiment,23,→,right,→,1.9886668000835925,True,21
79M24,381,experiment,51,←,left,←,0.9729257998988032,True,21
79M24,382,experiment,17,→,right,→,1.2837772001512349,True,21
79M24,383,experiment,19,↓,no_key,no_letter,-1.0,False,21
79M24,384,experiment,42,↑,up,↑,0.9058653998654336,True,21
79M24,385,experiment,39,←,left,←,0.836852699983865,True,21
79M24,386,experiment,50,→,right,→,0.5956015000119805,True,21
79M24,387,experiment,27,→,no_key,no_letter,-1.0,False,21
79M24,388,experiment,52,→,right,→,0.617199799977243,True,21
79M24,389,experiment,14,→,right,→,0.5601379000581801,True,21
79M24,390,experiment,40,↑,up,↑,0.5360534999053925,True,21
79M24,391,training,52,←,no_key,no_letter,-1.0,False,21
79M24,392,training,30,↓,down,↓,0.7909506000578403,True,21
79M24,393,experiment,41,↓,no_key,no_letter,-1.0,False,21
79M24,394,experiment,20,↓,down,↓,0.5608318999875337,True,21
79M24,395,experiment,58,→,no_key,no_letter,-1.0,False,21
79M24,396,experiment,17,→,right,→,1.378747700015083,True,21
79M24,397,experiment,28,→,right,→,0.5944302000571042,True,21
79M24,398,experiment,57,↑,down,↓,1.2621876001358032,False,21
79M24,399,experiment,53,→,no_key,no_letter,-1.0,False,21
79M24,400,experiment,33,↑,up,↑,0.5650116999167949,True,21
79M24,401,experiment,51,←,left,←,0.9173020001035184,True,21
79M24,402,experiment,27,↑,no_key,no_letter,-1.0,False,21
79M24,403,experiment,21,←,right,→,0.8105029999278486,False,21
79M24,404,experiment,24,↓,down,↓,0.9712916000280529,True,21
79M24,405,experiment,47,↑,up,↑,0.8545808999333531,True,21
79M24,406,experiment,36,←,no_key,no_letter,-1.0,False,21
79M24,407,experiment,23,→,no_key,no_letter,-1.0,False,21
79M24,408,experiment,35,←,left,←,0.4505445999093354,True,21
79M24,409,experiment,45,→,right,→,0.928544299909845,True,21
79M24,410,experiment,56,↓,no_key,no_letter,-1.0,False,21
79M24,411,experiment,48,↓,down,↓,0.9207429999951273,True,21
79M24,412,experiment,32,↑,up,↑,0.6398425998631865,True,21
79M24,413,experiment,42,→,no_key,no_letter,-1.0,False,21
79M24,414,experiment,52,↓,no_key,no_letter,-1.0,False,21
79M24,415,experiment,46,↓,down,↓,0.812102299882099,True,21
79M24,416,experiment,44,↓,down,↓,0.631637099897489,True,21
79M24,417,experiment,25,↓,no_key,no_letter,-1.0,False,21
79M24,418,experiment,18,→,right,→,0.699282200075686,True,21
79M24,419,experiment,15,→,right,→,0.6540079999249429,True,21
79M24,420,experiment,49,→,right,→,0.4506606999784708,True,21
79M24,421,experiment,55,→,right,→,0.8063430001493543,True,21
79M24,422,experiment,34,←,left,←,0.45017329999245703,True,21
79M24,423,experiment,60,←,left,←,0.8866718001663685,True,21
79M24,424,experiment,39,↓,down,↓,0.914408499840647,True,21
79M24,425,experiment,59,→,right,→,0.7596190001349896,True,21
79M24,426,experiment,16,↓,down,↓,0.9997464001644403,True,21
79M24,427,experiment,30,↓,no_key,no_letter,-1.0,False,21
79M24,428,experiment,29,↓,down,↓,0.6982678999193013,True,21
79M24,429,experiment,40,←,left,←,0.5404997000005096,True,21
79M24,430,experiment,38,→,right,→,0.7589976000599563,True,21
79M24,431,experiment,14,↓,down,↓,1.02418929990381,True,21
79M24,432,experiment,43,↓,down,↓,0.7560236998833716,True,21
79M24,433,experiment,22,↑,up,↑,0.9203089000657201,True,21
79M24,434,experiment,26,←,left,←,0.8910832998808473,True,21
79M24,435,experiment,54,→,right,→,0.7408421000000089,True,21
79M24,436,experiment,19,→,right,→,0.9958552999887615,True,21
79M24,437,experiment,50,←,left,←,0.6915910998359323,True,21
79M24,438,experiment,13,→,right,→,0.6562483999878168,True,21
79M24,439,experiment,37,↑,no_key,no_letter,-1.0,False,21
79M24,440,experiment,31,↑,up,↑,0.5548666999675333,True,21
79M24,441,training,54,↓,no_key,no_letter,-1.0,False,21
79M24,442,training,47,↓,down,↓,0.9183839000761509,True,21
79M24,443,experiment,59,←,left,←,0.48392999987117946,True,21
79M24,444,experiment,16,↓,no_key,no_letter,-1.0,False,21
79M24,445,experiment,29,→,right,→,0.5870751000475138,True,21
79M24,446,experiment,47,↑,no_key,no_letter,-1.0,False,21
79M24,447,experiment,41,→,right,→,0.5869109998457134,True,21
79M24,448,experiment,13,→,right,→,0.6038786999415606,True,21
79M24,449,experiment,28,↑,no_key,no_letter,-1.0,False,21
79M24,450,experiment,50,↑,no_key,no_letter,-1.0,False,21
79M24,451,experiment,34,↑,up,↑,0.6197380998637527,True,21
79M24,452,experiment,44,↓,down,↓,0.8866018999833614,True,21
79M24,453,experiment,60,↓,down,↓,1.2285639999900013,True,21
79M24,454,experiment,40,↑,up,↑,0.642697999952361,True,21
79M24,455,experiment,49,←,no_key,no_letter,-1.0,False,21
79M24,456,experiment,51,↓,down,↓,0.8243939999956638,True,21
79M24,457,experiment,55,←,no_key,no_letter,-1.0,False,21
79M24,458,experiment,35,←,left,←,0.5497447999659926,True,21
79M24,459,experiment,18,↑,no_key,no_letter,-1.0,False,21
79M24,460,experiment,21,→,right,→,0.6233107000589371,True,21
79M24,461,experiment,27,↑,no_key,no_letter,-1.0,False,21
79M24,462,experiment,57,←,left,←,0.5444108999799937,True,21
79M24,463,experiment,32,→,right,→,1.4548265999183059,True,21
79M24,464,experiment,58,↓,down,↓,0.9834123000036925,True,21
79M24,465,experiment,30,→,right,→,0.7491322997957468,True,21
79M24,466,experiment,43,→,right,→,1.2914517000317574,True,21
79M24,467,experiment,26,↓,down,↓,0.9198374999687076,True,21
79M24,468,experiment,42,←,left,←,0.8564969999715686,True,21
79M24,469,experiment,37,↓,down,↓,0.9987773001194,True,21
79M24,470,experiment,48,→,right,→,0.8716944002080709,True,21
79M24,471,experiment,24,←,left,←,0.8462280998937786,True,21
79M24,472,experiment,15,↓,down,↓,0.8829000000841916,True,21
79M24,473,experiment,36,↑,up,↑,1.080534900072962,True,21
79M24,474,experiment,53,←,left,←,0.9313143999315798,True,21
79M24,475,experiment,22,↓,down,↓,1.0559694000985473,True,21
79M24,476,experiment,17,↓,down,↓,0.7796486001461744,True,21
79M24,477,experiment,54,↑,no_key,no_letter,-1.0,False,21
79M24,478,experiment,45,←,left,←,0.5483153997920454,True,21
79M24,479,experiment,33,←,no_key,no_letter,-1.0,False,21
79M24,480,experiment,52,↓,no_key,no_letter,-1.0,False,21
79M24,481,experiment,20,↑,no_key,no_letter,-1.0,False,21
79M24,482,experiment,31,↓,no_key,no_letter,-1.0,False,21
79M24,483,experiment,14,↓,down,↓,0.6068762999493629,True,21
79M24,484,experiment,25,→,right,→,0.67877780017443,True,21
79M24,485,experiment,56,↓,no_key,no_letter,-1.0,False,21
79M24,486,experiment,23,↓,no_key,no_letter,-1.0,False,21
79M24,487,experiment,39,↓,down,↓,0.6801674000453204,True,21
79M24,488,experiment,19,←,left,←,0.8011795000638813,True,21
79M24,489,experiment,38,→,right,→,0.8886095001362264,True,21
79M24,490,experiment,46,↑,up,↑,0.7840185998938978,True,21
79M24,491,training,41,↑,up,↑,0.876349899917841,True,21
79M24,492,training,41,←,left,←,1.783733099931851,True,21
79M24,493,experiment,57,↓,down,↓,0.8996897998731583,True,21
79M24,494,experiment,44,↑,no_key,no_letter,-1.0,False,21
79M24,495,experiment,45,↑,up,↑,0.7823737000580877,True,21
79M24,496,experiment,30,↓,no_key,no_letter,-1.0,False,21
79M24,497,experiment,20,→,no_key,no_letter,-1.0,False,21
79M24,498,experiment,51,←,left,←,1.6144952999893576,True,21
79M24,499,experiment,53,→,left,←,0.5239339000545442,False,21
79M24,500,experiment,48,↑,no_key,no_letter,-1.0,False,21
79M24,501,experiment,15,↓,down,↓,0.8384255000855774,True,21
79M24,502,experiment,21,←,left,←,0.7279321001842618,True,21
79M24,503,experiment,43,↑,up,↑,0.6799503001384437,True,21
79M24,504,experiment,55,←,left,←,0.52852030005306,True,21
79M24,505,experiment,36,←,no_key,no_letter,-1.0,False,21
79M24,506,experiment,41,←,left,←,0.5777231000829488,True,21
79M24,507,experiment,49,↑,up,↑,0.683198899962008,True,21
79M24,508,experiment,35,→,right,→,0.6094894001726061,True,21
79M24,509,experiment,18,↓,down,↓,0.9583116001449525,True,21
79M24,510,experiment,17,↑,up,↑,0.5182633001822978,True,21
79M24,511,experiment,26,←,left,←,0.9839785001240671,True,21
79M24,512,experiment,46,↑,up,↑,0.8351067998446524,True,21
79M24,513,experiment,42,←,no_key,no_letter,-1.0,False,21
79M24,514,experiment,58,↓,down,↓,0.8411905998364091,True,21
79M24,515,experiment,27,↑,no_key,no_letter,-1.0,False,21
79M24,516,experiment,60,←,left,←,0.7039648999925703,True,21
79M24,517,experiment,50,←,left,←,0.731657899916172,True,21
79M24,518,experiment,25,→,right,→,1.0703869999852031,True,21
79M24,519,experiment,37,↑,no_key,no_letter,-1.0,False,21
79M24,520,experiment,29,→,right,→,0.6576960999518633,True,21
79M24,521,experiment,54,↓,down,↓,0.8927619999740273,True,21
79M24,522,experiment,16,←,left,←,0.6956387001555413,True,21
79M24,523,experiment,59,↓,down,↓,0.830044100061059,True,21
79M24,524,experiment,24,→,right,→,0.877561500063166,True,21
79M24,525,experiment,47,↑,up,↑,0.8305320998188108,True,21
79M24,526,experiment,14,↑,down,↓,0.8507520998828113,False,21
79M24,527,experiment,38,↓,down,↓,0.5286131000611931,True,21
79M24,528,experiment,56,←,left,←,0.9188981000334024,True,21
79M24,529,experiment,13,←,left,←,0.890353900147602,True,21
79M24,530,experiment,39,↑,up,↑,0.8860440999269485,True,21
79M24,531,experiment,31,→,right,→,0.6949907999951392,True,21
79M24,532,experiment,34,→,right,→,0.7338702999986708,True,21
79M24,533,experiment,32,→,no_key,no_letter,-1.0,False,21
79M24,534,experiment,23,←,left,←,0.6776719999033958,True,21
79M24,535,experiment,33,→,right,→,0.6938986000604928,True,21
79M24,536,experiment,52,→,right,→,0.5448682999704033,True,21
79M24,537,experiment,22,→,right,→,0.6376092000864446,True,21
79M24,538,experiment,19,↓,down,↓,1.0564262999687344,True,21
79M24,539,experiment,40,→,no_key,no_letter,-1.0,False,21
79M24,540,experiment,28,↑,no_key,no_letter,-1.0,False,21
79M24,541,training,37,←,left,←,0.6254332999233156,True,21
79M24,542,training,24,←,right,→,0.9535439000464976,False,21
79M24,543,experiment,60,↓,down,↓,0.90880520013161,True,21
79M24,544,experiment,42,→,no_key,no_letter,-1.0,False,21
79M24,545,experiment,50,→,no_key,no_letter,-1.0,False,21
79M24,546,experiment,21,↑,no_key,no_letter,-1.0,False,21
79M24,547,experiment,22,↓,no_key,no_letter,-1.0,False,21
79M24,548,experiment,35,→,right,→,0.804031299892813,True,21
79M24,549,experiment,16,←,no_key,no_letter,-1.0,False,21
79M24,550,experiment,36,→,right,→,0.45038149994798005,True,21
79M24,551,experiment,45,←,left,←,0.5872070000041276,True,21
79M24,552,experiment,49,↓,down,↓,0.7484291000291705,True,21
79M24,553,experiment,43,→,right,→,1.1946715000085533,True,21
79M24,554,experiment,32,↑,down,↓,1.1270294999703765,False,21
79M24,555,experiment,29,↑,up,↑,0.8722296000923961,True,21
79M24,556,experiment,41,↑,up,↑,0.48385780001990497,True,21
79M24,557,experiment,58,←,left,←,0.697465900098905,True,21
79M24,558,experiment,14,→,right,→,0.7809160999022424,True,21
79M24,559,experiment,25,←,left,←,0.5737757999449968,True,21
79M24,560,experiment,20,↑,up,↑,0.6103876000270247,True,21
79M24,561,experiment,18,↑,up,↑,1.2872395000886172,True,21
79M24,562,experiment,26,↓,down,↓,1.1316037001088262,True,21
79M24,563,experiment,37,↑,no_key,no_letter,-1.0,False,21
79M24,564,experiment,38,←,left,←,0.7425891999155283,True,21
79M24,565,experiment,51,↑,up,↑,0.6800440999213606,True,21
79M24,566,experiment,31,←,left,←,2.001036599976942,True,21
79M24,567,experiment,28,←,left,←,0.8958117000292987,True,21
79M24,568,experiment,56,↑,up,↑,0.9665763999801129,True,21
79M24,569,experiment,39,↓,down,↓,1.0629846998490393,True,21
79M24,570,experiment,54,↓,down,↓,1.0419521001167595,True,21
79M24,571,experiment,27,↓,down,↓,0.7596468001138419,True,21
79M24,572,experiment,55,→,right,→,0.702092100167647,True,21
79M24,573,experiment,34,↑,up,↑,0.8842954998835921,True,21
79M24,574,experiment,53,↑,no_key,no_letter,-1.0,False,21
79M24,575,experiment,44,→,no_key,no_letter,-1.0,False,21
79M24,576,experiment,23,←,left,←,0.8919067000970244,True,21
79M24,577,experiment,59,→,right,→,0.5704834000207484,True,21
79M24,578,experiment,17,←,left,←,1.017265799921006,True,21
79M24,579,experiment,24,→,right,→,0.8175983000546694,True,21
79M24,580,experiment,30,↓,down,↓,0.8057230999693274,True,21
79M24,581,experiment,47,↑,up,↑,0.631390199996531,True,21
79M24,582,experiment,40,→,right,→,0.7565691999625415,True,21
79M24,583,experiment,13,↓,no_key,no_letter,-1.0,False,21
79M24,584,experiment,19,↑,up,↑,0.7785930000245571,True,21
79M24,585,experiment,48,←,right,→,0.8929136998485774,False,21
79M24,586,experiment,33,→,right,→,0.8045820000115782,True,21
79M24,587,experiment,57,→,right,→,0.8237467999570072,True,21
79M24,588,experiment,46,↓,down,↓,1.1697548001538962,True,21
79M24,589,experiment,15,↓,down,↓,0.6977818999439478,True,21
79M24,590,experiment,52,↓,down,↓,0.7962181998882443,True,21
