PART_ID,Trial_no,Trial_type,CSI,Stim_letter,Key_pressed,letter_choose,Rt,Corr,Stimulus Time
82K25,1,training,60,↓,no_key,no_letter,-1.0,False,30
82K25,2,training,60,↑,up,↑,1.2553565001580864,True,30
82K25,3,training,60,←,left,←,1.6227319000754505,True,30
82K25,4,training,60,←,left,←,1.6313064000569284,True,30
82K25,5,training,60,←,left,←,1.455519099952653,True,30
82K25,6,training,60,↓,down,↓,1.5746837998740375,True,30
82K25,7,training,60,↓,down,↓,1.5213246000930667,True,30
82K25,8,training,60,↓,down,↓,1.990021799923852,True,30
82K25,9,training,60,↓,down,↓,1.5284410999156535,True,30
82K25,10,training,60,→,right,→,1.6843290999531746,True,30
82K25,11,training,60,↓,down,↓,1.634362499928102,True,30
82K25,12,training,60,↓,down,↓,1.458432300016284,True,30
82K25,13,training,60,←,left,←,1.1297389999963343,True,30
82K25,14,training,60,←,left,←,1.877573899924755,True,30
82K25,15,training,60,↑,up,↑,1.0517772999592125,True,30
82K25,16,training,60,↓,down,↓,1.2107464999426156,True,30
82K25,17,training,60,→,right,→,1.0993445999920368,True,30
82K25,18,training,60,↓,down,↓,1.152763199992478,True,30
82K25,19,training,60,→,right,→,0.7242234000004828,True,30
82K25,20,training,60,←,left,←,1.0559413998853415,True,30
82K25,21,training,60,↑,up,↑,1.0455570998601615,True,18
82K25,22,training,60,←,left,←,1.0447160999756306,True,18
82K25,23,training,60,←,no_key,no_letter,-1.0,False,18
82K25,24,training,60,←,right,→,1.1106980999466032,False,18
82K25,25,training,60,←,left,←,0.9632281998638064,True,18
82K25,26,training,60,→,left,←,1.005618799943477,False,18
82K25,27,training,60,←,left,←,0.8634807001799345,True,18
82K25,28,training,60,↓,down,↓,0.9651665999554098,True,18
82K25,29,training,60,→,left,←,0.7674957998096943,False,18
82K25,30,training,60,↓,down,↓,0.8339764000847936,True,18
82K25,31,training,60,←,right,→,0.9057015001308173,False,18
82K25,32,training,60,↑,up,↑,0.8143396000377834,True,18
82K25,33,training,60,→,right,→,0.8468127001542598,True,18
82K25,34,training,60,→,left,←,0.853757900185883,False,18
82K25,35,training,60,↑,up,↑,0.7968613998964429,True,18
82K25,36,training,60,←,left,←,0.8457335000857711,True,18
82K25,37,training,60,↓,down,↓,0.8847840998787433,True,18
82K25,38,training,60,↑,down,↓,0.9387898000422865,False,18
82K25,39,training,60,→,right,→,0.7102969998959452,True,18
82K25,40,training,60,←,right,→,0.762596300104633,False,18
82K25,41,training,43,↑,right,→,1.0756423000711948,False,18
82K25,42,training,25,←,left,←,0.7933773999102414,True,18
82K25,43,experiment,49,←,left,←,0.8264574001077563,True,18
82K25,44,experiment,25,→,right,→,0.7779103999491781,True,18
82K25,45,experiment,50,←,left,←,0.7710428999271244,True,18
82K25,46,experiment,13,←,left,←,0.7966822998132557,True,18
82K25,47,experiment,54,↑,down,↓,0.8254994000308216,False,18
82K25,48,experiment,48,↓,down,↓,0.7780049999710172,True,18
82K25,49,experiment,27,↓,down,↓,0.8341819001361728,True,18
82K25,50,experiment,44,←,left,←,0.8048012000508606,True,18
82K25,51,experiment,15,↑,down,↓,0.8753421001601964,False,18
82K25,52,experiment,34,←,left,←,0.4835027998778969,True,18
82K25,53,experiment,56,↑,up,↑,0.7553011998534203,True,18
82K25,54,experiment,46,→,right,→,0.8556901998817921,True,18
82K25,55,experiment,53,→,right,→,0.835844200104475,True,18
82K25,56,experiment,19,↓,down,↓,1.7103120998945087,True,18
82K25,57,experiment,40,↑,up,↑,0.825338700087741,True,18
82K25,58,experiment,51,←,left,←,1.031526800012216,True,18
82K25,59,experiment,43,→,right,→,0.722627199953422,True,18
82K25,60,experiment,30,↑,up,↑,0.9869916001334786,True,18
82K25,61,experiment,60,↑,up,↑,0.6688554000575095,True,18
82K25,62,experiment,39,←,right,→,0.8171769001055509,False,18
82K25,63,experiment,18,←,left,←,0.7015382000245154,True,18
82K25,64,experiment,23,↑,up,↑,0.7069970001466572,True,18
82K25,65,experiment,47,←,left,←,0.9924578000791371,True,18
82K25,66,experiment,37,↓,down,↓,0.7696104000788182,True,18
82K25,67,experiment,17,→,left,←,0.8003996000625193,False,18
82K25,68,experiment,16,↓,down,↓,0.918434799881652,True,18
82K25,69,experiment,36,←,left,←,0.7628637000452727,True,18
82K25,70,experiment,14,→,right,→,0.7638438998255879,True,18
82K25,71,experiment,24,↑,up,↑,0.7820395999588072,True,18
82K25,72,experiment,38,←,left,←,0.6941835999023169,True,18
82K25,73,experiment,26,↑,up,↑,0.5382605998311192,True,18
82K25,74,experiment,45,↓,down,↓,0.8000620000530034,True,18
82K25,75,experiment,59,→,right,→,0.7297220998443663,True,18
82K25,76,experiment,42,→,right,→,0.7780850999988616,True,18
82K25,77,experiment,41,→,left,←,1.0494303999003023,False,18
82K25,78,experiment,58,↓,down,↓,0.6896752000320703,True,18
82K25,79,experiment,22,←,left,←,0.720427299849689,True,18
82K25,80,experiment,52,↓,down,↓,0.7301823999732733,True,18
82K25,81,experiment,35,←,left,←,0.7983798999339342,True,18
82K25,82,experiment,55,↑,up,↑,0.6268398999236524,True,18
82K25,83,experiment,28,→,right,→,0.8246327999513596,True,18
82K25,84,experiment,32,↓,down,↓,0.7712977000046521,True,18
82K25,85,experiment,21,↑,up,↑,0.9677128999028355,True,18
82K25,86,experiment,33,→,left,←,0.8278455999679863,False,18
82K25,87,experiment,31,→,right,→,0.7194654000923038,True,18
82K25,88,experiment,57,↓,down,↓,0.7018933999352157,True,18
82K25,89,experiment,29,←,left,←,0.4873889998998493,True,18
82K25,90,experiment,20,↑,up,↑,0.7914659001398832,True,18
82K25,91,training,60,↓,down,↓,0.9302154001779854,True,18
82K25,92,training,25,↓,up,↑,0.8532494001556188,False,18
82K25,93,experiment,13,↑,up,↑,0.7154804999008775,True,18
82K25,94,experiment,56,↑,up,↑,0.7703024998772889,True,18
82K25,95,experiment,25,←,left,←,0.46850370010361075,True,18
82K25,96,experiment,47,←,left,←,0.6102546001784503,True,18
82K25,97,experiment,33,←,left,←,0.708902700105682,True,18
82K25,98,experiment,39,→,right,→,0.6238186999689788,True,18
82K25,99,experiment,30,←,left,←,0.7239557998254895,True,18
82K25,100,experiment,59,↑,up,↑,0.5213492000475526,True,18
82K25,101,experiment,14,↓,down,↓,0.7238189000636339,True,18
82K25,102,experiment,60,→,right,→,0.8165150000713766,True,18
82K25,103,experiment,34,↑,up,↑,0.4738650999497622,True,18
82K25,104,experiment,40,→,right,→,1.020754599943757,True,18
82K25,105,experiment,36,←,right,→,1.0691356000024825,False,18
82K25,106,experiment,20,↑,no_key,no_letter,-1.0,False,18
82K25,107,experiment,29,←,left,←,0.6375752999447286,True,18
82K25,108,experiment,55,↓,down,↓,0.608675800031051,True,18
82K25,109,experiment,41,→,right,→,0.7822541000787169,True,18
82K25,110,experiment,44,↑,up,↑,0.5144883000757545,True,18
82K25,111,experiment,51,↓,down,↓,0.6447885001543909,True,18
82K25,112,experiment,46,↑,up,↑,0.5498962998390198,True,18
82K25,113,experiment,19,↑,up,↑,0.49987650010734797,True,18
82K25,114,experiment,53,↓,down,↓,0.7575126998126507,True,18
82K25,115,experiment,21,↓,down,↓,0.634370299987495,True,18
82K25,116,experiment,38,←,left,←,0.712592100026086,True,18
82K25,117,experiment,22,↓,down,↓,0.542371700052172,True,18
82K25,118,experiment,26,↓,down,↓,0.5921932000201195,True,18
82K25,119,experiment,58,↓,down,↓,0.571211899863556,True,18
82K25,120,experiment,37,→,right,→,0.5568490999285132,True,18
82K25,121,experiment,32,←,left,←,0.6105492999777198,True,18
82K25,122,experiment,23,↑,no_key,no_letter,-1.0,False,18
82K25,123,experiment,48,→,right,→,0.7988213000353426,True,18
82K25,124,experiment,43,↑,up,↑,0.5469416999258101,True,18
82K25,125,experiment,35,↑,up,↑,0.7025011000223458,True,18
82K25,126,experiment,49,→,left,←,0.8354843000415713,False,18
82K25,127,experiment,50,↑,up,↑,0.5933030000887811,True,18
82K25,128,experiment,27,↓,down,↓,0.7370122999418527,True,18
82K25,129,experiment,24,→,right,→,0.6526512999553233,True,18
82K25,130,experiment,54,↑,up,↑,0.5272477001417428,True,18
82K25,131,experiment,15,↓,down,↓,0.7693763999268413,True,18
82K25,132,experiment,16,←,no_key,no_letter,-1.0,False,18
82K25,133,experiment,28,←,left,←,0.5692316999193281,True,18
82K25,134,experiment,57,↓,down,↓,0.9894006999675184,True,18
82K25,135,experiment,45,↓,down,↓,0.6251453999429941,True,18
82K25,136,experiment,18,←,left,←,0.8694371001329273,True,18
82K25,137,experiment,52,↑,up,↑,0.6170041000004858,True,18
82K25,138,experiment,42,←,no_key,no_letter,-1.0,False,18
82K25,139,experiment,17,↑,no_key,no_letter,-1.0,False,18
82K25,140,experiment,31,↑,up,↑,0.7948312000371516,True,18
82K25,141,training,38,→,no_key,no_letter,-1.0,False,18
82K25,142,training,29,↓,down,↓,0.6998611998278648,True,18
82K25,143,experiment,49,←,no_key,no_letter,-1.0,False,18
82K25,144,experiment,17,↓,down,↓,0.5285775999072939,True,18
82K25,145,experiment,26,→,right,→,0.5466463998891413,True,18
82K25,146,experiment,25,↓,down,↓,0.5484090000391006,True,18
82K25,147,experiment,38,↓,down,↓,0.9021723999176174,True,18
82K25,148,experiment,52,←,no_key,no_letter,-1.0,False,18
82K25,149,experiment,55,→,right,→,0.6149164000526071,True,18
82K25,150,experiment,51,↓,down,↓,0.605223499936983,True,18
82K25,151,experiment,43,↑,no_key,no_letter,-1.0,False,18
82K25,152,experiment,41,←,left,←,0.497121499851346,True,18
82K25,153,experiment,57,↑,no_key,no_letter,-1.0,False,18
82K25,154,experiment,36,↓,up,↑,0.898965299827978,False,18
82K25,155,experiment,19,↓,down,↓,0.5471858999226242,True,18
82K25,156,experiment,46,←,left,←,0.47949629998765886,True,18
82K25,157,experiment,15,↑,right,→,0.6668918000068516,False,18
82K25,158,experiment,59,←,right,→,0.6258281001355499,False,18
82K25,159,experiment,33,←,left,←,0.38380359997972846,True,18
82K25,160,experiment,31,↑,up,↑,0.6320868001785129,True,18
82K25,161,experiment,44,←,left,←,0.43393130018375814,True,18
82K25,162,experiment,48,←,left,←,0.4731393000110984,True,18
82K25,163,experiment,54,↑,up,↑,0.4336582999676466,True,18
82K25,164,experiment,20,↑,up,↑,0.5563391000032425,True,18
82K25,165,experiment,13,→,right,→,0.6381584000773728,True,18
82K25,166,experiment,45,↑,up,↑,0.51981470012106,True,18
82K25,167,experiment,16,←,right,→,0.6091577999759465,False,18
82K25,168,experiment,18,↑,up,↑,0.6218787000980228,True,18
82K25,169,experiment,14,→,right,→,0.8925755999516696,True,18
82K25,170,experiment,35,↓,no_key,no_letter,-1.0,False,18
82K25,171,experiment,56,→,right,→,0.6646873999852687,True,18
82K25,172,experiment,47,←,left,←,0.6556198999751359,True,18
82K25,173,experiment,37,↓,down,↓,0.7098375998903066,True,18
82K25,174,experiment,53,↑,up,↑,0.43349150009453297,True,18
82K25,175,experiment,60,→,right,→,0.7906574001535773,True,18
82K25,176,experiment,50,→,right,→,0.5749703999608755,True,18
82K25,177,experiment,24,←,left,←,0.47306589991785586,True,18
82K25,178,experiment,39,↑,up,↑,0.6125833000987768,True,18
82K25,179,experiment,32,↑,up,↑,0.6081026999745518,True,18
82K25,180,experiment,21,↑,up,↑,0.6031935999635607,True,18
82K25,181,experiment,40,→,left,←,0.913183500058949,False,18
82K25,182,experiment,58,↑,up,↑,0.5111451998818666,True,18
82K25,183,experiment,34,→,right,→,0.6851186999119818,True,18
82K25,184,experiment,22,↑,up,↑,0.5959203999955207,True,18
82K25,185,experiment,30,↑,up,↑,0.5213346998207271,True,18
82K25,186,experiment,29,←,up,↑,0.8184917999897152,False,18
82K25,187,experiment,28,↓,down,↓,0.5997837998438627,True,18
82K25,188,experiment,27,↓,down,↓,0.5105359998997301,True,18
82K25,189,experiment,23,→,right,→,0.6920483000576496,True,18
82K25,190,experiment,42,↑,no_key,no_letter,-1.0,False,18
82K25,191,training,31,→,right,→,0.6411205001641065,True,18
82K25,192,training,20,←,left,←,0.4676269998308271,True,18
82K25,193,experiment,54,↓,up,↑,0.6367239998653531,False,18
82K25,194,experiment,13,←,left,←,0.49931120011024177,True,18
82K25,195,experiment,21,↓,no_key,no_letter,-1.0,False,18
82K25,196,experiment,44,←,right,→,0.664030599873513,False,18
82K25,197,experiment,53,↑,up,↑,0.4987880000844598,True,18
82K25,198,experiment,16,↓,down,↓,0.853013499872759,True,18
82K25,199,experiment,58,↑,up,↑,0.6853018999099731,True,18
82K25,200,experiment,36,←,left,←,0.5628263999242336,True,18
82K25,201,experiment,31,→,right,→,0.656557299895212,True,18
82K25,202,experiment,45,↑,up,↑,0.38393509993329644,True,18
82K25,203,experiment,48,←,right,→,0.6421275998000056,False,18
82K25,204,experiment,30,→,right,→,0.6457589000929147,True,18
82K25,205,experiment,50,↑,left,←,0.5234476998448372,False,18
82K25,206,experiment,15,↓,up,↑,0.645378699991852,False,18
82K25,207,experiment,27,←,up,↑,0.48299689986743033,False,18
82K25,208,experiment,39,↓,left,←,0.3189383000135422,False,18
82K25,209,experiment,20,→,up,↑,0.3016353000421077,False,18
82K25,210,experiment,41,→,right,→,0.6124358000233769,True,18
82K25,211,experiment,18,↓,down,↓,0.6093562999740243,True,18
82K25,212,experiment,14,↓,no_key,no_letter,-1.0,False,18
82K25,213,experiment,40,↓,down,↓,0.5528146000579,True,18
82K25,214,experiment,32,←,right,→,0.9904097998514771,False,18
82K25,215,experiment,29,↓,down,↓,0.7806659999769181,True,18
82K25,216,experiment,51,→,right,→,0.6203229001257569,True,18
82K25,217,experiment,28,↑,up,↑,0.5458418000489473,True,18
82K25,218,experiment,57,←,left,←,0.5276330001652241,True,18
82K25,219,experiment,47,↓,down,↓,0.9964317998383194,True,18
82K25,220,experiment,19,↑,up,↑,0.6326907000038773,True,18
82K25,221,experiment,55,↓,up,↑,0.8925856999121606,False,18
82K25,222,experiment,23,→,right,→,0.6259796000085771,True,18
82K25,223,experiment,43,↓,up,↑,0.9016483998857439,False,18
82K25,224,experiment,26,←,left,←,0.5773535999469459,True,18
82K25,225,experiment,34,↓,down,↓,0.7646765001118183,True,18
82K25,226,experiment,56,→,right,→,0.5299003000836819,True,18
82K25,227,experiment,35,↑,up,↑,0.7341362000443041,True,18
82K25,228,experiment,33,↑,up,↑,0.5157975000329316,True,18
82K25,229,experiment,38,↓,down,↓,0.5983126000501215,True,18
82K25,230,experiment,17,↓,down,↓,0.5878568000625819,True,18
82K25,231,experiment,49,↓,down,↓,0.6049045000690967,True,18
82K25,232,experiment,52,↓,down,↓,0.7231264000292867,True,18
82K25,233,experiment,42,↓,down,↓,0.9954395000822842,True,18
82K25,234,experiment,59,↓,left,←,0.846299699973315,False,18
82K25,235,experiment,25,←,left,←,0.6284187000710517,True,18
82K25,236,experiment,46,→,right,→,0.5978983000386506,True,18
82K25,237,experiment,24,→,right,→,0.5187552000861615,True,18
82K25,238,experiment,37,←,left,←,0.8503245001193136,True,18
82K25,239,experiment,60,←,left,←,0.43401550012640655,True,18
82K25,240,experiment,22,←,left,←,0.6265773000195622,True,18
82K25,241,training,33,↑,up,↑,0.4876629998907447,True,18
82K25,242,training,43,↓,up,↑,0.7923552999272943,False,18
82K25,243,experiment,39,↑,up,↑,0.6242823998909444,True,18
82K25,244,experiment,42,↓,down,↓,0.564354500034824,True,18
82K25,245,experiment,40,↑,up,↑,0.531999799888581,True,18
82K25,246,experiment,32,→,right,→,0.9939755999948829,True,18
82K25,247,experiment,46,↑,up,↑,0.63717220001854,True,18
82K25,248,experiment,26,↑,up,↑,0.6595595998223871,True,18
82K25,249,experiment,14,↓,up,↑,1.1366924999747425,False,18
82K25,250,experiment,28,→,right,→,0.7378410000819713,True,18
82K25,251,experiment,24,↓,down,↓,0.5893522000405937,True,18
82K25,252,experiment,52,→,right,→,0.6924915998242795,True,18
82K25,253,experiment,34,↓,down,↓,0.6191764001268893,True,18
82K25,254,experiment,29,→,right,→,0.5441431999206543,True,18
82K25,255,experiment,23,→,right,→,0.724081699969247,True,18
82K25,256,experiment,22,↑,up,↑,0.7776315999217331,True,18
82K25,257,experiment,16,↓,down,↓,0.777253600070253,True,18
82K25,258,experiment,55,←,left,←,0.9107465001288801,True,18
82K25,259,experiment,50,↑,up,↑,0.7465158998966217,True,18
82K25,260,experiment,13,→,right,→,0.7087638999801129,True,18
82K25,261,experiment,44,↓,down,↓,0.6765229001175612,True,18
82K25,262,experiment,19,↑,up,↑,0.6617763000540435,True,18
82K25,263,experiment,47,↑,no_key,no_letter,-1.0,False,18
82K25,264,experiment,37,↑,up,↑,0.7999223000369966,True,18
82K25,265,experiment,43,↑,up,↑,0.6362721000332385,True,18
82K25,266,experiment,18,↑,up,↑,0.5754960000049323,True,18
82K25,267,experiment,38,↑,up,↑,0.5602672998793423,True,18
82K25,268,experiment,48,↓,down,↓,0.7232027999125421,True,18
82K25,269,experiment,35,↓,down,↓,0.9204603000544012,True,18
82K25,270,experiment,54,↓,down,↓,0.7046900000423193,True,18
82K25,271,experiment,60,↓,down,↓,0.7178362000267953,True,18
82K25,272,experiment,58,↑,up,↑,0.835552099859342,True,18
82K25,273,experiment,20,↑,up,↑,0.5178078999742866,True,18
82K25,274,experiment,53,←,left,←,0.7907091998495162,True,18
82K25,275,experiment,31,↑,up,↑,0.7155987999867648,True,18
82K25,276,experiment,15,→,right,→,0.749737799866125,True,18
82K25,277,experiment,59,↑,right,→,0.8015087998937815,False,18
82K25,278,experiment,57,↓,down,↓,0.5567934999708086,True,18
82K25,279,experiment,56,→,right,→,0.6426671999506652,True,18
82K25,280,experiment,30,→,right,→,0.49378450005315244,True,18
82K25,281,experiment,45,→,right,→,0.47007220005616546,True,18
82K25,282,experiment,25,→,right,→,0.49815299990586936,True,18
82K25,283,experiment,17,→,right,→,0.43397770007140934,True,18
82K25,284,experiment,21,→,right,→,0.5161581002175808,True,18
82K25,285,experiment,49,→,no_key,no_letter,-1.0,False,18
82K25,286,experiment,33,↑,no_key,no_letter,-1.0,False,18
82K25,287,experiment,27,→,right,→,0.5338016001041979,True,18
82K25,288,experiment,36,↑,no_key,no_letter,-1.0,False,18
82K25,289,experiment,41,←,left,←,0.8726496000308543,True,18
82K25,290,experiment,51,↓,right,→,0.8451293997932225,False,18
82K25,291,training,58,→,right,→,0.5103625000920147,True,18
82K25,292,training,41,↓,down,↓,0.6240950999781489,True,18
82K25,293,experiment,13,→,right,→,0.6791269001550972,True,18
82K25,294,experiment,17,→,right,→,0.4899364998564124,True,18
82K25,295,experiment,54,↓,down,↓,0.6515172999352217,True,18
82K25,296,experiment,46,↑,up,↑,0.5879305999260396,True,18
82K25,297,experiment,53,←,left,←,0.530472100013867,True,18
82K25,298,experiment,40,→,right,→,0.48308290005661547,True,18
82K25,299,experiment,58,←,left,←,0.6740411000791937,True,18
82K25,300,experiment,55,↑,up,↑,0.620411500101909,True,18
82K25,301,experiment,30,→,left,←,0.896290099946782,False,18
82K25,302,experiment,21,→,right,→,0.567508399952203,True,18
82K25,303,experiment,28,↑,up,↑,0.5270236998330802,True,18
82K25,304,experiment,24,↓,down,↓,0.5631492999382317,True,18
82K25,305,experiment,60,↓,down,↓,0.6700494999531657,True,18
82K25,306,experiment,36,↓,down,↓,0.5404435999225825,True,18
82K25,307,experiment,43,↑,up,↑,0.5633660000748932,True,18
82K25,308,experiment,41,↑,up,↑,0.6034044998232275,True,18
82K25,309,experiment,29,→,right,→,0.7282561999745667,True,18
82K25,310,experiment,48,↑,up,↑,0.3833479001186788,True,18
82K25,311,experiment,14,→,right,→,0.5800336999818683,True,18
82K25,312,experiment,35,→,right,→,0.4947927000466734,True,18
82K25,313,experiment,51,↑,right,→,0.41713009984232485,False,18
82K25,314,experiment,37,→,right,→,0.5211368999443948,True,18
82K25,315,experiment,18,↓,down,↓,0.6890825999435037,True,18
82K25,316,experiment,16,←,left,←,0.5959479999728501,True,18
82K25,317,experiment,23,↓,down,↓,0.4933339001145214,True,18
82K25,318,experiment,20,↑,up,↑,0.5736005001235753,True,18
82K25,319,experiment,52,↑,up,↑,0.7330757998861372,True,18
82K25,320,experiment,49,←,left,←,0.5132905999198556,True,18
82K25,321,experiment,42,↓,down,↓,0.6563647999428213,True,18
82K25,322,experiment,57,↓,down,↓,0.793369899969548,True,18
82K25,323,experiment,50,→,right,→,0.5217829998582602,True,18
82K25,324,experiment,47,→,right,→,1.0307136999908835,True,18
82K25,325,experiment,56,↓,down,↓,0.6493666002061218,True,18
82K25,326,experiment,34,↑,up,↑,0.529793799854815,True,18
82K25,327,experiment,22,↑,up,↑,0.582909099990502,True,18
82K25,328,experiment,31,↓,up,↑,0.5877580000087619,False,18
82K25,329,experiment,39,↓,down,↓,0.5795646999031305,True,18
82K25,330,experiment,25,←,left,←,0.7162801998201758,True,18
82K25,331,experiment,19,↑,no_key,no_letter,-1.0,False,18
82K25,332,experiment,33,←,left,←,0.7125200000591576,True,18
82K25,333,experiment,32,→,no_key,no_letter,-1.0,False,18
82K25,334,experiment,59,→,right,→,0.5876663001254201,True,18
82K25,335,experiment,26,↑,up,↑,0.7638040001038462,True,18
82K25,336,experiment,38,↓,down,↓,0.5727437001187354,True,18
82K25,337,experiment,15,↑,up,↑,0.5809196999762207,True,18
82K25,338,experiment,27,↑,up,↑,0.7482271001208574,True,18
82K25,339,experiment,45,↑,up,↑,0.7215088999364525,True,18
82K25,340,experiment,44,←,left,←,0.8161623999476433,True,18
82K25,341,training,33,↑,up,↑,0.676281499909237,True,18
82K25,342,training,34,↓,down,↓,0.555766599951312,True,18
82K25,343,experiment,24,↑,left,←,0.9186913999728858,False,18
82K25,344,experiment,14,←,left,←,0.48137739999219775,True,18
82K25,345,experiment,41,↓,down,↓,0.7155129001475871,True,18
82K25,346,experiment,55,←,right,→,0.6834327999968082,False,18
82K25,347,experiment,45,←,left,←,0.5150364001747221,True,18
82K25,348,experiment,21,→,right,→,0.6410116998013109,True,18
82K25,349,experiment,31,↓,down,↓,0.6839415000285953,True,18
82K25,350,experiment,36,↓,down,↓,0.5054498000536114,True,18
82K25,351,experiment,57,→,right,→,0.6965053000021726,True,18
82K25,352,experiment,43,←,right,→,0.6247811000794172,False,18
82K25,353,experiment,27,↓,down,↓,0.534977899864316,True,18
82K25,354,experiment,58,↓,down,↓,0.5879133997950703,True,18
82K25,355,experiment,22,↓,down,↓,0.5187379999551922,True,18
82K25,356,experiment,44,↑,up,↑,0.5734894000925124,True,18
82K25,357,experiment,49,↓,down,↓,0.5832655001431704,True,18
82K25,358,experiment,28,↓,down,↓,0.8700854999478906,True,18
82K25,359,experiment,32,↓,down,↓,0.5350311999209225,True,18
82K25,360,experiment,23,→,right,→,0.6591263001319021,True,18
82K25,361,experiment,26,↓,down,↓,0.5928108999505639,True,18
82K25,362,experiment,13,→,right,→,0.545351899927482,True,18
82K25,363,experiment,35,↑,up,↑,0.573403799906373,True,18
82K25,364,experiment,54,←,left,←,0.8356677000410855,True,18
82K25,365,experiment,34,↓,down,↓,0.4767017001286149,True,18
82K25,366,experiment,25,←,left,←,1.0174862002022564,True,18
82K25,367,experiment,56,→,right,→,0.7327489000745118,True,18
82K25,368,experiment,42,↑,up,↑,0.7643112998921424,True,18
82K25,369,experiment,59,←,left,←,0.9196901000104845,True,18
82K25,370,experiment,46,←,left,←,0.5813392999116331,True,18
82K25,371,experiment,60,↑,up,↑,0.5750671999994665,True,18
82K25,372,experiment,51,↑,up,↑,0.503280300181359,True,18
82K25,373,experiment,16,→,right,→,0.48931879992596805,True,18
82K25,374,experiment,52,→,no_key,no_letter,-1.0,False,18
82K25,375,experiment,15,→,right,→,0.5332697001285851,True,18
82K25,376,experiment,29,→,right,→,0.7411774001084268,True,18
82K25,377,experiment,48,↓,down,↓,0.4887777001131326,True,18
82K25,378,experiment,18,←,left,←,0.5861372000072151,True,18
82K25,379,experiment,20,→,right,→,0.5421726999338716,True,18
82K25,380,experiment,40,↓,down,↓,0.7753616999834776,True,18
82K25,381,experiment,38,↓,down,↓,0.6640872000716627,True,18
82K25,382,experiment,33,↓,down,↓,0.5762445000000298,True,18
82K25,383,experiment,39,←,no_key,no_letter,-1.0,False,18
82K25,384,experiment,30,↓,down,↓,0.6714027000125498,True,18
82K25,385,experiment,19,→,right,→,1.200773400021717,True,18
82K25,386,experiment,37,↑,up,↑,0.7452733998652548,True,18
82K25,387,experiment,53,←,left,←,0.4978503999300301,True,18
82K25,388,experiment,17,↑,up,↑,0.5389886999037117,True,18
82K25,389,experiment,47,←,right,→,0.7518879000563174,False,18
82K25,390,experiment,50,→,right,→,0.5370169000234455,True,18
82K25,391,training,57,←,left,←,0.7498528000432998,True,18
82K25,392,training,16,←,left,←,0.5100682000629604,True,18
82K25,393,experiment,46,←,left,←,0.43377449992112815,True,18
82K25,394,experiment,49,↓,down,↓,0.794442999875173,True,18
82K25,395,experiment,33,→,right,→,0.7740059001371264,True,18
82K25,396,experiment,39,→,right,→,0.6702380999922752,True,18
82K25,397,experiment,44,→,right,→,0.5592018000315875,True,18
82K25,398,experiment,14,↑,down,↓,0.8965215000789613,False,18
82K25,399,experiment,18,↓,down,↓,0.9134106000419706,True,18
82K25,400,experiment,19,→,right,→,0.689271799987182,True,18
82K25,401,experiment,32,←,left,←,0.7851931999903172,True,18
82K25,402,experiment,37,↑,up,↑,0.49832300003618,True,18
82K25,403,experiment,29,↓,down,↓,0.963616699911654,True,18
82K25,404,experiment,59,←,left,←,0.646845999872312,True,18
82K25,405,experiment,57,←,left,←,0.8486761001404375,True,18
82K25,406,experiment,15,↓,down,↓,0.6054124999791384,True,18
82K25,407,experiment,41,→,right,→,0.7312389998696744,True,18
82K25,408,experiment,54,←,no_key,no_letter,-1.0,False,18
82K25,409,experiment,20,↑,up,↑,0.5602057999931276,True,18
82K25,410,experiment,22,→,right,→,0.6282089001033455,True,18
82K25,411,experiment,56,↑,up,↑,0.7514722000341862,True,18
82K25,412,experiment,48,↓,down,↓,0.5383758000098169,True,18
82K25,413,experiment,43,←,left,←,0.6255339998751879,True,18
82K25,414,experiment,36,↑,no_key,no_letter,-1.0,False,18
82K25,415,experiment,34,←,left,←,0.7339317000005394,True,18
82K25,416,experiment,28,→,right,→,0.5905202999711037,True,18
82K25,417,experiment,31,→,right,→,0.8115295998286456,True,18
82K25,418,experiment,47,↑,up,↑,0.4851774999406189,True,18
82K25,419,experiment,51,→,right,→,0.7366580001544207,True,18
82K25,420,experiment,58,←,left,←,0.47086720005609095,True,18
82K25,421,experiment,50,→,right,→,0.6340568999294192,True,18
82K25,422,experiment,13,↑,up,↑,0.5927295000292361,True,18
82K25,423,experiment,55,←,left,←,0.41715770005248487,True,18
82K25,424,experiment,26,↑,up,↑,0.6759271000046283,True,18
82K25,425,experiment,42,←,left,←,0.6620899001136422,True,18
82K25,426,experiment,30,↓,down,↓,0.5770801000762731,True,18
82K25,427,experiment,53,↑,up,↑,0.5681761999148875,True,18
82K25,428,experiment,24,←,left,←,0.6103238000068814,True,18
82K25,429,experiment,17,←,left,←,0.6158840002026409,True,18
82K25,430,experiment,60,←,left,←,0.5441832998767495,True,18
82K25,431,experiment,38,↑,up,↑,0.5540463000070304,True,18
82K25,432,experiment,25,↑,up,↑,0.5401274999603629,True,18
82K25,433,experiment,23,←,left,←,0.43376000015996397,True,18
82K25,434,experiment,27,↓,down,↓,0.5491820999886841,True,18
82K25,435,experiment,16,←,right,→,0.524934200104326,False,18
82K25,436,experiment,52,→,right,→,0.598630900029093,True,18
82K25,437,experiment,45,→,right,→,0.96143600018695,True,18
82K25,438,experiment,40,↑,up,↑,0.7389289999846369,True,18
82K25,439,experiment,21,↓,up,↑,0.7914425998460501,False,18
82K25,440,experiment,35,↑,up,↑,0.94579379982315,True,18
82K25,441,training,42,↓,up,↑,0.8702332000248134,False,18
82K25,442,training,31,↑,up,↑,0.5359179000370204,True,18
82K25,443,experiment,14,←,left,←,0.658104500034824,True,18
82K25,444,experiment,58,↓,down,↓,0.6907339999452233,True,18
82K25,445,experiment,21,↓,down,↓,0.5456989000085741,True,18
82K25,446,experiment,22,↓,no_key,no_letter,-1.0,False,18
82K25,447,experiment,20,→,right,→,0.4999025999568403,True,18
82K25,448,experiment,44,↓,down,↓,0.5153738998342305,True,18
82K25,449,experiment,33,←,left,←,0.5537552000023425,True,18
82K25,450,experiment,43,←,left,←,0.5677432999946177,True,18
82K25,451,experiment,37,↓,down,↓,0.7212522001937032,True,18
82K25,452,experiment,45,←,left,←,0.799644700018689,True,18
82K25,453,experiment,13,↑,up,↑,0.6402393998578191,True,18
82K25,454,experiment,41,↑,up,↑,0.532101099845022,True,18
82K25,455,experiment,16,↓,down,↓,0.48458420019596815,True,18
82K25,456,experiment,30,↑,up,↑,0.5181921001058072,True,18
82K25,457,experiment,25,↓,no_key,no_letter,-1.0,False,18
82K25,458,experiment,50,↓,down,↓,0.6832284000702202,True,18
82K25,459,experiment,18,←,left,←,0.6449110999237746,True,18
82K25,460,experiment,19,←,right,→,0.7434679998550564,False,18
82K25,461,experiment,51,→,right,→,0.737149499822408,True,18
82K25,462,experiment,35,→,right,→,0.5574260000139475,True,18
82K25,463,experiment,17,→,right,→,1.2607408999465406,True,18
82K25,464,experiment,40,→,no_key,no_letter,-1.0,False,18
82K25,465,experiment,36,←,left,←,0.8202236997894943,True,18
82K25,466,experiment,42,→,right,→,0.5128313000313938,True,18
82K25,467,experiment,23,←,right,→,0.669895299943164,False,18
82K25,468,experiment,39,↓,down,↓,0.5544640000443906,True,18
82K25,469,experiment,46,→,right,→,0.47845629998482764,True,18
82K25,470,experiment,60,←,left,←,0.7801141999661922,True,18
82K25,471,experiment,29,←,left,←,0.4983646001201123,True,18
82K25,472,experiment,55,→,right,→,0.4674615999683738,True,18
82K25,473,experiment,56,↑,up,↑,0.5389763000421226,True,18
82K25,474,experiment,32,←,left,←,0.4006322999484837,True,18
82K25,475,experiment,34,←,left,←,0.4680037999060005,True,18
82K25,476,experiment,38,←,left,←,0.40047629992477596,True,18
82K25,477,experiment,15,↑,up,↑,0.556750699877739,True,18
82K25,478,experiment,24,←,left,←,0.6074554999358952,True,18
82K25,479,experiment,54,←,left,←,0.5964943999424577,True,18
82K25,480,experiment,27,↑,up,↑,0.6353545999154449,True,18
82K25,481,experiment,48,↑,up,↑,0.5949617999140173,True,18
82K25,482,experiment,57,←,left,←,0.5588273999746889,True,18
82K25,483,experiment,53,→,left,←,0.7662586998194456,False,18
82K25,484,experiment,49,↑,up,↑,0.6961992001160979,True,18
82K25,485,experiment,26,←,left,←,0.5718081998638809,True,18
82K25,486,experiment,47,↑,up,↑,0.7425683999899775,True,18
82K25,487,experiment,31,↓,left,←,0.869399200193584,False,18
82K25,488,experiment,28,↑,up,↑,0.6890591999981552,True,18
82K25,489,experiment,59,←,left,←,0.5594190999399871,True,18
82K25,490,experiment,52,→,right,→,0.7037043999880552,True,18
82K25,491,training,52,↑,up,↑,0.7030273000709713,True,18
82K25,492,training,23,↑,up,↑,0.6205295999534428,True,18
82K25,493,experiment,54,←,left,←,0.5848711000289768,True,18
82K25,494,experiment,17,←,left,←,0.6388600999489427,True,18
82K25,495,experiment,57,↑,no_key,no_letter,-1.0,False,18
82K25,496,experiment,21,←,no_key,no_letter,-1.0,False,18
82K25,497,experiment,24,↑,up,↑,0.7442673000041395,True,18
82K25,498,experiment,13,↓,down,↓,0.7389829000458121,True,18
82K25,499,experiment,30,←,no_key,no_letter,-1.0,False,18
82K25,500,experiment,26,←,left,←,0.6279800999909639,True,18
82K25,501,experiment,56,→,right,→,0.9271000998560339,True,18
82K25,502,experiment,35,←,left,←,0.49192010005936027,True,18
82K25,503,experiment,47,←,left,←,0.6584734001662582,True,18
82K25,504,experiment,27,↓,down,↓,0.7190543001051992,True,18
82K25,505,experiment,20,↓,down,↓,0.6378066998440772,True,18
82K25,506,experiment,28,↑,up,↑,0.5867965000215918,True,18
82K25,507,experiment,60,←,left,←,0.5964760999195278,True,18
82K25,508,experiment,25,↑,up,↑,0.6125494998414069,True,18
82K25,509,experiment,58,→,right,→,0.6303985000122339,True,18
82K25,510,experiment,51,←,left,←,0.5960744000039995,True,18
82K25,511,experiment,36,↑,up,↑,0.6691133000422269,True,18
82K25,512,experiment,55,←,left,←,0.6305368000175804,True,18
82K25,513,experiment,52,→,right,→,0.8037608000449836,True,18
82K25,514,experiment,46,↓,down,↓,0.7499149998184294,True,18
82K25,515,experiment,31,↓,down,↓,0.828401800012216,True,18
82K25,516,experiment,45,←,left,←,0.5108753999229521,True,18
82K25,517,experiment,32,→,right,→,0.5500524998642504,True,18
82K25,518,experiment,18,←,left,←,0.41722550010308623,True,18
82K25,519,experiment,37,↓,down,↓,0.7716038001235574,True,18
82K25,520,experiment,43,↑,no_key,no_letter,-1.0,False,18
82K25,521,experiment,50,↓,down,↓,0.5949395999778062,True,18
82K25,522,experiment,48,←,left,←,0.5245592000428587,True,18
82K25,523,experiment,44,↑,up,↑,0.7233074000105262,True,18
82K25,524,experiment,15,↓,down,↓,0.6055082997772843,True,18
82K25,525,experiment,41,↓,down,↓,0.6671120000537485,True,18
82K25,526,experiment,23,↓,down,↓,0.7058473001234233,True,18
82K25,527,experiment,38,←,left,←,0.4703638998325914,True,18
82K25,528,experiment,39,←,left,←,0.5290276000741869,True,18
82K25,529,experiment,34,↓,down,↓,0.5904959999024868,True,18
82K25,530,experiment,14,↑,no_key,no_letter,-1.0,False,18
82K25,531,experiment,22,↓,down,↓,0.5627190999221057,True,18
82K25,532,experiment,42,→,no_key,no_letter,-1.0,False,18
82K25,533,experiment,16,←,left,←,0.6649361001327634,True,18
82K25,534,experiment,19,↑,up,↑,0.626365500036627,True,18
82K25,535,experiment,49,→,left,←,0.49016270018182695,False,18
82K25,536,experiment,29,↓,down,↓,0.6521892999298871,True,18
82K25,537,experiment,33,↑,up,↑,0.5169365999754518,True,18
82K25,538,experiment,53,↓,down,↓,0.5419586000498384,True,18
82K25,539,experiment,40,→,no_key,no_letter,-1.0,False,18
82K25,540,experiment,59,↑,up,↑,0.7146406001411378,True,18
82K25,541,training,27,↑,up,↑,0.6118103000335395,True,18
82K25,542,training,19,→,no_key,no_letter,-1.0,False,18
82K25,543,experiment,13,↓,down,↓,0.9696869000326842,True,18
82K25,544,experiment,52,↑,up,↑,0.5293453000485897,True,18
82K25,545,experiment,40,↑,up,↑,0.5072818999178708,True,18
82K25,546,experiment,21,↓,down,↓,0.6255352001171559,True,18
82K25,547,experiment,30,↑,up,↑,0.5419000000692904,True,18
82K25,548,experiment,37,→,right,→,0.552639199886471,True,18
82K25,549,experiment,48,↑,up,↑,0.6675185000058264,True,18
82K25,550,experiment,25,↓,down,↓,0.5690280001144856,True,18
82K25,551,experiment,38,→,no_key,no_letter,-1.0,False,18
82K25,552,experiment,27,→,right,→,0.6987213999964297,True,18
82K25,553,experiment,55,←,left,←,0.5791544001549482,True,18
82K25,554,experiment,59,↑,up,↑,0.5500895001459867,True,18
82K25,555,experiment,53,←,right,→,0.478641799883917,False,18
82K25,556,experiment,44,↓,down,↓,0.782017899909988,True,18
82K25,557,experiment,16,←,left,←,0.5007859000470489,True,18
82K25,558,experiment,17,←,left,←,0.9020476997829974,True,18
82K25,559,experiment,39,↓,down,↓,0.625206199940294,True,18
82K25,560,experiment,26,←,left,←,0.767904199892655,True,18
82K25,561,experiment,42,←,left,←,0.7262860999908298,True,18
82K25,562,experiment,20,←,left,←,0.5971961999312043,True,18
82K25,563,experiment,47,↓,down,↓,0.5974204998929054,True,18
82K25,564,experiment,24,↑,up,↑,0.6143494001589715,True,18
82K25,565,experiment,18,↑,up,↑,0.7782412001397461,True,18
82K25,566,experiment,46,↑,up,↑,0.6378967000637203,True,18
82K25,567,experiment,23,↓,down,↓,0.6301730000413954,True,18
82K25,568,experiment,19,→,right,→,0.6009676000103354,True,18
82K25,569,experiment,33,↑,up,↑,0.5797039999160916,True,18
82K25,570,experiment,35,→,right,→,0.6620046999305487,True,18
82K25,571,experiment,57,↓,down,↓,0.7191655000206083,True,18
82K25,572,experiment,22,↑,left,←,0.6444655999075621,False,18
82K25,573,experiment,31,↑,up,↑,0.5273162999656051,True,18
82K25,574,experiment,51,↑,up,↑,0.5376033999491483,True,18
82K25,575,experiment,43,↑,up,↑,0.6564661001320928,True,18
82K25,576,experiment,56,→,right,→,0.4165241001173854,True,18
82K25,577,experiment,34,↑,up,↑,0.6271707999985665,True,18
82K25,578,experiment,36,←,left,←,0.755252500064671,True,18
82K25,579,experiment,32,↓,down,↓,0.49712580000050366,True,18
82K25,580,experiment,54,↑,down,↓,0.7457137999590486,False,18
82K25,581,experiment,29,↑,up,↑,0.4739481001161039,True,18
82K25,582,experiment,58,↓,down,↓,0.6089963000267744,True,18
82K25,583,experiment,15,→,left,←,0.5516763001214713,False,18
82K25,584,experiment,60,↑,left,←,0.6907435001339763,False,18
82K25,585,experiment,49,↓,down,↓,0.5917102000676095,True,18
82K25,586,experiment,50,↓,down,↓,0.5760668001603335,True,18
82K25,587,experiment,28,←,left,←,0.5595050000119954,True,18
82K25,588,experiment,45,→,no_key,no_letter,-1.0,False,18
82K25,589,experiment,14,←,left,←,0.8059744001366198,True,18
82K25,590,experiment,41,←,left,←,0.6995667999144644,True,18
