PART_ID,Trial_no,Trial_type,CSI,Stim_letter,Key_pressed,letter_choose,Rt,Corr,Stimulus Time
83M19,1,training,60,↑,up,↑,1.041640300070867,True,30
83M19,2,training,60,←,left,←,0.5995451000053436,True,30
83M19,3,training,60,↓,down,↓,0.733724300051108,True,30
83M19,4,training,60,←,left,←,0.8157340998295695,True,30
83M19,5,training,60,→,right,→,0.7187346001155674,True,30
83M19,6,training,60,→,right,→,0.9049294998403639,True,30
83M19,7,training,60,←,no_key,no_letter,-1.0,False,30
83M19,8,training,60,→,right,→,0.7330531999468803,True,30
83M19,9,training,60,←,left,←,1.0709096998907626,True,30
83M19,10,training,60,←,no_key,no_letter,-1.0,False,30
83M19,11,training,60,←,left,←,0.9178817998617887,True,30
83M19,12,training,60,←,right,→,0.9989340000320226,False,30
83M19,13,training,60,←,left,←,0.9502465999685228,True,30
83M19,14,training,60,→,right,→,0.8475150999147445,True,30
83M19,15,training,60,↓,down,↓,0.9569182000122964,True,30
83M19,16,training,60,↑,up,↑,0.7822799000423402,True,30
83M19,17,training,60,↑,up,↑,0.7826847000978887,True,30
83M19,18,training,60,→,right,→,0.6703115999698639,True,30
83M19,19,training,60,→,right,→,0.9305008999072015,True,30
83M19,20,training,60,←,left,←,0.8922434998676181,True,30
83M19,21,training,60,↑,up,↑,0.7596676999237388,True,18
83M19,22,training,60,→,right,→,0.5841931998729706,True,18
83M19,23,training,60,↓,down,↓,0.6482725001405925,True,18
83M19,24,training,60,←,left,←,0.6535741998814046,True,18
83M19,25,training,60,→,right,→,0.5789080001413822,True,18
83M19,26,training,60,↑,up,↑,1.1309003001078963,True,18
83M19,27,training,60,↑,up,↑,0.732710300013423,True,18
83M19,28,training,60,↓,down,↓,0.758895399980247,True,18
83M19,29,training,60,↑,up,↑,0.7603388999123126,True,18
83M19,30,training,60,←,left,←,0.7208910000044852,True,18
83M19,31,training,60,→,right,→,0.6117347001563758,True,18
83M19,32,training,60,↑,up,↑,0.7301894000265747,True,18
83M19,33,training,60,↓,down,↓,0.9241084998939186,True,18
83M19,34,training,60,→,right,→,0.6548368998337537,True,18
83M19,35,training,60,↓,down,↓,0.6601223000325263,True,18
83M19,36,training,60,↓,down,↓,0.792780099902302,True,18
83M19,37,training,60,→,right,→,0.6404321999289095,True,18
83M19,38,training,60,↑,down,↓,0.8781162998639047,False,18
83M19,39,training,60,→,right,→,0.6103149000555277,True,18
83M19,40,training,60,↓,down,↓,0.6168419998139143,True,18
83M19,41,training,41,→,right,→,0.6434400998987257,True,18
83M19,42,training,23,↓,down,↓,0.6027339000720531,True,18
83M19,43,experiment,54,←,left,←,0.5347766000777483,True,18
83M19,44,experiment,30,↓,down,↓,0.5816591000184417,True,18
83M19,45,experiment,17,↓,up,↑,0.8428081998135895,False,18
83M19,46,experiment,22,→,right,→,0.9548065999988467,True,18
83M19,47,experiment,32,→,right,→,0.48759820009581745,True,18
83M19,48,experiment,23,↑,up,↑,0.6367667999584228,True,18
83M19,49,experiment,43,→,right,→,0.5268608001060784,True,18
83M19,50,experiment,39,→,right,→,0.5120535001624376,True,18
83M19,51,experiment,36,→,right,→,0.4920204998925328,True,18
83M19,52,experiment,44,↑,up,↑,1.0994693997781724,True,18
83M19,53,experiment,27,↓,up,↑,0.9653527999762446,False,18
83M19,54,experiment,50,←,left,←,0.5414760999847203,True,18
83M19,55,experiment,33,←,right,→,0.7220358001068234,False,18
83M19,56,experiment,15,→,right,→,0.5474189999513328,True,18
83M19,57,experiment,51,↑,up,↑,0.5154540000949055,True,18
83M19,58,experiment,21,←,left,←,0.6008202999364585,True,18
83M19,59,experiment,47,→,no_key,no_letter,-1.0,False,18
83M19,60,experiment,18,↑,up,↑,0.5027721000369638,True,18
83M19,61,experiment,26,↑,up,↑,0.5377352999057621,True,18
83M19,62,experiment,25,→,right,→,0.5393886999227107,True,18
83M19,63,experiment,45,↓,down,↓,0.7924774000421166,True,18
83M19,64,experiment,14,↓,down,↓,0.5753938998095691,True,18
83M19,65,experiment,31,←,left,←,0.5560868000611663,True,18
83M19,66,experiment,53,→,right,→,0.6027085999958217,True,18
83M19,67,experiment,38,←,left,←,0.4816205999813974,True,18
83M19,68,experiment,13,←,left,←,0.5173328998498619,True,18
83M19,69,experiment,37,→,right,→,0.4963338999077678,True,18
83M19,70,experiment,40,→,right,→,0.6100843998137861,True,18
83M19,71,experiment,58,→,right,→,0.49926440021954477,True,18
83M19,72,experiment,49,→,right,→,0.4866081001237035,True,18
83M19,73,experiment,20,→,right,→,0.5660629998892546,True,18
83M19,74,experiment,56,↓,down,↓,0.6260482999496162,True,18
83M19,75,experiment,34,←,left,←,0.5467156998347491,True,18
83M19,76,experiment,19,↑,up,↑,0.5599887000862509,True,18
83M19,77,experiment,41,←,left,←,0.5665736999362707,True,18
83M19,78,experiment,57,↑,up,↑,0.6259731999598444,True,18
83M19,79,experiment,29,↑,up,↑,0.7020604000426829,True,18
83M19,80,experiment,28,↓,down,↓,0.7513287998735905,True,18
83M19,81,experiment,55,↑,up,↑,0.6292175000999123,True,18
83M19,82,experiment,35,←,left,←,0.6369195999577641,True,18
83M19,83,experiment,16,←,left,←,0.6326053999364376,True,18
83M19,84,experiment,52,↓,down,↓,0.6686048000119627,True,18
83M19,85,experiment,60,↓,down,↓,0.6260410998947918,True,18
83M19,86,experiment,59,→,right,→,0.5539794000796974,True,18
83M19,87,experiment,24,↑,up,↑,0.5879768999293447,True,18
83M19,88,experiment,42,←,left,←,1.416638399939984,True,18
83M19,89,experiment,48,←,left,←,0.727938000112772,True,18
83M19,90,experiment,46,↓,down,↓,0.5246783001348376,True,18
83M19,91,training,37,←,down,↓,1.0754372999072075,False,17
83M19,92,training,52,←,right,→,0.8700739999767393,False,17
83M19,93,experiment,52,↑,up,↑,0.7689684999641031,True,17
83M19,94,experiment,29,↑,up,↑,0.6787129000294954,True,17
83M19,95,experiment,15,←,left,←,0.6659228000789881,True,17
83M19,96,experiment,45,←,left,←,0.6013108000624925,True,17
83M19,97,experiment,50,←,left,←,0.511969700222835,True,17
83M19,98,experiment,14,→,right,→,0.4513296000659466,True,17
83M19,99,experiment,51,←,left,←,0.5263155999127775,True,17
83M19,100,experiment,60,→,right,→,0.513256800128147,True,17
83M19,101,experiment,36,←,left,←,0.5485835999716073,True,17
83M19,102,experiment,25,↓,left,←,0.9819104000926018,False,17
83M19,103,experiment,27,↓,down,↓,0.6686344998888671,True,17
83M19,104,experiment,44,↑,up,↑,0.6686905000824481,True,17
83M19,105,experiment,59,↓,down,↓,0.6266520998906344,True,17
83M19,106,experiment,32,→,right,→,0.588814799906686,True,17
83M19,107,experiment,40,←,left,←,0.6825915998779237,True,17
83M19,108,experiment,43,→,right,→,0.6665988001041114,True,17
83M19,109,experiment,33,→,right,→,0.6018564000260085,True,17
83M19,110,experiment,26,→,right,→,0.47303720004856586,True,17
83M19,111,experiment,19,←,left,←,0.4171721001621336,True,17
83M19,112,experiment,20,←,left,←,0.506648400099948,True,17
83M19,113,experiment,38,←,up,↑,1.5414561000652611,False,17
83M19,114,experiment,39,←,right,→,0.6139769000001252,False,17
83M19,115,experiment,57,←,left,←,0.6313102000858635,True,17
83M19,116,experiment,30,←,left,←,0.5699273000936955,True,17
83M19,117,experiment,35,←,right,→,1.0439490000717342,False,17
83M19,118,experiment,18,←,left,←,0.7105421000160277,True,17
83M19,119,experiment,24,←,left,←,0.6025928999297321,True,17
83M19,120,experiment,46,↓,down,↓,0.5559098001103848,True,17
83M19,121,experiment,53,↓,down,↓,0.8667711999733001,True,17
83M19,122,experiment,55,↓,down,↓,0.6032265999820083,True,17
83M19,123,experiment,23,←,left,←,0.6039811000227928,True,17
83M19,124,experiment,17,↓,down,↓,0.5606061001308262,True,17
83M19,125,experiment,28,↓,down,↓,0.5518727002199739,True,17
83M19,126,experiment,37,↓,down,↓,0.5532910001929849,True,17
83M19,127,experiment,56,→,right,→,0.525918599916622,True,17
83M19,128,experiment,58,↓,down,↓,0.5386053000111133,True,17
83M19,129,experiment,47,↓,left,←,0.8618910999502987,False,17
83M19,130,experiment,13,→,right,→,0.4992315999697894,True,17
83M19,131,experiment,22,↑,up,↑,0.7046744001563638,True,17
83M19,132,experiment,42,↑,up,↑,0.6326117999851704,True,17
83M19,133,experiment,41,←,left,←,0.6440808000043035,True,17
83M19,134,experiment,31,→,right,→,0.613760500214994,True,17
83M19,135,experiment,34,↓,down,↓,0.5505262999795377,True,17
83M19,136,experiment,21,↑,up,↑,0.7465550999622792,True,17
83M19,137,experiment,49,←,left,←,0.5078141998965293,True,17
83M19,138,experiment,16,↑,up,↑,0.5094622001051903,True,17
83M19,139,experiment,54,↑,up,↑,0.8854769000317901,True,17
83M19,140,experiment,48,←,left,←,0.9461429000366479,True,17
83M19,141,training,25,→,right,→,1.1218359998892993,True,17
83M19,142,training,24,→,right,→,1.0132458999287337,True,17
83M19,143,experiment,31,↓,down,↓,0.6558928000740707,True,17
83M19,144,experiment,54,↑,up,↑,0.7298955000005662,True,17
83M19,145,experiment,56,↑,up,↑,0.5837842000182718,True,17
83M19,146,experiment,46,↑,up,↑,0.5058373999781907,True,17
83M19,147,experiment,27,→,right,→,0.5481077001895756,True,17
83M19,148,experiment,49,←,left,←,0.46909849997609854,True,17
83M19,149,experiment,53,↑,up,↑,0.7591587000060827,True,17
83M19,150,experiment,44,↑,up,↑,0.5639076998922974,True,17
83M19,151,experiment,32,↑,up,↑,0.6397826999891549,True,17
83M19,152,experiment,21,←,left,←,0.6087765998672694,True,17
83M19,153,experiment,19,↑,up,↑,0.5638373999390751,True,17
83M19,154,experiment,30,↑,up,↑,0.4740540001075715,True,17
83M19,155,experiment,23,←,right,→,0.4172348000574857,False,17
83M19,156,experiment,16,←,left,←,0.6758748001884669,True,17
83M19,157,experiment,43,→,right,→,0.5245296000503004,True,17
83M19,158,experiment,14,↓,down,↓,0.7184654001612216,True,17
83M19,159,experiment,17,←,left,←,0.4552333001047373,True,17
83M19,160,experiment,18,↓,down,↓,0.6158594000153244,True,17
83M19,161,experiment,40,↑,up,↑,0.5644825000781566,True,17
83M19,162,experiment,45,↑,up,↑,0.9680097999516875,True,17
83M19,163,experiment,24,↑,up,↑,0.7131374999880791,True,17
83M19,164,experiment,13,↑,up,↑,0.5484947001095861,True,17
83M19,165,experiment,55,↑,up,↑,0.6257949001155794,True,17
83M19,166,experiment,38,↓,down,↓,0.5681189000606537,True,17
83M19,167,experiment,59,↑,up,↑,0.8018908000085503,True,17
83M19,168,experiment,26,↑,up,↑,0.8804872001055628,True,17
83M19,169,experiment,22,←,left,←,0.7505043998826295,True,17
83M19,170,experiment,15,←,left,←,0.6706920999567956,True,17
83M19,171,experiment,50,↓,down,↓,0.7547210000921041,True,17
83M19,172,experiment,52,↑,up,↑,0.570045999949798,True,17
83M19,173,experiment,39,←,left,←,0.4970692000351846,True,17
83M19,174,experiment,35,←,left,←,0.4704215000383556,True,17
83M19,175,experiment,48,↓,down,↓,0.5077486999798566,True,17
83M19,176,experiment,33,→,right,→,0.4741343001369387,True,17
83M19,177,experiment,28,→,right,→,0.8766826998908073,True,17
83M19,178,experiment,47,↓,left,←,1.7864357000216842,False,17
83M19,179,experiment,25,↑,up,↑,0.5865211000200361,True,17
83M19,180,experiment,42,↓,down,↓,0.5990283999126405,True,17
83M19,181,experiment,51,↑,up,↑,0.6051774998195469,True,17
83M19,182,experiment,57,↑,down,↓,0.7911413998808712,False,17
83M19,183,experiment,36,→,right,→,0.5517210999969393,True,17
83M19,184,experiment,41,↑,right,→,0.870508800027892,False,17
83M19,185,experiment,29,←,left,←,0.6247046000789851,True,17
83M19,186,experiment,20,↑,up,↑,0.6183909000828862,True,17
83M19,187,experiment,34,→,right,→,0.5069912001490593,True,17
83M19,188,experiment,37,↑,up,↑,0.6623982000164688,True,17
83M19,189,experiment,60,↓,no_key,no_letter,-1.0,False,17
83M19,190,experiment,58,←,left,←,0.5438394001685083,True,17
83M19,191,training,56,←,right,→,0.7644256998319179,False,17
83M19,192,training,23,↓,down,↓,0.5104525000788271,True,17
83M19,193,experiment,43,←,left,←,0.4697346999309957,True,17
83M19,194,experiment,53,↑,up,↑,0.560094399843365,True,17
83M19,195,experiment,30,↓,right,→,0.8300494998693466,False,17
83M19,196,experiment,37,→,right,→,0.6758041998837143,True,17
83M19,197,experiment,49,↓,down,↓,0.47259400016628206,True,17
83M19,198,experiment,59,↑,up,↑,0.5343903000466526,True,17
83M19,199,experiment,44,↓,down,↓,0.6759185998234898,True,17
83M19,200,experiment,33,→,right,→,0.41739839990623295,True,17
83M19,201,experiment,38,↓,down,↓,0.48139000008814037,True,17
83M19,202,experiment,60,↑,up,↑,0.5490098998416215,True,17
83M19,203,experiment,35,←,no_key,no_letter,-1.0,False,17
83M19,204,experiment,32,↑,up,↑,0.5966745000332594,True,17
83M19,205,experiment,21,→,right,→,0.6152627000119537,True,17
83M19,206,experiment,57,↓,up,↑,1.151643699966371,False,17
83M19,207,experiment,31,←,left,←,0.493001600028947,True,17
83M19,208,experiment,16,←,right,→,0.7110037999227643,False,17
83M19,209,experiment,15,←,right,→,0.6489880001172423,False,17
83M19,210,experiment,25,↓,down,↓,0.7266524999868125,True,17
83M19,211,experiment,47,↓,down,↓,0.6586628998629749,True,17
83M19,212,experiment,17,→,right,→,0.4007725000847131,True,17
83M19,213,experiment,54,←,left,←,0.7364245001226664,True,17
83M19,214,experiment,34,↑,up,↑,0.5484316998627037,True,17
83M19,215,experiment,42,↑,up,↑,0.6268018002156168,True,17
83M19,216,experiment,14,←,left,←,0.4803869999013841,True,17
83M19,217,experiment,26,↓,right,→,0.8919514999724925,False,17
83M19,218,experiment,45,→,right,→,0.8263666001148522,True,17
83M19,219,experiment,36,↑,up,↑,0.6337667000479996,True,17
83M19,220,experiment,28,↑,up,↑,0.5497438001912087,True,17
83M19,221,experiment,24,←,left,←,0.5677588998805732,True,17
83M19,222,experiment,51,→,right,→,0.5910511000547558,True,17
83M19,223,experiment,50,↓,down,↓,0.5183086998295039,True,17
83M19,224,experiment,46,↑,down,↓,0.7789410001132637,False,17
83M19,225,experiment,18,↓,down,↓,1.4323436000850052,True,17
83M19,226,experiment,22,→,right,→,0.5687067999970168,True,17
83M19,227,experiment,27,←,left,←,0.5598732000216842,True,17
83M19,228,experiment,40,↑,up,↑,0.4552134000696242,True,17
83M19,229,experiment,52,→,right,→,0.8816990000195801,True,17
83M19,230,experiment,58,↓,down,↓,0.8878943000454456,True,17
83M19,231,experiment,29,↓,left,←,0.8650124999694526,False,17
83M19,232,experiment,13,↓,down,↓,0.6856467998586595,True,17
83M19,233,experiment,19,←,left,←,0.5416560000739992,True,17
83M19,234,experiment,41,↑,up,↑,0.6369445999152958,True,17
83M19,235,experiment,39,→,right,→,0.8341813001316041,True,17
83M19,236,experiment,48,↓,down,↓,0.5923528000712395,True,17
83M19,237,experiment,23,→,left,←,0.537692500045523,False,17
83M19,238,experiment,20,↓,left,←,1.23106799996458,False,17
83M19,239,experiment,56,↑,left,←,0.9122754998970777,False,17
83M19,240,experiment,55,↑,up,↑,0.7276503001339734,True,17
83M19,241,training,46,←,left,←,0.6784125999547541,True,17
83M19,242,training,59,←,left,←,0.7003230000846088,True,17
83M19,243,experiment,17,←,left,←,0.5329541000537574,True,17
83M19,244,experiment,45,↑,up,↑,0.601669899886474,True,17
83M19,245,experiment,20,↑,up,↑,0.6923295999877155,True,17
83M19,246,experiment,41,↑,up,↑,0.4616429000161588,True,17
83M19,247,experiment,33,↓,up,↑,0.4688768999185413,False,17
83M19,248,experiment,30,↓,down,↓,0.9663764000870287,True,17
83M19,249,experiment,25,↓,down,↓,0.8069378999061882,True,17
83M19,250,experiment,59,↓,down,↓,0.583587700035423,True,17
83M19,251,experiment,28,→,right,→,0.557633499847725,True,17
83M19,252,experiment,32,→,left,←,0.5221984998788685,False,17
83M19,253,experiment,27,←,left,←,0.6517010999377817,True,17
83M19,254,experiment,44,↓,down,↓,0.9244311000220478,True,17
83M19,255,experiment,13,→,right,→,0.6070351998787373,True,17
83M19,256,experiment,38,→,right,→,0.7895969001110643,True,17
83M19,257,experiment,43,↑,up,↑,0.689637100091204,True,17
83M19,258,experiment,22,↓,down,↓,0.6319824999663979,True,17
83M19,259,experiment,14,↓,down,↓,0.8769680000841618,True,17
83M19,260,experiment,46,→,right,→,0.5795575000811368,True,17
83M19,261,experiment,54,↓,down,↓,0.5842071999795735,True,17
83M19,262,experiment,60,↑,up,↑,0.7448792001232505,True,17
83M19,263,experiment,24,↑,up,↑,0.5557870999909937,True,17
83M19,264,experiment,52,←,left,←,0.578945100074634,True,17
83M19,265,experiment,37,↓,down,↓,0.6275450000539422,True,17
83M19,266,experiment,48,→,right,→,0.4669044001493603,True,17
83M19,267,experiment,49,↓,down,↓,0.5356319001875818,True,17
83M19,268,experiment,29,↑,up,↑,0.6391759000252932,True,17
83M19,269,experiment,47,↑,up,↑,1.702276200056076,True,17
83M19,270,experiment,15,←,right,→,0.5443283000495285,False,17
83M19,271,experiment,58,↑,up,↑,0.7641987001989037,True,17
83M19,272,experiment,36,←,left,←,0.5415361002087593,True,17
83M19,273,experiment,55,←,right,→,0.8437143000774086,False,17
83M19,274,experiment,19,→,right,→,0.6295409998856485,True,17
83M19,275,experiment,35,←,left,←,0.5810014999005944,True,17
83M19,276,experiment,31,→,right,→,0.5372133001219481,True,17
83M19,277,experiment,53,→,right,→,0.504196599824354,True,17
83M19,278,experiment,56,↓,down,↓,0.5748159000650048,True,17
83M19,279,experiment,50,←,right,→,0.4868594000581652,False,17
83M19,280,experiment,18,←,left,←,0.4798981000203639,True,17
83M19,281,experiment,57,↑,up,↑,1.710592599818483,True,17
83M19,282,experiment,16,↓,down,↓,0.6557786001358181,True,17
83M19,283,experiment,26,←,left,←,0.7006090001668781,True,17
83M19,284,experiment,39,↓,down,↓,0.5823431999888271,True,17
83M19,285,experiment,21,←,left,←,0.528908499982208,True,17
83M19,286,experiment,23,↑,up,↑,0.5891546001657844,True,17
83M19,287,experiment,40,↑,up,↑,0.5468333999160677,True,17
83M19,288,experiment,34,←,left,←,0.5825040000490844,True,17
83M19,289,experiment,51,→,right,→,0.7251025999430567,True,17
83M19,290,experiment,42,↓,down,↓,0.7642535998020321,True,17
83M19,291,training,21,↑,left,←,0.9148325000423938,False,17
83M19,292,training,22,→,right,→,0.5435852999798954,True,17
83M19,293,experiment,37,↑,up,↑,0.7134988999459893,True,17
83M19,294,experiment,21,→,right,→,0.5987928998656571,True,17
83M19,295,experiment,31,↓,down,↓,0.6261630000080913,True,17
83M19,296,experiment,54,→,no_key,no_letter,-1.0,False,17
83M19,297,experiment,19,↓,down,↓,0.8750919001176953,True,17
83M19,298,experiment,40,←,left,←,0.757483399938792,True,17
83M19,299,experiment,57,↓,down,↓,0.5454657999798656,True,17
83M19,300,experiment,35,←,left,←,0.5329165000002831,True,17
83M19,301,experiment,47,←,left,←,0.5283269002102315,True,17
83M19,302,experiment,48,←,down,↓,1.1473815999925137,False,17
83M19,303,experiment,58,↑,right,→,1.2147892001084983,False,17
83M19,304,experiment,45,↑,up,↑,0.9121175999753177,True,17
83M19,305,experiment,13,←,left,←,0.6033896999433637,True,17
83M19,306,experiment,23,↓,down,↓,0.7161128998268396,True,17
83M19,307,experiment,44,↑,up,↑,0.7542097000405192,True,17
83M19,308,experiment,55,↓,down,↓,0.663771599996835,True,17
83M19,309,experiment,41,↓,down,↓,1.1541523998603225,True,17
83M19,310,experiment,49,↑,up,↑,0.6435221000574529,True,17
83M19,311,experiment,28,→,right,→,0.6074840000364929,True,17
83M19,312,experiment,50,↑,up,↑,0.6705329997930676,True,17
83M19,313,experiment,22,←,left,←,0.764776200056076,True,17
83M19,314,experiment,53,↑,up,↑,0.5627552000805736,True,17
83M19,315,experiment,27,↑,up,↑,0.5230495999567211,True,17
83M19,316,experiment,26,→,right,→,0.6286867000162601,True,17
83M19,317,experiment,32,↑,up,↑,0.5749290001112968,True,17
83M19,318,experiment,34,←,left,←,0.8655409999191761,True,17
83M19,319,experiment,36,←,down,↓,0.8627800999674946,False,17
83M19,320,experiment,33,↓,down,↓,0.6060691999737173,True,17
83M19,321,experiment,42,↑,up,↑,0.5229923999868333,True,17
83M19,322,experiment,52,↓,down,↓,0.5227955998852849,True,17
83M19,323,experiment,39,↓,down,↓,0.4843830999452621,True,17
83M19,324,experiment,14,→,right,→,0.5994039999786764,True,17
83M19,325,experiment,38,↓,down,↓,0.48643300007097423,True,17
83M19,326,experiment,18,↓,down,↓,0.9587230999022722,True,17
83M19,327,experiment,59,↑,left,←,1.3134409000631422,False,17
83M19,328,experiment,43,→,right,→,0.6560371001251042,True,17
83M19,329,experiment,56,→,right,→,0.576722800033167,True,17
83M19,330,experiment,29,↓,left,←,1.35083939996548,False,17
83M19,331,experiment,24,←,left,←,0.6570142998825759,True,17
83M19,332,experiment,25,↓,down,↓,0.5501198000274599,True,17
83M19,333,experiment,17,→,down,↓,1.3887082000728697,False,17
83M19,334,experiment,16,↑,up,↑,0.7150576000567526,True,17
83M19,335,experiment,15,↓,down,↓,0.6920090999919921,True,17
83M19,336,experiment,46,→,right,→,0.6818764000199735,True,17
83M19,337,experiment,51,↑,up,↑,0.9087206998374313,True,17
83M19,338,experiment,60,→,right,→,0.5607672000769526,True,17
83M19,339,experiment,20,→,right,→,0.6453822001349181,True,17
83M19,340,experiment,30,→,right,→,0.5520784000400454,True,17
83M19,341,training,17,←,right,→,0.6109619000926614,False,17
83M19,342,training,30,↑,left,←,1.4867400999646634,False,17
83M19,343,experiment,15,↓,down,↓,0.7213986001443118,True,17
83M19,344,experiment,29,↑,up,↑,0.5694060998503119,True,17
83M19,345,experiment,59,→,right,→,0.8033229000866413,True,17
83M19,346,experiment,56,→,right,→,0.5740679001901299,True,17
83M19,347,experiment,28,↓,down,↓,0.5650285000447184,True,17
83M19,348,experiment,31,→,right,→,0.9533800000790507,True,17
83M19,349,experiment,47,→,right,→,0.7400557999499142,True,17
83M19,350,experiment,13,←,left,←,0.8140531000681221,True,17
83M19,351,experiment,35,↓,down,↓,0.7820548999588937,True,17
83M19,352,experiment,25,←,left,←,0.6461121998727322,True,17
83M19,353,experiment,22,↑,up,↑,0.7415255999658257,True,17
83M19,354,experiment,24,←,left,←,0.8320170000661165,True,17
83M19,355,experiment,19,←,left,←,0.6420167000032961,True,17
83M19,356,experiment,57,↑,up,↑,0.8267843001522124,True,17
83M19,357,experiment,37,↓,down,↓,0.5694043000694364,True,17
83M19,358,experiment,36,→,right,→,0.7225916001480073,True,17
83M19,359,experiment,58,←,left,←,0.5513623999431729,True,17
83M19,360,experiment,16,↑,up,↑,0.6546563999727368,True,17
83M19,361,experiment,45,↓,down,↓,0.8226285998243839,True,17
83M19,362,experiment,43,←,left,←,0.5373604998458177,True,17
83M19,363,experiment,42,↓,down,↓,0.6319760999176651,True,17
83M19,364,experiment,38,←,left,←,0.5659566998947412,True,17
83M19,365,experiment,60,→,right,→,0.6706393999047577,True,17
83M19,366,experiment,27,↓,down,↓,0.8021237999200821,True,17
83M19,367,experiment,32,←,left,←,0.6606922999490052,True,17
83M19,368,experiment,21,←,left,←,0.6126580000855029,True,17
83M19,369,experiment,52,↓,down,↓,0.7293155000079423,True,17
83M19,370,experiment,34,→,right,→,0.45409230003133416,True,17
83M19,371,experiment,23,←,left,←,0.46728690015152097,True,17
83M19,372,experiment,44,→,right,→,0.6513840002007782,True,17
83M19,373,experiment,14,↓,down,↓,0.5359161999076605,True,17
83M19,374,experiment,51,→,right,→,0.6008427001070231,True,17
83M19,375,experiment,26,→,right,→,0.6396873001940548,True,17
83M19,376,experiment,50,←,left,←,0.6532302999403328,True,17
83M19,377,experiment,30,↓,down,↓,0.6946523000951856,True,17
83M19,378,experiment,54,↓,down,↓,0.711303299991414,True,17
83M19,379,experiment,46,↑,up,↑,0.6767224001232535,True,17
83M19,380,experiment,40,←,left,←,0.7113053000066429,True,17
83M19,381,experiment,39,↓,down,↓,0.7054288999643177,True,17
83M19,382,experiment,55,←,left,←,0.4646104001440108,True,17
83M19,383,experiment,41,↓,down,↓,0.6508367999922484,True,17
83M19,384,experiment,33,←,left,←,0.49061779980547726,True,17
83M19,385,experiment,48,←,left,←,0.47922730003483593,True,17
83M19,386,experiment,53,→,right,→,0.4005217000376433,True,17
83M19,387,experiment,20,←,down,↓,0.9625969999469817,False,17
83M19,388,experiment,18,↓,down,↓,0.7678875999990851,True,17
83M19,389,experiment,17,→,right,→,0.4175177998840809,True,17
83M19,390,experiment,49,↓,down,↓,0.7080372998025268,True,17
83M19,391,training,34,↓,down,↓,1.0281275999732316,True,16
83M19,392,training,21,↓,down,↓,0.7332711999770254,True,16
83M19,393,experiment,38,↑,up,↑,0.7266432999167591,True,16
83M19,394,experiment,50,↓,down,↓,0.6884719000663608,True,16
83M19,395,experiment,46,→,right,→,0.46252439985983074,True,16
83M19,396,experiment,35,←,no_key,no_letter,-1.0,False,16
83M19,397,experiment,43,←,left,←,0.810570599976927,True,16
83M19,398,experiment,31,↓,down,↓,0.6380201999563724,True,16
83M19,399,experiment,49,→,right,→,0.4358367999084294,True,16
83M19,400,experiment,21,↓,left,←,1.0921887999866158,False,16
83M19,401,experiment,33,↓,down,↓,0.7468733999412507,True,16
83M19,402,experiment,58,↓,down,↓,0.5586490998975933,True,16
83M19,403,experiment,19,→,no_key,no_letter,-1.0,False,16
83M19,404,experiment,30,↓,down,↓,0.522471799980849,True,16
83M19,405,experiment,54,→,right,→,0.5698785001877695,True,16
83M19,406,experiment,13,→,left,←,1.106542999856174,False,16
83M19,407,experiment,56,→,right,→,0.5532076000235975,True,16
83M19,408,experiment,51,→,right,→,0.48158670007251203,True,16
83M19,409,experiment,15,→,right,→,0.4004989000968635,True,16
83M19,410,experiment,48,↑,up,↑,0.8435311000794172,True,16
83M19,411,experiment,45,→,no_key,no_letter,-1.0,False,16
83M19,412,experiment,41,←,left,←,0.4913157999981195,True,16
83M19,413,experiment,57,↓,down,↓,0.8102903000544757,True,16
83M19,414,experiment,47,→,right,→,0.9625595000106841,True,16
83M19,415,experiment,22,↑,up,↑,0.9257751998957247,True,16
83M19,416,experiment,27,→,right,→,0.4705890000332147,True,16
83M19,417,experiment,52,→,right,→,0.4347071999218315,True,16
83M19,418,experiment,34,↓,down,↓,0.6325155000668019,True,16
83M19,419,experiment,55,↓,down,↓,0.6028062000405043,True,16
83M19,420,experiment,44,↑,up,↑,0.6932486000005156,True,16
83M19,421,experiment,36,←,left,←,0.434281799942255,True,16
83M19,422,experiment,37,←,right,→,0.5191991000901908,False,16
83M19,423,experiment,17,←,right,→,0.5112191000953317,False,16
83M19,424,experiment,28,↑,up,↑,0.8325405002105981,True,16
83M19,425,experiment,59,↓,down,↓,0.7118391999974847,True,16
83M19,426,experiment,16,↑,up,↑,0.9375076999422163,True,16
83M19,427,experiment,23,↓,down,↓,0.8765908998902887,True,16
83M19,428,experiment,25,←,right,→,1.4411812000907958,False,16
83M19,429,experiment,29,←,left,←,0.6045482000336051,True,16
83M19,430,experiment,60,←,left,←,0.5968510999809951,True,16
83M19,431,experiment,39,←,left,←,0.4833736999426037,True,16
83M19,432,experiment,26,→,right,→,0.5904688001610339,True,16
83M19,433,experiment,24,←,left,←,0.5033950998913497,True,16
83M19,434,experiment,14,↓,down,↓,0.5940398999955505,True,16
83M19,435,experiment,53,↑,up,↑,0.6791769999545068,True,16
83M19,436,experiment,40,→,right,→,0.6731527999509126,True,16
83M19,437,experiment,32,←,left,←,0.5302091001067311,True,16
83M19,438,experiment,42,↓,up,↑,0.8481763999443501,False,16
83M19,439,experiment,18,↓,up,↑,0.8977721999399364,False,16
83M19,440,experiment,20,←,left,←,0.7764280999545008,True,16
83M19,441,training,46,→,right,→,0.7952012999448925,True,16
83M19,442,training,56,←,left,←,0.4867959001567215,True,16
83M19,443,experiment,49,→,right,→,0.49077509995549917,True,16
83M19,444,experiment,32,←,right,→,0.6018386001233011,False,16
83M19,445,experiment,33,↓,right,→,1.0197484001982957,False,16
83M19,446,experiment,60,←,left,←,0.6751323998905718,True,16
83M19,447,experiment,34,←,left,←,0.5622890999075025,True,16
83M19,448,experiment,21,→,right,→,0.5173774000722915,True,16
83M19,449,experiment,23,↑,up,↑,0.6251001998316497,True,16
83M19,450,experiment,13,↑,up,↑,0.511851100018248,True,16
83M19,451,experiment,20,←,left,←,0.5268178998958319,True,16
83M19,452,experiment,53,←,left,←,0.5506617000792176,True,16
83M19,453,experiment,52,↓,down,↓,0.6218228999059647,True,16
83M19,454,experiment,54,←,left,←,0.5054454999044538,True,16
83M19,455,experiment,17,→,right,→,0.4818267000373453,True,16
83M19,456,experiment,22,↓,down,↓,0.5037688999436796,True,16
83M19,457,experiment,41,←,right,→,0.5124305000063032,False,16
83M19,458,experiment,47,↓,down,↓,0.4691274000797421,True,16
83M19,459,experiment,45,←,left,←,0.4844959999900311,True,16
83M19,460,experiment,40,↑,up,↑,0.8064911998808384,True,16
83M19,461,experiment,37,↑,up,↑,0.8297440998721868,True,16
83M19,462,experiment,31,→,right,→,0.6637538000941277,True,16
83M19,463,experiment,42,↓,up,↑,1.0574762001633644,False,16
83M19,464,experiment,25,←,left,←,0.5429844001773745,True,16
83M19,465,experiment,14,↓,down,↓,0.4878648999147117,True,16
83M19,466,experiment,19,→,right,→,0.45590920001268387,True,16
83M19,467,experiment,48,↑,up,↑,0.613845800049603,True,16
83M19,468,experiment,51,→,right,→,0.4356237999163568,True,16
83M19,469,experiment,57,↓,down,↓,0.7310309999156743,True,16
83M19,470,experiment,59,←,left,←,0.43866389989852905,True,16
83M19,471,experiment,55,↓,down,↓,0.54373349994421,True,16
83M19,472,experiment,39,←,left,←,0.40089889988303185,True,16
83M19,473,experiment,44,←,left,←,0.43450949992984533,True,16
83M19,474,experiment,43,←,left,←,0.35070949979126453,True,16
83M19,475,experiment,16,←,left,←,0.3672128999605775,True,16
83M19,476,experiment,18,↑,up,↑,0.6711271998938173,True,16
83M19,477,experiment,29,↓,down,↓,0.5691328998655081,True,16
83M19,478,experiment,27,↑,up,↑,0.47243850002996624,True,16
83M19,479,experiment,15,→,left,←,0.5317665999755263,False,16
83M19,480,experiment,28,↓,down,↓,0.643847499974072,True,16
83M19,481,experiment,26,←,left,←,0.6013311999849975,True,16
83M19,482,experiment,46,←,left,←,0.6583883999846876,True,16
83M19,483,experiment,50,↑,up,↑,0.7673050998710096,True,16
83M19,484,experiment,56,→,right,→,0.5150546999648213,True,16
83M19,485,experiment,35,→,right,→,1.3111172998324037,True,16
83M19,486,experiment,36,←,left,←,0.7229947000741959,True,16
83M19,487,experiment,30,→,right,→,0.7946806999389082,True,16
83M19,488,experiment,38,→,right,→,0.6898336999583989,True,16
83M19,489,experiment,24,↑,up,↑,0.5503513999283314,True,16
83M19,490,experiment,58,↓,down,↓,0.6977427999954671,True,16
83M19,491,training,42,↑,down,↓,0.7758855000138283,False,16
83M19,492,training,44,→,right,→,0.6920145999174565,True,16
83M19,493,experiment,47,←,right,→,0.689062099903822,False,16
83M19,494,experiment,27,←,left,←,0.6036670000758022,True,16
83M19,495,experiment,48,←,left,←,0.763744399882853,True,16
83M19,496,experiment,38,↓,down,↓,0.47567670000717044,True,16
83M19,497,experiment,28,←,left,←,0.526304200058803,True,16
83M19,498,experiment,41,→,right,→,0.5105018001049757,True,16
83M19,499,experiment,56,←,left,←,0.5649755999911577,True,16
83M19,500,experiment,24,↓,down,↓,0.6705630000215024,True,16
83M19,501,experiment,59,↓,down,↓,0.6206758001353592,True,16
83M19,502,experiment,29,←,no_key,no_letter,-1.0,False,16
83M19,503,experiment,44,↑,left,←,0.8296617001760751,False,16
83M19,504,experiment,23,←,left,←,0.5810195999220014,True,16
83M19,505,experiment,58,↓,down,↓,0.7351742000319064,True,16
83M19,506,experiment,36,↓,down,↓,0.6017647001426667,True,16
83M19,507,experiment,34,→,right,→,0.6353386000264436,True,16
83M19,508,experiment,14,↑,up,↑,0.5203050000127405,True,16
83M19,509,experiment,52,←,left,←,0.9689948000013828,True,16
83M19,510,experiment,21,↑,up,↑,0.5723713000770658,True,16
83M19,511,experiment,22,←,right,→,0.8551219999790192,False,16
83M19,512,experiment,53,→,right,→,0.5057699999306351,True,16
83M19,513,experiment,55,↑,left,←,0.9769895998761058,False,16
83M19,514,experiment,37,↑,up,↑,0.5536467002239078,True,16
83M19,515,experiment,32,↑,up,↑,0.5583210999611765,True,16
83M19,516,experiment,50,↑,up,↑,0.4550236000213772,True,16
83M19,517,experiment,57,↑,no_key,no_letter,-1.0,False,16
83M19,518,experiment,19,↓,down,↓,0.5409765997901559,True,16
83M19,519,experiment,26,←,left,←,0.4623822998255491,True,16
83M19,520,experiment,54,↓,down,↓,0.7045872998423874,True,16
83M19,521,experiment,17,→,left,←,0.792982199927792,False,16
83M19,522,experiment,51,↓,down,↓,0.7036029000300914,True,16
83M19,523,experiment,60,↑,up,↑,1.3876242998521775,True,16
83M19,524,experiment,42,→,right,→,0.6642233000602573,True,16
83M19,525,experiment,33,←,left,←,0.5279677000362426,True,16
83M19,526,experiment,43,↓,down,↓,0.7263048999011517,True,16
83M19,527,experiment,31,↑,up,↑,0.6928987000137568,True,16
83M19,528,experiment,40,↑,up,↑,0.6629139001015574,True,16
83M19,529,experiment,46,←,left,←,0.5575687000527978,True,16
83M19,530,experiment,16,→,right,→,1.4852531999349594,True,16
83M19,531,experiment,13,↓,down,↓,1.0009769001044333,True,16
83M19,532,experiment,20,←,left,←,0.6915787002071738,True,16
83M19,533,experiment,25,←,left,←,0.6157851999159902,True,16
83M19,534,experiment,45,↑,up,↑,0.6332797999493778,True,16
83M19,535,experiment,39,→,right,→,0.5816373000852764,True,16
83M19,536,experiment,15,↑,up,↑,0.6202452001161873,True,16
83M19,537,experiment,49,↑,up,↑,0.6270341000054032,True,16
83M19,538,experiment,18,↓,down,↓,0.6542391001712531,True,16
83M19,539,experiment,35,←,left,←,0.5008891997858882,True,16
83M19,540,experiment,30,↑,up,↑,0.5969389001838863,True,16
83M19,541,training,32,←,left,←,0.7237988000269979,True,16
83M19,542,training,44,↓,down,↓,0.6815625999588519,True,16
83M19,543,experiment,40,↑,up,↑,0.5078761000186205,True,16
83M19,544,experiment,37,↑,down,↓,0.7668804000131786,False,16
83M19,545,experiment,19,←,left,←,0.4364084000699222,True,16
83M19,546,experiment,28,→,right,→,0.6068924001883715,True,16
83M19,547,experiment,39,↓,down,↓,0.5248432999942452,True,16
83M19,548,experiment,43,←,left,←,0.5714892998803407,True,16
83M19,549,experiment,45,↓,down,↓,0.6708879000507295,True,16
83M19,550,experiment,55,↓,down,↓,0.6156155001372099,True,16
83M19,551,experiment,14,←,right,→,0.6776856000069529,False,16
83M19,552,experiment,47,←,left,←,0.49957320000976324,True,16
83M19,553,experiment,56,↓,down,↓,0.6027416000142694,True,16
83M19,554,experiment,36,↑,up,↑,0.6262600999325514,True,16
83M19,555,experiment,52,↑,up,↑,0.6469491000752896,True,16
83M19,556,experiment,23,↓,down,↓,0.7415681001730263,True,16
83M19,557,experiment,34,↓,down,↓,0.5935524001251906,True,16
83M19,558,experiment,49,→,right,→,0.4345607999712229,True,16
83M19,559,experiment,35,←,right,→,0.6562282000668347,False,16
83M19,560,experiment,29,↓,down,↓,0.658980900188908,True,16
83M19,561,experiment,48,←,left,←,0.6410924999509007,True,16
83M19,562,experiment,60,→,left,←,0.7436337000690401,False,16
83M19,563,experiment,46,↑,left,←,0.6435220001731068,False,16
83M19,564,experiment,26,←,left,←,0.7768376998137683,True,16
83M19,565,experiment,57,→,right,→,0.6524589001201093,True,16
83M19,566,experiment,42,↓,down,↓,0.6141052001621574,True,16
83M19,567,experiment,38,←,no_key,no_letter,-1.0,False,16
83M19,568,experiment,51,→,left,←,0.7328517001587898,False,16
83M19,569,experiment,20,←,left,←,0.5223673000000417,True,16
83M19,570,experiment,58,↓,down,↓,0.6388411999214441,True,16
83M19,571,experiment,24,→,right,→,0.5575000999961048,True,16
83M19,572,experiment,54,←,left,←,0.5156580999027938,True,16
83M19,573,experiment,53,←,left,←,0.4514778000302613,True,16
83M19,574,experiment,21,←,left,←,0.6277618000749499,True,16
83M19,575,experiment,50,←,left,←,0.6894785999320447,True,16
83M19,576,experiment,25,↑,up,↑,0.6294749001972377,True,16
83M19,577,experiment,30,→,right,→,0.4642201999668032,True,16
83M19,578,experiment,27,↑,up,↑,0.8435329999774694,True,16
83M19,579,experiment,33,→,right,→,0.48414539988152683,True,16
83M19,580,experiment,31,←,no_key,no_letter,-1.0,False,16
83M19,581,experiment,44,→,right,→,1.3775998998899013,True,16
83M19,582,experiment,32,←,left,←,0.6773951998911798,True,16
83M19,583,experiment,41,↑,up,↑,0.6635181000456214,True,16
83M19,584,experiment,18,→,right,→,0.5368836000561714,True,16
83M19,585,experiment,17,↑,up,↑,0.4566715999972075,True,16
83M19,586,experiment,13,←,left,←,0.46957410010509193,True,16
83M19,587,experiment,15,↑,up,↑,0.5928284998517483,True,16
83M19,588,experiment,16,→,right,→,1.2470421001780778,True,16
83M19,589,experiment,22,↑,up,↑,0.558184000197798,True,16
83M19,590,experiment,59,↑,up,↑,0.7607734000775963,True,16
