PART_ID,Trial_no,Trial_type,CSI,Stim_letter,Key_pressed,letter_choose,Rt,Corr,Stimulus Time
8M24,1,training,60,↓,no_key,no_letter,-1.0,False,30
8M24,2,training,60,↑,up,↑,0.6177848999941489,True,30
8M24,3,training,60,↑,no_key,no_letter,-1.0,False,30
8M24,4,training,60,→,right,→,0.8520964999916032,True,30
8M24,5,training,60,→,right,→,0.6895577999966918,True,30
8M24,6,training,60,↑,up,↑,1.565601099995547,True,30
8M24,7,training,60,↑,up,↑,0.8063181000034092,True,30
8M24,8,training,60,←,left,←,0.7335904999927152,True,30
8M24,9,training,60,↓,down,↓,0.7914660000096774,True,30
8M24,10,training,60,↓,no_key,no_letter,-1.0,False,30
8M24,11,training,60,↑,up,↑,1.0082172999973409,True,30
8M24,12,training,60,→,right,→,1.2553684000013163,True,30
8M24,13,training,60,↓,down,↓,0.7648225000011735,True,30
8M24,14,training,60,→,right,→,0.5173255999980029,True,30
8M24,15,training,60,←,right,→,1.0153413000080036,False,30
8M24,16,training,60,←,left,←,0.862103899999056,True,30
8M24,17,training,60,←,left,←,0.810918600007426,True,30
8M24,18,training,60,→,right,→,0.673285200013197,True,30
8M24,19,training,60,↑,up,↑,0.8533978000050411,True,30
8M24,20,training,60,↑,up,↑,1.7226625000039348,True,30
8M24,21,training,60,↑,up,↑,0.5586944999959087,True,18
8M24,22,training,60,↑,up,↑,0.8073842000012519,True,18
8M24,23,training,60,↓,down,↓,0.7186458999931347,True,18
8M24,24,training,60,←,left,←,0.6572857000137446,True,18
8M24,25,training,60,↓,down,↓,0.8466859000036493,True,18
8M24,26,training,60,→,right,→,0.5720407000044361,True,18
8M24,27,training,60,←,left,←,1.0926662999991095,True,18
8M24,28,training,60,↑,up,↑,0.8006901000044309,True,18
8M24,29,training,60,↑,up,↑,1.112158299991279,True,18
8M24,30,training,60,↓,down,↓,0.8186809999897378,True,18
8M24,31,training,60,→,right,→,0.7933481000072788,True,18
8M24,32,training,60,↑,down,↓,1.0664980000001378,False,18
8M24,33,training,60,↑,up,↑,0.6693502999987686,True,18
8M24,34,training,60,↑,up,↑,0.48199380000005476,True,18
8M24,35,training,60,→,right,→,0.5744630999979563,True,18
8M24,36,training,60,↑,up,↑,0.5027577000000747,True,18
8M24,37,training,60,→,right,→,0.6338604000047781,True,18
8M24,38,training,60,←,left,←,0.47251979999418836,True,18
8M24,39,training,60,↓,down,↓,0.69197030000214,True,18
8M24,40,training,60,→,right,→,0.7279749000008451,True,18
8M24,41,training,16,→,right,→,0.6368910999881336,True,18
8M24,42,training,31,↓,up,↑,1.5026747999945655,False,18
8M24,43,experiment,28,→,right,→,0.6641898999951081,True,18
8M24,44,experiment,14,→,right,→,0.7159989000065252,True,18
8M24,45,experiment,58,↑,up,↑,0.6805222999973921,True,18
8M24,46,experiment,25,↓,no_key,no_letter,-1.0,False,18
8M24,47,experiment,55,←,left,←,0.7053310000046622,True,18
8M24,48,experiment,41,←,left,←,0.7139362000016263,True,18
8M24,49,experiment,26,↓,down,↓,0.7642157000082079,True,18
8M24,50,experiment,20,←,left,←,0.7759283000050345,True,18
8M24,51,experiment,31,→,right,→,0.5406165999884252,True,18
8M24,52,experiment,49,←,down,↓,1.3906600999907823,False,18
8M24,53,experiment,34,↑,no_key,no_letter,-1.0,False,18
8M24,54,experiment,15,→,right,→,0.9601551000087056,True,18
8M24,55,experiment,17,→,right,→,1.4627502000075765,True,18
8M24,56,experiment,56,←,left,←,0.8072965000028489,True,18
8M24,57,experiment,37,←,left,←,0.8944904000090901,True,18
8M24,58,experiment,57,↑,up,↑,0.8295219999999972,True,18
8M24,59,experiment,54,→,left,←,0.768809200002579,False,18
8M24,60,experiment,36,↑,up,↑,0.6501408999902196,True,18
8M24,61,experiment,22,→,right,→,1.153240100000403,True,18
8M24,62,experiment,52,↑,up,↑,0.7528917000017827,True,18
8M24,63,experiment,45,↓,down,↓,0.6284641000092961,True,18
8M24,64,experiment,19,→,right,→,1.1912916000001132,True,18
8M24,65,experiment,29,↑,up,↑,0.9564965000026859,True,18
8M24,66,experiment,53,↑,up,↑,0.939241400003084,True,18
8M24,67,experiment,48,→,right,→,1.054057899993495,True,18
8M24,68,experiment,27,↑,up,↑,0.6501803999999538,True,18
8M24,69,experiment,38,↓,down,↓,0.7744942999997875,True,18
8M24,70,experiment,40,→,right,→,0.8052137999911793,True,18
8M24,71,experiment,23,←,left,←,0.7578210000065155,True,18
8M24,72,experiment,43,←,left,←,0.707160499994643,True,18
8M24,73,experiment,21,→,right,→,0.745314599989797,True,18
8M24,74,experiment,51,→,right,→,0.6743601000052877,True,18
8M24,75,experiment,32,↑,up,↑,0.8258670999930473,True,18
8M24,76,experiment,18,→,right,→,0.6932600999862188,True,18
8M24,77,experiment,42,↑,up,↑,0.6777694999909727,True,18
8M24,78,experiment,24,↑,up,↑,1.0031446999928448,True,18
8M24,79,experiment,59,→,right,→,0.7478810000029625,True,18
8M24,80,experiment,13,←,left,←,0.7731807000091067,True,18
8M24,81,experiment,33,↓,down,↓,0.8005284999962896,True,18
8M24,82,experiment,35,→,right,→,0.6731441000010818,True,18
8M24,83,experiment,39,↓,right,→,1.0525120999955107,False,18
8M24,84,experiment,44,→,right,→,0.5812102999916533,True,18
8M24,85,experiment,16,←,left,←,0.5152382000087528,True,18
8M24,86,experiment,47,↑,up,↑,0.6311171999986982,True,18
8M24,87,experiment,60,←,left,←,0.8138634000060847,True,18
8M24,88,experiment,50,→,right,→,0.7957795999973314,True,18
8M24,89,experiment,46,↑,up,↑,0.7100458000059007,True,18
8M24,90,experiment,30,↑,up,↑,1.0937470000062604,True,18
8M24,91,training,57,←,left,←,0.7018515999952797,True,18
8M24,92,training,46,↑,up,↑,0.707119300001068,True,18
8M24,93,experiment,32,→,left,←,0.8417153999907896,False,18
8M24,94,experiment,42,→,right,→,0.8043658000096912,True,18
8M24,95,experiment,39,←,left,←,0.6342755999939982,True,18
8M24,96,experiment,57,→,right,→,0.7710935000068275,True,18
8M24,97,experiment,55,→,right,→,0.7037440999993123,True,18
8M24,98,experiment,49,←,left,←,0.6111610999942059,True,18
8M24,99,experiment,13,→,right,→,0.8583804000081727,True,18
8M24,100,experiment,21,→,right,→,0.7065123999927891,True,18
8M24,101,experiment,44,→,right,→,0.5611873000016203,True,18
8M24,102,experiment,28,←,left,←,0.792735700000776,True,18
8M24,103,experiment,41,→,right,→,0.613987000004272,True,18
8M24,104,experiment,16,↓,right,→,1.098578200006159,False,18
8M24,105,experiment,36,↓,down,↓,0.7106485999975121,True,18
8M24,106,experiment,34,→,right,→,0.6357271000015317,True,18
8M24,107,experiment,53,↑,up,↑,0.774967800010927,True,18
8M24,108,experiment,51,↓,down,↓,0.7023974999901839,True,18
8M24,109,experiment,26,↓,down,↓,0.6893192999996245,True,18
8M24,110,experiment,14,↓,down,↓,1.436295199993765,True,18
8M24,111,experiment,54,→,left,←,0.9751175999990664,False,18
8M24,112,experiment,40,↑,up,↑,0.7097177000105148,True,18
8M24,113,experiment,38,↓,down,↓,0.7206414999964181,True,18
8M24,114,experiment,18,→,right,→,0.7357890999992378,True,18
8M24,115,experiment,29,←,left,←,0.687661299991305,True,18
8M24,116,experiment,25,←,left,←,0.7152431000140496,True,18
8M24,117,experiment,27,←,left,←,0.6524194999947213,True,18
8M24,118,experiment,60,↓,down,↓,0.6264698000013595,True,18
8M24,119,experiment,52,↑,up,↑,0.9030610999907367,True,18
8M24,120,experiment,35,→,right,→,0.6356516999949235,True,18
8M24,121,experiment,20,↓,down,↓,0.6050258000032045,True,18
8M24,122,experiment,47,→,right,→,0.4856781999988016,True,18
8M24,123,experiment,58,←,left,←,0.6599881000001915,True,18
8M24,124,experiment,23,→,right,→,0.5544024999981048,True,18
8M24,125,experiment,45,↑,up,↑,0.5744159000023501,True,18
8M24,126,experiment,50,↓,down,↓,0.9023564999952214,True,18
8M24,127,experiment,19,←,left,←,0.6619189999910304,True,18
8M24,128,experiment,33,↓,down,↓,0.5176858000049833,True,18
8M24,129,experiment,48,↓,down,↓,0.6889892000035616,True,18
8M24,130,experiment,56,↑,up,↑,0.6883241000032285,True,18
8M24,131,experiment,43,↑,up,↑,0.5444175000011455,True,18
8M24,132,experiment,24,→,right,→,0.7070055000076536,True,18
8M24,133,experiment,15,↑,up,↑,0.644953600000008,True,18
8M24,134,experiment,30,↑,up,↑,1.1196655000094324,True,18
8M24,135,experiment,59,↑,up,↑,0.6517053999996278,True,18
8M24,136,experiment,17,→,right,→,0.7266055000072811,True,18
8M24,137,experiment,22,↓,down,↓,0.6990530000039143,True,18
8M24,138,experiment,37,↑,up,↑,0.6462865999928908,True,18
8M24,139,experiment,31,←,left,←,0.8156362000008812,True,18
8M24,140,experiment,46,↓,down,↓,0.4962956999952439,True,18
8M24,141,training,40,↑,up,↑,0.9064236999984132,True,17
8M24,142,training,46,→,right,→,0.6317206999956397,True,17
8M24,143,experiment,19,→,right,→,0.7696196000033524,True,17
8M24,144,experiment,29,→,right,→,0.5998978999996325,True,17
8M24,145,experiment,28,↓,down,↓,0.7089478999987477,True,17
8M24,146,experiment,41,←,left,←,0.653670499988948,True,17
8M24,147,experiment,24,↑,up,↑,0.6596983000054024,True,17
8M24,148,experiment,43,←,left,←,0.6293068999948446,True,17
8M24,149,experiment,33,←,left,←,0.654320599991479,True,17
8M24,150,experiment,36,↑,left,←,1.156320299996878,False,17
8M24,151,experiment,35,←,left,←,0.6792219999915687,True,17
8M24,152,experiment,20,↑,up,↑,0.8391315000044415,True,17
8M24,153,experiment,58,↑,up,↑,0.5509209999872837,True,17
8M24,154,experiment,16,←,left,←,1.038307499999064,True,17
8M24,155,experiment,40,←,left,←,0.562279200006742,True,17
8M24,156,experiment,47,↑,up,↑,0.6371085999999195,True,17
8M24,157,experiment,48,↓,up,↑,1.6038441999990027,False,17
8M24,158,experiment,22,↑,up,↑,0.6855941000103485,True,17
8M24,159,experiment,15,↑,up,↑,0.9036409999971511,True,17
8M24,160,experiment,27,→,right,→,0.6336198000062723,True,17
8M24,161,experiment,50,→,right,→,0.59091419998731,True,17
8M24,162,experiment,18,→,right,→,0.6438423999934457,True,17
8M24,163,experiment,46,→,right,→,0.6436105000029784,True,17
8M24,164,experiment,21,←,left,←,0.7085748999961652,True,17
8M24,165,experiment,45,←,left,←,0.5783789999986766,True,17
8M24,166,experiment,17,↓,down,↓,0.6962864999950398,True,17
8M24,167,experiment,57,→,left,←,0.6303124999976717,False,17
8M24,168,experiment,60,→,right,→,0.5095891999953892,True,17
8M24,169,experiment,52,↓,down,↓,0.6949157999915769,True,17
8M24,170,experiment,26,↓,down,↓,0.930187299993122,True,17
8M24,171,experiment,31,↑,up,↑,0.7285095999977784,True,17
8M24,172,experiment,44,←,left,←,0.7022766000009142,True,17
8M24,173,experiment,55,↓,left,←,1.373879599996144,False,17
8M24,174,experiment,49,←,left,←,0.5662202999956207,True,17
8M24,175,experiment,54,←,left,←,0.5396302000008291,True,17
8M24,176,experiment,38,←,left,←,0.6049433000007411,True,17
8M24,177,experiment,39,→,right,→,0.7312324000085937,True,17
8M24,178,experiment,25,→,right,→,0.5889925999945262,True,17
8M24,179,experiment,59,↑,up,↑,0.6383097999932943,True,17
8M24,180,experiment,32,←,left,←,0.6156273999949917,True,17
8M24,181,experiment,23,↓,down,↓,0.7118538999930024,True,17
8M24,182,experiment,37,↑,up,↑,0.5393995999911567,True,17
8M24,183,experiment,14,←,left,←,0.5722371000010753,True,17
8M24,184,experiment,30,↑,up,↑,0.5536105999926804,True,17
8M24,185,experiment,34,↓,down,↓,0.7088201000005938,True,17
8M24,186,experiment,13,↓,down,↓,0.6002045999921393,True,17
8M24,187,experiment,42,→,right,→,0.620183699997142,True,17
8M24,188,experiment,51,↑,up,↑,0.505523700005142,True,17
8M24,189,experiment,53,↑,up,↑,0.6581756999948993,True,17
8M24,190,experiment,56,→,right,→,0.5708150999998907,True,17
8M24,191,training,25,↓,down,↓,0.6689195999933872,True,16
8M24,192,training,18,↓,down,↓,0.6302039000001969,True,16
8M24,193,experiment,13,↓,down,↓,0.884824299995671,True,16
8M24,194,experiment,46,↑,up,↑,0.922938100004103,True,16
8M24,195,experiment,20,←,left,←,0.6008484999911161,True,16
8M24,196,experiment,50,↑,up,↑,1.2077474999969127,True,16
8M24,197,experiment,31,←,left,←,0.546857599998475,True,16
8M24,198,experiment,60,←,left,←,0.5496248999988893,True,16
8M24,199,experiment,14,←,left,←,0.5983938999997918,True,16
8M24,200,experiment,44,←,left,←,0.6089829000120517,True,16
8M24,201,experiment,36,↑,up,↑,0.6168184999987716,True,16
8M24,202,experiment,19,↑,up,↑,0.8118743000086397,True,16
8M24,203,experiment,48,↓,down,↓,0.6755392000050051,True,16
8M24,204,experiment,49,↓,down,↓,0.44810860000143293,True,16
8M24,205,experiment,38,←,left,←,0.7327938000089489,True,16
8M24,206,experiment,41,↑,down,↓,1.2362888000061503,False,16
8M24,207,experiment,55,↑,up,↑,0.638192499987781,True,16
8M24,208,experiment,15,↓,down,↓,0.5468143000034615,True,16
8M24,209,experiment,17,↑,up,↑,0.5694946000003256,True,16
8M24,210,experiment,29,→,right,→,0.5994279000005918,True,16
8M24,211,experiment,18,↑,up,↑,0.5635678999969969,True,16
8M24,212,experiment,34,↓,down,↓,0.6300495000032242,True,16
8M24,213,experiment,57,↓,down,↓,0.5515295000077458,True,16
8M24,214,experiment,52,←,left,←,0.6708966000005603,True,16
8M24,215,experiment,16,←,left,←,0.5937230000126874,True,16
8M24,216,experiment,21,↑,left,←,0.8681571999914013,False,16
8M24,217,experiment,33,↓,down,↓,0.6274634000001242,True,16
8M24,218,experiment,28,↑,up,↑,0.8642718000046443,True,16
8M24,219,experiment,53,→,right,→,0.5544324000074994,True,16
8M24,220,experiment,56,→,right,→,0.5590064999996684,True,16
8M24,221,experiment,45,↓,down,↓,0.6587842000008095,True,16
8M24,222,experiment,35,←,left,←,0.6254268999909982,True,16
8M24,223,experiment,51,↓,right,→,1.446717400001944,False,16
8M24,224,experiment,54,→,right,→,0.6087818999949377,True,16
8M24,225,experiment,42,↓,down,↓,0.8129237000102876,True,16
8M24,226,experiment,37,←,left,←,0.6047577999997884,True,16
8M24,227,experiment,39,←,left,←,0.6180819999863161,True,16
8M24,228,experiment,58,→,right,→,0.4907453999912832,True,16
8M24,229,experiment,26,←,left,←,0.5746594999945955,True,16
8M24,230,experiment,43,↑,up,↑,0.7310796999954619,True,16
8M24,231,experiment,25,←,left,←,0.7488539999903878,True,16
8M24,232,experiment,47,→,right,→,0.7355315000022529,True,16
8M24,233,experiment,40,←,left,←,0.5113811000046553,True,16
8M24,234,experiment,22,←,left,←,0.5729632000002312,True,16
8M24,235,experiment,24,←,left,←,0.45399760000873357,True,16
8M24,236,experiment,30,←,left,←,1.5203308999916771,True,16
8M24,237,experiment,27,←,left,←,0.4573163999884855,True,16
8M24,238,experiment,32,↑,up,↑,0.6100771999917924,True,16
8M24,239,experiment,59,↓,down,↓,0.5789359000045806,True,16
8M24,240,experiment,23,↑,right,→,1.3807850000011967,False,16
8M24,241,training,18,↑,up,↑,0.6781419000035385,True,15
8M24,242,training,40,→,right,→,0.6568165999924531,True,15
8M24,243,experiment,55,←,left,←,0.44206210000265855,True,15
8M24,244,experiment,26,↓,down,↓,0.5275626000075135,True,15
8M24,245,experiment,54,→,right,→,1.198696099992958,True,15
8M24,246,experiment,39,→,right,→,0.6447612000047229,True,15
8M24,247,experiment,23,↓,right,→,1.5881684000050882,False,15
8M24,248,experiment,36,↓,down,↓,0.7569988000032026,True,15
8M24,249,experiment,52,→,right,→,0.5803635000047507,True,15
8M24,250,experiment,44,→,left,←,0.9123326999979327,False,15
8M24,251,experiment,31,→,right,→,0.5113564999919618,True,15
8M24,252,experiment,22,←,left,←,0.8449392000038642,True,15
8M24,253,experiment,43,↑,up,↑,0.6307603000022937,True,15
8M24,254,experiment,32,↓,down,↓,0.5760246999998344,True,15
8M24,255,experiment,49,→,right,→,0.8486560000019381,True,15
8M24,256,experiment,18,↑,down,↓,0.9627889999974286,False,15
8M24,257,experiment,50,←,left,←,0.41979149999679066,True,15
8M24,258,experiment,33,←,left,←,0.42070679999596905,True,15
8M24,259,experiment,46,↓,down,↓,0.636027100001229,True,15
8M24,260,experiment,41,↑,up,↑,0.5514107000053627,True,15
8M24,261,experiment,48,→,right,→,0.7854683000041405,True,15
8M24,262,experiment,24,↑,right,→,0.8019649999914691,False,15
8M24,263,experiment,19,→,right,→,0.5415348999958951,True,15
8M24,264,experiment,45,↓,down,↓,0.5622116000013193,True,15
8M24,265,experiment,21,↓,down,↓,0.5023247999924934,True,15
8M24,266,experiment,57,→,up,↑,1.068191400001524,False,15
8M24,267,experiment,35,↑,up,↑,0.9299400999880163,True,15
8M24,268,experiment,59,↓,down,↓,0.42927229999622796,True,15
8M24,269,experiment,16,←,left,←,0.8654210999957286,True,15
8M24,270,experiment,28,↑,up,↑,0.7080284999974538,True,15
8M24,271,experiment,60,→,right,→,0.6802285000012489,True,15
8M24,272,experiment,29,↑,up,↑,0.5453331999888178,True,15
8M24,273,experiment,42,↓,down,↓,0.6482412000041222,True,15
8M24,274,experiment,17,↓,down,↓,0.770625300006941,True,15
8M24,275,experiment,25,←,left,←,0.907207299998845,True,15
8M24,276,experiment,27,←,left,←,0.6215230999951018,True,15
8M24,277,experiment,20,→,right,→,0.8396157000097446,True,15
8M24,278,experiment,37,←,up,↑,1.4053401999990456,False,15
8M24,279,experiment,38,→,right,→,0.875986400002148,True,15
8M24,280,experiment,40,↑,left,←,0.8786803999973927,False,15
8M24,281,experiment,58,→,right,→,0.6933519000012893,True,15
8M24,282,experiment,51,←,left,←,0.6240136999986134,True,15
8M24,283,experiment,30,↓,down,↓,1.1953065999987302,True,15
8M24,284,experiment,53,←,up,↑,1.1206220000021858,False,15
8M24,285,experiment,47,→,right,→,0.7247205000021495,True,15
8M24,286,experiment,14,←,left,←,0.5266523000027519,True,15
8M24,287,experiment,34,↓,down,↓,0.6276527000009082,True,15
8M24,288,experiment,56,←,left,←,0.4613979000132531,True,15
8M24,289,experiment,13,↑,up,↑,0.9549110000079963,True,15
8M24,290,experiment,15,←,left,←,0.770728000003146,True,15
8M24,291,training,26,↓,right,→,0.6886575999960769,False,15
8M24,292,training,17,←,left,←,0.5621611999958986,True,15
8M24,293,experiment,26,↓,up,↑,0.8905919999961043,False,15
8M24,294,experiment,22,→,right,→,0.592606500009424,True,15
8M24,295,experiment,17,←,left,←,0.6379885999922408,True,15
8M24,296,experiment,46,↓,up,↑,1.0779148000001442,False,15
8M24,297,experiment,41,→,right,→,0.5280232999939471,True,15
8M24,298,experiment,58,↑,up,↑,0.8686173999885796,True,15
8M24,299,experiment,21,←,left,←,0.5400307999952929,True,15
8M24,300,experiment,20,↑,up,↑,1.0014182000013534,True,15
8M24,301,experiment,48,↓,down,↓,0.673232300003292,True,15
8M24,302,experiment,51,→,right,→,0.5325235000054818,True,15
8M24,303,experiment,50,↑,right,→,0.9740643999975873,False,15
8M24,304,experiment,32,↓,down,↓,0.505988899996737,True,15
8M24,305,experiment,59,→,right,→,0.5987118999910308,True,15
8M24,306,experiment,53,↓,right,→,1.0915134000097169,False,15
8M24,307,experiment,28,↓,down,↓,0.5016649000026518,True,15
8M24,308,experiment,39,→,right,→,0.9033313999971142,True,15
8M24,309,experiment,37,→,right,→,1.11458200000925,True,15
8M24,310,experiment,31,↑,up,↑,0.4493654000107199,True,15
8M24,311,experiment,13,↓,up,↑,1.3585189000004902,False,15
8M24,312,experiment,18,←,right,→,0.9485834000079194,False,15
8M24,313,experiment,34,↑,up,↑,0.5198934000072768,True,15
8M24,314,experiment,24,→,down,↓,1.3472042000066722,False,15
8M24,315,experiment,27,→,right,→,0.47521530000085477,True,15
8M24,316,experiment,52,↓,down,↓,0.6698586999991676,True,15
8M24,317,experiment,57,←,left,←,0.6611861999990651,True,15
8M24,318,experiment,60,←,left,←,0.4911865000030957,True,15
8M24,319,experiment,47,↑,left,←,1.2085824999958277,False,15
8M24,320,experiment,44,↓,left,←,1.0033079999993788,False,15
8M24,321,experiment,42,↓,right,→,0.903221400003531,False,15
8M24,322,experiment,25,→,right,→,0.5628959000023315,True,15
8M24,323,experiment,43,→,left,←,0.7278591999929631,False,15
8M24,324,experiment,45,→,right,→,0.4851539999945089,True,15
8M24,325,experiment,38,→,right,→,0.552498300006846,True,15
8M24,326,experiment,15,→,left,←,0.8805100000026869,False,15
8M24,327,experiment,29,→,left,←,0.8739224000019021,False,15
8M24,328,experiment,56,↓,down,↓,0.8337839000014355,True,15
8M24,329,experiment,19,←,left,←,1.3558952000021236,True,15
8M24,330,experiment,55,↓,down,↓,0.7371593999996549,True,15
8M24,331,experiment,30,→,up,↑,1.1038842999987537,False,15
8M24,332,experiment,36,←,left,←,1.2917791000072611,True,15
8M24,333,experiment,14,←,right,→,0.8157274999975925,False,15
8M24,334,experiment,40,↑,up,↑,0.7720336000056705,True,15
8M24,335,experiment,49,←,left,←,0.5726637000043411,True,15
8M24,336,experiment,33,←,left,←,0.5677985999936936,True,15
8M24,337,experiment,16,↓,down,↓,0.5268572000059066,True,15
8M24,338,experiment,54,↓,down,↓,0.4858659000019543,True,15
8M24,339,experiment,35,↓,down,↓,0.4351555000030203,True,15
8M24,340,experiment,23,←,up,↑,1.0105607000004966,False,15
8M24,341,training,46,↓,down,↓,0.6652134000032675,True,15
8M24,342,training,27,←,left,←,0.5805279000051087,True,15
8M24,343,experiment,49,↑,down,↓,0.6045104000077117,False,15
8M24,344,experiment,56,←,left,←,0.5430971000023419,True,15
8M24,345,experiment,23,↓,down,↓,0.4826100000063889,True,15
8M24,346,experiment,19,↑,up,↑,0.6027043999929447,True,15
8M24,347,experiment,39,↑,down,↓,0.7284549000032712,False,15
8M24,348,experiment,51,←,left,←,0.5938330000062706,True,15
8M24,349,experiment,59,→,left,←,0.579393699998036,False,15
8M24,350,experiment,42,→,right,→,0.6484289999934845,True,15
8M24,351,experiment,38,←,left,←,0.44510409999929834,True,15
8M24,352,experiment,50,↓,right,→,0.7944425999885425,False,15
8M24,353,experiment,22,↑,up,↑,0.5007846000080463,True,15
8M24,354,experiment,25,↑,up,↑,1.3838818000076571,True,15
8M24,355,experiment,21,←,right,→,0.8905171000078553,False,15
8M24,356,experiment,34,↓,down,↓,1.0085647000087192,True,15
8M24,357,experiment,36,↑,up,↑,0.7364704999927199,True,15
8M24,358,experiment,48,↑,up,↑,0.72315439999511,True,15
8M24,359,experiment,35,↓,up,↑,0.9353063000016846,False,15
8M24,360,experiment,17,←,down,↓,1.1346409999969183,False,15
8M24,361,experiment,16,↑,up,↑,0.5666770999960136,True,15
8M24,362,experiment,40,↑,up,↑,0.5331641000084346,True,15
8M24,363,experiment,29,↑,right,→,1.2844251999922562,False,15
8M24,364,experiment,57,←,up,↑,0.9071191999973962,False,15
8M24,365,experiment,30,→,right,→,0.6673740000114776,True,15
8M24,366,experiment,47,←,left,←,1.7691381000040565,True,15
8M24,367,experiment,33,↓,down,↓,0.812412300001597,True,15
8M24,368,experiment,43,↑,down,↓,0.8157539000094403,False,15
8M24,369,experiment,31,→,right,→,0.8024914999987232,True,15
8M24,370,experiment,27,→,right,→,0.48074899999483023,True,15
8M24,371,experiment,55,←,left,←,0.4727872999937972,True,15
8M24,372,experiment,20,→,left,←,0.8563734999916051,False,15
8M24,373,experiment,32,↑,right,→,1.0172099000046728,False,15
8M24,374,experiment,15,←,left,←,0.5024912999942899,True,15
8M24,375,experiment,18,→,right,→,0.4783755999960704,True,15
8M24,376,experiment,54,→,right,→,0.5839326999994228,True,15
8M24,377,experiment,60,→,right,→,0.976604799987399,True,15
8M24,378,experiment,45,←,right,→,0.8677012999978615,False,15
8M24,379,experiment,37,←,left,←,0.5523675000004005,True,15
8M24,380,experiment,14,→,right,→,0.6650552999926731,True,15
8M24,381,experiment,52,→,right,→,0.5957233999943128,True,15
8M24,382,experiment,41,↓,down,↓,0.7450455999933183,True,15
8M24,383,experiment,58,↓,down,↓,0.5412620999995852,True,15
8M24,384,experiment,13,↓,down,↓,0.9990672999992967,True,15
8M24,385,experiment,44,↑,up,↑,0.6978524000005564,True,15
8M24,386,experiment,46,←,left,←,0.5673074999940582,True,15
8M24,387,experiment,26,←,left,←,0.6710727000026964,True,15
8M24,388,experiment,53,→,right,→,0.7853499000048032,True,15
8M24,389,experiment,24,←,left,←,0.5137407000001986,True,15
8M24,390,experiment,28,↓,down,↓,0.7303692999994382,True,15
8M24,391,training,38,↑,up,↑,0.6986470999981975,True,15
8M24,392,training,56,→,right,→,1.0491133999894373,True,15
8M24,393,experiment,32,←,left,←,0.45783030000166036,True,15
8M24,394,experiment,50,→,right,→,0.8546560000104364,True,15
8M24,395,experiment,15,↓,up,↑,0.6983675000083167,False,15
8M24,396,experiment,26,↑,down,↓,0.8210706999961985,False,15
8M24,397,experiment,34,↑,up,↑,0.6857010999956401,True,15
8M24,398,experiment,25,→,right,→,0.6258329999982379,True,15
8M24,399,experiment,30,→,right,→,0.5729932999965968,True,15
8M24,400,experiment,28,↓,down,↓,0.6517599000071641,True,15
8M24,401,experiment,20,↑,down,↓,0.4684485999896424,False,15
8M24,402,experiment,31,←,left,←,0.5891076999978395,True,15
8M24,403,experiment,60,→,right,→,1.0299243999907048,True,15
8M24,404,experiment,14,↑,up,↑,0.5549630000023171,True,15
8M24,405,experiment,52,↑,up,↑,0.4583130999963032,True,15
8M24,406,experiment,22,↓,down,↓,0.8420258999976795,True,15
8M24,407,experiment,41,→,right,→,0.5412324000062654,True,15
8M24,408,experiment,37,←,left,←,0.4234658000059426,True,15
8M24,409,experiment,24,→,right,→,0.5418691999948351,True,15
8M24,410,experiment,53,↓,down,↓,0.6689931000000797,True,15
8M24,411,experiment,21,↑,down,↓,0.7483056999917608,False,15
8M24,412,experiment,29,←,right,→,0.5629612999910023,False,15
8M24,413,experiment,44,↓,down,↓,0.4712829999916721,True,15
8M24,414,experiment,27,→,no_key,no_letter,-1.0,False,15
8M24,415,experiment,16,↑,right,→,1.2192457000055583,False,15
8M24,416,experiment,56,↑,up,↑,0.5490778000093997,True,15
8M24,417,experiment,35,→,right,→,0.5355379000102403,True,15
8M24,418,experiment,17,→,right,→,0.4630786000052467,True,15
8M24,419,experiment,33,→,right,→,0.6632410000020172,True,15
8M24,420,experiment,58,↑,up,↑,0.6456317999982275,True,15
8M24,421,experiment,55,↓,down,↓,0.663684999992256,True,15
8M24,422,experiment,36,→,right,→,0.7810563999955775,True,15
8M24,423,experiment,40,←,left,←,0.7472068000060972,True,15
8M24,424,experiment,39,↓,down,↓,0.7709177999931853,True,15
8M24,425,experiment,43,↓,down,↓,0.4320612000010442,True,15
8M24,426,experiment,51,→,right,→,0.7325912999949651,True,15
8M24,427,experiment,18,←,left,←,0.7789647000026889,True,15
8M24,428,experiment,13,←,left,←,0.85962250000739,True,15
8M24,429,experiment,46,←,right,→,0.899000999997952,False,15
8M24,430,experiment,19,↓,down,↓,0.5622805999882985,True,15
8M24,431,experiment,23,←,left,←,0.7250364000065019,True,15
8M24,432,experiment,49,↓,down,↓,0.9355214999959571,True,15
8M24,433,experiment,38,↓,down,↓,0.7051850999996532,True,15
8M24,434,experiment,42,←,left,←,0.528877900011139,True,15
8M24,435,experiment,47,↓,down,↓,0.7091999999975087,True,15
8M24,436,experiment,54,←,left,←,0.644903799999156,True,15
8M24,437,experiment,57,→,left,←,0.6775830999977188,False,15
8M24,438,experiment,59,↑,down,↓,0.7795939999923576,False,15
8M24,439,experiment,45,→,right,→,0.8706782999943243,True,15
8M24,440,experiment,48,↓,down,↓,0.8197967000014614,True,15
8M24,441,training,14,↓,down,↓,0.5664667000091868,True,15
8M24,442,training,22,←,right,→,0.7369788000069093,False,15
8M24,443,experiment,21,↑,up,↑,0.549714100008714,True,15
8M24,444,experiment,53,↓,right,→,0.9323073000123259,False,15
8M24,445,experiment,31,↓,up,↑,1.0341927999979816,False,15
8M24,446,experiment,42,↑,down,↓,1.0289042999938829,False,15
8M24,447,experiment,17,→,left,←,1.0969661999988602,False,15
8M24,448,experiment,36,→,left,←,1.453566399999545,False,15
8M24,449,experiment,24,←,left,←,0.5795512000040617,True,15
8M24,450,experiment,57,↑,right,→,0.9511509000003571,False,15
8M24,451,experiment,48,←,left,←,0.6168964999960735,True,15
8M24,452,experiment,32,↑,up,↑,0.6191533999954117,True,15
8M24,453,experiment,28,←,left,←,0.6875886999914655,True,15
8M24,454,experiment,39,→,right,→,0.6181813000002876,True,15
8M24,455,experiment,50,→,right,→,0.43219870000029914,True,15
8M24,456,experiment,26,↑,left,←,0.8376137000013841,False,15
8M24,457,experiment,41,→,left,←,0.832823400007328,False,15
8M24,458,experiment,56,→,right,→,0.41863679999369197,True,15
8M24,459,experiment,47,↑,left,←,0.6336228000000119,False,15
8M24,460,experiment,15,←,left,←,0.6464128000079654,True,15
8M24,461,experiment,60,←,left,←,0.5729379999975208,True,15
8M24,462,experiment,19,↑,up,↑,0.6175668999931077,True,15
8M24,463,experiment,33,↑,up,↑,0.45083339999837335,True,15
8M24,464,experiment,29,→,right,→,0.46953420000500046,True,15
8M24,465,experiment,45,←,left,←,0.5331716000073357,True,15
8M24,466,experiment,55,←,left,←,0.4748609999951441,True,15
8M24,467,experiment,35,↑,left,←,0.7931052000058116,False,15
8M24,468,experiment,23,↓,down,↓,0.6583710000122664,True,15
8M24,469,experiment,20,↓,up,↑,0.7068690000014612,False,15
8M24,470,experiment,52,→,down,↓,0.7561469999927795,False,15
8M24,471,experiment,38,↑,up,↑,0.7572402999940095,True,15
8M24,472,experiment,51,↓,up,↑,0.7970519000082277,False,15
8M24,473,experiment,46,↓,down,↓,0.5988803000072949,True,15
8M24,474,experiment,40,→,down,↓,0.7322584000066854,False,15
8M24,475,experiment,59,←,left,←,0.5274605000013253,True,15
8M24,476,experiment,16,←,left,←,0.38393290000385605,True,15
8M24,477,experiment,25,←,left,←,0.9115490000112914,True,15
8M24,478,experiment,34,↑,up,↑,0.6287807000044268,True,15
8M24,479,experiment,54,↓,down,↓,0.7281732999981614,True,15
8M24,480,experiment,14,→,left,←,0.8981783000053838,False,15
8M24,481,experiment,13,←,left,←,0.7096639999945182,True,15
8M24,482,experiment,44,↑,up,↑,0.7721658000082243,True,15
8M24,483,experiment,49,→,down,↓,0.8448308999941219,False,15
8M24,484,experiment,30,→,right,→,0.6875331999908667,True,15
8M24,485,experiment,27,←,left,←,0.48222610000811983,True,15
8M24,486,experiment,22,←,left,←,0.656123499997193,True,15
8M24,487,experiment,58,↓,down,↓,0.6554899000038859,True,15
8M24,488,experiment,18,↑,down,↓,0.6334509000007529,False,15
8M24,489,experiment,43,↓,down,↓,0.7876677000022028,True,15
8M24,490,experiment,37,→,down,↓,0.8674237000086578,False,15
8M24,491,training,20,←,right,→,0.6274980000016512,False,15
8M24,492,training,36,↓,down,↓,0.6029312000027858,True,15
8M24,493,experiment,50,→,right,→,0.6014783999999054,True,15
8M24,494,experiment,15,↓,down,↓,0.5675126999994973,True,15
8M24,495,experiment,43,←,right,→,0.8281638999906136,False,15
8M24,496,experiment,17,←,left,←,0.8560959000024013,True,15
8M24,497,experiment,39,→,right,→,0.6925960000080522,True,15
8M24,498,experiment,38,←,left,←,0.6635871000034967,True,15
8M24,499,experiment,18,←,right,→,1.0414519000041764,False,15
8M24,500,experiment,60,←,left,←,0.5361318000068422,True,15
8M24,501,experiment,22,↓,no_key,no_letter,-1.0,False,15
8M24,502,experiment,21,→,up,↑,1.7454547999950591,False,15
8M24,503,experiment,14,→,right,→,0.5227850000082981,True,15
8M24,504,experiment,30,←,left,←,0.5780823000095552,True,15
8M24,505,experiment,53,↓,right,→,0.8640280999970855,False,15
8M24,506,experiment,24,←,left,←,0.5094039999967208,True,15
8M24,507,experiment,26,↓,right,→,0.5603066000039689,False,15
8M24,508,experiment,16,←,left,←,0.38393329999234993,True,15
8M24,509,experiment,34,←,right,→,0.5686074999975972,False,15
8M24,510,experiment,59,↑,up,↑,0.6347317000036128,True,15
8M24,511,experiment,46,↓,up,↑,0.7870244999940041,False,15
8M24,512,experiment,49,↓,up,↑,0.7227416999958223,False,15
8M24,513,experiment,28,↓,right,→,1.5874412999983178,False,15
8M24,514,experiment,58,→,right,→,0.7494511999975657,True,15
8M24,515,experiment,40,←,left,←,0.6447965999977896,True,15
8M24,516,experiment,31,↓,up,↑,1.1109970999968937,False,15
8M24,517,experiment,23,↓,right,→,0.7240033999987645,False,15
8M24,518,experiment,32,↑,up,↑,0.7534226999996463,True,15
8M24,519,experiment,56,↑,up,↑,0.558043800003361,True,15
8M24,520,experiment,55,←,left,←,1.2753450000018347,True,15
8M24,521,experiment,29,→,right,→,0.5415915999910794,True,15
8M24,522,experiment,52,→,right,→,1.4132347999984631,True,15
8M24,523,experiment,33,←,left,←,0.8707485999912024,True,15
8M24,524,experiment,48,↑,up,↑,0.6200226000073599,True,15
8M24,525,experiment,44,↓,down,↓,0.518026199992164,True,15
8M24,526,experiment,51,→,left,←,0.903313300004811,False,15
8M24,527,experiment,36,←,left,←,0.8673584000061965,True,15
8M24,528,experiment,42,↓,down,↓,0.4687376000074437,True,15
8M24,529,experiment,57,↑,right,→,0.7320666000014171,False,15
8M24,530,experiment,41,↑,up,↑,1.163476300003822,True,15
8M24,531,experiment,45,↑,up,↑,0.5194372999976622,True,15
8M24,532,experiment,19,←,up,↑,0.8462724999990314,False,15
8M24,533,experiment,27,↓,down,↓,0.48271050000039395,True,15
8M24,534,experiment,54,←,right,→,0.5962357000098564,False,15
8M24,535,experiment,13,↑,up,↑,0.754627200003597,True,15
8M24,536,experiment,35,→,right,→,0.6533268999919528,True,15
8M24,537,experiment,25,→,right,→,0.9068317000055686,True,15
8M24,538,experiment,47,→,right,→,0.45540279999841005,True,15
8M24,539,experiment,37,↓,down,↓,0.6847605999937514,True,15
8M24,540,experiment,20,↑,up,↑,0.7159468000027118,True,15
8M24,541,training,21,←,left,←,0.6752819999965141,True,15
8M24,542,training,35,←,left,←,1.0095627999980934,True,15
8M24,543,experiment,31,←,left,←,0.3504407000000356,True,15
8M24,544,experiment,15,←,left,←,0.5880375000124332,True,15
8M24,545,experiment,29,←,left,←,0.7532928000000538,True,15
8M24,546,experiment,22,←,left,←,0.4846469000040088,True,15
8M24,547,experiment,19,↑,up,↑,0.8926589000038803,True,15
8M24,548,experiment,43,↑,right,→,0.8458860000100685,False,15
8M24,549,experiment,60,↓,down,↓,0.6271998000011081,True,15
8M24,550,experiment,50,→,down,↓,0.425277799993637,False,15
8M24,551,experiment,49,↑,right,→,0.8314289000118151,False,15
8M24,552,experiment,56,→,right,→,0.6966550999932224,True,15
8M24,553,experiment,30,→,right,→,0.809683599989512,True,15
8M24,554,experiment,28,→,right,→,0.8706200000015087,True,15
8M24,555,experiment,59,↑,up,↑,0.7006345999980113,True,15
8M24,556,experiment,38,←,left,←,0.6156142999971053,True,15
8M24,557,experiment,35,←,left,←,0.6153175000072224,True,15
8M24,558,experiment,13,↓,down,↓,0.5499218999902951,True,15
8M24,559,experiment,23,↓,down,↓,0.5926728999911575,True,15
8M24,560,experiment,33,↓,down,↓,0.5232857000082731,True,15
8M24,561,experiment,54,↑,up,↑,0.7945475000014994,True,15
8M24,562,experiment,55,→,right,→,0.6066094999987399,True,15
8M24,563,experiment,42,↑,up,↑,0.650780299998587,True,15
8M24,564,experiment,41,↓,down,↓,0.5015081000019563,True,15
8M24,565,experiment,47,↑,up,↑,0.9300114999932703,True,15
8M24,566,experiment,37,↓,down,↓,0.6279775000002701,True,15
8M24,567,experiment,16,→,right,→,0.5927948999888031,True,15
8M24,568,experiment,46,←,left,←,0.49859389998891857,True,15
8M24,569,experiment,52,→,right,→,0.4919547000026796,True,15
8M24,570,experiment,40,→,right,→,0.893947600008687,True,15
8M24,571,experiment,45,→,right,→,0.5333385999983875,True,15
8M24,572,experiment,36,↑,up,↑,0.5991894000035245,True,15
8M24,573,experiment,17,↑,down,↓,0.9399516999983462,False,15
8M24,574,experiment,21,←,left,←,0.632584399994812,True,15
8M24,575,experiment,34,↑,up,↑,0.5046184999955585,True,15
8M24,576,experiment,57,←,left,←,1.1828261999908136,True,15
8M24,577,experiment,18,↓,right,→,0.9941075999959139,False,15
8M24,578,experiment,25,←,left,←,0.825833099996089,True,15
8M24,579,experiment,53,←,left,←,0.5658246999955736,True,15
8M24,580,experiment,48,←,left,←,0.36746920000587124,True,15
8M24,581,experiment,44,→,right,→,0.7065933999983827,True,15
8M24,582,experiment,32,↑,up,↑,0.8171287000004668,True,15
8M24,583,experiment,14,↓,down,↓,1.255236299999524,True,15
8M24,584,experiment,51,←,left,←,0.5312168999953428,True,15
8M24,585,experiment,20,→,right,→,0.7925159000005806,True,15
8M24,586,experiment,26,↓,down,↓,0.5438804000004893,True,15
8M24,587,experiment,24,↑,up,↑,0.642464899996412,True,15
8M24,588,experiment,58,↓,up,↑,1.0108015000005253,False,15
8M24,589,experiment,27,↑,up,↑,0.5125608000089414,True,15
8M24,590,experiment,39,↑,up,↑,0.48267569999734405,True,15
