PART_ID,Trial_no,Trial_type,CSI,Stim_letter,Key_pressed,letter_choose,Rt,Corr,Stimulus Time
93K19,1,training,60,→,right,→,1.0773479000199586,True,30
93K19,2,training,60,←,left,←,0.6732398001477122,True,30
93K19,3,training,60,↓,down,↓,0.7813186999410391,True,30
93K19,4,training,60,↓,down,↓,0.534042599843815,True,30
93K19,5,training,60,↑,up,↑,0.5173832001164556,True,30
93K19,6,training,60,→,right,→,0.5173242001328617,True,30
93K19,7,training,60,←,right,→,0.4516962000634521,False,30
93K19,8,training,60,↓,left,←,0.5352610000409186,False,30
93K19,9,training,60,←,left,←,0.5676349001005292,True,30
93K19,10,training,60,↑,up,↑,0.5676190000958741,True,30
93K19,11,training,60,→,right,→,0.8066611001268029,True,30
93K19,12,training,60,←,left,←,0.5006979000754654,True,30
93K19,13,training,60,→,right,→,0.5339371999725699,True,30
93K19,14,training,60,←,left,←,0.46849110000766814,True,30
93K19,15,training,60,↑,up,↑,0.750201900023967,True,30
93K19,16,training,60,→,right,→,0.633897399995476,True,30
93K19,17,training,60,↓,down,↓,0.7639353000558913,True,30
93K19,18,training,60,↓,down,↓,0.892814900027588,True,30
93K19,19,training,60,↑,up,↑,0.6805620999075472,True,30
93K19,20,training,60,→,right,→,0.5006450999062508,True,30
93K19,21,training,60,→,right,→,0.4338942999020219,True,18
93K19,22,training,60,←,right,→,0.3501272997818887,False,18
93K19,23,training,60,←,no_key,no_letter,-1.0,False,18
93K19,24,training,60,↓,down,↓,0.6279243999160826,True,18
93K19,25,training,60,→,right,→,0.5617890001740307,True,18
93K19,26,training,60,↑,up,↑,0.49841279978863895,True,18
93K19,27,training,60,↑,up,↑,0.6618204000405967,True,18
93K19,28,training,60,←,right,→,0.482382700080052,False,18
93K19,29,training,60,↑,up,↑,0.5344889999832958,True,18
93K19,30,training,60,↑,up,↑,0.504806200042367,True,18
93K19,31,training,60,←,left,←,0.5958803999237716,True,18
93K19,32,training,60,←,left,←,0.6751691999379545,True,18
93K19,33,training,60,↑,up,↑,0.5119570000097156,True,18
93K19,34,training,60,→,left,←,0.7785095998551697,False,18
93K19,35,training,60,←,left,←,0.7065765999723226,True,18
93K19,36,training,60,↓,no_key,no_letter,-1.0,False,18
93K19,37,training,60,←,left,←,0.6224672000389546,True,18
93K19,38,training,60,↓,down,↓,0.7092442000284791,True,18
93K19,39,training,60,↑,up,↑,0.6243823999539018,True,18
93K19,40,training,60,→,left,←,0.9191710001323372,False,18
93K19,41,training,54,↑,up,↑,0.434024800080806,True,18
93K19,42,training,56,←,left,←,0.5870615998283029,True,18
93K19,43,experiment,59,→,right,→,0.47646320005878806,True,18
93K19,44,experiment,28,→,up,↑,0.3829580000601709,False,18
93K19,45,experiment,25,→,left,←,0.5257460998836905,False,18
93K19,46,experiment,52,→,up,↑,0.31733929994516075,False,18
93K19,47,experiment,58,→,right,→,0.38347140001133084,True,18
93K19,48,experiment,13,↑,up,↑,0.6897475000005215,True,18
93K19,49,experiment,43,↑,up,↑,0.40064179990440607,True,18
93K19,50,experiment,16,←,left,←,0.5983892001677305,True,18
93K19,51,experiment,34,↓,up,↑,0.5597436998505145,False,18
93K19,52,experiment,24,→,right,→,0.41727169998921454,True,18
93K19,53,experiment,36,→,no_key,no_letter,-1.0,False,18
93K19,54,experiment,30,→,right,→,0.5338459999766201,True,18
93K19,55,experiment,60,→,no_key,no_letter,-1.0,False,18
93K19,56,experiment,32,→,right,→,0.4340095999650657,True,18
93K19,57,experiment,14,←,left,←,0.6011338999960572,True,18
93K19,58,experiment,45,↑,up,↑,0.5470619001425803,True,18
93K19,59,experiment,57,↑,up,↑,0.47968819993548095,True,18
93K19,60,experiment,35,↓,down,↓,0.7490427000448108,True,18
93K19,61,experiment,31,→,right,→,0.4006255001295358,True,18
93K19,62,experiment,18,↑,left,←,0.6299596999306232,False,18
93K19,63,experiment,54,↑,no_key,no_letter,-1.0,False,18
93K19,64,experiment,42,←,no_key,no_letter,-1.0,False,18
93K19,65,experiment,48,↑,right,→,0.18514519999735057,False,18
93K19,66,experiment,27,↑,no_key,no_letter,-1.0,False,18
93K19,67,experiment,21,↑,up,↑,0.1183172999881208,True,18
93K19,68,experiment,44,←,right,→,0.9557026999536902,False,18
93K19,69,experiment,51,↑,up,↑,0.38432760001160204,True,18
93K19,70,experiment,41,↓,down,↓,0.6723400999326259,True,18
93K19,71,experiment,53,↓,up,↑,0.562463500071317,False,18
93K19,72,experiment,47,↓,up,↑,0.4172509000636637,False,18
93K19,73,experiment,39,←,no_key,no_letter,-1.0,False,18
93K19,74,experiment,56,↑,no_key,no_letter,-1.0,False,18
93K19,75,experiment,29,↓,down,↓,0.6198144000954926,True,18
93K19,76,experiment,20,↓,down,↓,0.5496165999211371,True,18
93K19,77,experiment,17,→,no_key,no_letter,-1.0,False,18
93K19,78,experiment,50,↑,up,↑,0.9324322000611573,True,18
93K19,79,experiment,26,↑,up,↑,0.4343115999363363,True,18
93K19,80,experiment,37,↑,down,↓,0.6189792999066412,False,18
93K19,81,experiment,40,↑,up,↑,0.7676123999990523,True,18
93K19,82,experiment,38,←,no_key,no_letter,-1.0,False,18
93K19,83,experiment,19,↑,up,↑,0.4341973999980837,True,18
93K19,84,experiment,22,↑,down,↓,1.1236678999848664,False,18
93K19,85,experiment,55,←,no_key,no_letter,-1.0,False,18
93K19,86,experiment,46,→,right,→,0.5652348999865353,True,18
93K19,87,experiment,23,↓,down,↓,0.7669677000958472,True,18
93K19,88,experiment,33,←,left,←,0.6743556000292301,True,18
93K19,89,experiment,49,↑,up,↑,0.4950492000207305,True,18
93K19,90,experiment,15,↑,down,↓,0.6895693999249488,False,18
93K19,91,training,52,↓,down,↓,0.5883707001339644,True,19
93K19,92,training,51,↓,up,↑,0.6349380000028759,False,19
93K19,93,experiment,38,↓,no_key,no_letter,-1.0,False,19
93K19,94,experiment,57,←,left,←,0.5069454000331461,True,19
93K19,95,experiment,44,↓,down,↓,0.641653300030157,True,19
93K19,96,experiment,51,→,no_key,no_letter,-1.0,False,19
93K19,97,experiment,30,↑,up,↑,0.6749650000128895,True,19
93K19,98,experiment,35,↓,down,↓,0.6729239001870155,True,19
93K19,99,experiment,22,←,left,←,0.5516162000130862,True,19
93K19,100,experiment,13,→,left,←,0.5611849001143128,False,19
93K19,101,experiment,52,→,right,→,0.8722414998337626,True,19
93K19,102,experiment,21,→,right,→,0.6475676998961717,True,19
93K19,103,experiment,16,→,right,→,0.417403900064528,True,19
93K19,104,experiment,60,↑,up,↑,0.4898195001296699,True,19
93K19,105,experiment,17,←,right,→,0.5062426999211311,False,19
93K19,106,experiment,34,↑,up,↑,0.543612299952656,True,19
93K19,107,experiment,37,→,no_key,no_letter,-1.0,False,19
93K19,108,experiment,58,→,right,→,0.6116479001939297,True,19
93K19,109,experiment,15,↓,down,↓,0.6335997001733631,True,19
93K19,110,experiment,46,←,down,↓,0.6015461999922991,False,19
93K19,111,experiment,14,←,no_key,no_letter,-1.0,False,19
93K19,112,experiment,27,→,right,→,0.7829748999793082,True,19
93K19,113,experiment,45,↑,down,↓,0.7134822001680732,False,19
93K19,114,experiment,18,↓,down,↓,0.5448755000252277,True,19
93K19,115,experiment,23,←,left,←,0.6121851000934839,True,19
93K19,116,experiment,48,↑,up,↑,0.7721915999427438,True,19
93K19,117,experiment,29,↑,up,↑,0.5224561002105474,True,19
93K19,118,experiment,26,→,right,→,0.5403099998366088,True,19
93K19,119,experiment,41,↓,down,↓,0.6195410001091659,True,19
93K19,120,experiment,53,↑,up,↑,0.45067079993896186,True,19
93K19,121,experiment,31,↓,down,↓,0.600194999948144,True,19
93K19,122,experiment,20,↓,down,↓,0.5949132000096142,True,19
93K19,123,experiment,25,↑,down,↓,0.5949214999563992,False,19
93K19,124,experiment,47,↓,down,↓,0.5722134998068213,True,19
93K19,125,experiment,55,→,right,→,0.5848522000014782,True,19
93K19,126,experiment,42,↓,down,↓,0.5255289999768138,True,19
93K19,127,experiment,33,←,down,↓,0.26834189984947443,False,19
93K19,128,experiment,54,↓,right,→,0.41624499997124076,False,19
93K19,129,experiment,28,→,no_key,no_letter,-1.0,False,19
93K19,130,experiment,24,←,right,→,0.4507603000383824,False,19
93K19,131,experiment,32,→,left,←,0.16835779999382794,False,19
93K19,132,experiment,59,←,up,↑,0.11816020007245243,False,19
93K19,133,experiment,56,↑,down,↓,0.25223389989696443,False,19
93K19,134,experiment,19,↑,up,↑,0.28477509994991124,True,19
93K19,135,experiment,50,↓,down,↓,0.1694893001113087,True,19
93K19,136,experiment,49,←,down,↓,0.13503969996236265,False,19
93K19,137,experiment,40,↑,down,↓,0.28499690000899136,False,19
93K19,138,experiment,36,↓,up,↑,0.25172739988192916,False,19
93K19,139,experiment,39,→,left,←,0.08376460010185838,False,19
93K19,140,experiment,43,→,right,→,0.05185610009357333,True,19
93K19,141,training,31,↓,down,↓,0.6701460999902338,True,20
93K19,142,training,34,←,right,→,0.5327246999368072,False,20
93K19,143,experiment,18,↓,down,↓,0.5635110000148416,True,20
93K19,144,experiment,53,↑,up,↑,0.5614016000181437,True,20
93K19,145,experiment,48,→,right,→,0.45007319981232285,True,20
93K19,146,experiment,42,←,left,←,0.5728130999486893,True,20
93K19,147,experiment,55,↓,down,↓,0.7694641998969018,True,20
93K19,148,experiment,46,↑,up,↑,0.5480913000646979,True,20
93K19,149,experiment,24,↓,no_key,no_letter,-1.0,False,20
93K19,150,experiment,39,↓,down,↓,0.5642379000782967,True,20
93K19,151,experiment,25,→,right,→,0.5008023001719266,True,20
93K19,152,experiment,16,↑,up,↑,0.5099990000016987,True,20
93K19,153,experiment,21,↑,no_key,no_letter,-1.0,False,20
93K19,154,experiment,44,↑,no_key,no_letter,-1.0,False,20
93K19,155,experiment,56,→,right,→,0.5200164001435041,True,20
93K19,156,experiment,29,←,left,←,0.41762560000643134,True,20
93K19,157,experiment,28,↑,left,←,0.45053800009191036,False,20
93K19,158,experiment,23,←,left,←,0.6263757001142949,True,20
93K19,159,experiment,47,↓,down,↓,0.7301276999060065,True,20
93K19,160,experiment,41,→,no_key,no_letter,-1.0,False,20
93K19,161,experiment,43,↑,up,↑,0.5166918002068996,True,20
93K19,162,experiment,15,←,no_key,no_letter,-1.0,False,20
93K19,163,experiment,37,←,left,←,0.4507822000887245,True,20
93K19,164,experiment,38,→,right,→,0.5774767999537289,True,20
93K19,165,experiment,45,↓,up,↑,0.7086561999749392,False,20
93K19,166,experiment,57,→,no_key,no_letter,-1.0,False,20
93K19,167,experiment,26,←,right,→,0.4180634000804275,False,20
93K19,168,experiment,20,→,right,→,0.4673748000059277,True,20
93K19,169,experiment,54,↓,left,←,0.6507176999002695,False,20
93K19,170,experiment,33,→,right,→,0.5867061999160796,True,20
93K19,171,experiment,59,↓,down,↓,0.43402180005796254,True,20
93K19,172,experiment,52,↑,up,↑,0.5834165997803211,True,20
93K19,173,experiment,14,→,right,→,0.5027596999425441,True,20
93K19,174,experiment,50,←,left,←,0.5126816001720726,True,20
93K19,175,experiment,13,←,right,→,0.5073673999868333,False,20
93K19,176,experiment,27,↓,down,↓,0.5489789000712335,True,20
93K19,177,experiment,19,→,right,→,0.7460338000673801,True,20
93K19,178,experiment,34,→,up,↑,0.3339337999932468,False,20
93K19,179,experiment,22,↑,up,↑,0.450078799854964,True,20
93K19,180,experiment,30,↑,up,↑,0.5708391000516713,True,20
93K19,181,experiment,58,→,right,→,0.46749019995331764,True,20
93K19,182,experiment,35,↓,no_key,no_letter,-1.0,False,20
93K19,183,experiment,60,←,left,←,0.5706843000371009,True,20
93K19,184,experiment,17,←,no_key,no_letter,-1.0,False,20
93K19,185,experiment,36,↑,up,↑,0.6168054998852313,True,20
93K19,186,experiment,40,←,up,↑,0.6533501001540571,False,20
93K19,187,experiment,51,←,no_key,no_letter,-1.0,False,20
93K19,188,experiment,32,↑,up,↑,0.7320973000023514,True,20
93K19,189,experiment,31,→,right,→,0.7540293000638485,True,20
93K19,190,experiment,49,↓,left,←,0.4504958998877555,False,20
93K19,191,training,36,↓,down,↓,0.551986699923873,True,20
93K19,192,training,24,↑,up,↑,0.3506831000559032,True,20
93K19,193,experiment,32,↓,no_key,no_letter,-1.0,False,20
93K19,194,experiment,31,→,right,→,0.4507842001039535,True,20
93K19,195,experiment,28,↓,no_key,no_letter,-1.0,False,20
93K19,196,experiment,17,↑,down,↓,0.6567256001289934,False,20
93K19,197,experiment,15,↑,up,↑,0.5646090998779982,True,20
93K19,198,experiment,24,↑,no_key,no_letter,-1.0,False,20
93K19,199,experiment,33,←,left,←,0.40074780001305044,True,20
93K19,200,experiment,53,→,left,←,0.28512799995951355,False,20
93K19,201,experiment,27,→,right,→,0.4006408001296222,True,20
93K19,202,experiment,21,←,left,←,0.6299450001679361,True,20
93K19,203,experiment,19,↑,up,↑,0.41760160005651414,True,20
93K19,204,experiment,40,←,no_key,no_letter,-1.0,False,20
93K19,205,experiment,55,↓,down,↓,0.7273979999590665,True,20
93K19,206,experiment,23,↑,no_key,no_letter,-1.0,False,20
93K19,207,experiment,37,→,right,→,0.4005682000424713,True,20
93K19,208,experiment,49,↓,up,↑,0.7133656998630613,False,20
93K19,209,experiment,18,↓,no_key,no_letter,-1.0,False,20
93K19,210,experiment,43,↑,up,↑,0.6366725000552833,True,20
93K19,211,experiment,44,←,left,←,0.5025987999979407,True,20
93K19,212,experiment,54,↓,up,↑,0.3021241999231279,False,20
93K19,213,experiment,47,↓,down,↓,0.33395440015010536,True,20
93K19,214,experiment,50,↑,up,↑,0.20183310005813837,True,20
93K19,215,experiment,16,↓,left,←,0.2182916000019759,False,20
93K19,216,experiment,56,↓,up,↑,0.6546459000092,False,20
93K19,217,experiment,35,↓,down,↓,0.9893068999517709,True,20
93K19,218,experiment,30,←,left,←,0.3999795999843627,True,20
93K19,219,experiment,13,←,right,→,0.4503279998898506,False,20
93K19,220,experiment,52,↑,up,↑,0.6592750998679549,True,20
93K19,221,experiment,34,→,right,→,0.5145484001841396,True,20
93K19,222,experiment,39,←,left,←,0.45058820000849664,True,20
93K19,223,experiment,29,←,left,←,0.3504325000103563,True,20
93K19,224,experiment,57,←,no_key,no_letter,-1.0,False,20
93K19,225,experiment,48,←,left,←,0.5292948000133038,True,20
93K19,226,experiment,22,↑,left,←,0.5418843000661582,False,20
93K19,227,experiment,45,→,no_key,no_letter,-1.0,False,20
93K19,228,experiment,46,→,right,→,0.4673564999829978,True,20
93K19,229,experiment,51,←,left,←,0.5345834998879582,True,20
93K19,230,experiment,41,→,left,←,0.6458231001161039,False,20
93K19,231,experiment,58,↓,left,←,0.4167371999938041,False,20
93K19,232,experiment,38,→,down,↓,0.5075469000730664,False,20
93K19,233,experiment,14,↓,up,↑,0.6451779999770224,False,20
93K19,234,experiment,59,↑,up,↑,0.5964670998509973,True,20
93K19,235,experiment,42,↓,down,↓,0.5051122999284416,True,20
93K19,236,experiment,36,↓,down,↓,0.6678593000397086,True,20
93K19,237,experiment,60,→,no_key,no_letter,-1.0,False,20
93K19,238,experiment,25,→,no_key,no_letter,-1.0,False,20
93K19,239,experiment,26,↓,down,↓,0.5672341999597847,True,20
93K19,240,experiment,20,↓,down,↓,0.6512261000461876,True,20
93K19,241,training,44,↑,up,↑,0.7255468999501318,True,21
93K19,242,training,32,↑,up,↑,0.5712740002200007,True,21
93K19,243,experiment,50,↓,up,↑,0.38414719980210066,False,21
93K19,244,experiment,17,↑,down,↓,0.4336137000937015,False,21
93K19,245,experiment,35,↓,down,↓,0.8865552998613566,True,21
93K19,246,experiment,52,→,no_key,no_letter,-1.0,False,21
93K19,247,experiment,23,←,right,→,0.5364793001208454,False,21
93K19,248,experiment,43,→,right,→,0.4841428999789059,True,21
93K19,249,experiment,16,↓,down,↓,0.5277859000489116,True,21
93K19,250,experiment,34,↓,down,↓,0.5960509998258203,True,21
93K19,251,experiment,59,↑,up,↑,0.7731641998980194,True,21
93K19,252,experiment,47,←,left,←,0.5674834998790175,True,21
93K19,253,experiment,36,→,left,←,0.4503386998549104,False,21
93K19,254,experiment,53,←,left,←,0.7464429999236017,True,21
93K19,255,experiment,56,↑,up,↑,0.5354698000010103,True,21
93K19,256,experiment,51,←,left,←,0.4356591000687331,True,21
93K19,257,experiment,20,↓,right,→,0.4843723000958562,False,21
93K19,258,experiment,42,↑,down,↓,0.43344499985687435,False,21
93K19,259,experiment,55,→,right,→,0.4834594000130892,True,21
93K19,260,experiment,54,↓,down,↓,0.6740214000456035,True,21
93K19,261,experiment,60,↑,up,↑,0.5912723999936134,True,21
93K19,262,experiment,37,→,no_key,no_letter,-1.0,False,21
93K19,263,experiment,19,↑,up,↑,0.5298488000407815,True,21
93K19,264,experiment,33,↑,no_key,no_letter,-1.0,False,21
93K19,265,experiment,13,←,no_key,no_letter,-1.0,False,21
93K19,266,experiment,32,↑,up,↑,0.5431890999898314,True,21
93K19,267,experiment,44,→,no_key,no_letter,-1.0,False,21
93K19,268,experiment,48,↓,down,↓,0.627875599777326,True,21
93K19,269,experiment,46,→,left,←,0.7806317000649869,False,21
93K19,270,experiment,39,↑,up,↑,0.6193307999055833,True,21
93K19,271,experiment,31,←,left,←,0.5337222998496145,True,21
93K19,272,experiment,40,→,right,→,0.5337334000505507,True,21
93K19,273,experiment,15,↓,down,↓,0.5426254000049084,True,21
93K19,274,experiment,41,→,left,←,0.7177331999409944,False,21
93K19,275,experiment,57,↓,down,↓,0.8190679999534041,True,21
93K19,276,experiment,26,↓,down,↓,0.7610295999329537,True,21
93K19,277,experiment,27,→,left,←,0.5373245000373572,False,21
93K19,278,experiment,14,←,left,←,0.6424176001455635,True,21
93K19,279,experiment,30,←,left,←,0.773305700160563,True,21
93K19,280,experiment,28,→,right,→,0.5401114001870155,True,21
93K19,281,experiment,58,→,right,→,0.6477127999532968,True,21
93K19,282,experiment,29,←,left,←,0.5223906000610441,True,21
93K19,283,experiment,22,→,right,→,0.46734119998291135,True,21
93K19,284,experiment,25,←,left,←,0.4839361000340432,True,21
93K19,285,experiment,45,↑,left,←,0.4006456001661718,False,21
93K19,286,experiment,24,↑,up,↑,0.4336192000191659,True,21
93K19,287,experiment,49,→,no_key,no_letter,-1.0,False,21
93K19,288,experiment,21,↓,left,←,0.6384529999922961,False,21
93K19,289,experiment,38,↓,down,↓,0.5238200000021607,True,21
93K19,290,experiment,18,↓,up,↑,0.6825847001746297,False,21
93K19,291,training,16,→,right,→,0.46720480010844767,True,21
93K19,292,training,57,↓,up,↑,0.5197781000752002,False,21
93K19,293,experiment,43,→,right,→,0.5650176999624819,True,21
93K19,294,experiment,19,→,right,→,0.4672799000982195,True,21
93K19,295,experiment,35,↑,down,↓,0.5830248000565916,False,21
93K19,296,experiment,56,←,right,→,0.48404909996315837,False,21
93K19,297,experiment,52,↓,down,↓,0.6116607999429107,True,21
93K19,298,experiment,21,↓,down,↓,0.622026199940592,True,21
93K19,299,experiment,34,↓,up,↑,0.830385799985379,False,21
93K19,300,experiment,29,↓,down,↓,0.5543460000772029,True,21
93K19,301,experiment,58,↓,down,↓,0.6619296001736075,True,21
93K19,302,experiment,46,→,no_key,no_letter,-1.0,False,21
93K19,303,experiment,59,↓,down,↓,0.5730155999772251,True,21
93K19,304,experiment,33,↑,up,↑,1.1203141000587493,True,21
93K19,305,experiment,23,→,no_key,no_letter,-1.0,False,21
93K19,306,experiment,20,↑,up,↑,1.454367599915713,True,21
93K19,307,experiment,32,↑,up,↑,0.4666680002119392,True,21
93K19,308,experiment,22,↑,up,↑,0.9892084000166506,True,21
93K19,309,experiment,57,→,right,→,0.4006934000644833,True,21
93K19,310,experiment,51,↓,down,↓,0.548931100172922,True,21
93K19,311,experiment,49,↑,no_key,no_letter,-1.0,False,21
93K19,312,experiment,30,↑,up,↑,0.4508017001207918,True,21
93K19,313,experiment,40,↑,up,↑,0.3833200999069959,True,21
93K19,314,experiment,27,↑,up,↑,0.7065051000099629,True,21
93K19,315,experiment,55,↑,up,↑,0.35090439999476075,True,21
93K19,316,experiment,50,→,no_key,no_letter,-1.0,False,21
93K19,317,experiment,60,→,right,→,0.4840830999892205,True,21
93K19,318,experiment,28,←,right,→,0.40112309996038675,False,21
93K19,319,experiment,42,←,left,←,0.5336554998066276,True,21
93K19,320,experiment,13,→,no_key,no_letter,-1.0,False,21
93K19,321,experiment,44,↓,down,↓,0.7457479999866337,True,21
93K19,322,experiment,48,↑,up,↑,0.6281850999221206,True,21
93K19,323,experiment,37,←,left,←,0.4680616999976337,True,21
93K19,324,experiment,26,←,left,←,0.5817048999015242,True,21
93K19,325,experiment,47,→,right,→,0.4508194997906685,True,21
93K19,326,experiment,39,↓,down,↓,0.5543110999278724,True,21
93K19,327,experiment,18,←,left,←,0.568263600114733,True,21
93K19,328,experiment,45,↑,up,↑,0.3830712998751551,True,21
93K19,329,experiment,14,→,right,→,0.43399620009586215,True,21
93K19,330,experiment,53,→,right,→,0.46670960006304085,True,21
93K19,331,experiment,41,←,right,→,0.46733580017462373,False,21
93K19,332,experiment,24,←,left,←,0.5949174999259412,True,21
93K19,333,experiment,16,↓,down,↓,0.7289483000058681,True,21
93K19,334,experiment,15,↑,up,↑,0.46700789988972247,True,21
93K19,335,experiment,31,↓,down,↓,0.5302269000094384,True,21
93K19,336,experiment,36,↑,up,↑,0.4006466001737863,True,21
93K19,337,experiment,54,→,right,→,0.5208884999155998,True,21
93K19,338,experiment,17,→,right,→,0.4339296999387443,True,21
93K19,339,experiment,25,↓,down,↓,0.5889112998265773,True,21
93K19,340,experiment,38,→,up,↑,0.36745069990865886,False,21
93K19,341,training,52,←,right,→,0.48356610001064837,False,21
93K19,342,training,35,→,right,→,0.31845229980535805,True,21
93K19,343,experiment,28,↑,up,↑,0.15228589996695518,True,21
93K19,344,experiment,51,↓,down,↓,0.4175275999587029,True,21
93K19,345,experiment,38,←,left,←,0.48398600006476045,True,21
93K19,346,experiment,15,←,right,→,0.28506399993784726,False,21
93K19,347,experiment,54,↓,left,←,0.4505253001116216,False,21
93K19,348,experiment,50,→,down,↓,0.5264532000292093,False,21
93K19,349,experiment,59,←,left,←,1.3858109000138938,True,21
93K19,350,experiment,58,↓,down,↓,0.7075796998105943,True,21
93K19,351,experiment,13,↑,up,↑,0.7108980000484735,True,21
93K19,352,experiment,35,↓,down,↓,0.5957347999792546,True,21
93K19,353,experiment,23,↓,no_key,no_letter,-1.0,False,21
93K19,354,experiment,57,→,right,→,0.43325120001100004,True,21
93K19,355,experiment,52,↑,down,↓,0.45108669996261597,False,21
93K19,356,experiment,16,→,left,←,0.6602304000407457,False,21
93K19,357,experiment,41,↓,down,↓,0.5668554999865592,True,21
93K19,358,experiment,24,↓,down,↓,1.3281913998071104,True,21
93K19,359,experiment,44,←,left,←,0.4509072001092136,True,21
93K19,360,experiment,53,←,no_key,no_letter,-1.0,False,21
93K19,361,experiment,14,↑,up,↑,0.5821758999954909,True,21
93K19,362,experiment,18,→,right,→,0.6668285999912769,True,21
93K19,363,experiment,17,←,left,←,0.6295584000181407,True,21
93K19,364,experiment,31,←,no_key,no_letter,-1.0,False,21
93K19,365,experiment,40,→,left,←,0.4173830000218004,False,21
93K19,366,experiment,47,↑,right,→,0.7794283998664469,False,21
93K19,367,experiment,56,↓,right,→,0.543559200130403,False,21
93K19,368,experiment,27,←,down,↓,0.48566930019296706,False,21
93K19,369,experiment,49,↓,down,↓,0.6916684999596328,True,21
93K19,370,experiment,46,→,right,→,0.561526200035587,True,21
93K19,371,experiment,29,→,right,→,0.3674635998904705,True,21
93K19,372,experiment,22,↓,down,↓,0.6101100000087172,True,21
93K19,373,experiment,20,←,right,→,0.4506838000379503,False,21
93K19,374,experiment,19,→,right,→,0.56552439997904,True,21
93K19,375,experiment,37,←,left,←,0.43395660002715886,True,21
93K19,376,experiment,60,↓,no_key,no_letter,-1.0,False,21
93K19,377,experiment,48,←,no_key,no_letter,-1.0,False,21
93K19,378,experiment,33,→,no_key,no_letter,-1.0,False,21
93K19,379,experiment,45,↑,left,←,0.4004269998986274,False,21
93K19,380,experiment,26,↑,up,↑,1.7401286999229342,True,21
93K19,381,experiment,32,↑,up,↑,0.6734390999190509,True,21
93K19,382,experiment,34,→,right,→,0.48392689996398985,True,21
93K19,383,experiment,42,↑,up,↑,0.6323761998210102,True,21
93K19,384,experiment,30,←,no_key,no_letter,-1.0,False,21
93K19,385,experiment,43,↑,up,↑,0.6055395000148565,True,21
93K19,386,experiment,21,↑,up,↑,0.4838908000383526,True,21
93K19,387,experiment,36,↑,up,↑,0.4506885998416692,True,21
93K19,388,experiment,39,←,no_key,no_letter,-1.0,False,21
93K19,389,experiment,55,←,no_key,no_letter,-1.0,False,21
93K19,390,experiment,25,↓,up,↑,0.8720851999241859,False,21
93K19,391,training,18,→,up,↑,0.5534518000204116,False,21
93K19,392,training,42,←,left,←,0.4841291999910027,True,21
93K19,393,experiment,46,↓,up,↑,0.5807032000739127,False,21
93K19,394,experiment,15,↓,down,↓,0.40070190001279116,True,21
93K19,395,experiment,42,→,right,→,0.4507690998725593,True,21
93K19,396,experiment,24,↑,up,↑,0.41725199995562434,True,21
93K19,397,experiment,45,→,left,←,0.3840197001118213,False,21
93K19,398,experiment,28,↑,up,↑,0.48326079989783466,True,21
93K19,399,experiment,27,↑,up,↑,0.4841514998115599,True,21
93K19,400,experiment,43,→,left,←,0.3506455000024289,False,21
93K19,401,experiment,16,↑,up,↑,0.4673272999934852,True,21
93K19,402,experiment,14,↑,up,↑,0.40070959995500743,True,21
93K19,403,experiment,51,↑,up,↑,1.8346760999411345,True,21
93K19,404,experiment,40,←,no_key,no_letter,-1.0,False,21
93K19,405,experiment,18,→,right,→,0.43340899981558323,True,21
93K19,406,experiment,60,↑,up,↑,1.2720282999798656,True,21
93K19,407,experiment,38,→,right,→,0.5639854001346976,True,21
93K19,408,experiment,26,↓,down,↓,0.7320089000277221,True,21
93K19,409,experiment,47,←,right,→,1.5113264999818057,False,21
93K19,410,experiment,17,→,right,→,0.5760420002043247,True,21
93K19,411,experiment,41,←,left,←,0.57401750003919,True,21
93K19,412,experiment,59,←,left,←,0.5680460000876337,True,21
93K19,413,experiment,55,↓,down,↓,0.5886949000414461,True,21
93K19,414,experiment,49,↑,up,↑,0.5247852001339197,True,21
93K19,415,experiment,50,←,right,→,0.5184019000735134,False,21
93K19,416,experiment,36,↓,left,←,0.5287780000362545,False,21
93K19,417,experiment,39,↑,up,↑,0.5373694999143481,True,21
93K19,418,experiment,52,↓,down,↓,0.585395900066942,True,21
93K19,419,experiment,34,←,left,←,0.5793604999780655,True,21
93K19,420,experiment,13,↑,up,↑,0.4672705000266433,True,21
93K19,421,experiment,32,↓,down,↓,0.3839207999408245,True,21
93K19,422,experiment,57,↓,down,↓,0.8133461999241263,True,21
93K19,423,experiment,54,↓,up,↑,0.5534830000251532,False,21
93K19,424,experiment,56,↑,up,↑,1.7659819000400603,True,21
93K19,425,experiment,58,←,left,←,0.43437969987280667,True,21
93K19,426,experiment,25,→,no_key,no_letter,-1.0,False,21
93K19,427,experiment,31,←,left,←,0.4171124000567943,True,21
93K19,428,experiment,44,↓,up,↑,0.5701782999094576,False,21
93K19,429,experiment,37,↓,down,↓,1.6426628998015076,True,21
93K19,430,experiment,53,←,left,←,0.5979675999842584,True,21
93K19,431,experiment,23,→,right,→,0.5905655000824481,True,21
93K19,432,experiment,22,↑,up,↑,0.8646631001029164,True,21
93K19,433,experiment,20,→,right,→,0.5366688000503927,True,21
93K19,434,experiment,33,→,right,→,0.41754479985684156,True,21
93K19,435,experiment,21,→,right,→,0.4173614999745041,True,21
93K19,436,experiment,35,←,left,←,0.5573814001400024,True,21
93K19,437,experiment,30,↑,up,↑,0.5952796000055969,True,21
93K19,438,experiment,29,↓,down,↓,0.6967743998393416,True,21
93K19,439,experiment,48,↓,down,↓,1.2532228999771178,True,21
93K19,440,experiment,19,↓,down,↓,1.8625599001534283,True,21
93K19,441,training,44,→,right,→,0.6826266997959465,True,21
93K19,442,training,55,←,right,→,0.48332619993016124,False,21
93K19,443,experiment,55,→,left,←,0.45123110013082623,False,21
93K19,444,experiment,24,↑,down,↓,0.3999860000330955,False,21
93K19,445,experiment,21,↑,up,↑,0.6879086999688298,True,21
93K19,446,experiment,15,↑,up,↑,0.48401389992795885,True,21
93K19,447,experiment,52,←,left,←,0.46669599995948374,True,21
93K19,448,experiment,46,↓,down,↓,0.5700420998036861,True,21
93K19,449,experiment,45,→,no_key,no_letter,-1.0,False,21
93K19,450,experiment,18,↑,up,↑,0.4014900999609381,True,21
93K19,451,experiment,19,↑,up,↑,0.43416519998572767,True,21
93K19,452,experiment,26,↓,down,↓,0.7671990999951959,True,21
93K19,453,experiment,16,→,right,→,0.43435709993354976,True,21
93K19,454,experiment,22,↑,up,↑,1.5892775000538677,True,21
93K19,455,experiment,35,↑,up,↑,0.36762279993854463,True,21
93K19,456,experiment,58,→,right,→,0.7045669001527131,True,21
93K19,457,experiment,29,←,left,←,0.46667320001870394,True,21
93K19,458,experiment,53,↓,down,↓,0.8987739000003785,True,21
93K19,459,experiment,57,→,right,→,0.43404319998808205,True,21
93K19,460,experiment,39,←,up,↑,0.6215037000365555,False,21
93K19,461,experiment,54,←,left,←,0.4505827999673784,True,21
93K19,462,experiment,51,↑,up,↑,0.4007131999824196,True,21
93K19,463,experiment,31,←,left,←,0.7978451000526547,True,21
93K19,464,experiment,56,↑,up,↑,0.7765242999885231,True,21
93K19,465,experiment,30,↓,down,↓,0.6539449000265449,True,21
93K19,466,experiment,38,↑,no_key,no_letter,-1.0,False,21
93K19,467,experiment,60,↓,down,↓,0.6979236998595297,True,21
93K19,468,experiment,17,→,right,→,0.562503500143066,True,21
93K19,469,experiment,40,↓,down,↓,0.5940571001265198,True,21
93K19,470,experiment,33,→,no_key,no_letter,-1.0,False,21
93K19,471,experiment,23,↑,up,↑,0.3502652000170201,True,21
93K19,472,experiment,50,→,right,→,0.4173143000807613,True,21
93K19,473,experiment,13,↑,up,↑,0.4339811000972986,True,21
93K19,474,experiment,28,←,left,←,0.43400010000914335,True,21
93K19,475,experiment,43,→,right,→,0.40061610005795956,True,21
93K19,476,experiment,20,↑,up,↑,0.383729400113225,True,21
93K19,477,experiment,36,←,left,←,0.8811466000042856,True,21
93K19,478,experiment,47,↑,up,↑,1.4545501000247896,True,21
93K19,479,experiment,49,←,left,←,0.43424569978378713,True,21
93K19,480,experiment,25,↑,up,↑,0.48327110009267926,True,21
93K19,481,experiment,59,←,left,←,0.6220873999409378,True,21
93K19,482,experiment,34,↑,up,↑,0.40026300004683435,True,21
93K19,483,experiment,14,↓,up,↑,0.3183657000772655,False,21
93K19,484,experiment,27,↑,up,↑,1.3245071999263018,True,21
93K19,485,experiment,44,↓,down,↓,0.45144520001485944,True,21
93K19,486,experiment,32,←,left,←,0.6339934999123216,True,21
93K19,487,experiment,37,↓,down,↓,0.6877869002055377,True,21
93K19,488,experiment,42,←,right,→,0.41745449998416007,False,21
93K19,489,experiment,48,←,right,→,0.5513792999554425,False,21
93K19,490,experiment,41,↑,up,↑,1.5018251999281347,True,21
93K19,491,training,38,←,left,←,1.7511709998361766,True,21
93K19,492,training,26,↑,up,↑,0.6238274001516402,True,21
93K19,493,experiment,52,↓,up,↑,0.36738989991135895,False,21
93K19,494,experiment,15,←,left,←,0.5309939000289887,True,21
93K19,495,experiment,21,→,left,←,0.6077680999878794,False,21
93K19,496,experiment,27,↑,up,↑,0.417311699828133,True,21
93K19,497,experiment,22,↓,left,←,0.46727939997799695,False,21
93K19,498,experiment,53,↓,down,↓,0.4834423998836428,True,21
93K19,499,experiment,24,↑,up,↑,0.46728469990193844,True,21
93K19,500,experiment,47,↑,up,↑,0.6004488000180572,True,21
93K19,501,experiment,56,→,right,→,0.4672403000295162,True,21
93K19,502,experiment,23,↑,up,↑,0.4341951999813318,True,21
93K19,503,experiment,30,↑,up,↑,0.5387051000725478,True,21
93K19,504,experiment,38,↓,down,↓,0.6518210999201983,True,21
93K19,505,experiment,14,←,left,←,0.6403992001432925,True,21
93K19,506,experiment,29,↓,no_key,no_letter,-1.0,False,21
93K19,507,experiment,40,←,left,←,0.560515700140968,True,21
93K19,508,experiment,57,→,right,→,0.5407346000429243,True,21
93K19,509,experiment,31,↓,down,↓,0.530619400087744,True,21
93K19,510,experiment,32,←,left,←,1.5597069000359625,True,21
93K19,511,experiment,44,↓,down,↓,0.5724935000762343,True,21
93K19,512,experiment,43,↑,up,↑,1.233318499987945,True,21
93K19,513,experiment,50,↑,up,↑,0.5263471999205649,True,21
93K19,514,experiment,51,↓,down,↓,0.6390581999439746,True,21
93K19,515,experiment,59,↓,down,↓,0.5424073999747634,True,21
93K19,516,experiment,48,→,left,←,0.5690876999869943,False,21
93K19,517,experiment,34,→,left,←,0.35098140011541545,False,21
93K19,518,experiment,54,↓,down,↓,0.545040899887681,True,21
93K19,519,experiment,45,↓,down,↓,0.5257384001743048,True,21
93K19,520,experiment,18,←,left,←,0.5483494999352843,True,21
93K19,521,experiment,49,→,right,→,0.4506123000755906,True,21
93K19,522,experiment,26,←,right,→,0.4172753000166267,False,21
93K19,523,experiment,46,↓,up,↑,1.0257059999275953,False,21
93K19,524,experiment,20,←,left,←,1.6757708999793977,True,21
93K19,525,experiment,13,→,right,→,0.6485735999885947,True,21
93K19,526,experiment,19,←,right,→,0.43328210012987256,False,21
93K19,527,experiment,58,↑,up,↑,0.5450305000413209,True,21
93K19,528,experiment,35,↓,down,↓,0.7806759998202324,True,21
93K19,529,experiment,41,→,right,→,0.5375862000510097,True,21
93K19,530,experiment,42,↓,left,←,0.8724268998485059,False,21
93K19,531,experiment,28,→,right,→,0.4168987001758069,True,21
93K19,532,experiment,36,↓,no_key,no_letter,-1.0,False,21
93K19,533,experiment,55,→,right,→,0.38394180010072887,True,21
93K19,534,experiment,16,←,left,←,0.5617959999945015,True,21
93K19,535,experiment,33,↓,left,←,0.43392189987935126,False,21
93K19,536,experiment,25,↓,down,↓,0.5709194999653846,True,21
93K19,537,experiment,17,↑,up,↑,0.4839975000359118,True,21
93K19,538,experiment,60,↑,up,↑,1.3811846000608057,True,21
93K19,539,experiment,37,↓,down,↓,0.6530085999984294,True,21
93K19,540,experiment,39,→,left,←,0.5451136999763548,False,21
93K19,541,training,15,←,left,←,0.5794007000513375,True,21
93K19,542,training,45,→,right,→,1.4623066999483854,True,21
93K19,543,experiment,48,←,right,→,1.3402081998065114,False,21
93K19,544,experiment,36,↑,up,↑,0.4005597000941634,True,21
93K19,545,experiment,15,←,left,←,0.6603242999408394,True,21
93K19,546,experiment,14,→,right,→,0.4505366999655962,True,21
93K19,547,experiment,17,↑,up,↑,0.5708886000793427,True,21
93K19,548,experiment,18,←,left,←,0.4673193001653999,True,21
93K19,549,experiment,45,↓,down,↓,0.661569100106135,True,21
93K19,550,experiment,32,→,right,→,0.6381829001475126,True,21
93K19,551,experiment,59,←,left,←,0.5736344999168068,True,21
93K19,552,experiment,29,←,left,←,0.4509358999785036,True,21
93K19,553,experiment,51,←,left,←,0.5911455999594182,True,21
93K19,554,experiment,13,→,right,→,0.5588773998897523,True,21
93K19,555,experiment,39,↑,up,↑,0.4843091999646276,True,21
93K19,556,experiment,23,↓,down,↓,0.7395298001356423,True,21
93K19,557,experiment,30,↓,down,↓,1.2982068001292646,True,21
93K19,558,experiment,37,←,no_key,no_letter,-1.0,False,21
93K19,559,experiment,20,←,no_key,no_letter,-1.0,False,21
93K19,560,experiment,46,↑,up,↑,0.7602448998950422,True,21
93K19,561,experiment,57,↑,up,↑,0.38329109991900623,True,21
93K19,562,experiment,16,←,left,←,0.4505739000160247,True,21
93K19,563,experiment,44,↑,up,↑,0.7215001999866217,True,21
93K19,564,experiment,24,↑,up,↑,0.5249793000984937,True,21
93K19,565,experiment,55,←,left,←,0.4339856000151485,True,21
93K19,566,experiment,19,↓,down,↓,0.6681752998847514,True,21
93K19,567,experiment,54,→,right,→,0.693456299835816,True,21
93K19,568,experiment,43,↓,down,↓,0.8294853998813778,True,21
93K19,569,experiment,52,↓,down,↓,0.6982545000500977,True,21
93K19,570,experiment,47,↓,down,↓,0.622848300030455,True,21
93K19,571,experiment,41,→,right,→,0.4840851000044495,True,21
93K19,572,experiment,26,←,left,←,1.1974510999862105,True,21
93K19,573,experiment,27,←,left,←,0.539710600161925,True,21
93K19,574,experiment,21,←,left,←,0.7122621000744402,True,21
93K19,575,experiment,38,↑,up,↑,0.626816299976781,True,21
93K19,576,experiment,25,↑,up,↑,0.45063159987330437,True,21
93K19,577,experiment,33,→,right,→,0.5848638000898063,True,21
93K19,578,experiment,53,↓,down,↓,0.9421496000140905,True,21
93K19,579,experiment,49,→,right,→,0.44996230001561344,True,21
93K19,580,experiment,31,→,right,→,0.4018612001091242,True,21
93K19,581,experiment,34,↓,down,↓,0.8728366999421269,True,21
93K19,582,experiment,35,↓,down,↓,0.4839739000890404,True,21
93K19,583,experiment,58,↓,down,↓,0.6284070000983775,True,21
93K19,584,experiment,42,↓,down,↓,0.5675697999540716,True,21
93K19,585,experiment,50,↓,down,↓,0.4500177998561412,True,21
93K19,586,experiment,22,↓,down,↓,0.5261628001462668,True,21
93K19,587,experiment,40,←,left,←,0.630184100009501,True,21
93K19,588,experiment,28,→,right,→,0.682212500134483,True,21
93K19,589,experiment,60,←,left,←,0.591390399960801,True,21
93K19,590,experiment,56,↓,down,↓,0.5543349999934435,True,21
