PART_ID,Trial_no,Trial_type,CSI,Stim_letter,Key_pressed,letter_choose,Rt,Corr,Stimulus Time
95K20,1,training,60,→,no_key,no_letter,-1.0,False,30
95K20,2,training,60,↑,right,→,1.7310820000711828,False,30
95K20,3,training,60,→,left,←,0.7091731000691652,False,30
95K20,4,training,60,↑,up,↑,1.5045426001306623,True,30
95K20,5,training,60,←,left,←,1.3637578999623656,True,30
95K20,6,training,60,↓,down,↓,0.8204802998807281,True,30
95K20,7,training,60,←,left,←,0.8831781998742372,True,30
95K20,8,training,60,←,right,→,1.0713784999679774,False,30
95K20,9,training,60,→,right,→,0.7879293998703361,True,30
95K20,10,training,60,↓,down,↓,0.7157639001961797,True,30
95K20,11,training,60,↓,down,↓,1.1104334997944534,True,30
95K20,12,training,60,↓,down,↓,0.8169964998960495,True,30
95K20,13,training,60,↑,up,↑,0.799728199839592,True,30
95K20,14,training,60,←,left,←,0.8071111999452114,True,30
95K20,15,training,60,←,left,←,0.758691200055182,True,30
95K20,16,training,60,↑,up,↑,0.8077072000596672,True,30
95K20,17,training,60,→,right,→,0.8551007001660764,True,30
95K20,18,training,60,←,left,←,0.8524889000691473,True,30
95K20,19,training,60,↑,up,↑,0.6898131999187171,True,30
95K20,20,training,60,↓,up,↑,0.9981929000932723,False,30
95K20,21,training,60,↓,left,←,0.6863628001883626,False,18
95K20,22,training,60,↑,up,↑,0.6104641000274569,True,18
95K20,23,training,60,←,left,←,0.5692038000561297,True,18
95K20,24,training,60,↑,left,←,1.129770499886945,False,18
95K20,25,training,60,←,left,←,1.0276907000225037,True,18
95K20,26,training,60,←,left,←,0.5937136998400092,True,18
95K20,27,training,60,↑,up,↑,0.49709750013425946,True,18
95K20,28,training,60,←,left,←,0.6285031998995692,True,18
95K20,29,training,60,←,left,←,0.7383532000239938,True,18
95K20,30,training,60,←,left,←,0.5244062000419945,True,18
95K20,31,training,60,↓,up,↑,1.8709260998293757,False,18
95K20,32,training,60,←,up,↑,1.2439735000953078,False,18
95K20,33,training,60,→,left,←,0.6657062000595033,False,18
95K20,34,training,60,↓,up,↑,1.7982627998571843,False,18
95K20,35,training,60,↓,up,↑,0.7018718000035733,False,18
95K20,36,training,60,→,right,→,0.6729713999666274,True,18
95K20,37,training,60,↑,up,↑,0.5738010001368821,True,18
95K20,38,training,60,↓,up,↑,0.5582970001269132,False,18
95K20,39,training,60,↓,down,↓,0.9276183999609202,True,18
95K20,40,training,60,↑,left,←,1.475390800042078,False,18
95K20,41,training,26,→,left,←,0.7877194001339376,False,18
95K20,42,training,39,←,left,←,1.4982014999259263,True,18
95K20,43,experiment,25,↓,up,↑,1.5657309000380337,False,18
95K20,44,experiment,22,→,left,←,1.1939199999906123,False,18
95K20,45,experiment,13,↓,up,↑,0.7603895999491215,False,18
95K20,46,experiment,59,↑,up,↑,0.5554136000573635,True,18
95K20,47,experiment,53,↑,up,↑,0.4735719000454992,True,18
95K20,48,experiment,47,↑,up,↑,0.622963499976322,True,18
95K20,49,experiment,16,↓,up,↑,0.5237388000823557,False,18
95K20,50,experiment,35,→,right,→,0.775581699796021,True,18
95K20,51,experiment,60,↓,up,↑,0.8089165999554098,False,18
95K20,52,experiment,27,→,up,↑,0.8708615999203175,False,18
95K20,53,experiment,41,↑,up,↑,0.5609965999610722,True,18
95K20,54,experiment,57,↑,up,↑,0.6848718000110239,True,18
95K20,55,experiment,15,↑,up,↑,0.647870299872011,True,18
95K20,56,experiment,19,↑,up,↑,0.7209995000157505,True,18
95K20,57,experiment,34,←,up,↑,0.6295849999878556,False,18
95K20,58,experiment,37,↓,down,↓,0.7798793998081237,True,18
95K20,59,experiment,30,↓,up,↑,0.9609248000197113,False,18
95K20,60,experiment,58,←,left,←,0.7161491999868304,True,18
95K20,61,experiment,39,↓,down,↓,0.573706499999389,True,18
95K20,62,experiment,56,→,right,→,0.6016651000827551,True,18
95K20,63,experiment,54,←,left,←,0.8698261000681669,True,18
95K20,64,experiment,14,→,right,→,0.5536121998447925,True,18
95K20,65,experiment,52,↑,down,↓,0.6092310999520123,False,18
95K20,66,experiment,44,↑,up,↑,0.5635450000409037,True,18
95K20,67,experiment,38,→,right,→,0.5638444998767227,True,18
95K20,68,experiment,36,↓,right,→,1.0448542998638004,False,18
95K20,69,experiment,33,↓,up,↑,0.5735410000197589,False,18
95K20,70,experiment,17,→,right,→,1.0675285998731852,True,18
95K20,71,experiment,45,↓,down,↓,0.7468687000218779,True,18
95K20,72,experiment,49,→,right,→,0.6041888000909239,True,18
95K20,73,experiment,26,←,left,←,0.6829624001402408,True,18
95K20,74,experiment,29,↑,up,↑,0.5242230999283493,True,18
95K20,75,experiment,20,↓,up,↑,0.4741286998614669,False,18
95K20,76,experiment,18,↑,up,↑,0.5469262001570314,True,18
95K20,77,experiment,46,↓,down,↓,0.7103335000574589,True,18
95K20,78,experiment,48,↑,up,↑,0.6980755000840873,True,18
95K20,79,experiment,28,↓,down,↓,0.6917633998673409,True,18
95K20,80,experiment,50,↑,down,↓,0.9671423998661339,False,18
95K20,81,experiment,23,↑,down,↓,0.800819099880755,False,18
95K20,82,experiment,32,→,down,↓,0.8355004000477493,False,18
95K20,83,experiment,40,←,down,↓,0.7835711999796331,False,18
95K20,84,experiment,51,→,down,↓,0.9421417000703514,False,18
95K20,85,experiment,42,↓,down,↓,0.49277670006267726,True,18
95K20,86,experiment,55,→,right,→,0.6608229000121355,True,18
95K20,87,experiment,31,←,right,→,0.5581125000026077,False,18
95K20,88,experiment,43,←,left,←,0.563623399939388,True,18
95K20,89,experiment,21,↑,down,↓,0.8228188999928534,False,18
95K20,90,experiment,24,←,right,→,1.7980387001298368,False,18
95K20,91,training,25,↓,down,↓,0.704365500016138,True,19
95K20,92,training,51,↓,down,↓,0.6262135000433773,True,19
95K20,93,experiment,13,↑,down,↓,0.63304050010629,False,19
95K20,94,experiment,47,↑,down,↓,0.8481454001739621,False,19
95K20,95,experiment,19,←,no_key,no_letter,-1.0,False,19
95K20,96,experiment,21,→,left,←,1.0042226000223309,False,19
95K20,97,experiment,30,←,left,←,0.49617589986883104,True,19
95K20,98,experiment,56,←,left,←,0.6708178000990301,True,19
95K20,99,experiment,22,↓,down,↓,0.6853368000593036,True,19
95K20,100,experiment,48,↓,down,↓,0.5621442999690771,True,19
95K20,101,experiment,49,↑,up,↑,0.6675313001032919,True,19
95K20,102,experiment,51,←,left,←,0.6467860999982804,True,19
95K20,103,experiment,50,←,left,←,0.6201748999301344,True,19
95K20,104,experiment,23,→,left,←,0.6283269000705332,False,19
95K20,105,experiment,60,↓,down,↓,0.6834249999374151,True,19
95K20,106,experiment,29,↓,down,↓,0.7967668999917805,True,19
95K20,107,experiment,15,↓,down,↓,0.6593734000343829,True,19
95K20,108,experiment,35,→,right,→,0.7700803000479937,True,19
95K20,109,experiment,28,→,right,→,0.8487949999980628,True,19
95K20,110,experiment,55,→,left,←,0.5142715000547469,False,19
95K20,111,experiment,25,↓,left,←,0.7087346999906003,False,19
95K20,112,experiment,41,↑,down,↓,0.4342177000362426,False,19
95K20,113,experiment,20,↑,left,←,1.5261015000287443,False,19
95K20,114,experiment,58,→,no_key,no_letter,-1.0,False,19
95K20,115,experiment,43,←,right,→,0.5028517998289317,False,19
95K20,116,experiment,18,←,right,→,1.9827841999940574,False,19
95K20,117,experiment,57,↓,up,↑,0.6097011000383645,False,19
95K20,118,experiment,26,←,left,←,1.3840517001226544,True,19
95K20,119,experiment,38,↑,up,↑,0.5036186000797898,True,19
95K20,120,experiment,45,↓,no_key,no_letter,-1.0,False,19
95K20,121,experiment,52,→,right,→,0.7874553999863565,True,19
95K20,122,experiment,24,←,left,←,1.3162882002070546,True,19
95K20,123,experiment,39,↓,up,↑,0.5413518000859767,False,19
95K20,124,experiment,32,←,left,←,0.6827019001357257,True,19
95K20,125,experiment,31,↑,up,↑,0.5707498998381197,True,19
95K20,126,experiment,27,↓,down,↓,0.6020757998339832,True,19
95K20,127,experiment,42,↑,up,↑,0.6060351000633091,True,19
95K20,128,experiment,40,↑,up,↑,0.6513082000892609,True,19
95K20,129,experiment,53,↑,up,↑,0.5900471999775618,True,19
95K20,130,experiment,36,←,left,←,0.5987138000782579,True,19
95K20,131,experiment,46,↑,right,→,1.5361189001705498,False,19
95K20,132,experiment,17,↓,up,↑,0.6554151000455022,False,19
95K20,133,experiment,44,→,right,→,0.4507238999940455,True,19
95K20,134,experiment,33,↑,up,↑,0.6075724000111222,True,19
95K20,135,experiment,59,←,right,→,0.6320919999852777,False,19
95K20,136,experiment,16,←,right,→,0.8919152999296784,False,19
95K20,137,experiment,37,→,right,→,0.6000806998927146,True,19
95K20,138,experiment,54,←,left,←,0.5160469999536872,True,19
95K20,139,experiment,34,→,left,←,0.5926892999559641,False,19
95K20,140,experiment,14,↓,up,↑,1.3522497999947518,False,19
95K20,141,training,19,→,no_key,no_letter,-1.0,False,20
95K20,142,training,44,↑,left,←,0.7587194999214262,False,20
95K20,143,experiment,29,↓,left,←,0.6933800999540836,False,20
95K20,144,experiment,21,→,right,→,0.5719604999758303,True,20
95K20,145,experiment,47,↓,down,↓,0.6460312998387963,True,20
95K20,146,experiment,42,↓,down,↓,0.5606601000763476,True,20
95K20,147,experiment,43,→,left,←,1.3659262000583112,False,20
95K20,148,experiment,39,←,left,←,0.573476399993524,True,20
95K20,149,experiment,18,→,right,→,1.243017200147733,True,20
95K20,150,experiment,22,↑,up,↑,0.7626158997882158,True,20
95K20,151,experiment,52,↓,down,↓,0.5619802000001073,True,20
95K20,152,experiment,34,↑,up,↑,0.693450499791652,True,20
95K20,153,experiment,28,↑,left,←,1.1352820000611246,False,20
95K20,154,experiment,38,←,right,→,0.6727467000018805,False,20
95K20,155,experiment,35,←,down,↓,0.7586801999714226,False,20
95K20,156,experiment,45,→,left,←,0.6666248999536037,False,20
95K20,157,experiment,36,↓,up,↑,0.6159696001559496,False,20
95K20,158,experiment,31,↑,up,↑,0.6746799999382347,True,20
95K20,159,experiment,53,←,left,←,0.7091153000947088,True,20
95K20,160,experiment,60,→,right,→,0.5767965000122786,True,20
95K20,161,experiment,54,↑,up,↑,0.662122700130567,True,20
95K20,162,experiment,30,←,left,←,0.6401069001294672,True,20
95K20,163,experiment,48,→,left,←,0.5747440999839455,False,20
95K20,164,experiment,13,→,left,←,0.9355109001044184,False,20
95K20,165,experiment,19,↓,down,↓,1.0212628999724984,True,20
95K20,166,experiment,37,→,right,→,0.7000368998851627,True,20
95K20,167,experiment,20,→,left,←,0.5786464000120759,False,20
95K20,168,experiment,17,→,left,←,1.305218200199306,False,20
95K20,169,experiment,25,→,right,→,1.243918600026518,True,20
95K20,170,experiment,59,←,right,→,0.5712401000782847,False,20
95K20,171,experiment,27,←,right,→,0.3015270000323653,False,20
95K20,172,experiment,23,↓,left,←,1.237954800017178,False,20
95K20,173,experiment,56,↓,down,↓,0.7515180001500994,True,20
95K20,174,experiment,24,←,right,→,1.1372654000297189,False,20
95K20,175,experiment,15,←,up,↑,1.2099196999333799,False,20
95K20,176,experiment,32,←,left,←,0.7405683000106364,True,20
95K20,177,experiment,57,↓,right,→,0.9452863000333309,False,20
95K20,178,experiment,44,←,up,↑,1.2468687000218779,False,20
95K20,179,experiment,46,↑,left,←,1.365916799986735,False,20
95K20,180,experiment,49,↑,up,↑,1.9267885000444949,True,20
95K20,181,experiment,16,↑,up,↑,1.1752670998685062,True,20
95K20,182,experiment,51,↑,left,←,0.9265809999778867,False,20
95K20,183,experiment,58,→,up,↑,0.1851568000856787,False,20
95K20,184,experiment,14,←,left,←,0.08501980011351407,True,20
95K20,185,experiment,40,↓,left,←,1.404528400162235,False,20
95K20,186,experiment,55,→,left,←,0.7438906000461429,False,20
95K20,187,experiment,26,←,left,←,0.6731374999508262,True,20
95K20,188,experiment,33,←,right,→,1.296551699982956,False,20
95K20,189,experiment,50,→,left,←,0.2518360000103712,False,20
95K20,190,experiment,41,↑,up,↑,0.514549900079146,True,20
95K20,191,training,44,→,no_key,no_letter,-1.0,False,21
95K20,192,training,32,→,right,→,0.7266665999777615,True,21
95K20,193,experiment,29,←,left,←,0.6705651001539081,True,21
95K20,194,experiment,50,→,right,→,0.5466171000152826,True,21
95K20,195,experiment,35,←,left,←,0.6934517999179661,True,21
95K20,196,experiment,58,→,right,→,0.6270948001183569,True,21
95K20,197,experiment,15,←,right,→,0.7125141001306474,False,21
95K20,198,experiment,52,←,left,←,0.6018634999636561,True,21
95K20,199,experiment,28,↑,up,↑,0.6311404001899064,True,21
95K20,200,experiment,23,←,left,←,0.41746469982899725,True,21
95K20,201,experiment,13,↓,up,↑,1.2448537999298424,False,21
95K20,202,experiment,27,→,left,←,0.5371722998097539,False,21
95K20,203,experiment,30,←,up,↑,1.2878233999945223,False,21
95K20,204,experiment,56,↓,down,↓,0.9671750001143664,True,21
95K20,205,experiment,47,↑,left,←,1.873276200145483,False,21
95K20,206,experiment,46,↓,up,↑,1.223944100085646,False,21
95K20,207,experiment,25,→,up,↑,0.8705368998926133,False,21
95K20,208,experiment,14,←,left,←,1.3304908000864089,True,21
95K20,209,experiment,57,↑,up,↑,0.5833133000414819,True,21
95K20,210,experiment,41,→,right,→,0.6844885000027716,True,21
95K20,211,experiment,22,↓,down,↓,0.7545048999600112,True,21
95K20,212,experiment,37,→,right,→,0.6198655001353472,True,21
95K20,213,experiment,24,↓,up,↑,1.26706360001117,False,21
95K20,214,experiment,17,→,right,→,1.1491937001701444,True,21
95K20,215,experiment,49,→,left,←,1.9265102001372725,False,21
95K20,216,experiment,48,↓,right,→,1.1459279998671263,False,21
95K20,217,experiment,39,↓,down,↓,0.8584833999630064,True,21
95K20,218,experiment,40,↓,up,↑,1.3657581999432296,False,21
95K20,219,experiment,36,→,right,→,0.6073694000951946,True,21
95K20,220,experiment,60,↓,right,→,0.4506306000985205,False,21
95K20,221,experiment,45,↓,down,↓,0.8304674001410604,True,21
95K20,222,experiment,44,↑,left,←,1.1839238998945802,False,21
95K20,223,experiment,53,←,right,→,1.0691979001276195,False,21
95K20,224,experiment,32,→,right,→,1.3411691000219434,True,21
95K20,225,experiment,51,↑,right,→,1.1817505999933928,False,21
95K20,226,experiment,33,←,right,→,0.5684363001491874,False,21
95K20,227,experiment,38,→,right,→,0.4341847999021411,True,21
95K20,228,experiment,55,←,left,←,1.0098949999082834,True,21
95K20,229,experiment,26,→,up,↑,1.0084675999823958,False,21
95K20,230,experiment,43,→,left,←,0.38352959998883307,False,21
95K20,231,experiment,34,→,down,↓,0.8851230000145733,False,21
95K20,232,experiment,16,←,left,←,0.8710654999595135,True,21
95K20,233,experiment,20,↑,up,↑,0.7270484999753535,True,21
95K20,234,experiment,21,↓,no_key,no_letter,-1.0,False,21
95K20,235,experiment,31,↑,up,↑,0.9111421999987215,True,21
95K20,236,experiment,18,↑,right,→,1.1511711000930518,False,21
95K20,237,experiment,19,↓,up,↑,1.7486898000352085,False,21
95K20,238,experiment,54,→,right,→,0.46768570016138256,True,21
95K20,239,experiment,59,↑,left,←,0.624036299996078,False,21
95K20,240,experiment,42,↓,up,↑,1.5870517999865115,False,21
95K20,241,training,31,→,right,→,1.2690801001153886,True,21
95K20,242,training,22,→,no_key,no_letter,-1.0,False,21
95K20,243,experiment,15,↓,down,↓,0.7532520999666303,True,21
95K20,244,experiment,20,←,left,←,0.7017620999831706,True,21
95K20,245,experiment,21,→,right,→,0.651722300099209,True,21
95K20,246,experiment,40,↓,down,↓,0.623131199972704,True,21
95K20,247,experiment,34,↑,left,←,0.5436994999181479,False,21
95K20,248,experiment,14,↑,down,↓,0.985092299990356,False,21
95K20,249,experiment,43,←,left,←,0.7172244000248611,True,21
95K20,250,experiment,16,←,left,←,0.7497493999544531,True,21
95K20,251,experiment,36,→,right,→,1.607722399989143,True,21
95K20,252,experiment,45,↑,up,↑,1.0497916999738663,True,21
95K20,253,experiment,30,←,left,←,0.5797224000561982,True,21
95K20,254,experiment,25,↓,no_key,no_letter,-1.0,False,21
95K20,255,experiment,52,↓,down,↓,0.6004544000606984,True,21
95K20,256,experiment,27,↓,left,←,1.7503788999747485,False,21
95K20,257,experiment,23,↓,no_key,no_letter,-1.0,False,21
95K20,258,experiment,58,→,left,←,1.2817581000272185,False,21
95K20,259,experiment,18,↑,down,↓,1.5304888999089599,False,21
95K20,260,experiment,49,→,up,↑,1.668379900045693,False,21
95K20,261,experiment,24,→,left,←,1.2657232999335974,False,21
95K20,262,experiment,31,→,right,→,1.4825633000582457,True,21
95K20,263,experiment,17,↑,up,↑,1.6437223998364061,True,21
95K20,264,experiment,22,←,left,←,1.1558532998897135,True,21
95K20,265,experiment,41,→,left,←,0.9623986999504268,False,21
95K20,266,experiment,19,←,left,←,0.8716792999766767,True,21
95K20,267,experiment,35,←,up,↑,1.117769000120461,False,21
95K20,268,experiment,13,↑,up,↑,0.5523490000050515,True,21
95K20,269,experiment,51,↑,up,↑,0.43404540000483394,True,21
95K20,270,experiment,55,↓,down,↓,0.7617398998700082,True,21
95K20,271,experiment,33,→,no_key,no_letter,-1.0,False,21
95K20,272,experiment,50,←,right,→,0.6356938001699746,False,21
95K20,273,experiment,47,↓,left,←,0.6190458999481052,False,21
95K20,274,experiment,56,←,left,←,0.5178870998788625,True,21
95K20,275,experiment,32,↓,up,↑,0.6903230999596417,False,21
95K20,276,experiment,44,↑,up,↑,0.5776744000613689,True,21
95K20,277,experiment,26,↑,no_key,no_letter,-1.0,False,21
95K20,278,experiment,28,→,right,→,1.8544614999555051,True,21
95K20,279,experiment,48,←,left,←,0.9483569001313299,True,21
95K20,280,experiment,57,→,left,←,0.9204507998656482,False,21
95K20,281,experiment,42,↑,left,←,1.0878614000976086,False,21
95K20,282,experiment,53,←,left,←,0.5616177001502365,True,21
95K20,283,experiment,37,↓,left,←,0.25173119991086423,False,21
95K20,284,experiment,54,↓,left,←,1.024570400128141,False,21
95K20,285,experiment,39,↑,left,←,0.629644799977541,False,21
95K20,286,experiment,59,→,right,→,0.7409371000248939,True,21
95K20,287,experiment,29,↓,right,→,1.332302700029686,False,21
95K20,288,experiment,60,↑,no_key,no_letter,-1.0,False,21
95K20,289,experiment,38,↑,up,↑,0.685216800076887,True,21
95K20,290,experiment,46,↓,up,↑,0.7469904001336545,False,21
95K20,291,training,30,→,right,→,0.4840654998552054,True,21
95K20,292,training,44,↑,left,←,1.315144400112331,False,21
95K20,293,experiment,52,↓,left,←,0.06841710000298917,False,21
95K20,294,experiment,50,→,right,→,0.5242987000383437,True,21
95K20,295,experiment,17,↑,no_key,no_letter,-1.0,False,21
95K20,296,experiment,23,↑,up,↑,1.8756268001161516,True,21
95K20,297,experiment,19,←,right,→,1.6927072999533266,False,21
95K20,298,experiment,16,→,left,←,1.3903487999923527,False,21
95K20,299,experiment,18,↑,no_key,no_letter,-1.0,False,21
95K20,300,experiment,29,←,up,↑,1.1990799999330193,False,21
95K20,301,experiment,31,→,no_key,no_letter,-1.0,False,21
95K20,302,experiment,45,→,right,→,0.9156871000304818,True,21
95K20,303,experiment,55,←,left,←,0.7704540998674929,True,21
95K20,304,experiment,25,↑,left,←,1.7468934999778867,False,21
95K20,305,experiment,41,→,right,→,0.5536988999228925,True,21
95K20,306,experiment,35,↓,down,↓,0.8842764999717474,True,21
95K20,307,experiment,58,→,left,←,0.6742362999357283,False,21
95K20,308,experiment,21,↑,left,←,1.9778534001670778,False,21
95K20,309,experiment,49,→,left,←,0.6183215000201017,False,21
95K20,310,experiment,27,↑,up,↑,1.527772300178185,True,21
95K20,311,experiment,44,↓,no_key,no_letter,-1.0,False,21
95K20,312,experiment,33,→,right,→,0.7429394000209868,True,21
95K20,313,experiment,60,→,right,→,0.6576045998372138,True,21
95K20,314,experiment,42,→,left,←,1.131537300068885,False,21
95K20,315,experiment,24,↓,right,→,1.0702593000605702,False,21
95K20,316,experiment,26,←,left,←,1.0182362999767065,True,21
95K20,317,experiment,40,↓,left,←,0.9668362000957131,False,21
95K20,318,experiment,43,↓,left,←,0.035152999917045236,False,21
95K20,319,experiment,15,→,no_key,no_letter,-1.0,False,21
95K20,320,experiment,39,→,left,←,1.7532241998706013,False,21
95K20,321,experiment,20,↓,no_key,no_letter,-1.0,False,21
95K20,322,experiment,32,→,up,↑,1.0956133999861777,False,21
95K20,323,experiment,54,↓,left,←,0.7202723000664264,False,21
95K20,324,experiment,53,↑,right,→,1.3121501998975873,False,21
95K20,325,experiment,30,←,left,←,0.5522134001366794,True,21
95K20,326,experiment,13,↑,left,←,1.0576004998292774,False,21
95K20,327,experiment,34,↓,no_key,no_letter,-1.0,False,21
95K20,328,experiment,14,→,up,↑,1.1349585999269038,False,21
95K20,329,experiment,22,→,left,←,0.9468411998823285,False,21
95K20,330,experiment,59,↑,up,↑,0.5574510002043098,True,21
95K20,331,experiment,36,↑,up,↑,0.6316533999051899,True,21
95K20,332,experiment,28,↓,up,↑,1.0195578001439571,False,21
95K20,333,experiment,38,↓,up,↑,0.6096967000048608,False,21
95K20,334,experiment,46,→,left,←,0.8668808999937028,False,21
95K20,335,experiment,37,↑,no_key,no_letter,-1.0,False,21
95K20,336,experiment,47,↑,right,→,1.583710900042206,False,21
95K20,337,experiment,57,←,right,→,1.2180824999231845,False,21
95K20,338,experiment,51,←,right,→,1.7195474999025464,False,21
95K20,339,experiment,48,↑,right,→,0.13505690009333193,False,21
95K20,340,experiment,56,→,right,→,0.7756807000841945,True,21
95K20,341,training,19,↓,no_key,no_letter,-1.0,False,21
95K20,342,training,13,↑,left,←,0.8697265000082552,False,21
95K20,343,experiment,22,←,left,←,0.8041924999561161,True,21
95K20,344,experiment,21,→,down,↓,0.5742385999765247,False,21
95K20,345,experiment,35,↓,down,↓,1.0160615001805127,True,21
95K20,346,experiment,52,↑,up,↑,0.7887689000926912,True,21
95K20,347,experiment,49,↓,down,↓,0.7888207000214607,True,21
95K20,348,experiment,28,→,right,→,0.7067440000828356,True,21
95K20,349,experiment,60,←,left,←,1.0787825000006706,True,21
95K20,350,experiment,33,↑,up,↑,0.5901655999477953,True,21
95K20,351,experiment,51,←,up,↑,0.0682890999596566,False,21
95K20,352,experiment,54,→,left,←,0.7866816001478583,False,21
95K20,353,experiment,55,↓,down,↓,0.6708436000626534,True,21
95K20,354,experiment,37,↑,down,↓,1.7793602999299765,False,21
95K20,355,experiment,32,↑,down,↓,0.895627100020647,False,21
95K20,356,experiment,27,↑,up,↑,0.6820420001167804,True,21
95K20,357,experiment,43,↑,up,↑,0.906092599965632,True,21
95K20,358,experiment,44,↑,no_key,no_letter,-1.0,False,21
95K20,359,experiment,39,↓,down,↓,0.9102893001399934,True,21
95K20,360,experiment,58,←,down,↓,0.6034903998952359,False,21
95K20,361,experiment,30,←,left,←,0.6873775001149625,True,21
95K20,362,experiment,17,→,up,↑,1.1207548000384122,False,21
95K20,363,experiment,15,↑,up,↑,0.7620568000711501,True,21
95K20,364,experiment,26,↑,left,←,1.1068329999689013,False,21
95K20,365,experiment,19,↑,right,→,1.2580964998342097,False,21
95K20,366,experiment,18,→,right,→,0.900110799819231,True,21
95K20,367,experiment,56,←,left,←,0.7470517000183463,True,21
95K20,368,experiment,48,↑,up,↑,0.5807759999297559,True,21
95K20,369,experiment,59,←,left,←,0.4838145999237895,True,21
95K20,370,experiment,45,↑,up,↑,0.5801448000129312,True,21
95K20,371,experiment,23,↑,up,↑,0.6461914000101388,True,21
95K20,372,experiment,38,↓,no_key,no_letter,-1.0,False,21
95K20,373,experiment,20,↓,down,↓,0.621410199906677,True,21
95K20,374,experiment,16,↑,up,↑,0.6501193000003695,True,21
95K20,375,experiment,31,↑,up,↑,0.5714676999486983,True,21
95K20,376,experiment,34,→,right,→,0.6060821998398751,True,21
95K20,377,experiment,14,↑,up,↑,0.6526854999829084,True,21
95K20,378,experiment,25,↓,down,↓,0.5541730001568794,True,21
95K20,379,experiment,57,↑,up,↑,0.605995399877429,True,21
95K20,380,experiment,46,↓,down,↓,0.5436740000732243,True,21
95K20,381,experiment,36,↑,up,↑,0.650174800073728,True,21
95K20,382,experiment,53,↑,up,↑,0.6527964998967946,True,21
95K20,383,experiment,29,↓,no_key,no_letter,-1.0,False,21
95K20,384,experiment,41,↑,up,↑,0.747375899925828,True,21
95K20,385,experiment,47,→,left,←,0.7662717001512647,False,21
95K20,386,experiment,42,↓,down,↓,0.7073484000284225,True,21
95K20,387,experiment,13,→,left,←,1.5186624000780284,False,21
95K20,388,experiment,24,→,right,→,0.522152499994263,True,21
95K20,389,experiment,50,←,left,←,0.723279100144282,True,21
95K20,390,experiment,40,↓,down,↓,0.8199186001438648,True,21
95K20,391,training,59,←,right,→,0.6615420000161976,False,21
95K20,392,training,39,↑,up,↑,0.8577159000560641,True,21
95K20,393,experiment,41,←,left,←,0.5642228999640793,True,21
95K20,394,experiment,55,←,left,←,0.6006479000207037,True,21
95K20,395,experiment,33,→,right,→,0.7067203000187874,True,21
95K20,396,experiment,60,↓,right,→,0.7186622000299394,False,21
95K20,397,experiment,46,→,right,→,0.5713015999644995,True,21
95K20,398,experiment,23,↑,up,↑,0.6934299001004547,True,21
95K20,399,experiment,42,←,left,←,0.6781091999728233,True,21
95K20,400,experiment,17,↑,up,↑,0.5599615999963135,True,21
95K20,401,experiment,47,←,left,←,0.7626119998749346,True,21
95K20,402,experiment,26,→,right,→,1.379299100022763,True,21
95K20,403,experiment,24,→,right,→,0.564587599830702,True,21
95K20,404,experiment,13,←,no_key,no_letter,-1.0,False,21
95K20,405,experiment,43,↓,up,↑,0.5681381998583674,False,21
95K20,406,experiment,34,→,left,←,0.5640839000698179,False,21
95K20,407,experiment,50,→,down,↓,1.0825590000022203,False,21
95K20,408,experiment,14,←,left,←,1.0542035999242216,True,21
95K20,409,experiment,48,↓,down,↓,0.6039299999829382,True,21
95K20,410,experiment,28,←,left,←,0.7133218999952078,True,21
95K20,411,experiment,18,↑,up,↑,0.6407594999764115,True,21
95K20,412,experiment,58,←,left,←,0.48396719992160797,True,21
95K20,413,experiment,44,↑,up,↑,0.5513321999460459,True,21
95K20,414,experiment,30,↑,up,↑,0.565720200072974,True,21
95K20,415,experiment,56,↑,up,↑,0.6174833998084068,True,21
95K20,416,experiment,53,←,up,↑,0.6855494000483304,False,21
95K20,417,experiment,51,→,right,→,0.9441927000880241,True,21
95K20,418,experiment,40,↑,up,↑,0.5921934999059886,True,21
95K20,419,experiment,29,←,right,→,0.5413486000616103,False,21
95K20,420,experiment,19,↑,up,↑,0.6356340001802891,True,21
95K20,421,experiment,15,→,left,←,1.2558879000134766,False,21
95K20,422,experiment,57,→,right,→,0.5920518999919295,True,21
95K20,423,experiment,20,←,left,←,0.6273143000435084,True,21
95K20,424,experiment,59,←,left,←,0.619328600121662,True,21
95K20,425,experiment,45,←,left,←,0.7165660001337528,True,21
95K20,426,experiment,25,↑,up,↑,0.7034380999393761,True,21
95K20,427,experiment,36,↑,up,↑,0.651316300034523,True,21
95K20,428,experiment,39,←,left,←,0.43360330001451075,True,21
95K20,429,experiment,54,↑,up,↑,0.5852902999613434,True,21
95K20,430,experiment,38,←,left,←,0.7045553999487311,True,21
95K20,431,experiment,35,→,left,←,0.6535545000806451,False,21
95K20,432,experiment,52,→,left,←,0.8167657998856157,False,21
95K20,433,experiment,32,↑,up,↑,0.7305304000619799,True,21
95K20,434,experiment,27,↓,down,↓,0.5478788001928478,True,21
95K20,435,experiment,21,→,down,↓,0.5753941000439227,False,21
95K20,436,experiment,49,↑,left,←,1.2638528998941183,False,21
95K20,437,experiment,22,→,right,→,0.5508510998915881,True,21
95K20,438,experiment,31,→,up,↑,0.6758745000697672,False,21
95K20,439,experiment,37,→,left,←,0.6006523000542074,False,21
95K20,440,experiment,16,↑,up,↑,0.5980483999010175,True,21
95K20,441,training,36,↑,no_key,no_letter,-1.0,False,21
95K20,442,training,21,←,left,←,0.6605682999361306,True,21
95K20,443,experiment,30,↑,up,↑,0.5906336000189185,True,21
95K20,444,experiment,16,↓,down,↓,0.6604786000680178,True,21
95K20,445,experiment,21,↑,left,←,1.3325202001724392,False,21
95K20,446,experiment,25,↓,up,↑,0.5988086999859661,False,21
95K20,447,experiment,33,↓,down,↓,1.3765783999115229,True,21
95K20,448,experiment,28,↑,up,↑,0.5754267999436706,True,21
95K20,449,experiment,19,↑,up,↑,0.6118328999727964,True,21
95K20,450,experiment,49,←,left,←,0.6671700000297278,True,21
95K20,451,experiment,34,↑,no_key,no_letter,-1.0,False,21
95K20,452,experiment,52,→,right,→,0.7265050001442432,True,21
95K20,453,experiment,32,→,right,→,0.8604532999452204,True,21
95K20,454,experiment,59,←,no_key,no_letter,-1.0,False,21
95K20,455,experiment,31,←,left,←,0.6138953999616206,True,21
95K20,456,experiment,54,↑,right,→,0.529088000068441,False,21
95K20,457,experiment,35,→,no_key,no_letter,-1.0,False,21
95K20,458,experiment,13,←,left,←,0.6432177999522537,True,21
95K20,459,experiment,26,→,no_key,no_letter,-1.0,False,21
95K20,460,experiment,20,←,left,←,0.45131670008413494,True,21
95K20,461,experiment,47,←,no_key,no_letter,-1.0,False,21
95K20,462,experiment,55,→,right,→,0.4176127999089658,True,21
95K20,463,experiment,60,→,right,→,0.46736339991912246,True,21
95K20,464,experiment,50,↓,left,←,1.2605420998297632,False,21
95K20,465,experiment,38,←,left,←,0.6255037998780608,True,21
95K20,466,experiment,14,↓,up,↑,1.279104100074619,False,21
95K20,467,experiment,53,→,no_key,no_letter,-1.0,False,21
95K20,468,experiment,44,←,right,→,1.1791340000927448,False,21
95K20,469,experiment,39,↓,right,→,0.48390650004148483,False,21
95K20,470,experiment,42,←,right,→,1.1065386000555009,False,21
95K20,471,experiment,40,↓,right,→,0.4833872001618147,False,21
95K20,472,experiment,45,←,left,←,1.1937452000565827,True,21
95K20,473,experiment,18,←,left,←,0.4336517001502216,True,21
95K20,474,experiment,46,↑,up,↑,0.6298171998932958,True,21
95K20,475,experiment,56,↓,left,←,0.35167030012235045,False,21
95K20,476,experiment,29,↑,right,→,0.21832290012389421,False,21
95K20,477,experiment,57,↓,up,↑,0.034024800173938274,False,21
95K20,478,experiment,48,↓,up,↑,1.162447600159794,False,21
95K20,479,experiment,37,→,up,↑,0.33419839991256595,False,21
95K20,480,experiment,27,→,left,←,0.30187140009365976,False,21
95K20,481,experiment,17,→,right,→,0.43393100006505847,True,21
95K20,482,experiment,15,↓,no_key,no_letter,-1.0,False,21
95K20,483,experiment,36,←,left,←,0.5818551999982446,True,21
95K20,484,experiment,22,↓,left,←,0.5678483999799937,False,21
95K20,485,experiment,43,↓,left,←,0.6686969001311809,False,21
95K20,486,experiment,58,↓,down,↓,0.8190061999484897,True,21
95K20,487,experiment,41,→,left,←,0.450787500012666,False,21
95K20,488,experiment,51,→,right,→,0.6584448998328298,True,21
95K20,489,experiment,24,↑,right,→,0.23513299995101988,False,21
95K20,490,experiment,23,↓,no_key,no_letter,-1.0,False,21
95K20,491,training,37,→,right,→,0.5498650998342782,True,21
95K20,492,training,58,↑,up,↑,0.6810739999637008,True,21
95K20,493,experiment,27,→,left,←,1.2357640999834985,False,21
95K20,494,experiment,41,↑,left,←,0.16832370008341968,False,21
95K20,495,experiment,30,←,left,←,0.0016805999912321568,True,21
95K20,496,experiment,34,↓,right,→,0.928536499850452,False,21
95K20,497,experiment,24,→,right,→,0.4506014999933541,True,21
95K20,498,experiment,26,←,right,→,0.0850229999050498,False,21
95K20,499,experiment,33,→,up,↑,1.6359689000528306,False,21
95K20,500,experiment,37,→,left,←,1.2500169000122696,False,21
95K20,501,experiment,47,↓,right,→,0.4340579998679459,False,21
95K20,502,experiment,45,↓,up,↑,0.9286342000123113,False,21
95K20,503,experiment,32,↓,up,↑,0.8224321000743657,False,21
95K20,504,experiment,13,↓,down,↓,1.0132323000580072,True,21
95K20,505,experiment,60,→,left,←,0.8604947000276297,False,21
95K20,506,experiment,36,←,down,↓,0.7463521999306977,False,21
95K20,507,experiment,55,↓,left,←,0.3339451998472214,False,21
95K20,508,experiment,44,↓,right,→,0.3503018000628799,False,21
95K20,509,experiment,50,↓,up,↑,0.16740850009955466,False,21
95K20,510,experiment,25,→,up,↑,0.20161609980277717,False,21
95K20,511,experiment,49,↑,down,↓,0.5830484998878092,False,21
95K20,512,experiment,38,↓,up,↑,1.5263009001500905,False,21
95K20,513,experiment,48,←,up,↑,0.7778672999702394,False,21
95K20,514,experiment,17,←,no_key,no_letter,-1.0,False,21
95K20,515,experiment,15,↑,up,↑,1.9491223997902125,True,21
95K20,516,experiment,22,↓,up,↑,1.040408100001514,False,21
95K20,517,experiment,19,→,no_key,no_letter,-1.0,False,21
95K20,518,experiment,51,→,no_key,no_letter,-1.0,False,21
95K20,519,experiment,52,←,no_key,no_letter,-1.0,False,21
95K20,520,experiment,59,↓,left,←,0.9243056001141667,False,21
95K20,521,experiment,14,←,left,←,0.7184217998292297,True,21
95K20,522,experiment,29,←,right,→,0.6223845998756588,False,21
95K20,523,experiment,46,→,up,↑,1.3269743998534977,False,21
95K20,524,experiment,31,←,right,→,0.9257459999062121,False,21
95K20,525,experiment,21,→,left,←,0.6830756000708789,False,21
95K20,526,experiment,53,↓,down,↓,0.7643631999380887,True,21
95K20,527,experiment,57,↑,up,↑,1.0556171999778599,True,21
95K20,528,experiment,56,←,up,↑,1.1202853999566287,False,21
95K20,529,experiment,35,↓,right,→,1.1562936999835074,False,21
95K20,530,experiment,16,→,right,→,1.3637657000217587,True,21
95K20,531,experiment,58,↓,left,←,0.7983530999626964,False,21
95K20,532,experiment,18,↓,no_key,no_letter,-1.0,False,21
95K20,533,experiment,43,↓,no_key,no_letter,-1.0,False,21
95K20,534,experiment,54,←,no_key,no_letter,-1.0,False,21
95K20,535,experiment,40,→,no_key,no_letter,-1.0,False,21
95K20,536,experiment,39,↑,left,←,0.48388210008852184,False,21
95K20,537,experiment,20,←,left,←,1.3529897001571953,True,21
95K20,538,experiment,28,→,left,←,0.9923698999918997,False,21
95K20,539,experiment,23,→,left,←,1.0096551000606269,False,21
95K20,540,experiment,42,↓,no_key,no_letter,-1.0,False,21
95K20,541,training,21,↓,no_key,no_letter,-1.0,False,21
95K20,542,training,14,↓,down,↓,0.7209647998679429,True,21
95K20,543,experiment,21,↓,down,↓,0.558271000161767,True,21
95K20,544,experiment,28,←,no_key,no_letter,-1.0,False,21
95K20,545,experiment,54,↓,no_key,no_letter,-1.0,False,21
95K20,546,experiment,19,↓,up,↑,0.8676203999202698,False,21
95K20,547,experiment,22,↓,no_key,no_letter,-1.0,False,21
95K20,548,experiment,41,↑,up,↑,0.7423177000600845,True,21
95K20,549,experiment,44,↑,up,↑,0.6195450001396239,True,21
95K20,550,experiment,45,↑,up,↑,0.8529910000506788,True,21
95K20,551,experiment,46,↓,down,↓,0.6682749998290092,True,21
95K20,552,experiment,20,↑,no_key,no_letter,-1.0,False,21
95K20,553,experiment,17,↓,left,←,0.4672435000538826,False,21
95K20,554,experiment,49,↑,up,↑,0.48330389987677336,True,21
95K20,555,experiment,27,→,up,↑,1.1984788998961449,False,21
95K20,556,experiment,25,→,up,↑,0.9496291000396013,False,21
95K20,557,experiment,24,↑,up,↑,0.7036093000788242,True,21
95K20,558,experiment,29,←,up,↑,0.41676250007003546,False,21
95K20,559,experiment,38,←,right,→,0.5334781999699771,False,21
95K20,560,experiment,23,↑,left,←,0.48311609984375536,False,21
95K20,561,experiment,32,→,left,←,0.6476042000576854,False,21
95K20,562,experiment,53,↑,up,↑,0.5621988999191672,True,21
95K20,563,experiment,59,→,up,↑,0.5809130999259651,False,21
95K20,564,experiment,14,→,right,→,0.7242904999293387,True,21
95K20,565,experiment,39,←,left,←,0.35077240015380085,True,21
95K20,566,experiment,48,←,left,←,0.6789783998392522,True,21
95K20,567,experiment,43,←,up,↑,1.1196767999790609,False,21
95K20,568,experiment,26,←,left,←,0.417466799961403,True,21
95K20,569,experiment,47,←,down,↓,1.8167719000484794,False,21
95K20,570,experiment,58,→,up,↑,1.168359300121665,False,21
95K20,571,experiment,42,←,left,←,0.6056095999665558,True,21
95K20,572,experiment,35,↑,left,←,0.8704100998584181,False,21
95K20,573,experiment,36,←,left,←,0.26834290008991957,True,21
95K20,574,experiment,40,↑,left,←,0.2349242998752743,False,21
95K20,575,experiment,56,→,right,→,0.7754062998574227,True,21
95K20,576,experiment,52,→,down,↓,0.21824819990433753,False,21
95K20,577,experiment,51,→,up,↑,0.8541462998837233,False,21
95K20,578,experiment,50,↓,up,↑,0.3673464001622051,False,21
95K20,579,experiment,31,→,up,↑,0.16832490009255707,False,21
95K20,580,experiment,18,→,down,↓,1.0609578001312912,False,21
95K20,581,experiment,60,↑,up,↑,0.7947939001023769,True,21
95K20,582,experiment,13,←,up,↑,1.6587693998590112,False,21
95K20,583,experiment,33,↓,up,↑,0.18498499994166195,False,21
95K20,584,experiment,57,→,down,↓,0.001757600111886859,False,21
95K20,585,experiment,15,→,no_key,no_letter,-1.0,False,21
95K20,586,experiment,55,→,right,→,0.4173995000310242,True,21
95K20,587,experiment,34,→,up,↑,1.5055492999963462,False,21
95K20,588,experiment,16,↓,up,↑,1.2508309001568705,False,21
95K20,589,experiment,37,←,up,↑,0.9041146000381559,False,21
95K20,590,experiment,30,→,up,↑,0.38406960014253855,False,21
