PART_ID,Trial_no,Trial_type,CSI,Stim_letter,Key_pressed,letter_choose,Rt,Corr,Stimulus Time
9M24,1,training,60,→,no_key,no_letter,-1.0,False,30
9M24,2,training,60,→,right,→,1.9306202000007033,True,30
9M24,3,training,60,→,right,→,1.5085017000092193,True,30
9M24,4,training,60,↓,down,↓,1.4639005000062753,True,30
9M24,5,training,60,↓,down,↓,1.1005076000001281,True,30
9M24,6,training,60,↓,down,↓,0.9040986000036355,True,30
9M24,7,training,60,→,right,→,1.179198899975745,True,30
9M24,8,training,60,↑,up,↑,0.9871824999863748,True,30
9M24,9,training,60,↑,up,↑,1.0111923999793362,True,30
9M24,10,training,60,←,left,←,0.8097838999819942,True,30
9M24,11,training,60,←,left,←,0.9767762999981642,True,30
9M24,12,training,60,↑,up,↑,1.032421100011561,True,30
9M24,13,training,60,↑,up,↑,0.8544651999836788,True,30
9M24,14,training,60,↑,up,↑,0.8038395999756176,True,30
9M24,15,training,60,←,left,←,0.9711394000041764,True,30
9M24,16,training,60,→,right,→,1.0037647999997716,True,30
9M24,17,training,60,↓,down,↓,1.0510819999908563,True,30
9M24,18,training,60,↑,up,↑,1.0004840999899898,True,30
9M24,19,training,60,→,right,→,1.0238372999883723,True,30
9M24,20,training,60,←,left,←,0.8145556999952532,True,30
9M24,21,training,60,↓,down,↓,1.4439190000121016,True,18
9M24,22,training,60,↓,down,↓,0.8652172000147402,True,18
9M24,23,training,60,↓,down,↓,0.8940630999859422,True,18
9M24,24,training,60,↑,up,↑,0.9610529000055976,True,18
9M24,25,training,60,↑,up,↑,0.8256478999974206,True,18
9M24,26,training,60,↑,down,↓,0.9047215000027791,False,18
9M24,27,training,60,↑,up,↑,0.6272601000091527,True,18
9M24,28,training,60,←,left,←,0.7139547999831848,True,18
9M24,29,training,60,→,right,→,0.6203879999811761,True,18
9M24,30,training,60,↓,down,↓,0.7790122000151314,True,18
9M24,31,training,60,←,left,←,0.7153088999912143,True,18
9M24,32,training,60,←,left,←,1.1099209999956656,True,18
9M24,33,training,60,↑,up,↑,0.7683329999854323,True,18
9M24,34,training,60,↑,up,↑,0.7609891000029165,True,18
9M24,35,training,60,←,left,←,0.7059109999972861,True,18
9M24,36,training,60,→,right,→,0.6293384000018705,True,18
9M24,37,training,60,↑,up,↑,0.8041896999930032,True,18
9M24,38,training,60,←,left,←,0.6662857999908738,True,18
9M24,39,training,60,↑,up,↑,0.7509916000126395,True,18
9M24,40,training,60,↑,up,↑,0.7443643000151496,True,18
9M24,41,training,57,↓,down,↓,0.6418530000082683,True,18
9M24,42,training,36,↑,up,↑,0.6562344999983907,True,18
9M24,43,experiment,25,↑,down,↓,0.9510999000049196,False,18
9M24,44,experiment,51,↓,down,↓,0.8455597000138368,True,18
9M24,45,experiment,35,←,left,←,0.7409592000185512,True,18
9M24,46,experiment,27,↓,down,↓,0.5736249000183307,True,18
9M24,47,experiment,40,↓,down,↓,0.7962456000095699,True,18
9M24,48,experiment,32,←,left,←,0.5428786000120454,True,18
9M24,49,experiment,29,→,right,→,0.7264147999812849,True,18
9M24,50,experiment,54,←,left,←,0.6460984000004828,True,18
9M24,51,experiment,13,→,right,→,0.7556675999949221,True,18
9M24,52,experiment,30,→,right,→,0.6178886000125203,True,18
9M24,53,experiment,17,←,left,←,1.2376403999805916,True,18
9M24,54,experiment,24,↓,down,↓,0.7562199000094552,True,18
9M24,55,experiment,36,↓,down,↓,0.7262357999861706,True,18
9M24,56,experiment,43,→,left,←,0.9809672000119463,False,18
9M24,57,experiment,48,←,left,←,0.7975239000224974,True,18
9M24,58,experiment,47,↓,down,↓,0.7183560999983456,True,18
9M24,59,experiment,52,↑,up,↑,0.7268980999942869,True,18
9M24,60,experiment,26,↑,down,↓,1.4489233000203967,False,18
9M24,61,experiment,41,←,left,←,0.8118871999904513,True,18
9M24,62,experiment,31,←,left,←,1.3351526999904308,True,18
9M24,63,experiment,18,←,left,←,0.725845599983586,True,18
9M24,64,experiment,37,→,right,→,0.8322596999933012,True,18
9M24,65,experiment,46,↑,up,↑,0.8721646000049077,True,18
9M24,66,experiment,55,↑,up,↑,1.2569200999860186,True,18
9M24,67,experiment,21,↑,up,↑,1.144908200018108,True,18
9M24,68,experiment,34,↑,up,↑,0.7409098999924026,True,18
9M24,69,experiment,42,↓,down,↓,0.9075999000051524,True,18
9M24,70,experiment,49,→,right,→,0.7189363000215963,True,18
9M24,71,experiment,20,→,right,→,0.773150799999712,True,18
9M24,72,experiment,28,←,left,←,0.7475234000012279,True,18
9M24,73,experiment,39,→,right,→,0.7156105999893043,True,18
9M24,74,experiment,53,↓,down,↓,0.6595023999980185,True,18
9M24,75,experiment,60,←,left,←,0.7215104000060819,True,18
9M24,76,experiment,45,→,right,→,0.7110940999991726,True,18
9M24,77,experiment,59,↓,down,↓,0.6437464999908116,True,18
9M24,78,experiment,57,↑,up,↑,0.6921427999914158,True,18
9M24,79,experiment,16,→,left,←,1.3981833000143524,False,18
9M24,80,experiment,33,←,left,←,0.7522638000082225,True,18
9M24,81,experiment,14,↑,up,↑,0.7690824000164866,True,18
9M24,82,experiment,56,↓,down,↓,0.7489426999818534,True,18
9M24,83,experiment,44,→,right,→,0.5855888999940362,True,18
9M24,84,experiment,15,←,right,→,0.9841316000092775,False,18
9M24,85,experiment,22,↑,up,↑,0.7541516999772284,True,18
9M24,86,experiment,50,↑,up,↑,0.89899330001208,True,18
9M24,87,experiment,23,→,right,→,0.783591500017792,True,18
9M24,88,experiment,38,↓,down,↓,0.6791055999929085,True,18
9M24,89,experiment,19,←,left,←,0.5278674000001047,True,18
9M24,90,experiment,58,↑,up,↑,0.6043075999768917,True,18
9M24,91,training,52,←,left,←,0.6582006999815349,True,18
9M24,92,training,34,↑,up,↑,0.6416359999857377,True,18
9M24,93,experiment,18,←,left,←,0.7562368999933824,True,18
9M24,94,experiment,43,↑,up,↑,0.6895431999873836,True,18
9M24,95,experiment,50,↓,down,↓,0.7328287000127602,True,18
9M24,96,experiment,35,←,left,←,0.5680527999938931,True,18
9M24,97,experiment,40,→,right,→,0.7188737999822479,True,18
9M24,98,experiment,13,→,right,→,0.6735116000054404,True,18
9M24,99,experiment,34,→,right,→,0.6160842000099365,True,18
9M24,100,experiment,44,↑,up,↑,0.7381663999985904,True,18
9M24,101,experiment,14,↓,down,↓,0.49223639999399893,True,18
9M24,102,experiment,23,↑,up,↑,0.7847860000038054,True,18
9M24,103,experiment,27,↓,down,↓,0.7275338999752421,True,18
9M24,104,experiment,39,↑,up,↑,0.600851800001692,True,18
9M24,105,experiment,32,←,left,←,0.6594670999911614,True,18
9M24,106,experiment,38,←,left,←,0.6640843000204768,True,18
9M24,107,experiment,25,→,right,→,0.7330560999980662,True,18
9M24,108,experiment,17,←,left,←,0.6200990999932401,True,18
9M24,109,experiment,54,←,left,←,0.7675380000146106,True,18
9M24,110,experiment,26,↑,up,↑,0.7276880000135861,True,18
9M24,111,experiment,30,↑,up,↑,0.8468060999875888,True,18
9M24,112,experiment,47,↑,up,↑,0.734089599980507,True,18
9M24,113,experiment,37,↓,down,↓,0.720068499998888,True,18
9M24,114,experiment,56,↓,down,↓,0.6783233000023756,True,18
9M24,115,experiment,46,←,left,←,0.6367620999808423,True,18
9M24,116,experiment,51,←,left,←,0.6014190999849234,True,18
9M24,117,experiment,55,←,left,←,0.7408967000083067,True,18
9M24,118,experiment,28,←,left,←,0.7567638000182342,True,18
9M24,119,experiment,21,↓,down,↓,0.9210353999806102,True,18
9M24,120,experiment,41,→,left,←,0.7451469000079669,False,18
9M24,121,experiment,49,←,left,←,0.7790017999941483,True,18
9M24,122,experiment,20,→,right,→,0.7348435000167228,True,18
9M24,123,experiment,24,↓,down,↓,0.5934422000136692,True,18
9M24,124,experiment,31,↑,up,↑,0.8214616999903228,True,18
9M24,125,experiment,53,→,right,→,0.7617073000001255,True,18
9M24,126,experiment,52,↓,down,↓,0.78496200000518,True,18
9M24,127,experiment,19,↑,up,↑,0.8047001000086311,True,18
9M24,128,experiment,57,↓,down,↓,0.6948995999991894,True,18
9M24,129,experiment,22,↑,up,↑,0.8927522999874782,True,18
9M24,130,experiment,60,↓,down,↓,0.56965529997251,True,18
9M24,131,experiment,15,→,right,→,0.6006822999916039,True,18
9M24,132,experiment,33,↑,up,↑,0.9227280000050087,True,18
9M24,133,experiment,36,↓,down,↓,0.7819721999985632,True,18
9M24,134,experiment,16,↑,up,↑,1.3800481999933254,True,18
9M24,135,experiment,58,↑,up,↑,0.710791599994991,True,18
9M24,136,experiment,45,↓,down,↓,0.7406806999933906,True,18
9M24,137,experiment,42,←,left,←,0.8917085000139195,True,18
9M24,138,experiment,29,↑,up,↑,0.7327786999812815,True,18
9M24,139,experiment,48,→,right,→,0.7036461000097916,True,18
9M24,140,experiment,59,↓,down,↓,0.7642170000181068,True,18
9M24,141,training,19,↓,down,↓,0.6281461000035051,True,17
9M24,142,training,55,↑,up,↑,0.7026764000183903,True,17
9M24,143,experiment,30,→,right,→,0.6307726000086404,True,17
9M24,144,experiment,20,↑,up,↑,0.672056799987331,True,17
9M24,145,experiment,58,↓,down,↓,0.6229088999971282,True,17
9M24,146,experiment,28,→,left,←,0.4995166000153404,False,17
9M24,147,experiment,57,↓,down,↓,0.657401199976448,True,17
9M24,148,experiment,55,→,right,→,0.5947111000132281,True,17
9M24,149,experiment,27,→,right,→,0.7457677999918815,True,17
9M24,150,experiment,51,→,right,→,0.7701415999908932,True,17
9M24,151,experiment,47,←,left,←,0.9800438999955077,True,17
9M24,152,experiment,49,↓,down,↓,0.6839461000054143,True,17
9M24,153,experiment,34,↓,down,↓,0.6100918000156526,True,17
9M24,154,experiment,23,↓,down,↓,0.6186271000187844,True,17
9M24,155,experiment,38,→,right,→,0.7767480000038631,True,17
9M24,156,experiment,35,←,left,←,0.6826275000057649,True,17
9M24,157,experiment,42,↓,down,↓,0.6674084999831393,True,17
9M24,158,experiment,45,↓,down,↓,0.5306999000022188,True,17
9M24,159,experiment,46,↓,down,↓,0.5186022999987472,True,17
9M24,160,experiment,41,↑,up,↑,0.6546421999810264,True,17
9M24,161,experiment,33,←,left,←,0.5826587000046857,True,17
9M24,162,experiment,22,→,right,→,0.7766149000090081,True,17
9M24,163,experiment,48,→,right,→,0.7299536000064109,True,17
9M24,164,experiment,56,→,right,→,0.5442770999798086,True,17
9M24,165,experiment,53,↑,up,↑,0.5193488000077195,True,17
9M24,166,experiment,16,→,right,→,0.5679716999875382,True,17
9M24,167,experiment,31,↑,up,↑,1.2046138999867253,True,17
9M24,168,experiment,32,↑,up,↑,0.9596161999797914,True,17
9M24,169,experiment,36,→,left,←,0.8654553000233136,False,17
9M24,170,experiment,17,←,left,←,0.6432789999817032,True,17
9M24,171,experiment,13,←,left,←,0.7055240999907255,True,17
9M24,172,experiment,14,↑,up,↑,0.8199995000031777,True,17
9M24,173,experiment,60,↑,up,↑,0.667288800003007,True,17
9M24,174,experiment,39,→,right,→,0.5985648999921978,True,17
9M24,175,experiment,43,↓,down,↓,0.6818837999890093,True,17
9M24,176,experiment,25,→,right,→,0.7263763999799266,True,17
9M24,177,experiment,21,→,right,→,0.6993517999944743,True,17
9M24,178,experiment,19,→,right,→,0.5631566000229213,True,17
9M24,179,experiment,37,←,right,→,0.5392863999877591,False,17
9M24,180,experiment,54,←,left,←,0.6660375000210479,True,17
9M24,181,experiment,40,↓,down,↓,0.6685570999979973,True,17
9M24,182,experiment,24,↑,up,↑,0.7060246000182815,True,17
9M24,183,experiment,18,↓,down,↓,0.4899596000032034,True,17
9M24,184,experiment,52,↑,up,↑,0.5721560000092722,True,17
9M24,185,experiment,26,←,left,←,0.5479938999924343,True,17
9M24,186,experiment,29,→,right,→,0.5626362000184599,True,17
9M24,187,experiment,15,↑,up,↑,0.5059590999735519,True,17
9M24,188,experiment,50,→,left,←,0.4166906999889761,False,17
9M24,189,experiment,44,↓,down,↓,0.5899311000248417,True,17
9M24,190,experiment,59,↑,up,↑,0.6235414000111632,True,17
9M24,191,training,50,↑,up,↑,0.507309799984796,True,16
9M24,192,training,14,↓,down,↓,0.6619046999840066,True,16
9M24,193,experiment,30,↑,up,↑,0.6080365999951027,True,16
9M24,194,experiment,31,↓,down,↓,0.4992980999813881,True,16
9M24,195,experiment,50,↓,down,↓,0.49390309999580495,True,16
9M24,196,experiment,18,→,left,←,0.4946265000035055,False,16
9M24,197,experiment,22,←,left,←,0.5806102000060491,True,16
9M24,198,experiment,34,↓,down,↓,0.49484689999371767,True,16
9M24,199,experiment,47,←,left,←,0.6678960999997798,True,16
9M24,200,experiment,20,↑,up,↑,0.49987259999033995,True,16
9M24,201,experiment,27,↓,down,↓,0.6538597000180744,True,16
9M24,202,experiment,54,↑,up,↑,0.7918999000103213,True,16
9M24,203,experiment,41,↓,down,↓,0.4854771999816876,True,16
9M24,204,experiment,33,↓,down,↓,0.5638724000018556,True,16
9M24,205,experiment,28,←,left,←,0.5466033999982756,True,16
9M24,206,experiment,40,↓,down,↓,0.6659820000058971,True,16
9M24,207,experiment,42,↓,down,↓,0.5632150000019465,True,16
9M24,208,experiment,24,↑,up,↑,0.96454809998977,True,16
9M24,209,experiment,32,←,left,←,0.5604980000061914,True,16
9M24,210,experiment,43,→,right,→,0.6779152000090107,True,16
9M24,211,experiment,53,↓,down,↓,0.5678834999853279,True,16
9M24,212,experiment,38,↓,down,↓,1.4001780000107829,True,16
9M24,213,experiment,51,↑,up,↑,0.6458516999846324,True,16
9M24,214,experiment,59,↓,down,↓,0.8607062999799382,True,16
9M24,215,experiment,46,←,left,←,0.683810300019104,True,16
9M24,216,experiment,48,→,right,→,0.8645749000133947,True,16
9M24,217,experiment,37,↑,up,↑,0.5491650000039954,True,16
9M24,218,experiment,15,→,right,→,0.7012397999933455,True,16
9M24,219,experiment,39,←,left,←,0.8232597000023816,True,16
9M24,220,experiment,36,↑,up,↑,0.6465624999837019,True,16
9M24,221,experiment,57,←,left,←,0.5585280999948736,True,16
9M24,222,experiment,19,←,left,←,0.5158601999864914,True,16
9M24,223,experiment,35,→,right,→,0.6798207000247203,True,16
9M24,224,experiment,13,→,right,→,0.8684626999893226,True,16
9M24,225,experiment,55,←,left,←,0.5973965000011958,True,16
9M24,226,experiment,58,→,right,→,0.4866629999887664,True,16
9M24,227,experiment,44,←,right,→,0.7898847000033129,False,16
9M24,228,experiment,29,←,left,←,0.5391346999967936,True,16
9M24,229,experiment,49,↓,up,↑,1.14912769998773,False,16
9M24,230,experiment,52,←,left,←,0.6364571999874897,True,16
9M24,231,experiment,56,↓,down,↓,0.7257839999801945,True,16
9M24,232,experiment,60,↑,up,↑,0.777161400008481,True,16
9M24,233,experiment,25,→,right,→,1.065796999988379,True,16
9M24,234,experiment,14,↓,down,↓,0.5661357000062708,True,16
9M24,235,experiment,26,→,right,→,0.6783374999940861,True,16
9M24,236,experiment,17,→,left,←,0.8477496999839786,False,16
9M24,237,experiment,16,↓,down,↓,0.6751700000022538,True,16
9M24,238,experiment,23,↓,no_key,no_letter,-1.0,False,16
9M24,239,experiment,45,↓,down,↓,0.5578427000145894,True,16
9M24,240,experiment,21,←,left,←,0.6577373000036459,True,16
9M24,241,training,20,↑,up,↑,0.6317923000024166,True,16
9M24,242,training,25,↓,down,↓,0.8537213999952655,True,16
9M24,243,experiment,51,↑,up,↑,0.5537382999900728,True,16
9M24,244,experiment,41,→,right,→,0.7923993000003975,True,16
9M24,245,experiment,43,↓,down,↓,0.6684844999981578,True,16
9M24,246,experiment,28,↓,down,↓,0.45545610002591275,True,16
9M24,247,experiment,31,↓,down,↓,0.5204168999916874,True,16
9M24,248,experiment,25,↓,down,↓,0.491539400012698,True,16
9M24,249,experiment,58,↓,no_key,no_letter,-1.0,False,16
9M24,250,experiment,49,↑,down,↓,0.8991161999874748,False,16
9M24,251,experiment,60,↑,up,↑,0.6631663000152912,True,16
9M24,252,experiment,15,↓,down,↓,0.5704458999971393,True,16
9M24,253,experiment,34,→,right,→,0.5810655999812298,True,16
9M24,254,experiment,42,↑,up,↑,0.7616907000192441,True,16
9M24,255,experiment,35,↓,down,↓,0.46071619997383095,True,16
9M24,256,experiment,18,→,left,←,0.5265051999886055,False,16
9M24,257,experiment,38,→,right,→,0.5044267000048421,True,16
9M24,258,experiment,21,→,right,→,0.6384008000022732,True,16
9M24,259,experiment,32,→,right,→,1.1597595000057481,True,16
9M24,260,experiment,36,↓,down,↓,0.6496437000168953,True,16
9M24,261,experiment,44,↑,up,↑,0.5864324999856763,True,16
9M24,262,experiment,46,←,left,←,0.6206302000209689,True,16
9M24,263,experiment,48,↓,down,↓,0.5078109000169206,True,16
9M24,264,experiment,57,←,left,←,0.5537352000246756,True,16
9M24,265,experiment,17,←,left,←,0.640348000015365,True,16
9M24,266,experiment,55,→,left,←,0.9223498000064865,False,16
9M24,267,experiment,47,←,left,←,0.6864648000046145,True,16
9M24,268,experiment,53,↓,down,↓,0.6716443999903277,True,16
9M24,269,experiment,30,←,left,←,0.4649722999893129,True,16
9M24,270,experiment,23,←,left,←,0.5030262999935076,True,16
9M24,271,experiment,56,↑,up,↑,0.6776443999842741,True,16
9M24,272,experiment,33,↓,down,↓,0.5253542000136804,True,16
9M24,273,experiment,54,↓,down,↓,0.5406406999973115,True,16
9M24,274,experiment,16,↓,down,↓,1.284540000022389,True,16
9M24,275,experiment,27,←,left,←,0.49496489999000914,True,16
9M24,276,experiment,22,→,right,→,0.5093835000006948,True,16
9M24,277,experiment,37,↓,up,↑,0.7042979999969248,False,16
9M24,278,experiment,24,↑,up,↑,0.5564458000008017,True,16
9M24,279,experiment,40,↑,up,↑,0.5960691000218503,True,16
9M24,280,experiment,50,←,left,←,0.5070770000165794,True,16
9M24,281,experiment,13,→,right,→,0.5343976000149269,True,16
9M24,282,experiment,59,↓,down,↓,0.4977886999840848,True,16
9M24,283,experiment,45,←,left,←,0.47192190002533607,True,16
9M24,284,experiment,19,→,right,→,0.6323922000010498,True,16
9M24,285,experiment,39,↓,down,↓,0.5493053999962285,True,16
9M24,286,experiment,52,←,left,←,0.5403046999999788,True,16
9M24,287,experiment,14,→,right,→,0.5736215999932028,True,16
9M24,288,experiment,26,↑,up,↑,0.49355949999880977,True,16
9M24,289,experiment,20,↑,down,↓,0.7812883000005968,False,16
9M24,290,experiment,29,←,left,←,0.49023609998403117,True,16
9M24,291,training,32,↓,down,↓,0.5486203000182286,True,16
9M24,292,training,45,→,right,→,0.5442753999959677,True,16
9M24,293,experiment,17,↓,down,↓,0.4396593999990728,True,16
9M24,294,experiment,57,←,left,←,0.6878084999916609,True,16
9M24,295,experiment,41,←,left,←,0.5134127000055742,True,16
9M24,296,experiment,35,→,right,→,0.732968800002709,True,16
9M24,297,experiment,13,←,left,←,0.7352366000122856,True,16
9M24,298,experiment,31,↑,up,↑,0.6370185000123456,True,16
9M24,299,experiment,44,←,left,←,0.4463425000139978,True,16
9M24,300,experiment,45,←,left,←,0.5342789999849629,True,16
9M24,301,experiment,36,→,left,←,0.449119700002484,False,16
9M24,302,experiment,43,←,left,←,0.5543257999815978,True,16
9M24,303,experiment,29,←,left,←,0.672966100013582,True,16
9M24,304,experiment,19,←,right,→,0.4816061000165064,False,16
9M24,305,experiment,58,↓,down,↓,0.535620700014988,True,16
9M24,306,experiment,24,↑,up,↑,0.5142716999980621,True,16
9M24,307,experiment,54,←,right,→,0.5138707000005525,False,16
9M24,308,experiment,20,→,right,→,0.5596424000104889,True,16
9M24,309,experiment,59,→,right,→,0.5142865999951027,True,16
9M24,310,experiment,40,→,left,←,0.4990064999728929,False,16
9M24,311,experiment,38,→,right,→,0.517881399980979,True,16
9M24,312,experiment,50,↓,down,↓,0.6156737999990582,True,16
9M24,313,experiment,15,←,left,←,0.765458400011994,True,16
9M24,314,experiment,48,←,left,←,0.5343108999950346,True,16
9M24,315,experiment,28,→,right,→,0.6142738000198733,True,16
9M24,316,experiment,30,↓,down,↓,0.497627900011139,True,16
9M24,317,experiment,23,→,right,→,0.7342630999919493,True,16
9M24,318,experiment,21,↓,down,↓,0.4829077000031248,True,16
9M24,319,experiment,52,↓,down,↓,0.5970178999996278,True,16
9M24,320,experiment,51,↓,down,↓,0.6678973000089172,True,16
9M24,321,experiment,14,↓,down,↓,0.4875618999940343,True,16
9M24,322,experiment,46,↑,down,↓,0.46159640001133084,False,16
9M24,323,experiment,32,→,right,→,0.5421544999990147,True,16
9M24,324,experiment,16,↑,up,↑,0.5345133999944665,True,16
9M24,325,experiment,34,←,left,←,0.4662279000040144,True,16
9M24,326,experiment,39,↓,down,↓,0.6135962000116706,True,16
9M24,327,experiment,49,→,right,→,0.6682833000086248,True,16
9M24,328,experiment,53,↑,up,↑,0.6463115999940783,True,16
9M24,329,experiment,55,↑,up,↑,0.5202758999948855,True,16
9M24,330,experiment,25,↑,up,↑,0.650886299990816,True,16
9M24,331,experiment,37,←,right,→,0.49628339998889714,False,16
9M24,332,experiment,27,↑,up,↑,0.53860810000333,True,16
9M24,333,experiment,60,↑,up,↑,0.8055096000025515,True,16
9M24,334,experiment,22,↓,down,↓,0.7741959000122733,True,16
9M24,335,experiment,42,→,right,→,0.6436275000160094,True,16
9M24,336,experiment,56,←,left,←,0.668869100016309,True,16
9M24,337,experiment,47,↓,down,↓,0.7388532999902964,True,16
9M24,338,experiment,33,↑,up,↑,0.6235719999822322,True,16
9M24,339,experiment,18,←,left,←,0.6589871000032872,True,16
9M24,340,experiment,26,→,right,→,0.615480500011472,True,16
9M24,341,training,39,→,right,→,0.4969688999990467,True,16
9M24,342,training,18,↑,up,↑,0.5131294000020716,True,16
9M24,343,experiment,28,→,right,→,0.7375613999902271,True,16
9M24,344,experiment,14,←,left,←,0.5952554999967106,True,16
9M24,345,experiment,59,↓,down,↓,0.724444699997548,True,16
9M24,346,experiment,50,→,right,→,0.6636942000186536,True,16
9M24,347,experiment,53,←,left,←,0.5924814000027254,True,16
9M24,348,experiment,15,←,down,↓,0.7027564999880269,False,16
9M24,349,experiment,34,↑,up,↑,0.724205600010464,True,16
9M24,350,experiment,29,↑,up,↑,0.644135800015647,True,16
9M24,351,experiment,41,→,right,→,0.5116199000040069,True,16
9M24,352,experiment,52,↓,down,↓,1.6008150999841746,True,16
9M24,353,experiment,44,↓,down,↓,0.5874996999918949,True,16
9M24,354,experiment,36,←,left,←,0.8445911000017077,True,16
9M24,355,experiment,46,↓,down,↓,0.708234599995194,True,16
9M24,356,experiment,43,↓,down,↓,0.5477359000069555,True,16
9M24,357,experiment,27,↑,up,↑,0.6834620000154246,True,16
9M24,358,experiment,19,←,left,←,0.5155916000076104,True,16
9M24,359,experiment,58,→,right,→,0.5203164999838918,True,16
9M24,360,experiment,32,→,right,→,0.7021187999926042,True,16
9M24,361,experiment,22,↓,down,↓,0.5234975999919698,True,16
9M24,362,experiment,40,↓,down,↓,0.4366431999951601,True,16
9M24,363,experiment,48,→,right,→,0.6982099000015296,True,16
9M24,364,experiment,24,→,right,→,0.5821320999821182,True,16
9M24,365,experiment,35,→,left,←,1.0314633999951184,False,16
9M24,366,experiment,37,↓,down,↓,0.4854482999944594,True,16
9M24,367,experiment,16,←,down,↓,0.5194842999917455,False,16
9M24,368,experiment,55,↓,down,↓,0.5422585000051185,True,16
9M24,369,experiment,56,↑,up,↑,0.9235034000012092,True,16
9M24,370,experiment,45,↓,down,↓,0.6487920999934431,True,16
9M24,371,experiment,57,↓,down,↓,0.6091185999976005,True,16
9M24,372,experiment,42,↑,up,↑,0.7569787999964319,True,16
9M24,373,experiment,23,→,no_key,no_letter,-1.0,False,16
9M24,374,experiment,30,←,left,←,0.5504491000028793,True,16
9M24,375,experiment,51,↓,down,↓,0.4941527000046335,True,16
9M24,376,experiment,25,↓,down,↓,0.690387099981308,True,16
9M24,377,experiment,17,←,left,←,0.5475526000082027,True,16
9M24,378,experiment,33,↓,down,↓,0.5117249000177253,True,16
9M24,379,experiment,54,↑,up,↑,0.6796852000115905,True,16
9M24,380,experiment,31,→,right,→,0.7434655000106432,True,16
9M24,381,experiment,26,↑,up,↑,0.5847659000137355,True,16
9M24,382,experiment,49,→,right,→,0.560800700011896,True,16
9M24,383,experiment,18,←,left,←,0.46273160001146607,True,16
9M24,384,experiment,20,→,right,→,0.7030951000051573,True,16
9M24,385,experiment,13,→,right,→,0.6741306000039913,True,16
9M24,386,experiment,38,→,right,→,0.6061331999953836,True,16
9M24,387,experiment,39,→,right,→,0.7723763000103645,True,16
9M24,388,experiment,60,←,left,←,0.6213993999990635,True,16
9M24,389,experiment,21,↓,down,↓,0.60674860002473,True,16
9M24,390,experiment,47,→,right,→,0.5913806999742519,True,16
9M24,391,training,29,↑,up,↑,0.5007036000024527,True,15
9M24,392,training,47,→,right,→,0.7375681000121403,True,15
9M24,393,experiment,28,→,right,→,0.6976323000271805,True,15
9M24,394,experiment,51,←,left,←,0.7317062000220176,True,15
9M24,395,experiment,54,↑,up,↑,0.5461367000243627,True,15
9M24,396,experiment,14,↑,up,↑,0.7555203000083566,True,15
9M24,397,experiment,20,←,left,←,0.6400946999783628,True,15
9M24,398,experiment,49,←,left,←,0.6704157000058331,True,15
9M24,399,experiment,22,↓,down,↓,0.7087029000103939,True,15
9M24,400,experiment,52,↑,up,↑,0.7260666000074707,True,15
9M24,401,experiment,21,←,left,←,0.515457300003618,True,15
9M24,402,experiment,35,↓,down,↓,0.6793468999967445,True,15
9M24,403,experiment,15,←,left,←,0.5620997000078205,True,15
9M24,404,experiment,43,→,right,→,0.6397088000085205,True,15
9M24,405,experiment,23,←,left,←,0.5747104000183754,True,15
9M24,406,experiment,46,→,left,←,0.7773189000145067,False,15
9M24,407,experiment,26,↓,down,↓,0.5695665999955963,True,15
9M24,408,experiment,24,↑,up,↑,0.6267721999902278,True,15
9M24,409,experiment,13,←,left,←,0.6173730999871623,True,15
9M24,410,experiment,48,↑,down,↓,0.6887424999731593,False,15
9M24,411,experiment,19,↑,down,↓,0.7366343000030611,False,15
9M24,412,experiment,56,↑,up,↑,0.7340488999907393,True,15
9M24,413,experiment,50,↓,down,↓,0.7353270000021439,True,15
9M24,414,experiment,32,←,left,←,0.5807483000098728,True,15
9M24,415,experiment,30,↓,down,↓,0.6893625000084285,True,15
9M24,416,experiment,29,←,left,←,0.7467207000008784,True,15
9M24,417,experiment,41,↑,down,↓,1.073324600001797,False,15
9M24,418,experiment,33,→,right,→,0.6726550000021234,True,15
9M24,419,experiment,37,←,left,←,0.7972141999925952,True,15
9M24,420,experiment,31,↑,up,↑,1.456936400005361,True,15
9M24,421,experiment,25,↑,up,↑,0.686018000007607,True,15
9M24,422,experiment,42,↑,up,↑,0.7187413000210654,True,15
9M24,423,experiment,57,→,right,→,0.6840152000077069,True,15
9M24,424,experiment,27,↓,down,↓,1.2709512000146788,True,15
9M24,425,experiment,44,↓,down,↓,0.5907609999994747,True,15
9M24,426,experiment,47,↑,up,↑,1.0160949999990407,True,15
9M24,427,experiment,18,→,right,→,0.731376999989152,True,15
9M24,428,experiment,45,↓,up,↑,0.6243117999983951,False,15
9M24,429,experiment,58,→,right,→,0.6648440000135452,True,15
9M24,430,experiment,53,↓,down,↓,0.5546211999899242,True,15
9M24,431,experiment,60,→,right,→,0.5328728999884333,True,15
9M24,432,experiment,34,→,right,→,0.5606469000049401,True,15
9M24,433,experiment,59,←,left,←,0.6033052999991924,True,15
9M24,434,experiment,39,↓,down,↓,0.6973020999867003,True,15
9M24,435,experiment,55,←,left,←,1.0486218000005465,True,15
9M24,436,experiment,16,→,left,←,0.668043600016972,False,15
9M24,437,experiment,17,←,left,←,0.7020061000075657,True,15
9M24,438,experiment,36,↑,up,↑,0.6979436000110582,True,15
9M24,439,experiment,40,↓,down,↓,0.5474104000022635,True,15
9M24,440,experiment,38,←,left,←,0.6679345000011381,True,15
9M24,441,training,14,←,left,←,0.4654101000051014,True,15
9M24,442,training,43,→,left,←,0.521940500009805,False,15
9M24,443,experiment,31,←,left,←,0.7206095999863464,True,15
9M24,444,experiment,35,→,right,→,0.6607776000164449,True,15
9M24,445,experiment,46,→,right,→,0.9163156000140589,True,15
9M24,446,experiment,16,→,left,←,0.6527171000197995,False,15
9M24,447,experiment,15,→,right,→,0.8010306000069249,True,15
9M24,448,experiment,55,→,left,←,0.8039667999837548,False,15
9M24,449,experiment,38,↑,up,↑,0.7947261999943294,True,15
9M24,450,experiment,59,↑,up,↑,0.6681550000212155,True,15
9M24,451,experiment,17,←,left,←,0.6379619000072125,True,15
9M24,452,experiment,25,←,down,↓,1.3559297999890987,False,15
9M24,453,experiment,40,→,right,→,0.7312240999890491,True,15
9M24,454,experiment,34,→,right,→,0.5353082000219729,True,15
9M24,455,experiment,52,←,right,→,0.5112182000011671,False,15
9M24,456,experiment,42,↓,up,↑,0.6952512999996543,False,15
9M24,457,experiment,26,↑,up,↑,0.6585683999874163,True,15
9M24,458,experiment,47,↑,up,↑,0.6572787000040989,True,15
9M24,459,experiment,33,↑,up,↑,0.5692209000117145,True,15
9M24,460,experiment,43,↑,down,↓,0.8299000000115484,False,15
9M24,461,experiment,49,↑,up,↑,0.6845597999927122,True,15
9M24,462,experiment,24,↑,up,↑,0.68147539999336,True,15
9M24,463,experiment,60,↑,up,↑,0.5979425999976229,True,15
9M24,464,experiment,39,↑,up,↑,0.7239244999946095,True,15
9M24,465,experiment,54,↓,down,↓,0.6754664999898523,True,15
9M24,466,experiment,50,→,left,←,0.6234384999843314,False,15
9M24,467,experiment,28,→,left,←,0.6599251999869011,False,15
9M24,468,experiment,44,↑,down,↓,0.6606155000044964,False,15
9M24,469,experiment,58,→,right,→,0.6518542999983765,True,15
9M24,470,experiment,23,↑,up,↑,0.690886500000488,True,15
9M24,471,experiment,14,↑,up,↑,0.6378846000006888,True,15
9M24,472,experiment,27,←,left,←,0.5066563000145834,True,15
9M24,473,experiment,18,←,left,←,1.8825481999956537,True,15
9M24,474,experiment,41,↑,up,↑,0.9241692000068724,True,15
9M24,475,experiment,21,↓,up,↑,0.5852289000176825,False,15
9M24,476,experiment,37,→,right,→,0.5054505000007339,True,15
9M24,477,experiment,20,→,right,→,0.7118388999952003,True,15
9M24,478,experiment,13,↑,up,↑,0.619212299992796,True,15
9M24,479,experiment,30,→,right,→,0.6946298999828286,True,15
9M24,480,experiment,32,↓,down,↓,0.6861691999947652,True,15
9M24,481,experiment,51,←,right,→,0.7127114999748301,False,15
9M24,482,experiment,56,↑,up,↑,0.7185637000075076,True,15
9M24,483,experiment,36,↓,down,↓,0.5462114000110887,True,15
9M24,484,experiment,29,↑,up,↑,0.7525169999862555,True,15
9M24,485,experiment,22,↑,up,↑,0.6118312000180595,True,15
9M24,486,experiment,19,↓,down,↓,0.8152086999907624,True,15
9M24,487,experiment,53,↑,up,↑,0.7395166000060271,True,15
9M24,488,experiment,45,←,left,←,0.7118681999854743,True,15
9M24,489,experiment,57,↓,down,↓,0.5739645999856293,True,15
9M24,490,experiment,48,→,right,→,1.1832075999991503,True,15
9M24,491,training,16,→,right,→,0.8545372000080533,True,15
9M24,492,training,33,←,left,←,0.8545268000161741,True,15
9M24,493,experiment,20,←,left,←,0.7754620999912731,True,15
9M24,494,experiment,54,↑,down,↓,1.004779500013683,False,15
9M24,495,experiment,42,←,left,←,0.5764998999948148,True,15
9M24,496,experiment,56,↓,down,↓,0.7248909999907482,True,15
9M24,497,experiment,19,↑,up,↑,0.9391755000106059,True,15
9M24,498,experiment,44,↑,left,←,0.9204660000104923,False,15
9M24,499,experiment,17,↑,left,←,0.9364913000026718,False,15
9M24,500,experiment,36,←,left,←,0.6992334999958985,True,15
9M24,501,experiment,32,←,left,←,0.6259285999985877,True,15
9M24,502,experiment,38,←,left,←,0.7759902999969199,True,15
9M24,503,experiment,24,→,left,←,1.1371851000003517,False,15
9M24,504,experiment,49,↑,up,↑,0.5557296999904793,True,15
9M24,505,experiment,25,←,left,←,0.7884587000007741,True,15
9M24,506,experiment,57,↓,down,↓,0.7591476999805309,True,15
9M24,507,experiment,21,←,left,←,0.6191401999967638,True,15
9M24,508,experiment,27,↓,down,↓,0.7285373999911826,True,15
9M24,509,experiment,22,→,left,←,0.6531018000096083,False,15
9M24,510,experiment,52,→,right,→,0.8325623999990057,True,15
9M24,511,experiment,55,↓,down,↓,0.6664217000070494,True,15
9M24,512,experiment,59,→,left,←,0.7604506000061519,False,15
9M24,513,experiment,51,←,left,←,0.7204090000013821,True,15
9M24,514,experiment,53,↓,down,↓,0.7207313999824692,True,15
9M24,515,experiment,23,←,left,←,0.7404624000191689,True,15
9M24,516,experiment,14,↓,down,↓,0.5660189000191167,True,15
9M24,517,experiment,47,↓,down,↓,0.8397868000029121,True,15
9M24,518,experiment,41,→,right,→,0.731055300013395,True,15
9M24,519,experiment,37,←,left,←,0.6851403999899048,True,15
9M24,520,experiment,26,←,left,←,0.5764715000113938,True,15
9M24,521,experiment,16,↑,up,↑,0.7833843000116758,True,15
9M24,522,experiment,31,↑,up,↑,0.5791997999767773,True,15
9M24,523,experiment,58,→,right,→,0.5970677000004798,True,15
9M24,524,experiment,39,↑,down,↓,0.819107699993765,False,15
9M24,525,experiment,45,↓,down,↓,0.7083898000128102,True,15
9M24,526,experiment,30,→,left,←,0.8045251999865286,False,15
9M24,527,experiment,46,→,right,→,0.6462587999994867,True,15
9M24,528,experiment,18,←,left,←,0.7045367999817245,True,15
9M24,529,experiment,15,←,left,←,0.7388478000066243,True,15
9M24,530,experiment,60,←,left,←,0.7660184999986086,True,15
9M24,531,experiment,35,←,left,←,0.6232393000100274,True,15
9M24,532,experiment,13,→,left,←,0.7900439999939408,False,15
9M24,533,experiment,28,↓,down,↓,0.7637295000022277,True,15
9M24,534,experiment,40,↑,down,↓,0.7704356000176631,False,15
9M24,535,experiment,34,→,right,→,0.7330485999991652,True,15
9M24,536,experiment,43,↓,down,↓,0.7629785000171978,True,15
9M24,537,experiment,33,→,right,→,0.6463863999815658,True,15
9M24,538,experiment,48,←,left,←,0.8523853000078816,True,15
9M24,539,experiment,50,←,left,←,0.8651002999977209,True,15
9M24,540,experiment,29,→,left,←,0.9069974000158254,False,15
9M24,541,training,34,→,left,←,1.0050657000101637,False,15
9M24,542,training,26,↓,down,↓,0.6036323000153061,True,15
9M24,543,experiment,18,↓,down,↓,0.47971509999479167,True,15
9M24,544,experiment,59,←,left,←,0.5811065000016242,True,15
9M24,545,experiment,43,→,right,→,0.5610516000015195,True,15
9M24,546,experiment,30,↓,down,↓,0.6469928000005893,True,15
9M24,547,experiment,55,↑,up,↑,0.6723804000066593,True,15
9M24,548,experiment,14,→,right,→,0.5963391999830492,True,15
9M24,549,experiment,46,↓,down,↓,0.5497159999795258,True,15
9M24,550,experiment,49,→,right,→,1.095138800010318,True,15
9M24,551,experiment,56,↓,down,↓,0.5503310000058264,True,15
9M24,552,experiment,23,→,left,←,1.2490546999906655,False,15
9M24,553,experiment,24,←,left,←,0.6310641000163741,True,15
9M24,554,experiment,37,→,right,→,1.0292979999794625,True,15
9M24,555,experiment,35,↑,up,↑,1.172977299982449,True,15
9M24,556,experiment,28,←,right,→,1.0757677999790758,False,15
9M24,557,experiment,32,→,right,→,0.7637864999996964,True,15
9M24,558,experiment,33,←,left,←,0.5750402999983635,True,15
9M24,559,experiment,39,←,left,←,0.5746410000137985,True,15
9M24,560,experiment,31,↑,up,↑,0.6750721999851521,True,15
9M24,561,experiment,51,→,right,→,0.7343803999829106,True,15
9M24,562,experiment,21,←,left,←,0.7710573000076693,True,15
9M24,563,experiment,41,↑,up,↑,0.5611130000033882,True,15
9M24,564,experiment,54,→,right,→,0.7269494000065606,True,15
9M24,565,experiment,57,←,left,←,0.6203700999903958,True,15
9M24,566,experiment,53,→,right,→,0.5365030999819282,True,15
9M24,567,experiment,40,↑,down,↓,0.5603848999890033,False,15
9M24,568,experiment,15,←,left,←,0.6563252000196371,True,15
9M24,569,experiment,17,↑,down,↓,0.5790699000062887,False,15
9M24,570,experiment,25,←,left,←,0.49114179998287,True,15
9M24,571,experiment,44,↑,up,↑,0.5462817999941763,True,15
9M24,572,experiment,42,→,right,→,0.48034300000290386,True,15
9M24,573,experiment,60,↓,down,↓,0.524951700004749,True,15
9M24,574,experiment,45,→,right,→,0.4664098999928683,True,15
9M24,575,experiment,26,←,left,←,0.4783676999795716,True,15
9M24,576,experiment,48,↑,down,↓,0.6997745999833569,False,15
9M24,577,experiment,52,←,right,→,0.4449890999821946,False,15
9M24,578,experiment,19,↓,up,↑,0.7910467000037897,False,15
9M24,579,experiment,20,←,left,←,0.6022343999939039,True,15
9M24,580,experiment,13,↓,down,↓,0.5136373000277672,True,15
9M24,581,experiment,22,←,left,←,0.5902552999905311,True,15
9M24,582,experiment,47,→,right,→,1.1998894999851473,True,15
9M24,583,experiment,36,↑,up,↑,0.575626400008332,True,15
9M24,584,experiment,29,→,left,←,0.5976073000056203,False,15
9M24,585,experiment,16,↑,down,↓,0.514919600012945,False,15
9M24,586,experiment,58,↑,up,↑,0.591572700010147,True,15
9M24,587,experiment,50,←,left,←,0.6472623000154272,True,15
9M24,588,experiment,34,↑,down,↓,0.5664234000141732,False,15
9M24,589,experiment,38,→,right,→,0.4942538999894168,True,15
9M24,590,experiment,27,↑,up,↑,0.6251493000017945,True,15
