PART_ID,Trial_no,Trial_type,PDI,Stim_letter,Key_pressed,letter_choose,Rt,Corr,Stimulus Time
002M29,1,training,10,←,left,←,0.841582200024277,True,30
002M29,2,training,10,↓,down,↓,0.9170045000500977,True,30
002M29,3,training,10,↑,up,↑,0.43393959989771247,True,30
002M29,4,training,10,↓,down,↓,0.9726571999490261,True,30
002M29,5,training,10,↓,left,←,0.5003591999411583,False,30
002M29,6,training,10,↓,up,↑,0.8843992999754846,False,30
002M29,7,training,10,→,left,←,0.600467799929902,False,30
002M29,8,training,10,←,left,←,0.7992100000847131,True,30
002M29,9,training,10,↓,down,↓,0.5838852999731898,True,30
002M29,10,training,10,↑,up,↑,1.6444466998800635,True,30
002M29,11,training,10,↓,down,↓,0.7180075999349356,True,30
002M29,12,training,10,←,left,←,0.5005185999907553,True,30
002M29,13,training,10,←,right,→,0.5838633999228477,False,30
002M29,14,training,10,→,right,→,1.3538057000841945,True,30
002M29,15,training,10,↓,up,↑,0.9380401999223977,False,30
002M29,16,training,10,↑,up,↑,1.3136783000081778,True,30
002M29,17,training,10,←,left,←,1.1666373000480235,True,30
002M29,18,training,10,→,right,→,0.55055409995839,True,30
002M29,19,training,10,→,right,→,0.5337986999657005,True,30
002M29,20,training,10,↑,up,↑,0.5671729000750929,True,30
002M29,21,training,10,←,left,←,0.49830519990064204,True,18
002M29,22,training,10,←,left,←,0.6064429001417011,True,18
002M29,23,training,10,←,left,←,0.5067755000200123,True,18
002M29,24,training,10,→,left,←,0.5097962999716401,False,18
002M29,25,training,10,←,left,←,0.6694167999085039,True,18
002M29,26,training,10,←,left,←,0.7111699001397938,True,18
002M29,27,training,10,↑,up,↑,0.673772000009194,True,18
002M29,28,training,10,↓,up,↑,0.8920517999213189,False,18
002M29,29,training,10,↓,down,↓,0.7412870998959988,True,18
002M29,30,training,10,↑,up,↑,0.6080672000534832,True,18
002M29,31,training,24,↑,up,↑,0.6901554998476058,True,15
002M29,32,training,180,↑,up,↑,0.6803453001193702,True,15
002M29,33,training,24,↑,up,↑,1.1117614000104368,True,15
002M29,34,experiment,156,←,left,←,0.9294491999316961,True,15
002M29,35,experiment,180,↑,up,↑,0.7877042000181973,True,15
002M29,36,experiment,156,↓,up,↑,0.8248544000089169,False,15
002M29,37,experiment,48,→,left,←,0.874781999969855,False,15
002M29,38,experiment,36,↓,no_key,no_letter,-1.0,False,15
002M29,39,experiment,12,↑,no_key,no_letter,-1.0,False,15
002M29,40,experiment,60,↑,up,↑,0.48304590000770986,True,15
002M29,41,experiment,168,→,right,→,0.5885406001470983,True,15
002M29,42,experiment,84,→,left,←,0.643291899934411,False,15
002M29,43,experiment,84,←,left,←,0.6838354000356048,True,15
002M29,44,experiment,144,↑,up,↑,0.573157399892807,True,15
002M29,45,experiment,72,→,right,→,0.6058386999648064,True,15
002M29,46,experiment,180,←,left,←,0.6403626000974327,True,15
002M29,47,experiment,12,↓,up,↑,0.7222110000438988,False,15
002M29,48,experiment,144,←,left,←,0.7214353000745177,True,15
002M29,49,experiment,180,↓,up,↑,0.47284890012815595,False,15
002M29,50,experiment,96,←,left,←,0.5522319001611322,True,15
002M29,51,experiment,36,→,left,←,0.7145008000079542,False,15
002M29,52,experiment,168,→,left,←,0.6298925001174212,False,15
002M29,53,experiment,72,←,right,→,0.8329006999265403,False,15
002M29,54,experiment,48,↓,up,↑,1.0575767999980599,False,15
002M29,55,experiment,48,←,left,←,1.0627375000622123,True,15
002M29,56,experiment,84,→,right,→,0.5611693998798728,True,15
002M29,57,experiment,108,←,left,←,0.42756920005194843,True,15
002M29,58,experiment,108,↓,down,↓,0.6754723999183625,True,15
002M29,59,experiment,96,↑,up,↑,0.5131022001150995,True,15
002M29,60,experiment,108,↓,down,↓,1.181794899981469,True,15
002M29,61,experiment,132,↓,down,↓,0.5916371000930667,True,15
002M29,62,experiment,84,↓,down,↓,0.507535699987784,True,15
002M29,63,experiment,24,↑,down,↓,1.2300786999985576,False,15
002M29,64,experiment,60,↓,down,↓,0.5774425000417978,True,15
002M29,65,experiment,120,↑,left,←,1.4038939999882132,False,15
002M29,66,experiment,60,↑,up,↑,0.6878874998074025,True,15
002M29,67,experiment,132,↓,down,↓,0.6720112999901175,True,15
002M29,68,experiment,156,←,left,←,0.5557498999405652,True,15
002M29,69,experiment,24,↑,up,↑,0.7874833000823855,True,15
002M29,70,experiment,132,→,left,←,0.7172353998757899,False,15
002M29,71,experiment,48,←,left,←,0.6999856000766158,True,15
002M29,72,experiment,144,↓,down,↓,0.697304500034079,True,15
002M29,73,experiment,120,↓,down,↓,0.9647359000518918,True,15
002M29,74,experiment,156,↑,right,→,1.0320833998266608,False,15
002M29,75,experiment,108,→,right,→,0.8370179999619722,True,15
002M29,76,experiment,96,↑,up,↑,0.6926669001113623,True,15
002M29,77,experiment,12,↑,down,↓,1.1795188998803496,False,15
002M29,78,experiment,180,↓,down,↓,0.8791056000627577,True,15
002M29,79,experiment,60,↓,up,↑,0.8466018000617623,False,15
002M29,80,experiment,168,→,right,→,0.9324385998770595,True,15
002M29,81,experiment,144,↑,left,←,1.0502550001256168,False,15
002M29,82,experiment,24,→,right,→,1.3953962000086904,True,15
002M29,83,experiment,120,↓,down,↓,0.7642244000453502,True,15
002M29,84,experiment,36,↓,down,↓,0.745563399977982,True,15
002M29,85,experiment,168,→,right,→,1.1360445998143405,True,15
002M29,86,experiment,24,→,left,←,0.9598048999905586,False,15
002M29,87,experiment,72,←,left,←,0.6531734000891447,True,15
002M29,88,experiment,96,↑,down,↓,0.6937059999909252,False,15
002M29,89,experiment,120,→,left,←,0.6769467000849545,False,15
002M29,90,experiment,132,←,left,←,0.549178599845618,True,15
002M29,91,experiment,12,↑,up,↑,0.7305387000087649,True,15
002M29,92,experiment,72,↑,up,↑,0.6255320999771357,True,15
002M29,93,experiment,36,↑,down,↓,0.6901073998305947,False,15
002M29,94,training,180,→,left,←,1.1423579999245703,False,15
002M29,95,training,180,↓,right,→,1.1491486998274922,False,15
002M29,96,training,108,↓,up,↑,0.8606696000788361,False,15
002M29,97,experiment,168,↓,right,→,1.254099200014025,False,15
002M29,98,experiment,84,←,left,←,0.6621805999893695,True,15
002M29,99,experiment,24,←,right,→,0.9201797000132501,False,15
002M29,100,experiment,132,←,left,←,0.6171478000469506,True,15
002M29,101,experiment,180,←,left,←,0.8793887000065297,True,15
002M29,102,experiment,144,←,left,←,0.6335975998081267,True,15
002M29,103,experiment,36,←,left,←,0.8308840999379754,True,15
002M29,104,experiment,24,→,left,←,0.7523982999846339,False,15
002M29,105,experiment,96,↓,left,←,0.8895984999835491,False,15
002M29,106,experiment,180,↓,left,←,1.2779043999034911,False,15
002M29,107,experiment,168,↑,left,←,1.671032200101763,False,15
002M29,108,experiment,72,→,left,←,0.7098288999404758,False,15
002M29,109,experiment,180,↑,up,↑,0.595218800008297,True,15
002M29,110,experiment,144,←,left,←,0.7472467999905348,True,15
002M29,111,experiment,24,↓,down,↓,0.6576084000989795,True,15
002M29,112,experiment,84,→,left,←,0.5798774000722915,False,15
002M29,113,experiment,144,↓,down,↓,0.609697800129652,True,15
002M29,114,experiment,72,→,left,←,0.5411970999557525,False,15
002M29,115,experiment,156,→,right,→,1.0467954000923783,True,15
002M29,116,experiment,120,←,left,←,0.6378140999004245,True,15
002M29,117,experiment,108,↓,down,↓,0.5475129000842571,True,15
002M29,118,experiment,108,→,right,→,0.8251726001035422,True,15
002M29,119,experiment,60,↓,down,↓,0.6218862999230623,True,15
002M29,120,experiment,108,↓,down,↓,0.962347999913618,True,15
002M29,121,experiment,168,←,left,←,0.6276223999448121,True,15
002M29,122,experiment,168,↓,down,↓,0.7924701001029462,True,15
002M29,123,experiment,48,↑,right,→,1.6273425000254065,False,15
002M29,124,experiment,84,↓,down,↓,0.592418699990958,True,15
002M29,125,experiment,120,↑,down,↓,0.9671457000076771,False,15
002M29,126,experiment,156,→,left,←,0.8080841000191867,False,15
002M29,127,experiment,60,↑,up,↑,0.8314622000325471,True,15
002M29,128,experiment,144,→,right,→,1.0049675998743623,True,15
002M29,129,experiment,180,↑,up,↑,0.6877202000468969,True,15
002M29,130,experiment,132,↑,up,↑,0.766160300001502,True,15
002M29,131,experiment,24,→,left,←,1.4789701998233795,False,15
002M29,132,experiment,132,←,left,←,1.1448347000405192,True,15
002M29,133,experiment,72,↓,right,→,1.1530397001188248,False,15
002M29,134,experiment,156,→,left,←,0.6876890999265015,False,15
002M29,135,experiment,96,↓,down,↓,0.8199539999477565,True,15
002M29,136,experiment,48,←,left,←,0.5518633997999132,True,15
002M29,137,experiment,36,↓,right,→,1.362011400051415,False,15
002M29,138,experiment,72,→,right,→,0.8019767999649048,True,15
002M29,139,experiment,12,↑,down,↓,1.0151354998815805,False,15
002M29,140,experiment,120,→,left,←,0.5947956999298185,False,15
002M29,141,experiment,12,↓,down,↓,1.2926644999533892,True,15
002M29,142,experiment,156,↑,up,↑,0.5339766999240965,True,15
002M29,143,experiment,12,→,left,←,0.6613301998004317,False,15
002M29,144,experiment,108,→,left,←,0.6965564000420272,False,15
002M29,145,experiment,84,→,left,←,0.7474763998761773,False,15
002M29,146,experiment,120,→,left,←,0.6501794001087546,False,15
002M29,147,experiment,60,←,left,←,0.5996527001261711,True,15
002M29,148,experiment,36,↑,up,↑,1.0697406998369843,True,15
002M29,149,experiment,96,←,left,←,0.5805015999358147,True,15
002M29,150,experiment,36,↑,right,→,0.8563633998855948,False,15
002M29,151,experiment,60,←,left,←,0.5960810999386013,True,15
002M29,152,experiment,48,↓,up,↑,1.0022003999911249,False,15
002M29,153,experiment,96,↑,up,↑,0.4806135999970138,True,15
002M29,154,experiment,132,→,right,→,0.6882080999203026,True,15
002M29,155,experiment,48,↓,down,↓,0.944672100013122,True,15
002M29,156,experiment,12,←,left,←,0.6950809999834746,True,15
002M29,157,training,60,↑,down,↓,0.8762344000861049,False,15
002M29,158,training,84,→,right,→,0.5780785998795182,True,15
002M29,159,training,36,↑,up,↑,0.8340768998023123,True,15
002M29,160,experiment,144,↑,up,↑,0.5709132999181747,True,15
002M29,161,experiment,144,←,right,→,0.6963343999814242,False,15
002M29,162,experiment,36,←,left,←,0.6521775999572128,True,15
002M29,163,experiment,36,↓,down,↓,0.7512774998322129,True,15
002M29,164,experiment,48,↑,up,↑,0.5677600000053644,True,15
002M29,165,experiment,168,←,left,←,0.5922789999749511,True,15
002M29,166,experiment,84,↓,down,↓,0.7955714999698102,True,15
002M29,167,experiment,12,←,right,→,0.7892033001407981,False,15
002M29,168,experiment,144,→,right,→,0.7428122998680919,True,15
002M29,169,experiment,120,←,left,←,0.5493247001431882,True,15
002M29,170,experiment,120,↑,up,↑,0.8601708000060171,True,15
002M29,171,experiment,108,→,right,→,0.5814989998470992,True,15
002M29,172,experiment,180,↑,up,↑,0.7301298000384122,True,15
002M29,173,experiment,72,↑,up,↑,0.8038553001824766,True,15
002M29,174,experiment,108,←,left,←,0.6327454999554902,True,15
002M29,175,experiment,72,↑,up,↑,0.5827194999437779,True,15
002M29,176,experiment,96,↓,up,↑,1.1218915001954883,False,15
002M29,177,experiment,180,↑,up,↑,0.8900224999524653,True,15
002M29,178,experiment,168,↓,down,↓,1.0415910000447184,True,15
002M29,179,experiment,132,→,right,→,0.5629718001000583,True,15
002M29,180,experiment,96,↑,up,↑,0.5527950001414865,True,15
002M29,181,experiment,168,↓,up,↑,1.2386377002112567,False,15
002M29,182,experiment,132,↑,up,↑,0.4791430002078414,True,15
002M29,183,experiment,132,↓,up,↑,0.8340231999754906,False,15
002M29,184,experiment,168,→,left,←,0.745983799919486,False,15
002M29,185,experiment,156,↓,down,↓,0.5868286001496017,True,15
002M29,186,experiment,84,→,right,→,0.580300800036639,True,15
002M29,187,experiment,12,↓,down,↓,0.6780830000061542,True,15
002M29,188,experiment,24,↓,down,↓,0.620515099959448,True,15
002M29,189,experiment,48,↑,up,↑,0.7442503001075238,True,15
002M29,190,experiment,12,←,left,←,1.0289121998939663,True,15
002M29,191,experiment,24,↓,left,←,1.3003145998809487,False,15
002M29,192,experiment,144,↓,down,↓,0.5568574999924749,True,15
002M29,193,experiment,48,↑,up,↑,0.5074190001469105,True,15
002M29,194,experiment,36,↑,down,↓,0.6416268998291343,False,15
002M29,195,experiment,84,↓,down,↓,0.8442673999816179,True,15
002M29,196,experiment,24,←,left,←,0.7264420997817069,True,15
002M29,197,experiment,12,→,right,→,0.5652834000065923,True,15
002M29,198,experiment,96,↑,right,→,1.2577656998764724,False,15
002M29,199,experiment,132,↓,down,↓,0.7691011999268085,True,15
002M29,200,experiment,84,↓,down,↓,0.7683267998509109,True,15
002M29,201,experiment,120,↓,down,↓,0.5378302000463009,True,15
002M29,202,experiment,72,↓,down,↓,0.6535365998279303,True,15
002M29,203,experiment,156,→,left,←,1.0861806999891996,False,15
002M29,204,experiment,156,←,left,←,0.6916751000098884,True,15
002M29,205,experiment,24,↓,left,←,1.0334550000261515,False,15
002M29,206,experiment,48,→,left,←,0.8942448999732733,False,15
002M29,207,experiment,60,↑,up,↑,0.7390511000994593,True,15
002M29,208,experiment,60,←,left,←,0.5735716000199318,True,15
002M29,209,experiment,108,→,right,→,0.7156517999246716,True,15
002M29,210,experiment,72,↑,up,↑,0.5769190001301467,True,15
002M29,211,experiment,36,→,left,←,0.7353683998808265,False,15
002M29,212,experiment,96,←,right,→,0.7962440000846982,False,15
002M29,213,experiment,60,←,left,←,0.6547590000554919,True,15
002M29,214,experiment,120,←,right,→,1.1474164000246674,False,15
002M29,215,experiment,156,←,left,←,0.7106087999418378,True,15
002M29,216,experiment,180,→,left,←,0.6847962001338601,False,15
002M29,217,experiment,60,↓,up,↑,0.7583981999196112,False,15
002M29,218,experiment,108,←,left,←,0.5535765001550317,True,15
002M29,219,experiment,180,↓,down,↓,0.6395851999986917,True,15
002M29,220,training,12,↑,down,↓,0.6540209001395851,False,15
002M29,221,training,120,←,left,←,0.5415783000644296,True,15
002M29,222,training,108,→,right,→,0.8797892001457512,True,15
002M29,223,experiment,84,↓,down,↓,0.7032006001099944,True,15
002M29,224,experiment,168,→,left,←,0.6264809998683631,False,15
002M29,225,experiment,156,↓,up,↑,1.0443518999963999,False,15
002M29,226,experiment,108,↑,up,↑,0.6029779999516904,True,15
002M29,227,experiment,60,↑,up,↑,0.8026788998395205,True,15
002M29,228,experiment,96,↓,up,↑,0.8379118000157177,False,15
002M29,229,experiment,48,→,left,←,0.6373988999985158,False,15
002M29,230,experiment,144,↑,up,↑,0.6214876000303775,True,15
002M29,231,experiment,36,←,left,←,0.6935540998820215,True,15
002M29,232,experiment,156,←,left,←,0.5428555998951197,True,15
002M29,233,experiment,72,↑,up,↑,0.5764297998975962,True,15
002M29,234,experiment,120,↑,up,↑,0.6593488999642432,True,15
002M29,235,experiment,108,←,right,→,0.7329347000923008,False,15
002M29,236,experiment,168,→,right,→,0.687902299920097,True,15
002M29,237,experiment,24,↑,up,↑,0.6110268998891115,True,15
002M29,238,experiment,60,↓,down,↓,0.7852151999250054,True,15
002M29,239,experiment,60,←,left,←,0.5743810997810215,True,15
002M29,240,experiment,24,↓,up,↑,0.7672149001155049,False,15
002M29,241,experiment,60,←,left,←,1.3485113000497222,True,15
002M29,242,experiment,24,↓,down,↓,0.5027769000735134,True,15
002M29,243,experiment,48,↑,up,↑,0.501658899942413,True,15
002M29,244,experiment,132,→,right,→,0.48928059986792505,True,15
002M29,245,experiment,48,←,left,←,0.4965772998984903,True,15
002M29,246,experiment,96,←,left,←,0.48916400014422834,True,15
002M29,247,experiment,72,→,right,→,0.5101749999448657,True,15
002M29,248,experiment,132,←,left,←,1.2063202001154423,True,15
002M29,249,experiment,168,→,right,→,0.5778247001580894,True,15
002M29,250,experiment,144,→,left,←,0.4927363998722285,False,15
002M29,251,experiment,156,←,left,←,0.5881642999593168,True,15
002M29,252,experiment,12,→,right,→,0.5167961998376995,True,15
002M29,253,experiment,48,↑,up,↑,0.616902400040999,True,15
002M29,254,experiment,120,←,right,→,0.6179942998569459,False,15
002M29,255,experiment,180,↓,down,↓,0.5431502000428736,True,15
002M29,256,experiment,24,←,left,←,0.6699379000347108,True,15
002M29,257,experiment,108,↑,up,↑,0.6015955000184476,True,15
002M29,258,experiment,180,←,left,←,0.9118694998323917,True,15
002M29,259,experiment,96,↓,down,↓,0.7823269998189062,True,15
002M29,260,experiment,180,↓,down,↓,0.5572682998608798,True,15
002M29,261,experiment,72,←,left,←,1.0564805001486093,True,15
002M29,262,experiment,108,→,right,→,0.9551473001483828,True,15
002M29,263,experiment,120,←,left,←,0.639489599969238,True,15
002M29,264,experiment,72,←,left,←,0.6168488999828696,True,15
002M29,265,experiment,144,↑,down,↓,0.996110999956727,False,15
002M29,266,experiment,132,↑,up,↑,1.0413853998761624,True,15
002M29,267,experiment,36,→,right,→,1.1119413999840617,True,15
002M29,268,experiment,12,←,left,←,0.806827399879694,True,15
002M29,269,experiment,168,→,left,←,0.6343803000636399,False,15
002M29,270,experiment,84,↑,up,↑,0.8864033999852836,True,15
002M29,271,experiment,84,→,left,←,0.6921345998998731,False,15
002M29,272,experiment,144,↓,up,↑,0.9409698001109064,False,15
002M29,273,experiment,12,→,right,→,0.5923818000592291,True,15
002M29,274,experiment,180,→,left,←,0.6635839000809938,False,15
002M29,275,experiment,132,←,left,←,0.4313405000139028,True,15
002M29,276,experiment,156,↓,left,←,0.7261432001832873,False,15
002M29,277,experiment,36,↓,down,↓,0.6343608000315726,True,15
002M29,278,experiment,96,←,left,←,0.4725560999941081,True,15
002M29,279,experiment,12,←,left,←,0.49701890000142157,True,15
002M29,280,experiment,120,←,left,←,0.5269061999861151,True,15
002M29,281,experiment,84,↑,up,↑,0.5071033998392522,True,15
002M29,282,experiment,36,↑,up,↑,0.5134316999465227,True,15
002M29,283,training,180,↑,up,↑,0.5520428998861462,True,15
002M29,284,training,72,←,left,←,0.6231743001844734,True,15
002M29,285,training,24,→,left,←,0.8857963001355529,False,15
002M29,286,experiment,84,↑,up,↑,0.5414915999863297,True,15
002M29,287,experiment,132,↑,up,↑,0.44906060001812875,True,15
002M29,288,experiment,60,↑,up,↑,0.44509749999269843,True,15
002M29,289,experiment,108,↓,down,↓,0.604396800044924,True,15
002M29,290,experiment,108,→,right,→,0.701821899972856,True,15
002M29,291,experiment,36,←,left,←,0.7243772000074387,True,15
002M29,292,experiment,132,↓,left,←,0.9715160999912769,False,15
002M29,293,experiment,36,↑,up,↑,0.5590836000628769,True,15
002M29,294,experiment,24,↑,up,↑,0.4531743999104947,True,15
002M29,295,experiment,168,↓,down,↓,0.5575087000615895,True,15
002M29,296,experiment,120,↓,right,→,0.811865899944678,False,15
002M29,297,experiment,96,↑,up,↑,0.618169300025329,True,15
002M29,298,experiment,144,↓,up,↑,0.9424453000538051,False,15
002M29,299,experiment,12,→,left,←,0.7376695999410003,False,15
002M29,300,experiment,60,→,left,←,0.7005694000981748,False,15
002M29,301,experiment,168,←,left,←,0.6203852999024093,True,15
002M29,302,experiment,180,←,left,←,0.5770463000517339,True,15
002M29,303,experiment,60,↓,right,→,0.6635042000561953,False,15
002M29,304,experiment,120,→,right,→,0.6559780999086797,True,15
002M29,305,experiment,84,←,right,→,0.8305383999831975,False,15
002M29,306,experiment,24,↑,up,↑,0.5354780999477953,True,15
002M29,307,experiment,156,↑,up,↑,0.5745133999735117,True,15
002M29,308,experiment,12,↓,down,↓,0.6187966000288725,True,15
002M29,309,experiment,108,↓,right,→,0.7396841000299901,False,15
002M29,310,experiment,60,→,right,→,0.9473128998652101,True,15
002M29,311,experiment,144,←,right,→,0.5762064000591636,False,15
002M29,312,experiment,180,→,right,→,0.7490131999365985,True,15
002M29,313,experiment,180,→,right,→,0.5022586998529732,True,15
002M29,314,experiment,156,↓,up,↑,0.8539758999831975,False,15
002M29,315,experiment,144,↑,left,←,0.7895108999218792,False,15
002M29,316,experiment,48,↓,down,↓,0.8143736000638455,True,15
002M29,317,experiment,36,↑,up,↑,0.7500849000643939,True,15
002M29,318,experiment,156,→,right,→,0.7402989999391139,True,15
002M29,319,experiment,12,↑,right,→,1.4928629999049008,False,15
002M29,320,experiment,24,←,right,→,0.4874231000430882,False,15
002M29,321,experiment,72,←,left,←,0.9054173000622541,True,15
002M29,322,experiment,96,↑,up,↑,0.5469452999532223,True,15
002M29,323,experiment,96,↑,right,→,0.8701975999865681,False,15
002M29,324,experiment,72,→,right,→,0.7176121999509633,True,15
002M29,325,experiment,180,←,left,←,0.7490451000630856,True,15
002M29,326,experiment,84,→,right,→,0.6111051000189036,True,15
002M29,327,experiment,48,→,right,→,0.527233500033617,True,15
002M29,328,experiment,48,↓,down,↓,0.8593448000028729,True,15
002M29,329,experiment,36,↓,down,↓,0.571821500081569,True,15
002M29,330,experiment,144,←,left,←,0.5336453998461366,True,15
002M29,331,experiment,72,→,right,→,0.5389666999690235,True,15
002M29,332,experiment,96,→,right,→,0.777959099970758,True,15
002M29,333,experiment,12,←,left,←,0.7043416001833975,True,15
002M29,334,experiment,108,↓,down,↓,0.6288064999971539,True,15
002M29,335,experiment,168,↓,down,↓,0.6570739999879152,True,15
002M29,336,experiment,84,→,right,→,0.8115437000524253,True,15
002M29,337,experiment,72,↓,down,↓,0.9114184998907149,True,15
002M29,338,experiment,120,←,left,←,0.6669089000206441,True,15
002M29,339,experiment,168,←,left,←,0.5578242999035865,True,15
002M29,340,experiment,132,↑,up,↑,0.6741148000583053,True,15
002M29,341,experiment,156,↑,up,↑,0.5230690001044422,True,15
002M29,342,experiment,24,→,left,←,1.0074239000678062,False,15
002M29,343,experiment,48,→,right,→,0.6188628000672907,True,15
002M29,344,experiment,120,→,right,→,0.9989947997964919,True,15
002M29,345,experiment,132,↓,up,↑,1.2392929000779986,False,15
002M29,346,training,156,→,right,→,0.7019509999081492,True,15
002M29,347,training,60,↑,up,↑,0.7583224000409245,True,15
002M29,348,training,132,↑,down,↓,0.797549800015986,False,15
002M29,349,experiment,120,←,left,←,0.5033096000552177,True,15
002M29,350,experiment,144,↑,up,↑,0.5276601000223309,True,15
002M29,351,experiment,48,↓,up,↑,0.757978199981153,False,15
002M29,352,experiment,96,←,right,→,0.8140388999599963,False,15
002M29,353,experiment,168,←,left,←,0.6289534000679851,True,15
002M29,354,experiment,60,→,right,→,0.574339099926874,True,15
002M29,355,experiment,36,↑,up,↑,0.5066843000240624,True,15
002M29,356,experiment,132,→,right,→,0.5867560000624508,True,15
002M29,357,experiment,168,↑,right,→,1.7166265998966992,False,15
002M29,358,experiment,84,←,left,←,0.5356765000615269,True,15
002M29,359,experiment,84,←,right,→,0.6488649998791516,False,15
002M29,360,experiment,24,→,right,→,0.9913138998672366,True,15
002M29,361,experiment,108,→,left,←,0.9909039000049233,False,15
002M29,362,experiment,180,↑,left,←,1.0910515000578016,False,15
002M29,363,experiment,144,→,left,←,0.8997076000086963,False,15
002M29,364,experiment,120,→,right,→,0.8531895000487566,True,15
002M29,365,experiment,48,↑,up,↑,0.6913495999760926,True,15
002M29,366,experiment,24,←,left,←,1.5328122999053448,True,15
002M29,367,experiment,48,↑,right,→,0.8244804998394102,False,15
002M29,368,experiment,108,↑,right,→,0.6856891999486834,False,15
002M29,369,experiment,144,→,right,→,0.6037437000777572,True,15
002M29,370,experiment,168,↓,up,↑,0.9731639998499304,False,15
002M29,371,experiment,24,↑,down,↓,1.1619484999682754,False,15
002M29,372,experiment,156,↓,down,↓,0.7889809000771493,True,15
002M29,373,experiment,36,←,left,←,0.7100539999082685,True,15
002M29,374,experiment,60,←,left,←,0.7181142000481486,True,15
002M29,375,experiment,96,↑,up,↑,0.5618603001348674,True,15
002M29,376,experiment,180,←,left,←,1.111398700159043,True,15
002M29,377,experiment,96,←,left,←,0.8559928999748081,True,15
002M29,378,experiment,60,→,right,→,0.963848500046879,True,15
002M29,379,experiment,84,←,left,←,0.7787690998520702,True,15
002M29,380,experiment,180,↑,up,↑,1.247383200097829,True,15
002M29,381,experiment,72,↑,down,↓,0.7542009998578578,False,15
002M29,382,experiment,72,↑,up,↑,0.6717599001713097,True,15
002M29,383,experiment,12,↑,left,←,0.8956800000742078,False,15
002M29,384,experiment,36,↓,down,↓,0.6005224999971688,True,15
002M29,385,experiment,84,↑,up,↑,0.5567787000909448,True,15
002M29,386,experiment,72,↓,down,↓,0.8319041000213474,True,15
002M29,387,experiment,156,→,left,←,0.6431436000857502,False,15
002M29,388,experiment,156,→,left,←,0.6289729999843985,False,15
002M29,389,experiment,168,→,left,←,0.44400690007023513,False,15
002M29,390,experiment,132,←,left,←,0.810622800141573,True,15
002M29,391,experiment,132,↑,up,↑,0.8624580998439342,True,15
002M29,392,experiment,12,→,no_key,no_letter,-1.0,False,15
002M29,393,experiment,120,↓,down,↓,0.6120223999023438,True,15
002M29,394,experiment,156,→,left,←,0.5908458000048995,False,15
002M29,395,experiment,132,→,right,→,0.5400281001348048,True,15
002M29,396,experiment,108,↑,down,↓,0.7841211999766529,False,15
002M29,397,experiment,120,↓,down,↓,0.7335189001169056,True,15
002M29,398,experiment,180,↓,down,↓,0.9398342000786215,True,15
002M29,399,experiment,12,→,left,←,0.7625806999858469,False,15
002M29,400,experiment,72,→,right,→,0.5364715999457985,True,15
002M29,401,experiment,96,↑,up,↑,0.5765230997931212,True,15
002M29,402,experiment,12,→,right,→,0.6442134999670088,True,15
002M29,403,experiment,144,↑,up,↑,0.6330168000422418,True,15
002M29,404,experiment,48,↑,up,↑,0.85526750003919,True,15
002M29,405,experiment,24,↓,down,↓,0.5999084999784827,True,15
002M29,406,experiment,60,↑,down,↓,0.9509266999084502,False,15
002M29,407,experiment,108,←,left,←,0.6122749999631196,True,15
002M29,408,experiment,36,↑,up,↑,0.676182100083679,True,15
002M29,409,training,84,↓,down,↓,0.60666189994663,True,15
002M29,410,training,96,→,left,←,0.5527888000942767,False,15
002M29,411,training,96,←,left,←,0.4773918997962028,True,15
002M29,412,experiment,168,←,left,←,0.49491909984499216,True,15
002M29,413,experiment,144,↓,left,←,1.075775200035423,False,15
002M29,414,experiment,120,↑,left,←,0.6648999000899494,False,15
002M29,415,experiment,168,↓,down,↓,0.6077502002008259,True,15
002M29,416,experiment,24,↓,down,↓,0.7278430999722332,True,15
002M29,417,experiment,156,↓,down,↓,0.7491800999268889,True,15
002M29,418,experiment,132,↓,down,↓,0.697959499899298,True,15
002M29,419,experiment,24,←,right,→,0.662638199981302,False,15
002M29,420,experiment,96,→,right,→,0.5613752000499517,True,15
002M29,421,experiment,84,↓,down,↓,0.6588584999553859,True,15
002M29,422,experiment,120,↓,down,↓,0.6407126002013683,True,15
002M29,423,experiment,180,↑,down,↓,0.964466999983415,False,15
002M29,424,experiment,120,←,left,←,0.9621892001014203,True,15
002M29,425,experiment,24,→,right,→,0.6543930999469012,True,15
002M29,426,experiment,36,←,right,→,0.6872816998511553,False,15
002M29,427,experiment,48,↑,right,→,0.8176357999909669,False,15
002M29,428,experiment,132,→,right,→,0.8313960998784751,True,15
002M29,429,experiment,156,↓,up,↑,0.8625870998948812,False,15
002M29,430,experiment,108,↓,up,↑,0.7961871998850256,False,15
002M29,431,experiment,84,→,right,→,0.6505259999539703,True,15
002M29,432,experiment,144,→,right,→,0.6959545998834074,True,15
002M29,433,experiment,120,→,right,→,0.520291900029406,True,15
002M29,434,experiment,12,→,right,→,0.6164617999456823,True,15
002M29,435,experiment,156,↓,right,→,0.7168719999026507,False,15
002M29,436,experiment,132,↑,up,↑,0.6372523999307305,True,15
002M29,437,experiment,36,↓,down,↓,0.6090477998368442,True,15
002M29,438,experiment,180,→,right,→,0.5261600001249462,True,15
002M29,439,experiment,144,↑,up,↑,0.5426611001603305,True,15
002M29,440,experiment,12,↓,down,↓,0.6053112999070436,True,15
002M29,441,experiment,72,→,left,←,0.8540428997948766,False,15
002M29,442,experiment,168,↓,down,↓,0.6098384999204427,True,15
002M29,443,experiment,156,→,right,→,0.4967477999161929,True,15
002M29,444,experiment,108,←,left,←,0.8228273000568151,True,15
002M29,445,experiment,12,←,left,←,0.6354146001394838,True,15
002M29,446,experiment,108,←,right,→,0.6837462999392301,False,15
002M29,447,experiment,60,↑,up,↑,0.5381467998959124,True,15
002M29,448,experiment,96,↑,up,↑,0.6439173999242485,True,15
002M29,449,experiment,48,↑,right,→,0.8076810000929981,False,15
002M29,450,experiment,180,→,left,←,0.7262418998870999,False,15
002M29,451,experiment,96,↓,right,→,0.8733276999555528,False,15
002M29,452,experiment,108,↓,up,↑,0.6855354998260736,False,15
002M29,453,experiment,60,↓,up,↑,0.7170214001089334,False,15
002M29,454,experiment,96,↑,up,↑,0.5621068999171257,True,15
002M29,455,experiment,180,←,left,←,0.7859118999913335,True,15
002M29,456,experiment,36,←,left,←,0.6887544998899102,True,15
002M29,457,experiment,72,↑,up,↑,0.7950013999361545,True,15
002M29,458,experiment,84,←,left,←,0.7183530000038445,True,15
002M29,459,experiment,72,→,left,←,0.5939491000026464,False,15
002M29,460,experiment,12,↓,down,↓,0.6424519999418408,True,15
002M29,461,experiment,132,←,left,←,0.5354241000022739,True,15
002M29,462,experiment,84,↓,down,↓,1.3403898999094963,True,15
002M29,463,experiment,36,↓,down,↓,0.7927631000056863,True,15
002M29,464,experiment,60,↑,down,↓,0.5913217000197619,False,15
002M29,465,experiment,48,↑,up,↑,0.5536962000187486,True,15
002M29,466,experiment,168,←,right,→,0.777374800061807,False,15
002M29,467,experiment,72,←,right,→,0.8047798001207411,False,15
002M29,468,experiment,60,←,left,←,0.6614189001265913,True,15
002M29,469,experiment,24,↓,right,→,0.7070965999737382,False,15
002M29,470,experiment,144,↑,up,↑,0.580015700077638,True,15
002M29,471,experiment,48,→,left,←,1.3370920000597835,False,15
002M29,472,training,120,→,left,←,0.9100003999192268,False,15
002M29,473,training,132,←,left,←,0.5497088001575321,True,15
002M29,474,training,156,↑,up,↑,0.5924688999075443,True,15
002M29,475,experiment,108,↑,up,↑,0.544095000019297,True,15
002M29,476,experiment,120,→,right,→,0.8474100998137146,True,15
002M29,477,experiment,168,↑,up,↑,0.6944060001987964,True,15
002M29,478,experiment,132,←,left,←,0.5942659000866115,True,15
002M29,479,experiment,180,→,right,→,0.7644279000815004,True,15
002M29,480,experiment,48,←,right,→,0.8967844999860972,False,15
002M29,481,experiment,48,↑,up,↑,0.8941152999177575,True,15
002M29,482,experiment,60,←,left,←,0.6044908999465406,True,15
002M29,483,experiment,180,←,right,→,0.7114091999828815,False,15
002M29,484,experiment,60,←,left,←,0.5740862998645753,True,15
002M29,485,experiment,48,→,right,→,0.6333755999803543,True,15
002M29,486,experiment,144,←,left,←,0.6485033999197185,True,15
002M29,487,experiment,120,↑,up,↑,0.5533799999393523,True,15
002M29,488,experiment,36,↓,down,↓,0.7871538999024779,True,15
002M29,489,experiment,180,↑,up,↑,0.5244694999419153,True,15
002M29,490,experiment,96,↑,up,↑,0.5447166000958532,True,15
002M29,491,experiment,132,↑,down,↓,1.2449886000249535,False,15
002M29,492,experiment,24,→,right,→,0.6330812999513,True,15
002M29,493,experiment,12,→,right,→,0.9496617000550032,True,15
002M29,494,experiment,12,←,right,→,0.7023090999573469,False,15
002M29,495,experiment,180,→,left,←,0.7639057000633329,False,15
002M29,496,experiment,120,↓,down,↓,0.7549256000202149,True,15
002M29,497,experiment,108,→,left,←,0.9595500000286847,False,15
002M29,498,experiment,12,↑,up,↑,0.6350918000098318,True,15
002M29,499,experiment,60,←,right,→,0.4997662999667227,False,15
002M29,500,experiment,144,↑,right,→,0.6921014999970794,False,15
002M29,501,experiment,12,→,left,←,0.6023639999330044,False,15
002M29,502,experiment,96,→,right,→,0.6132710000965744,True,15
002M29,503,experiment,84,→,right,→,0.6482730999123305,True,15
002M29,504,experiment,108,→,right,→,0.5187918001320213,True,15
002M29,505,experiment,96,←,left,←,0.8201854999642819,True,15
002M29,506,experiment,108,→,right,→,0.5785246000159532,True,15
002M29,507,experiment,144,↓,down,↓,0.6241157001350075,True,15
002M29,508,experiment,132,→,left,←,0.7150787999853492,False,15
002M29,509,experiment,24,←,left,←,0.6751002999953926,True,15
002M29,510,experiment,72,←,left,←,0.5704282999504358,True,15
002M29,511,experiment,144,↑,up,↑,0.5751358000561595,True,15
002M29,512,experiment,60,↑,up,↑,0.6102422000840306,True,15
002M29,513,experiment,24,↑,down,↓,1.1187183000147343,False,15
002M29,514,experiment,72,↓,down,↓,0.7498927998822182,True,15
002M29,515,experiment,84,↑,down,↓,1.3603300000540912,False,15
002M29,516,experiment,72,↑,up,↑,0.5549238999374211,True,15
002M29,517,experiment,156,→,left,←,0.8643978999461979,False,15
002M29,518,experiment,36,↓,down,↓,0.8649971999693662,True,15
002M29,519,experiment,132,→,left,←,0.5434403999242932,False,15
002M29,520,experiment,168,↑,down,↓,1.2682246000040323,False,15
002M29,521,experiment,96,↑,down,↓,0.9897982999682426,False,15
002M29,522,experiment,84,↑,up,↑,0.7263748999685049,True,15
002M29,523,experiment,48,↓,down,↓,0.6222034997772425,True,15
002M29,524,experiment,36,↑,up,↑,0.6520038000307977,True,15
002M29,525,experiment,168,→,right,→,0.6012077000923455,True,15
002M29,526,experiment,84,→,right,→,1.0634341000113636,True,15
002M29,527,experiment,36,↓,left,←,1.0772645000834018,False,15
002M29,528,experiment,156,←,left,←,0.5851163999177516,True,15
002M29,529,experiment,120,→,right,→,0.6531400000676513,True,15
002M29,530,experiment,156,↓,up,↑,0.8370533001143485,False,15
002M29,531,experiment,168,←,left,←,0.674335699994117,True,15
002M29,532,experiment,24,→,left,←,0.9982661998365074,False,15
002M29,533,experiment,72,←,left,←,0.6163460998795927,True,15
002M29,534,experiment,156,←,left,←,0.4677250999957323,True,15
002M29,535,training,84,↑,down,↓,0.5778501001186669,False,15
002M29,536,training,48,↓,up,↑,0.7458794000558555,False,15
002M29,537,training,12,↓,down,↓,0.608511800179258,True,15
002M29,538,experiment,156,↑,down,↓,0.8121450000908226,False,15
002M29,539,experiment,84,↑,up,↑,0.5351066999137402,True,15
002M29,540,experiment,96,↑,down,↓,0.6550932000391185,False,15
002M29,541,experiment,144,→,left,←,0.6821208000183105,False,15
002M29,542,experiment,108,←,left,←,0.9835528999101371,True,15
002M29,543,experiment,96,→,left,←,0.6116008998360485,False,15
002M29,544,experiment,48,←,left,←,0.5114792000968009,True,15
002M29,545,experiment,12,↓,up,↑,0.8483384000137448,False,15
002M29,546,experiment,12,←,left,←,0.48881349992007017,True,15
002M29,547,experiment,36,↓,up,↑,0.6945007001049817,False,15
002M29,548,experiment,180,↑,up,↑,0.5456164998468012,True,15
002M29,549,experiment,120,↑,up,↑,0.6825782998930663,True,15
002M29,550,experiment,24,↑,up,↑,0.6953437000047415,True,15
002M29,551,experiment,120,←,left,←,0.556260900106281,True,15
002M29,552,experiment,48,↑,up,↑,0.5183421999681741,True,15
002M29,553,experiment,168,←,left,←,0.6191201000474393,True,15
002M29,554,experiment,24,→,left,←,0.6482779001817107,False,15
002M29,555,experiment,144,←,left,←,0.4731151999440044,True,15
002M29,556,experiment,48,←,left,←,0.5589697998948395,True,15
002M29,557,experiment,108,↑,left,←,0.9772350999992341,False,15
002M29,558,experiment,36,↑,left,←,0.6939741999376565,False,15
002M29,559,experiment,144,→,left,←,0.6631390999536961,False,15
002M29,560,experiment,36,→,left,←,0.8082150998525321,False,15
002M29,561,experiment,168,↓,left,←,0.9962627000641078,False,15
002M29,562,experiment,60,→,left,←,0.6797811998985708,False,15
002M29,563,experiment,132,↓,down,↓,0.6878541999030858,True,15
002M29,564,experiment,72,↓,down,↓,0.9726738000754267,True,15
002M29,565,experiment,108,↓,down,↓,0.6935882000252604,True,15
002M29,566,experiment,96,↑,down,↓,0.8401727001182735,False,15
002M29,567,experiment,156,→,left,←,0.6691330999601632,False,15
002M29,568,experiment,132,↑,up,↑,0.6835612000431865,True,15
002M29,569,experiment,12,←,right,→,1.0006071000825614,False,15
002M29,570,experiment,84,←,right,→,0.6126593998633325,False,15
002M29,571,experiment,180,←,right,→,0.9072573001030833,False,15
002M29,572,experiment,156,→,right,→,0.6838297999929637,True,15
002M29,573,experiment,84,←,left,←,0.5825000999029726,True,15
002M29,574,experiment,72,←,right,→,0.8146717001218349,False,15
002M29,575,experiment,132,↑,up,↑,0.6131476000882685,True,15
002M29,576,experiment,144,↓,down,↓,0.8805050000082701,True,15
002M29,577,experiment,84,↓,right,→,0.7071064999327064,False,15
002M29,578,experiment,168,→,left,←,0.6216924001928419,False,15
002M29,579,experiment,168,↓,up,↑,0.7502704998478293,False,15
002M29,580,experiment,120,↑,right,→,1.1924844000022858,False,15
002M29,581,experiment,36,→,right,→,1.0012401000130922,True,15
002M29,582,experiment,72,↑,down,↓,0.6299717000219971,False,15
002M29,583,experiment,72,←,left,←,0.5361338001675904,True,15
002M29,584,experiment,96,↑,up,↑,0.4899073999840766,True,15
002M29,585,experiment,24,↑,no_key,no_letter,-1.0,False,15
002M29,586,experiment,60,←,right,→,0.860275800107047,False,15
002M29,587,experiment,60,↓,down,↓,0.6919925000984222,True,15
002M29,588,experiment,108,←,left,←,0.7736071001272649,True,15
002M29,589,experiment,120,↓,down,↓,0.8131621000356972,True,15
002M29,590,experiment,60,↑,up,↑,1.1833085000980645,True,15
002M29,591,experiment,180,→,left,←,0.6950207001063973,False,15
002M29,592,experiment,156,→,right,→,0.7739196000620723,True,15
002M29,593,experiment,12,↑,down,↓,1.5233338000252843,False,15
002M29,594,experiment,48,→,right,→,0.757155800005421,True,15
002M29,595,experiment,24,←,left,←,0.5651914000045508,True,15
002M29,596,experiment,132,←,left,←,0.6105117001570761,True,15
002M29,597,experiment,180,→,left,←,0.7272083000279963,False,15
002M29,598,training,84,←,left,←,0.5088785998523235,True,16
002M29,599,training,120,→,left,←,0.6008507998194546,False,16
002M29,600,training,60,→,right,→,0.9095361998770386,True,16
002M29,601,experiment,168,↓,right,→,0.9549922998994589,False,16
002M29,602,experiment,48,↓,up,↑,0.572039799997583,False,16
002M29,603,experiment,36,↓,up,↑,0.6435863999649882,False,16
002M29,604,experiment,144,←,left,←,0.6904796999879181,True,16
002M29,605,experiment,180,→,left,←,0.7758380998857319,False,16
002M29,606,experiment,12,→,left,←,0.9155667000450194,False,16
002M29,607,experiment,24,↑,up,↑,1.1363345000427216,True,16
002M29,608,experiment,132,←,left,←,0.6585459001362324,True,16
002M29,609,experiment,156,←,right,→,1.0551595001015812,False,16
002M29,610,experiment,120,→,right,→,1.0974971000105143,True,16
002M29,611,experiment,72,→,left,←,0.6427649999968708,False,16
002M29,612,experiment,12,↓,down,↓,0.7164495999459177,True,16
002M29,613,experiment,24,→,left,←,0.6520046000368893,False,16
002M29,614,experiment,120,↑,up,↑,0.8665382999461144,True,16
002M29,615,experiment,36,↑,down,↓,0.9298078001011163,False,16
002M29,616,experiment,180,→,right,→,0.5883467001840472,True,16
002M29,617,experiment,84,→,left,←,0.645580800017342,False,16
002M29,618,experiment,108,←,right,→,0.6138962998520583,False,16
002M29,619,experiment,96,↓,down,↓,0.5688600998837501,True,16
002M29,620,experiment,36,↑,no_key,no_letter,-1.0,False,16
002M29,621,experiment,96,↓,right,→,0.523797599831596,False,16
002M29,622,experiment,72,↓,down,↓,0.6296836999244988,True,16
002M29,623,experiment,168,↓,down,↓,0.5696177000645548,True,16
002M29,624,experiment,36,→,left,←,0.4573313998989761,False,16
002M29,625,experiment,96,←,left,←,0.643464099848643,True,16
002M29,626,experiment,132,↑,up,↑,0.5968347999732941,True,16
002M29,627,experiment,12,→,left,←,0.654146800050512,False,16
002M29,628,experiment,24,↓,down,↓,0.5524155001621693,True,16
002M29,629,experiment,48,↑,up,↑,0.9698204000014812,True,16
002M29,630,experiment,168,←,left,←,0.530034399824217,True,16
002M29,631,experiment,120,→,left,←,0.728208800079301,False,16
002M29,632,experiment,72,→,left,←,0.5632714999374002,False,16
002M29,633,experiment,24,↑,right,→,0.9540816999506205,False,16
002M29,634,experiment,144,↓,down,↓,0.5215457999147475,True,16
002M29,635,experiment,84,↓,right,→,0.6022834999021143,False,16
002M29,636,experiment,180,↑,down,↓,0.8396721000317484,False,16
002M29,637,experiment,120,→,right,→,0.5857057999819517,True,16
002M29,638,experiment,60,→,left,←,0.49373820004984736,False,16
002M29,639,experiment,132,↓,down,↓,0.5778669998981059,True,16
002M29,640,experiment,84,↑,down,↓,0.9623125998768955,False,16
002M29,641,experiment,84,→,right,→,0.6665146998129785,True,16
002M29,642,experiment,108,→,right,→,0.8039474999532104,True,16
002M29,643,experiment,60,→,right,→,0.651971299899742,True,16
002M29,644,experiment,168,→,right,→,0.7065133000724018,True,16
002M29,645,experiment,108,↑,up,↑,0.6491161999292672,True,16
002M29,646,experiment,108,→,right,→,0.6720280000008643,True,16
002M29,647,experiment,180,←,right,→,0.47725820005871356,False,16
002M29,648,experiment,48,→,left,←,0.5596805999521166,False,16
002M29,649,experiment,132,→,right,→,0.7682624999433756,True,16
002M29,650,experiment,156,↑,up,↑,0.5902337001170963,True,16
002M29,651,experiment,48,←,left,←,0.5675684998277575,True,16
002M29,652,experiment,144,↓,up,↑,0.6507115000858903,False,16
002M29,653,experiment,12,→,right,→,0.9806905000004917,True,16
002M29,654,experiment,60,↑,up,↑,0.4998131999745965,True,16
002M29,655,experiment,96,←,right,→,0.7073977999389172,False,16
002M29,656,experiment,144,↓,down,↓,0.7432603999041021,True,16
002M29,657,experiment,72,→,right,→,0.5833650000859052,True,16
002M29,658,experiment,156,↓,right,→,0.682136100018397,False,16
002M29,659,experiment,156,→,left,←,0.4941098000854254,False,16
002M29,660,experiment,60,←,right,→,0.6246819000225514,False,16
002M29,661,training,48,↓,down,↓,1.0024063000455499,True,17
002M29,662,training,120,→,left,←,0.7399516000878066,False,17
002M29,663,training,72,←,right,→,0.6794970999471843,False,17
002M29,664,experiment,168,↓,right,→,0.6008323000278324,False,17
002M29,665,experiment,60,→,left,←,0.5624096998944879,False,17
002M29,666,experiment,144,↑,up,↑,0.547076900023967,True,17
002M29,667,experiment,144,←,left,←,0.48840259993448853,True,17
002M29,668,experiment,96,→,left,←,0.5402517998591065,False,17
002M29,669,experiment,168,←,left,←,0.5423004999756813,True,17
002M29,670,experiment,60,←,left,←,0.5983221000060439,True,17
002M29,671,experiment,72,↑,up,↑,0.5610217999201268,True,17
002M29,672,experiment,72,→,right,→,0.5142745000775903,True,17
002M29,673,experiment,96,←,left,←,0.4821603999007493,True,17
002M29,674,experiment,156,←,left,←,0.5123562999069691,True,17
002M29,675,experiment,36,←,right,→,0.5566385998390615,False,17
002M29,676,experiment,84,→,left,←,0.5202047000639141,False,17
002M29,677,experiment,72,↑,up,↑,0.6650896000210196,True,17
002M29,678,experiment,60,↑,up,↑,0.5048632000107318,True,17
002M29,679,experiment,24,←,right,→,0.606544499984011,False,17
002M29,680,experiment,12,↑,up,↑,0.654704499989748,True,17
002M29,681,experiment,12,↓,up,↑,0.6124306998681277,False,17
002M29,682,experiment,144,←,left,←,0.499747300054878,True,17
002M29,683,experiment,180,←,right,→,0.4692985999863595,False,17
002M29,684,experiment,96,↑,up,↑,0.4811136999633163,True,17
002M29,685,experiment,24,→,left,←,0.5251771998591721,False,17
002M29,686,experiment,36,↓,up,↑,0.5034268999006599,False,17
002M29,687,experiment,48,←,left,←,0.4764830998610705,True,17
002M29,688,experiment,72,↓,down,↓,0.609492399962619,True,17
002M29,689,experiment,132,↓,down,↓,0.8177744999993593,True,17
002M29,690,experiment,156,←,left,←,0.6831079998519272,True,17
002M29,691,experiment,48,↑,up,↑,0.46546410000883043,True,17
002M29,692,experiment,108,→,right,→,0.7003592001274228,True,17
002M29,693,experiment,48,↓,up,↑,0.5651926000136882,False,17
002M29,694,experiment,120,→,left,←,0.7011378000024706,False,17
002M29,695,experiment,180,↓,down,↓,0.871682200115174,True,17
002M29,696,experiment,132,←,left,←,0.7594407999422401,True,17
002M29,697,experiment,120,↓,right,→,0.6950628000777215,False,17
002M29,698,experiment,36,←,right,→,0.539967600023374,False,17
002M29,699,experiment,132,→,right,→,0.6150178001262248,True,17
002M29,700,experiment,108,↓,up,↑,0.6206973998341709,False,17
002M29,701,experiment,24,↓,down,↓,0.8056406998075545,True,17
002M29,702,experiment,180,↑,up,↑,0.6608804001007229,True,17
002M29,703,experiment,168,←,left,←,0.6006426000967622,True,17
002M29,704,experiment,168,↑,up,↑,0.5159050999209285,True,17
002M29,705,experiment,156,→,right,→,0.6742991998326033,True,17
002M29,706,experiment,144,→,right,→,0.5324434998910874,True,17
002M29,707,experiment,96,→,right,→,0.5746253000106663,True,17
002M29,708,experiment,180,↑,up,↑,0.5406762000638992,True,17
002M29,709,experiment,12,→,left,←,0.6285208999179304,False,17
002M29,710,experiment,60,↑,no_key,no_letter,-1.0,False,17
002M29,711,experiment,84,↓,right,→,1.1311005000025034,False,17
002M29,712,experiment,120,←,left,←,1.1141426998656243,True,17
002M29,713,experiment,108,←,left,←,0.7235264000482857,True,17
002M29,714,experiment,12,←,left,←,0.7998343999497592,True,17
002M29,715,experiment,120,←,left,←,0.6180220998357981,True,17
002M29,716,experiment,108,↓,down,↓,0.6420176001265645,True,17
002M29,717,experiment,156,←,left,←,0.9294082999695092,True,17
002M29,718,experiment,48,↓,down,↓,0.6632234000135213,True,17
002M29,719,experiment,36,↓,down,↓,1.0061842000577599,True,17
002M29,720,experiment,84,←,left,←,0.6024385998025537,True,17
002M29,721,experiment,84,↓,down,↓,0.6029779999516904,True,17
002M29,722,experiment,24,↑,up,↑,0.8775865000206977,True,17
002M29,723,experiment,132,←,left,←,0.658787399996072,True,17
002M29,724,training,96,→,right,→,0.6749309999868274,True,17
002M29,725,training,24,↑,up,↑,0.7998941000550985,True,17
002M29,726,training,96,→,right,→,1.0394268000964075,True,17
002M29,727,experiment,108,↓,down,↓,0.606668199878186,True,17
002M29,728,experiment,96,←,right,→,0.6105698000174016,False,17
002M29,729,experiment,60,↓,right,→,0.7495278001297265,False,17
002M29,730,experiment,132,←,right,→,0.6520670000463724,False,17
002M29,731,experiment,36,←,left,←,0.5756208000238985,True,17
002M29,732,experiment,156,←,left,←,0.49004260008223355,True,17
002M29,733,experiment,108,↓,right,→,0.6059497999958694,False,17
002M29,734,experiment,24,↑,up,↑,0.590394799830392,True,17
002M29,735,experiment,156,←,left,←,0.5627327000256628,True,17
002M29,736,experiment,180,→,right,→,0.5295538001228124,True,17
002M29,737,experiment,120,↑,up,↑,0.6815751998219639,True,17
002M29,738,experiment,120,←,left,←,0.5098238000646234,True,17
002M29,739,experiment,36,↑,right,→,0.6905761000234634,False,17
002M29,740,experiment,12,↑,up,↑,0.5859226998873055,True,17
002M29,741,experiment,144,↓,up,↑,0.4785889000631869,False,17
002M29,742,experiment,96,↑,right,→,0.6221453999169171,False,17
002M29,743,experiment,180,↑,up,↑,0.5972829000093043,True,17
002M29,744,experiment,168,↑,up,↑,0.46427599992603064,True,17
002M29,745,experiment,72,↓,down,↓,0.537422199966386,True,17
002M29,746,experiment,60,↓,down,↓,0.5508143999613822,True,17
002M29,747,experiment,48,→,right,→,0.5617094000335783,True,17
002M29,748,experiment,108,→,right,→,0.48972120019607246,True,17
002M29,749,experiment,144,↓,down,↓,0.6413167000282556,True,17
002M29,750,experiment,72,↑,down,↓,0.6797952998895198,False,17
002M29,751,experiment,96,←,left,←,0.5724445998203009,True,17
002M29,752,experiment,168,←,right,→,0.4596178999636322,False,17
002M29,753,experiment,84,↓,down,↓,0.6111920999828726,True,17
002M29,754,experiment,72,↑,down,↓,0.6614719999488443,False,17
002M29,755,experiment,84,↓,down,↓,0.6231605999637395,True,17
002M29,756,experiment,12,→,left,←,1.0465571999084204,False,17
002M29,757,experiment,168,←,left,←,0.6756736999377608,True,17
002M29,758,experiment,156,↓,down,↓,0.5948292999528348,True,17
002M29,759,experiment,144,→,right,→,0.5928641001228243,True,17
002M29,760,experiment,24,↑,left,←,1.0330829999875277,False,17
002M29,761,experiment,180,↑,left,←,0.6508283999282867,False,17
002M29,762,experiment,180,↓,down,↓,0.7670239999424666,True,17
002M29,763,experiment,24,↓,up,↑,1.0844757000450045,False,17
002M29,764,experiment,12,↓,left,←,1.2151261998806149,False,17
002M29,765,experiment,132,↑,up,↑,1.7271750001236796,True,17
002M29,766,experiment,36,←,left,←,0.6871734999585897,True,17
002M29,767,experiment,72,←,left,←,0.618686999892816,True,17
002M29,768,experiment,60,←,left,←,0.5844354999717325,True,17
002M29,769,experiment,156,←,left,←,0.5732332000043243,True,17
002M29,770,experiment,48,↑,left,←,1.1634978000074625,False,17
002M29,771,experiment,60,↑,up,↑,0.6849770001135767,True,17
002M29,772,experiment,12,↑,up,↑,0.996000099927187,True,17
002M29,773,experiment,120,↓,up,↑,0.9000256999861449,False,17
002M29,774,experiment,108,↑,up,↑,0.6505152999889106,True,17
002M29,775,experiment,84,↑,up,↑,0.5151895000599325,True,17
002M29,776,experiment,24,←,left,←,0.697052099974826,True,17
002M29,777,experiment,132,↓,down,↓,0.7122023000847548,True,17
002M29,778,experiment,132,↓,up,↑,0.931273499969393,False,17
002M29,779,experiment,48,↑,up,↑,0.7050135000608861,True,17
002M29,780,experiment,84,↑,up,↑,0.6956933999899775,True,17
002M29,781,experiment,144,→,right,→,0.7572276000864804,True,17
002M29,782,experiment,168,→,left,←,0.5185938999056816,False,17
002M29,783,experiment,36,↓,right,→,0.6578307999297976,False,17
002M29,784,experiment,120,↓,down,↓,0.6687747999094427,True,17
002M29,785,experiment,96,←,left,←,0.7382773000281304,True,17
002M29,786,experiment,48,↑,down,↓,0.7732151001691818,False,17
002M29,787,training,96,→,right,→,0.6726879999041557,True,17
002M29,788,training,12,↑,right,→,0.6083624998573214,False,17
002M29,789,training,180,↓,down,↓,0.6068810999859124,True,17
002M29,790,experiment,120,↑,right,→,0.7255309000611305,False,17
002M29,791,experiment,60,↑,up,↑,0.7252633001189679,True,17
002M29,792,experiment,144,↓,down,↓,0.7212165999226272,True,17
002M29,793,experiment,168,→,right,→,0.7099762998986989,True,17
002M29,794,experiment,60,←,right,→,0.7312368000857532,False,17
002M29,795,experiment,72,←,left,←,0.6895213001407683,True,17
002M29,796,experiment,168,↑,up,↑,0.6434915000572801,True,17
002M29,797,experiment,48,←,left,←,0.6179786999709904,True,17
002M29,798,experiment,108,↓,up,↑,0.6226348001509905,False,17
002M29,799,experiment,180,←,left,←,0.5373970000073314,True,17
002M29,800,experiment,180,→,left,←,0.547679299954325,False,17
002M29,801,experiment,168,↓,right,→,0.8137507000938058,False,17
002M29,802,experiment,84,←,left,←,0.6268901999574155,True,17
002M29,803,experiment,132,→,left,←,0.6557756999973208,False,17
002M29,804,experiment,96,←,left,←,0.6509461000096053,True,17
002M29,805,experiment,12,←,left,←,0.6435428999830037,True,17
002M29,806,experiment,156,→,right,→,0.6230350998230278,True,17
002M29,807,experiment,36,↑,down,↓,1.1252721999771893,False,17
002M29,808,experiment,72,←,left,←,0.5326413998845965,True,17
002M29,809,experiment,180,→,left,←,0.7576582001056522,False,17
002M29,810,experiment,84,↓,right,→,0.7389716999605298,False,17
002M29,811,experiment,60,↑,right,→,0.639988400042057,False,17
002M29,812,experiment,36,↑,up,↑,0.5807506998535246,True,17
002M29,813,experiment,168,↓,up,↑,0.6535083998460323,False,17
002M29,814,experiment,120,↓,up,↑,0.6336426998022944,False,17
002M29,815,experiment,24,←,right,→,0.768846700200811,False,17
002M29,816,experiment,72,→,right,→,0.4920340001117438,True,17
002M29,817,experiment,132,↑,up,↑,0.7213648001197726,True,17
002M29,818,experiment,36,↑,up,↑,0.506420599995181,True,17
002M29,819,experiment,120,←,right,→,0.5389503999613225,False,17
002M29,820,experiment,48,→,right,→,0.6844536999706179,True,17
002M29,821,experiment,12,↑,up,↑,0.5668636998161674,True,17
002M29,822,experiment,24,←,left,←,0.5413021999411285,True,17
002M29,823,experiment,156,→,right,→,0.4944873999338597,True,17
002M29,824,experiment,96,←,no_key,no_letter,-1.0,False,17
002M29,825,experiment,144,↓,up,↑,0.5295715001411736,False,17
002M29,826,experiment,96,→,no_key,no_letter,-1.0,False,17
002M29,827,experiment,156,→,left,←,0.6431351001374424,False,17
002M29,828,experiment,24,←,right,→,0.5864717001095414,False,17
002M29,829,experiment,120,↓,right,→,0.8506477000191808,False,17
002M29,830,experiment,96,↓,right,→,0.5886761997826397,False,17
002M29,831,experiment,12,→,right,→,0.46467990009114146,True,17
002M29,832,experiment,36,↓,left,←,0.867783399997279,False,17
002M29,833,experiment,60,→,right,→,0.5503646000288427,True,17
002M29,834,experiment,156,↓,up,↑,0.5282596999313682,False,17
002M29,835,experiment,48,→,right,→,0.5821909999940544,True,17
002M29,836,experiment,24,→,right,→,0.657029900001362,True,17
002M29,837,experiment,132,→,right,→,0.5342847998254001,True,17
002M29,838,experiment,144,↓,up,↑,0.5313132000155747,False,17
002M29,839,experiment,108,↑,down,↓,0.6414097999222577,False,17
002M29,840,experiment,84,↑,right,→,0.47071039979346097,False,17
002M29,841,experiment,48,↓,right,→,0.5538405999541283,False,17
002M29,842,experiment,108,→,right,→,0.5983555999118835,True,17
002M29,843,experiment,12,↑,down,↓,0.6980502000078559,False,17
002M29,844,experiment,72,↑,up,↑,0.5754745001904666,True,17
002M29,845,experiment,180,←,right,→,0.48062060005031526,False,17
002M29,846,experiment,84,↓,right,→,0.5064576999284327,False,17
002M29,847,experiment,132,→,right,→,0.5092279999516904,True,17
002M29,848,experiment,108,↓,right,→,0.8164560999721289,False,17
002M29,849,experiment,144,→,right,→,0.4686708999797702,True,17
