PART_ID,Trial_no,Trial_type,PDI,Stim_letter,Key_pressed,letter_choose,Rt,Corr,Stimulus Time
23K21,1,training,10,←,no_key,no_letter,-1.0,False,30
23K21,2,training,10,→,left,←,0.7272802999941632,False,30
23K21,3,training,10,←,right,→,0.18387130001792684,False,30
23K21,4,training,10,↓,left,←,0.15164569998160005,False,30
23K21,5,training,10,←,left,←,0.350466099975165,True,30
23K21,6,training,10,↓,right,→,0.23373199999332428,False,30
23K21,7,training,10,←,left,←,0.2838522999663837,True,30
23K21,8,training,10,↑,right,→,1.0583742000162601,False,30
23K21,9,training,10,↓,no_key,no_letter,-1.0,False,30
23K21,10,training,10,→,right,→,0.2496631999965757,True,30
23K21,11,training,10,→,down,↓,0.4009231000090949,False,30
23K21,12,training,10,↑,right,→,0.5671123000211082,False,30
23K21,13,training,10,↓,left,←,0.7990449000499211,False,30
23K21,14,training,10,→,left,←,0.1504597999737598,False,30
23K21,15,training,10,→,right,→,0.2503869999782182,True,30
23K21,16,training,10,↓,right,→,0.26718070002971217,False,30
23K21,17,training,10,↑,up,↑,0.2503969999961555,True,30
23K21,18,training,10,↑,left,←,0.36710889998357743,False,30
23K21,19,training,10,→,no_key,no_letter,-1.0,False,30
23K21,20,training,10,↑,up,↑,0.33370859996648505,True,30
23K21,21,training,10,←,up,↑,0.06706540001323447,False,18
23K21,22,training,10,↓,down,↓,0.21710319997509941,True,18
23K21,23,training,10,↓,up,↑,0.202026900020428,False,18
23K21,24,training,10,↓,left,←,0.1669654999859631,False,18
23K21,25,training,10,→,down,↓,0.11885070003336295,False,18
23K21,26,training,10,→,left,←,0.10107410000637174,False,18
23K21,27,training,10,↑,right,→,0.11755629989784211,False,18
23K21,28,training,10,↑,up,↑,0.0670741000212729,True,18
23K21,29,training,10,→,down,↓,0.10025349992793053,False,18
23K21,30,training,10,←,left,←,0.0671913999831304,True,18
23K21,31,training,108,↑,left,←,0.21708410000428557,False,15
23K21,32,training,60,↓,left,←,0.44048620003741235,False,15
23K21,33,training,84,←,up,↑,0.18376599997282028,False,15
23K21,34,experiment,12,↓,left,←,0.5564669000450522,False,15
23K21,35,experiment,120,↑,left,←,0.1351703000254929,False,15
23K21,36,experiment,84,↑,up,↑,0.16706360003445297,True,15
23K21,37,experiment,60,←,right,→,0.1506097000092268,False,15
23K21,38,experiment,156,↑,left,←,0.25061460002325475,False,15
23K21,39,experiment,36,→,right,→,0.36714210000354797,True,15
23K21,40,experiment,144,→,up,↑,0.21830629999749362,False,15
23K21,41,experiment,84,↑,left,←,0.48581019998528063,False,15
23K21,42,experiment,132,←,left,←,0.20070940000005066,True,15
23K21,43,experiment,168,→,left,←,0.1670422999886796,False,15
23K21,44,experiment,180,←,right,→,0.16701269999612123,False,15
23K21,45,experiment,144,←,left,←,0.21711660001892596,True,15
23K21,46,experiment,144,→,no_key,no_letter,-1.0,False,15
23K21,47,experiment,36,↓,right,→,0.5458010999718681,False,15
23K21,48,experiment,84,↑,left,←,0.38374830002430826,False,15
23K21,49,experiment,72,←,up,↑,0.21741030004341155,False,15
23K21,50,experiment,84,↓,right,→,0.20161960006225854,False,15
23K21,51,experiment,168,←,left,←,0.20200010004919022,True,15
23K21,52,experiment,12,↓,left,←,0.4738303000340238,False,15
23K21,53,experiment,36,↑,left,←,0.2173608000157401,False,15
23K21,54,experiment,48,←,left,←,0.15035999997053295,True,15
23K21,55,experiment,108,→,up,↑,0.2172495999839157,False,15
23K21,56,experiment,60,↓,left,←,0.31665829999838024,False,15
23K21,57,experiment,72,↑,left,←,0.2504935000324622,False,15
23K21,58,experiment,36,→,left,←,0.30037349998019636,False,15
23K21,59,experiment,108,←,no_key,no_letter,-1.0,False,15
23K21,60,experiment,132,↑,left,←,0.5021286000264809,False,15
23K21,61,experiment,24,↓,down,↓,0.3676798000233248,True,15
23K21,62,experiment,156,↑,left,←,0.16712359990924597,False,15
23K21,63,experiment,48,↓,left,←,0.26726759993471205,False,15
23K21,64,experiment,168,→,right,→,0.48622999992221594,True,15
23K21,65,experiment,132,←,left,←,0.7818192999111488,True,15
23K21,66,experiment,120,←,no_key,no_letter,-1.0,False,15
23K21,67,experiment,96,→,right,→,0.4508341000182554,True,15
23K21,68,experiment,168,←,left,←,0.4873182999435812,True,15
23K21,69,experiment,96,↓,right,→,0.44966269994620234,False,15
23K21,70,experiment,108,↑,up,↑,0.46857530006673187,True,15
23K21,71,experiment,72,↓,up,↑,0.7231784999603406,False,15
23K21,72,experiment,72,↓,left,←,0.43350350006949157,False,15
23K21,73,experiment,24,→,up,↑,1.413711900007911,False,15
23K21,74,experiment,120,→,left,←,0.43856869998853654,False,15
23K21,75,experiment,156,←,left,←,1.131977199926041,True,15
23K21,76,experiment,156,↑,up,↑,0.47033100004773587,True,15
23K21,77,experiment,96,↑,right,→,0.6369496000697836,False,15
23K21,78,experiment,180,↓,left,←,0.503183800028637,False,15
23K21,79,experiment,60,←,left,←,0.7686436999356374,True,15
23K21,80,experiment,120,↓,right,→,0.5169758999254555,False,15
23K21,81,experiment,132,←,right,→,1.4341004999587312,False,15
23K21,82,experiment,144,↓,right,→,1.849059300031513,False,15
23K21,83,experiment,24,←,left,←,0.87040260003414,True,15
23K21,84,experiment,180,←,down,↓,0.8110973999137059,False,15
23K21,85,experiment,24,↓,right,→,1.170030300039798,False,15
23K21,86,experiment,60,↓,down,↓,0.5371097000315785,True,15
23K21,87,experiment,48,←,down,↓,0.9470352000789717,False,15
23K21,88,experiment,96,↓,left,←,0.9239443000406027,False,15
23K21,89,experiment,48,→,right,→,1.0839455999666825,True,15
23K21,90,experiment,108,→,left,←,1.0335307999048382,False,15
23K21,91,experiment,12,↓,down,↓,0.44877419993281364,True,15
23K21,92,experiment,180,↓,right,→,1.3979612999828532,False,15
23K21,93,experiment,12,↓,right,→,1.0986617000307888,False,15
23K21,94,training,24,↓,right,→,0.5465805999701843,False,16
23K21,95,training,168,↑,left,←,0.8196599999209866,False,16
23K21,96,training,60,←,right,→,0.5713602000614628,False,16
23K21,97,experiment,72,←,right,→,0.9456250000512227,False,16
23K21,98,experiment,72,↓,right,→,1.0284700999036431,False,16
23K21,99,experiment,144,→,left,←,0.7338080999907106,False,16
23K21,100,experiment,36,←,up,↑,0.9568426000187173,False,16
23K21,101,experiment,48,→,right,→,0.7267145999940112,True,16
23K21,102,experiment,24,↓,left,←,0.7257374000037089,False,16
23K21,103,experiment,60,←,right,→,0.9048468999098986,False,16
23K21,104,experiment,36,→,left,←,0.9887529999250546,False,16
23K21,105,experiment,60,↓,right,→,0.880951099912636,False,16
23K21,106,experiment,120,→,right,→,0.8688821999821812,True,16
23K21,107,experiment,168,←,right,→,0.9774101000512019,False,16
23K21,108,experiment,24,↑,up,↑,0.8885138999903575,True,16
23K21,109,experiment,24,↓,down,↓,0.8853193999966606,True,16
23K21,110,experiment,96,↑,right,→,0.936418299912475,False,16
23K21,111,experiment,144,→,right,→,1.2083451999351382,True,16
23K21,112,experiment,144,↑,up,↑,1.3489896999672055,True,16
23K21,113,experiment,108,←,left,←,0.5033899999689311,True,16
23K21,114,experiment,132,↓,left,←,0.6874704000074416,False,16
23K21,115,experiment,96,↓,right,→,0.6893008999759331,False,16
23K21,116,experiment,168,→,right,→,0.5996137000620365,True,16
23K21,117,experiment,96,↓,down,↓,1.2123787000309676,True,16
23K21,118,experiment,144,→,left,←,0.7402098999591544,False,16
23K21,119,experiment,108,↑,up,↑,1.0124943000264466,True,16
23K21,120,experiment,84,→,left,←,0.49311129993293434,False,16
23K21,121,experiment,156,→,left,←,1.0229469999903813,False,16
23K21,122,experiment,108,↓,right,→,1.066300900070928,False,16
23K21,123,experiment,48,→,left,←,1.0118411999428645,False,16
23K21,124,experiment,36,←,left,←,0.9950679000467062,True,16
23K21,125,experiment,12,↑,up,↑,1.2704468999290839,True,16
23K21,126,experiment,120,→,right,→,0.9385419999016449,True,16
23K21,127,experiment,180,→,right,→,1.2061094000237063,True,16
23K21,128,experiment,180,←,down,↓,1.1021072999574244,False,16
23K21,129,experiment,108,↑,up,↑,1.104018299956806,True,16
23K21,130,experiment,24,←,left,←,0.9021871000295505,True,16
23K21,131,experiment,132,↓,up,↑,1.164280099910684,False,16
23K21,132,experiment,36,↑,up,↑,0.8208754999795929,True,16
23K21,133,experiment,84,→,left,←,0.7491573999868706,False,16
23K21,134,experiment,168,→,left,←,1.2404627000214532,False,16
23K21,135,experiment,48,→,left,←,1.2451650000875816,False,16
23K21,136,experiment,72,↑,up,↑,0.9505756000289693,True,16
23K21,137,experiment,180,↑,right,→,1.2120946999639273,False,16
23K21,138,experiment,60,→,left,←,0.8851418999256566,False,16
23K21,139,experiment,84,↑,right,→,1.16867889999412,False,16
23K21,140,experiment,12,↑,up,↑,1.078343499917537,True,16
23K21,141,experiment,12,↑,right,→,1.886296599986963,False,16
23K21,142,experiment,60,←,up,↑,1.192723699961789,False,16
23K21,143,experiment,84,↓,up,↑,1.1512212000088766,False,16
23K21,144,experiment,168,↓,left,←,1.1011916999705136,False,16
23K21,145,experiment,132,→,left,←,1.1645382000133395,False,16
23K21,146,experiment,96,→,right,→,1.1020181000931188,True,16
23K21,147,experiment,120,→,down,↓,1.5338153999764472,False,16
23K21,148,experiment,48,↓,left,←,1.0515850000083447,False,16
23K21,149,experiment,132,→,left,←,0.8932802999624982,False,16
23K21,150,experiment,72,←,right,→,0.8996933999005705,False,16
23K21,151,experiment,156,→,right,→,1.1591470999410376,True,16
23K21,152,experiment,120,↑,right,→,1.7492762999609113,False,16
23K21,153,experiment,156,↑,up,↑,0.8617484000278637,True,16
23K21,154,experiment,12,→,no_key,no_letter,-1.0,False,16
23K21,155,experiment,180,↓,left,←,1.2459634999977425,False,16
23K21,156,experiment,156,↑,left,←,1.0119976999703795,False,16
23K21,157,training,156,↑,up,↑,0.775743699981831,True,17
23K21,158,training,108,↓,up,↑,1.1693748999387026,False,17
23K21,159,training,12,↓,down,↓,0.9176511999685317,True,17
23K21,160,experiment,36,→,left,←,0.986571199959144,False,17
23K21,161,experiment,36,↓,up,↑,0.9364454000024125,False,17
23K21,162,experiment,132,↑,up,↑,1.0076315000187606,True,17
23K21,163,experiment,48,↓,down,↓,1.0181001999881119,True,17
23K21,164,experiment,60,→,right,→,0.6916212999494746,True,17
23K21,165,experiment,72,→,right,→,0.5474446000298485,True,17
23K21,166,experiment,48,↓,down,↓,0.517292800010182,True,17
23K21,167,experiment,72,↑,down,↓,0.7881748999934644,False,17
23K21,168,experiment,168,↓,right,→,1.163338499958627,False,17
23K21,169,experiment,180,↓,down,↓,0.5299460999667645,True,17
23K21,170,experiment,156,↓,down,↓,1.369694900000468,True,17
23K21,171,experiment,132,↓,down,↓,1.5248082999605685,True,17
23K21,172,experiment,12,↑,down,↓,1.63403760001529,False,17
23K21,173,experiment,120,←,right,→,0.917546599986963,False,17
23K21,174,experiment,108,←,down,↓,1.6041649000253528,False,17
23K21,175,experiment,12,↑,left,←,1.001518200035207,False,17
23K21,176,experiment,120,←,left,←,0.7291103000752628,True,17
23K21,177,experiment,60,↑,up,↑,0.6329313999740407,True,17
23K21,178,experiment,156,↑,up,↑,0.9570384999969974,True,17
23K21,179,experiment,24,↑,up,↑,0.6973754999926314,True,17
23K21,180,experiment,60,→,right,→,0.8011381999822333,True,17
23K21,181,experiment,84,←,left,←,0.9043905000435188,True,17
23K21,182,experiment,120,←,left,←,0.7283139999490231,True,17
23K21,183,experiment,24,↓,right,→,1.2820485000265762,False,17
23K21,184,experiment,96,↓,left,←,1.1599604999646544,False,17
23K21,185,experiment,168,←,left,←,0.8330895999679342,True,17
23K21,186,experiment,48,↓,up,↑,0.9027361000189558,False,17
23K21,187,experiment,168,←,right,→,0.9142256999621168,False,17
23K21,188,experiment,144,←,left,←,0.8568010999588296,True,17
23K21,189,experiment,96,→,right,→,0.7312362999655306,True,17
23K21,190,experiment,108,→,left,←,1.053923900006339,False,17
23K21,191,experiment,72,↑,left,←,1.0218240999383852,False,17
23K21,192,experiment,72,↓,right,→,1.0437174999387935,False,17
23K21,193,experiment,180,↓,down,↓,0.7344901999458671,True,17
23K21,194,experiment,120,←,left,←,1.0243408000096679,True,17
23K21,195,experiment,108,↑,down,↓,0.8102399000199512,False,17
23K21,196,experiment,180,↓,down,↓,0.45323260000441223,True,17
23K21,197,experiment,108,←,left,←,0.5880529000423849,True,17
23K21,198,experiment,156,←,left,←,0.5995477999094874,True,17
23K21,199,experiment,144,←,right,→,0.9338764999993145,False,17
23K21,200,experiment,180,↑,left,←,0.8072971999645233,False,17
23K21,201,experiment,84,→,right,→,0.4982550999848172,True,17
23K21,202,experiment,36,↑,right,→,1.0421815998852253,False,17
23K21,203,experiment,36,↓,down,↓,0.8876940000336617,True,17
23K21,204,experiment,24,↑,left,←,0.9494492000667378,False,17
23K21,205,experiment,132,→,right,→,0.6300216000527143,True,17
23K21,206,experiment,144,→,left,←,0.8771667999681085,False,17
23K21,207,experiment,84,←,left,←,0.5598552000010386,True,17
23K21,208,experiment,96,→,right,→,0.49435410008300096,True,17
23K21,209,experiment,12,←,left,←,0.8022861999925226,True,17
23K21,210,experiment,12,↑,up,↑,0.47242250002454966,True,17
23K21,211,experiment,84,↓,down,↓,0.6748138000257313,True,17
23K21,212,experiment,60,↑,up,↑,0.5085013000061736,True,17
23K21,213,experiment,156,↑,up,↑,0.7391804000362754,True,17
23K21,214,experiment,132,→,right,→,0.6771549000404775,True,17
23K21,215,experiment,48,↑,no_key,no_letter,-1.0,False,17
23K21,216,experiment,144,↑,down,↓,0.9633428000379354,False,17
23K21,217,experiment,96,←,left,←,0.6703466000035405,True,17
23K21,218,experiment,168,↓,left,←,0.9419018999906257,False,17
23K21,219,experiment,24,←,right,→,0.9165710000088438,False,17
23K21,220,training,36,→,right,→,0.8295671999221668,True,18
23K21,221,training,168,→,left,←,0.8143794999923557,False,18
23K21,222,training,96,↑,up,↑,0.6044747999403626,True,18
23K21,223,experiment,168,↓,down,↓,0.5210909000597894,True,18
23K21,224,experiment,144,←,no_key,no_letter,-1.0,False,18
23K21,225,experiment,72,↑,up,↑,0.8711539999349043,True,18
23K21,226,experiment,72,←,left,←,0.7025236999616027,True,18
23K21,227,experiment,180,↓,down,↓,0.46882710000500083,True,18
23K21,228,experiment,12,↑,right,→,0.6924044999759644,False,18
23K21,229,experiment,24,←,right,→,0.5845390000613406,False,18
23K21,230,experiment,96,→,left,←,0.8245939000044018,False,18
23K21,231,experiment,24,→,right,→,0.46716250001918525,True,18
23K21,232,experiment,120,←,left,←,0.7362213999731466,True,18
23K21,233,experiment,108,↓,left,←,1.7352001999970526,False,18
23K21,234,experiment,84,←,right,→,0.8171865999465808,False,18
23K21,235,experiment,144,←,left,←,0.49221910000778735,True,18
23K21,236,experiment,36,←,left,←,0.716930300113745,True,18
23K21,237,experiment,84,↓,down,↓,0.4336959000211209,True,18
23K21,238,experiment,24,↓,down,↓,0.36711589992046356,True,18
23K21,239,experiment,12,←,left,←,0.6032592999981716,True,18
23K21,240,experiment,36,→,left,←,0.7666863000486046,False,18
23K21,241,experiment,168,↓,down,↓,0.7155020999489352,True,18
23K21,242,experiment,72,↑,down,↓,0.560104800038971,False,18
23K21,243,experiment,180,→,left,←,0.7806368001038209,False,18
23K21,244,experiment,24,↑,up,↑,0.550929700024426,True,18
23K21,245,experiment,156,→,right,→,0.3671000999165699,True,18
23K21,246,experiment,48,↑,up,↑,0.41694580006878823,True,18
23K21,247,experiment,48,↑,up,↑,0.383296100073494,True,18
23K21,248,experiment,156,↑,down,↓,0.7370167999761179,False,18
23K21,249,experiment,36,↑,left,←,0.8161709000123665,False,18
23K21,250,experiment,132,↑,up,↑,0.4004755000350997,True,18
23K21,251,experiment,180,→,left,←,0.6482292000437155,False,18
23K21,252,experiment,132,↑,right,→,1.0605682999594137,False,18
23K21,253,experiment,120,↓,down,↓,0.4739101000595838,True,18
23K21,254,experiment,108,↓,down,↓,0.7934411999303848,True,18
23K21,255,experiment,60,↑,right,→,1.0303726000711322,False,18
23K21,256,experiment,72,→,right,→,0.38394440000411123,True,18
23K21,257,experiment,12,→,right,→,0.31694230006542057,True,18
23K21,258,experiment,60,↑,left,←,1.097462199977599,False,18
23K21,259,experiment,96,↓,down,↓,0.5013896999880672,True,18
23K21,260,experiment,120,→,right,→,0.4169930999632925,True,18
23K21,261,experiment,96,↑,up,↑,0.4336698999395594,True,18
23K21,262,experiment,84,←,left,←,1.6275631999596953,True,18
23K21,263,experiment,168,↓,down,↓,0.38375739997718483,True,18
23K21,264,experiment,48,↓,up,↑,0.33372499991673976,False,18
23K21,265,experiment,84,↑,left,←,0.9093086000066251,False,18
23K21,266,experiment,156,→,left,←,0.5436421999474987,False,18
23K21,267,experiment,132,→,right,→,0.4338869999628514,True,18
23K21,268,experiment,180,→,left,←,0.6346984000410885,False,18
23K21,269,experiment,144,→,right,→,0.6920272000133991,True,18
23K21,270,experiment,60,←,left,←,0.6851465000072494,True,18
23K21,271,experiment,48,←,right,→,0.8867626999272034,False,18
23K21,272,experiment,108,↓,down,↓,0.474719199934043,True,18
23K21,273,experiment,108,→,right,→,0.6112112000118941,True,18
23K21,274,experiment,132,↑,up,↑,0.7184658000478521,True,18
23K21,275,experiment,168,→,right,→,0.8078476999653503,True,18
23K21,276,experiment,60,↑,up,↑,1.3335821999935433,True,18
23K21,277,experiment,12,→,right,→,1.289447100018151,True,18
23K21,278,experiment,96,←,left,←,0.5465643000788987,True,18
23K21,279,experiment,120,←,no_key,no_letter,-1.0,False,18
23K21,280,experiment,156,←,left,←,0.4169852000195533,True,18
23K21,281,experiment,36,↓,up,↑,1.0246451999992132,False,18
23K21,282,experiment,144,→,right,→,0.43401860003359616,True,18
23K21,283,training,48,→,right,→,0.5681498000631109,True,18
23K21,284,training,132,↓,up,↑,0.6588711999356747,False,18
23K21,285,training,36,←,left,←,0.7231588999275118,True,18
23K21,286,experiment,120,→,right,→,0.7224428999470547,True,18
23K21,287,experiment,84,→,left,←,0.858200499904342,False,18
23K21,288,experiment,96,↑,right,→,1.530680000083521,False,18
23K21,289,experiment,168,←,no_key,no_letter,-1.0,False,18
23K21,290,experiment,108,←,left,←,0.6758204000070691,True,18
23K21,291,experiment,132,↓,up,↑,0.6275032999692485,False,18
23K21,292,experiment,180,→,right,→,0.48729969991836697,True,18
23K21,293,experiment,132,→,right,→,0.4170222000684589,True,18
23K21,294,experiment,108,↓,down,↓,0.41701640002429485,True,18
23K21,295,experiment,120,→,left,←,0.7262618999229744,False,18
23K21,296,experiment,132,→,left,←,0.6974593000486493,False,18
23K21,297,experiment,180,↓,down,↓,0.904577000066638,True,18
23K21,298,experiment,60,→,right,→,0.4170508999377489,True,18
23K21,299,experiment,36,←,left,←,0.8329981999704614,True,18
23K21,300,experiment,156,→,right,→,0.4336329000070691,True,18
23K21,301,experiment,12,→,right,→,0.557183799915947,True,18
23K21,302,experiment,168,→,right,→,0.8833814000245184,True,18
23K21,303,experiment,168,↓,down,↓,0.7739054999547079,True,18
23K21,304,experiment,72,→,right,→,0.40037689998280257,True,18
23K21,305,experiment,156,↑,down,↓,0.49745830008760095,False,18
23K21,306,experiment,72,↓,up,↑,0.550369199947454,False,18
23K21,307,experiment,72,→,right,→,0.5777411999879405,True,18
23K21,308,experiment,96,←,left,←,0.40110439993441105,True,18
23K21,309,experiment,96,→,right,→,0.3504500000271946,True,18
23K21,310,experiment,108,←,right,→,0.5065508000552654,False,18
23K21,311,experiment,168,↓,down,↓,0.367692600004375,True,18
23K21,312,experiment,84,←,left,←,0.5806567000690848,True,18
23K21,313,experiment,144,←,right,→,0.9116977999219671,False,18
23K21,314,experiment,60,↑,no_key,no_letter,-1.0,False,18
23K21,315,experiment,132,→,right,→,0.4844862000318244,True,18
23K21,316,experiment,24,↓,down,↓,0.8202568999258801,True,18
23K21,317,experiment,72,↓,down,↓,0.3836940999608487,True,18
23K21,318,experiment,156,←,left,←,0.4169060999993235,True,18
23K21,319,experiment,60,←,left,←,0.4169790999731049,True,18
23K21,320,experiment,84,←,left,←,0.5007425000658259,True,18
23K21,321,experiment,12,→,right,→,0.41711310006212443,True,18
23K21,322,experiment,24,→,left,←,0.9772877999348566,False,18
23K21,323,experiment,48,→,right,→,0.8426505000097677,True,18
23K21,324,experiment,36,↓,up,↑,0.6783536000875756,False,18
23K21,325,experiment,156,↑,no_key,no_letter,-1.0,False,18
23K21,326,experiment,120,←,left,←,1.1255348999984562,True,18
23K21,327,experiment,84,→,right,→,0.506302300025709,True,18
23K21,328,experiment,144,↓,down,↓,0.4728848999366164,True,18
23K21,329,experiment,144,↓,down,↓,0.8026397000066936,True,18
23K21,330,experiment,60,↓,down,↓,0.41708229994401336,True,18
23K21,331,experiment,24,↓,up,↑,0.8269287999719381,False,18
23K21,332,experiment,96,↓,down,↓,0.417148599983193,True,18
23K21,333,experiment,180,↓,down,↓,0.9114921001018956,True,18
23K21,334,experiment,108,↑,up,↑,0.43369889992754906,True,18
23K21,335,experiment,24,←,left,←,0.40048379998188466,True,18
23K21,336,experiment,120,↓,down,↓,0.4171754000708461,True,18
23K21,337,experiment,48,←,left,←,0.8787927000084892,True,18
23K21,338,experiment,180,↑,down,↓,1.036480600014329,False,18
23K21,339,experiment,48,↑,up,↑,0.8181014000438154,True,18
23K21,340,experiment,36,↓,down,↓,0.6855002000229433,True,18
23K21,341,experiment,144,↓,down,↓,0.5698536999989301,True,18
23K21,342,experiment,12,←,left,←,0.6065116999670863,True,18
23K21,343,experiment,48,←,left,←,0.5073975999839604,True,18
23K21,344,experiment,36,←,left,←,0.3837572999764234,True,18
23K21,345,experiment,12,↑,right,→,0.5258452999405563,False,18
23K21,346,training,144,↓,down,↓,0.7575509999878705,True,18
23K21,347,training,180,←,left,←,0.5848408999154344,True,18
23K21,348,training,24,↓,left,←,0.4173323001014069,False,18
23K21,349,experiment,180,→,right,→,0.4496408000122756,True,18
23K21,350,experiment,108,↓,down,↓,0.6110139000229537,True,18
23K21,351,experiment,12,→,right,→,0.6133783999830484,True,18
23K21,352,experiment,132,↑,up,↑,0.8542607999406755,True,18
23K21,353,experiment,72,→,left,←,0.7024067000020295,False,18
23K21,354,experiment,36,→,right,→,0.7936941999942064,True,18
23K21,355,experiment,168,←,left,←,0.5573538000462577,True,18
23K21,356,experiment,48,↓,up,↑,1.1793117999332026,False,18
23K21,357,experiment,144,→,left,←,0.532157100038603,False,18
23K21,358,experiment,36,↑,left,←,1.1618145999964327,False,18
23K21,359,experiment,48,↓,down,↓,0.8489636000012979,True,18
23K21,360,experiment,168,↓,up,↑,0.9594726000213996,False,18
23K21,361,experiment,132,→,left,←,0.7659347999142483,False,18
23K21,362,experiment,48,↑,up,↑,0.5021554999984801,True,18
23K21,363,experiment,144,↓,down,↓,0.6369133000262082,True,18
23K21,364,experiment,60,→,right,→,0.6596750000026077,True,18
23K21,365,experiment,84,↓,down,↓,0.7294570000376552,True,18
23K21,366,experiment,108,↓,down,↓,0.7627949999878183,True,18
23K21,367,experiment,24,←,left,←,0.8577373999869451,True,18
23K21,368,experiment,180,←,left,←,0.6522696999600157,True,18
23K21,369,experiment,84,↓,down,↓,0.7117264000698924,True,18
23K21,370,experiment,156,←,left,←,0.7473887000232935,True,18
23K21,371,experiment,96,←,right,→,0.7575965001014993,False,18
23K21,372,experiment,108,↓,down,↓,0.8191031999886036,True,18
23K21,373,experiment,36,↓,down,↓,0.47370250010862947,True,18
23K21,374,experiment,84,←,left,←,0.8731300999643281,True,18
23K21,375,experiment,12,←,right,→,0.7513676999369636,False,18
23K21,376,experiment,132,→,right,→,0.45088889996986836,True,18
23K21,377,experiment,72,→,right,→,0.5660467999987304,True,18
23K21,378,experiment,12,←,left,←,0.6264121000422165,True,18
23K21,379,experiment,72,↑,up,↑,0.6218481999821961,True,18
23K21,380,experiment,168,↓,down,↓,0.9423107999609783,True,18
23K21,381,experiment,12,↑,left,←,0.9114429000765085,False,18
23K21,382,experiment,144,←,left,←,0.49548229994252324,True,18
23K21,383,experiment,156,↓,no_key,no_letter,-1.0,False,18
23K21,384,experiment,36,↑,up,↑,0.5664466000162065,True,18
23K21,385,experiment,96,↓,down,↓,0.6379577999468893,True,18
23K21,386,experiment,60,←,right,→,0.7059219999937341,False,18
23K21,387,experiment,120,↓,down,↓,0.763295300072059,True,18
23K21,388,experiment,108,↑,up,↑,0.8267360999016091,True,18
23K21,389,experiment,156,↑,up,↑,0.5260686000110582,True,18
23K21,390,experiment,60,↑,up,↑,0.7489965999266133,True,18
23K21,391,experiment,120,→,no_key,no_letter,-1.0,False,18
23K21,392,experiment,120,↓,up,↑,0.6271953000687063,False,18
23K21,393,experiment,144,↑,no_key,no_letter,-1.0,False,18
23K21,394,experiment,24,↓,left,←,1.1094437000574544,False,18
23K21,395,experiment,180,↑,no_key,no_letter,-1.0,False,18
23K21,396,experiment,84,↓,down,↓,0.41676819999702275,True,18
23K21,397,experiment,120,↑,down,↓,0.7405933000845835,False,18
23K21,398,experiment,96,→,right,→,0.6267210999503732,True,18
23K21,399,experiment,168,↓,down,↓,0.4007624000078067,True,18
23K21,400,experiment,156,←,no_key,no_letter,-1.0,False,18
23K21,401,experiment,96,↓,down,↓,0.8677791999652982,True,18
23K21,402,experiment,48,↑,up,↑,0.5356982999946922,True,18
23K21,403,experiment,60,→,right,→,0.43432190001476556,True,18
23K21,404,experiment,24,↓,down,↓,0.38397530000656843,True,18
23K21,405,experiment,180,←,left,←,0.6485849999589846,True,18
23K21,406,experiment,132,←,left,←,0.4009345999220386,True,18
23K21,407,experiment,72,←,left,←,0.8786095000104979,True,18
23K21,408,experiment,24,→,right,→,0.43330610007978976,True,18
23K21,409,training,132,←,left,←,0.614186100079678,True,18
23K21,410,training,120,↓,down,↓,0.7916159000014886,True,18
23K21,411,training,72,↓,down,↓,0.41737639997154474,True,18
23K21,412,experiment,132,↓,down,↓,0.38375139993149787,True,18
23K21,413,experiment,24,←,left,←,0.38383099995553493,True,18
23K21,414,experiment,144,↑,up,↑,0.47309940005652606,True,18
23K21,415,experiment,84,→,left,←,0.36714129999745637,False,18
23K21,416,experiment,84,↓,left,←,1.1782718000467867,False,18
23K21,417,experiment,84,↓,left,←,1.0568317999131978,False,18
23K21,418,experiment,144,↓,down,↓,0.7162665000651032,True,18
23K21,419,experiment,156,↑,up,↑,0.7373223999748006,True,18
23K21,420,experiment,108,↑,right,→,1.1007034999784082,False,18
23K21,421,experiment,72,↓,left,←,0.7599219999974594,False,18
23K21,422,experiment,60,←,left,←,0.43380110000725836,True,18
23K21,423,experiment,36,←,right,→,0.7194445999339223,False,18
23K21,424,experiment,144,↓,right,→,0.7719155000522733,False,18
23K21,425,experiment,156,←,left,←,0.46983680000994354,True,18
23K21,426,experiment,48,↓,down,↓,0.43355820002034307,True,18
23K21,427,experiment,72,↑,up,↑,0.537957499967888,True,18
23K21,428,experiment,108,←,left,←,0.711295000044629,True,18
23K21,429,experiment,120,←,left,←,0.6350129999918863,True,18
23K21,430,experiment,60,←,left,←,0.43372259999159724,True,18
23K21,431,experiment,60,↑,left,←,0.4004045999608934,False,18
23K21,432,experiment,120,↑,up,↑,0.5327519999118522,True,18
23K21,433,experiment,108,→,right,→,0.5049618000630289,True,18
23K21,434,experiment,60,↓,down,↓,0.6858870999421924,True,18
23K21,435,experiment,36,→,right,→,0.7515776000218466,True,18
23K21,436,experiment,108,↓,down,↓,0.5327841000398621,True,18
23K21,437,experiment,12,↓,no_key,no_letter,-1.0,False,18
23K21,438,experiment,36,↓,down,↓,0.6384737000335008,True,18
23K21,439,experiment,12,→,right,→,0.4012719999300316,True,18
23K21,440,experiment,120,←,left,←,0.761337700067088,True,18
23K21,441,experiment,96,→,left,←,0.970776200061664,False,18
23K21,442,experiment,180,←,left,←,1.5000398999545723,True,18
23K21,443,experiment,48,↓,down,↓,1.0842011000495404,True,18
23K21,444,experiment,132,↓,down,↓,0.5348883999977261,True,18
23K21,445,experiment,156,↑,right,→,0.8297799999127164,False,18
23K21,446,experiment,48,←,left,←,0.6844372000778094,True,18
23K21,447,experiment,120,↓,down,↓,0.7300658000167459,True,18
23K21,448,experiment,168,↑,left,←,1.2203810999635607,False,18
23K21,449,experiment,24,→,right,→,0.5977420000126585,True,18
23K21,450,experiment,168,→,right,→,0.8741026000352576,True,18
23K21,451,experiment,72,→,right,→,0.7821209999965504,True,18
23K21,452,experiment,168,←,left,←,0.7416363999946043,True,18
23K21,453,experiment,96,←,right,→,0.7605493000010028,False,18
23K21,454,experiment,168,↑,up,↑,0.4670770999509841,True,18
23K21,455,experiment,12,→,left,←,0.9844388000201434,False,18
23K21,456,experiment,144,→,right,→,0.47492539999075234,True,18
23K21,457,experiment,156,←,left,←,0.5190262999385595,True,18
23K21,458,experiment,132,→,right,→,0.43388749996665865,True,18
23K21,459,experiment,72,↑,up,↑,0.4740048999665305,True,18
23K21,460,experiment,180,↓,left,←,0.7244182000868022,False,18
23K21,461,experiment,96,←,left,←,1.3728014000225812,True,18
23K21,462,experiment,48,↓,down,↓,0.7428270999807864,True,18
23K21,463,experiment,36,↑,up,↑,0.7001626999117434,True,18
23K21,464,experiment,180,↑,up,↑,0.495949300006032,True,18
23K21,465,experiment,132,↓,right,→,1.2170515999896452,False,18
23K21,466,experiment,96,↑,up,↑,0.43348769994918257,True,18
23K21,467,experiment,84,←,left,←,0.7619647000683472,True,18
23K21,468,experiment,12,←,left,←,0.7308455999009311,True,18
23K21,469,experiment,24,→,right,→,0.4689982000272721,True,18
23K21,470,experiment,180,↓,right,→,0.8835928000044078,False,18
23K21,471,experiment,24,←,left,←,0.6800976999802515,True,18
23K21,472,training,108,↓,no_key,no_letter,-1.0,False,18
23K21,473,training,12,↓,down,↓,0.38384240004234016,True,18
23K21,474,training,60,↓,down,↓,0.3168571999995038,True,18
23K21,475,experiment,120,↓,down,↓,0.3334638000233099,True,18
23K21,476,experiment,72,↓,no_key,no_letter,-1.0,False,18
23K21,477,experiment,168,↑,up,↑,0.5602632999652997,True,18
23K21,478,experiment,84,↓,up,↑,1.116061499924399,False,18
23K21,479,experiment,12,→,right,→,0.577875699964352,True,18
23K21,480,experiment,132,→,right,→,0.6626215999713168,True,18
23K21,481,experiment,72,←,left,←,0.5347886000527069,True,18
23K21,482,experiment,180,←,right,→,0.5766947000520304,False,18
23K21,483,experiment,144,←,left,←,0.6471953000873327,True,18
23K21,484,experiment,24,↑,up,↑,0.6760606999741867,True,18
23K21,485,experiment,180,→,left,←,0.4829818999860436,False,18
23K21,486,experiment,180,↑,up,↑,0.5525464999955148,True,18
23K21,487,experiment,108,←,left,←,0.5758000999921933,True,18
23K21,488,experiment,108,←,right,→,0.5140989000210539,False,18
23K21,489,experiment,48,↓,down,↓,0.5701525999465957,True,18
23K21,490,experiment,12,↑,up,↑,1.4630810000235215,True,18
23K21,491,experiment,36,←,left,←,0.8976360999513417,True,18
23K21,492,experiment,180,↑,up,↑,0.6638945000013337,True,18
23K21,493,experiment,144,↓,down,↓,0.6330607999116182,True,18
23K21,494,experiment,60,↑,up,↑,0.5336345999967307,True,18
23K21,495,experiment,168,→,right,→,0.5024085999466479,True,18
23K21,496,experiment,60,→,left,←,0.6053489999612793,False,18
23K21,497,experiment,60,↓,down,↓,0.5840564999962226,True,18
23K21,498,experiment,168,↓,down,↓,0.5304729000199586,True,18
23K21,499,experiment,120,→,right,→,0.536139199975878,True,18
23K21,500,experiment,72,↑,up,↑,0.7089780999813229,True,18
23K21,501,experiment,36,↓,no_key,no_letter,-1.0,False,18
23K21,502,experiment,24,←,right,→,0.6422739999834448,False,18
23K21,503,experiment,60,↓,down,↓,0.7326795000117272,True,18
23K21,504,experiment,132,↑,up,↑,0.5200942000374198,True,18
23K21,505,experiment,156,←,left,←,0.8387937999796122,True,18
23K21,506,experiment,144,↑,up,↑,0.5049890000373125,True,18
23K21,507,experiment,84,←,left,←,0.6706088000210002,True,18
23K21,508,experiment,132,→,right,→,0.5854830000316724,True,18
23K21,509,experiment,132,→,left,←,1.052960200002417,False,18
23K21,510,experiment,144,↓,down,↓,0.48878089990466833,True,18
23K21,511,experiment,108,←,down,↓,0.9413563999114558,False,18
23K21,512,experiment,48,←,left,←,0.7595005000475794,True,18
23K21,513,experiment,156,→,right,→,0.5470998999662697,True,18
23K21,514,experiment,72,→,right,→,0.6236337000736967,True,18
23K21,515,experiment,156,↓,down,↓,0.8130959999980405,True,18
23K21,516,experiment,84,↑,up,↑,0.4739661000203341,True,18
23K21,517,experiment,120,←,left,←,1.298180100042373,True,18
23K21,518,experiment,96,→,left,←,0.9753572000190616,False,18
23K21,519,experiment,168,↑,up,↑,0.5155198000138626,True,18
23K21,520,experiment,96,↑,up,↑,0.8602036000229418,True,18
23K21,521,experiment,84,↑,up,↑,0.5736830000532791,True,18
23K21,522,experiment,108,↑,up,↑,0.5732006999896839,True,18
23K21,523,experiment,156,←,left,←,0.6268479999853298,True,18
23K21,524,experiment,12,↓,down,↓,0.8372801999794319,True,18
23K21,525,experiment,24,→,right,→,0.6525794999906793,True,18
23K21,526,experiment,36,→,left,←,0.8174967000959441,False,18
23K21,527,experiment,96,↓,left,←,0.8700450999895111,False,18
23K21,528,experiment,120,←,left,←,0.47226700000464916,True,18
23K21,529,experiment,48,←,left,←,0.7918158000102267,True,18
23K21,530,experiment,96,←,left,←,0.5584511000197381,True,18
23K21,531,experiment,12,↑,up,↑,0.4959435999626294,True,18
23K21,532,experiment,24,↓,down,↓,0.5375520000234246,True,18
23K21,533,experiment,48,←,right,→,0.41687800001818687,False,18
23K21,534,experiment,36,↓,down,↓,0.5169893000274897,True,18
23K21,535,training,108,↑,up,↑,0.7713248999789357,True,18
23K21,536,training,72,←,left,←,0.6405526000307873,True,18
23K21,537,training,36,→,right,→,0.9555970000801608,True,18
23K21,538,experiment,84,→,right,→,1.7234089000849053,True,18
23K21,539,experiment,120,↑,up,↑,0.49310740001965314,True,18
23K21,540,experiment,60,→,right,→,0.8861220999388024,True,18
23K21,541,experiment,156,←,right,→,0.7518729999428615,False,18
23K21,542,experiment,108,↑,up,↑,0.43334920005872846,True,18
23K21,543,experiment,72,↓,down,↓,1.7432333999313414,True,18
23K21,544,experiment,180,→,left,←,0.7482170999282971,False,18
23K21,545,experiment,24,↓,up,↑,0.6235310001065955,False,18
23K21,546,experiment,144,↑,up,↑,0.7376088999444619,True,18
23K21,547,experiment,48,←,left,←,0.7875502000097185,True,18
23K21,548,experiment,48,←,left,←,0.43371450004633516,True,18
23K21,549,experiment,60,↑,up,↑,0.4169996000127867,True,18
23K21,550,experiment,144,→,right,→,0.4757392999017611,True,18
23K21,551,experiment,120,↑,up,↑,0.6956748999655247,True,18
23K21,552,experiment,72,↓,down,↓,0.4002773999236524,True,18
23K21,553,experiment,24,→,left,←,0.9024596000090241,False,18
23K21,554,experiment,120,↓,down,↓,0.5042827000143006,True,18
23K21,555,experiment,60,↑,up,↑,1.5618252999847755,True,18
23K21,556,experiment,132,↓,down,↓,0.626566500053741,True,18
23K21,557,experiment,144,←,left,←,1.3403099999995902,True,18
23K21,558,experiment,156,←,left,←,1.146256300038658,True,18
23K21,559,experiment,168,→,left,←,0.6728919999441132,False,18
23K21,560,experiment,108,→,left,←,0.9122460999060422,False,18
23K21,561,experiment,180,↓,down,↓,0.7460374999791384,True,18
23K21,562,experiment,96,←,left,←,0.7384086999809369,True,18
23K21,563,experiment,48,↑,up,↑,0.7917858000146225,True,18
23K21,564,experiment,120,→,right,→,0.7752156000351533,True,18
23K21,565,experiment,84,↓,down,↓,0.888846299960278,True,18
23K21,566,experiment,12,↓,left,←,0.777497100061737,False,18
23K21,567,experiment,168,↑,up,↑,0.7597502999706194,True,18
23K21,568,experiment,168,→,right,→,0.5784658000338823,True,18
23K21,569,experiment,12,↑,up,↑,0.49762339994776994,True,18
23K21,570,experiment,108,←,left,←,0.549804300069809,True,18
23K21,571,experiment,168,←,left,←,0.5916413000086322,True,18
23K21,572,experiment,132,→,left,←,1.0691266000503674,False,18
23K21,573,experiment,72,→,no_key,no_letter,-1.0,False,18
23K21,574,experiment,156,↓,left,←,0.8004175999667495,False,18
23K21,575,experiment,36,↓,down,↓,0.636356099974364,True,18
23K21,576,experiment,132,←,left,←,0.6981972999637946,True,18
23K21,577,experiment,36,←,right,→,0.6300940999062732,False,18
23K21,578,experiment,12,↑,up,↑,0.4340467000147328,True,18
23K21,579,experiment,48,←,left,←,0.7358640000456944,True,18
23K21,580,experiment,96,→,right,→,0.4216924000065774,True,18
23K21,581,experiment,36,↓,left,←,0.8920022000093013,False,18
23K21,582,experiment,180,→,right,→,0.6350764000089839,True,18
23K21,583,experiment,72,←,left,←,1.149111400009133,True,18
23K21,584,experiment,12,→,left,←,0.7594117000699043,False,18
23K21,585,experiment,24,→,right,→,0.5853430998977274,True,18
23K21,586,experiment,84,↑,up,↑,0.6585619000252336,True,18
23K21,587,experiment,156,→,left,←,0.7693240999942645,False,18
23K21,588,experiment,96,↓,down,↓,0.47722229990176857,True,18
23K21,589,experiment,24,←,left,←,0.7199451000196859,True,18
23K21,590,experiment,108,→,right,→,0.5941041000187397,True,18
23K21,591,experiment,96,←,left,←,0.6720631000353023,True,18
23K21,592,experiment,36,↓,left,←,0.7876662999624386,False,18
23K21,593,experiment,144,↓,down,↓,0.6118344999849796,True,18
23K21,594,experiment,180,←,right,→,0.9491994000272825,False,18
23K21,595,experiment,84,↓,down,↓,0.7472147999797016,True,18
23K21,596,experiment,132,↑,up,↑,0.5490682000527158,True,18
23K21,597,experiment,60,→,right,→,0.777449700050056,True,18
23K21,598,training,156,←,left,←,0.5912865999853238,True,18
23K21,599,training,12,←,left,←,0.3847007999429479,True,18
23K21,600,training,96,↓,down,↓,0.4333895999006927,True,18
23K21,601,experiment,144,↓,down,↓,0.4339258000254631,True,18
23K21,602,experiment,120,↓,down,↓,0.5262956999940798,True,18
23K21,603,experiment,24,←,left,←,0.4006230999948457,True,18
23K21,604,experiment,168,→,right,→,0.665045200032182,True,18
23K21,605,experiment,60,↑,down,↓,0.6072683000238612,False,18
23K21,606,experiment,72,↓,down,↓,0.43381960003171116,True,18
23K21,607,experiment,84,↓,down,↓,0.39969220000784844,True,18
23K21,608,experiment,12,←,left,←,0.5782479000044987,True,18
23K21,609,experiment,168,→,right,→,0.47527809999883175,True,18
23K21,610,experiment,72,←,left,←,0.5912817999487743,True,18
23K21,611,experiment,96,↑,up,↑,0.36671949992887676,True,18
23K21,612,experiment,144,↓,up,↑,0.6325190999777988,False,18
23K21,613,experiment,24,→,right,→,0.7708741000387818,True,18
23K21,614,experiment,180,→,right,→,0.6179916999535635,True,18
23K21,615,experiment,132,←,left,←,0.6301591999363154,True,18
23K21,616,experiment,24,→,right,→,0.7984560000477359,True,18
23K21,617,experiment,180,→,right,→,0.7612496999790892,True,18
23K21,618,experiment,156,↑,left,←,0.7855356999207288,False,18
23K21,619,experiment,84,→,right,→,1.2392617999576032,True,18
23K21,620,experiment,84,↑,up,↑,0.7177812999580055,True,18
23K21,621,experiment,108,←,left,←,0.7429448000621051,True,18
23K21,622,experiment,108,←,left,←,0.6906014999840409,True,18
23K21,623,experiment,72,←,left,←,0.4852665999205783,True,18
23K21,624,experiment,168,→,right,→,0.5994836000027135,True,18
23K21,625,experiment,156,←,left,←,0.4731329999631271,True,18
23K21,626,experiment,36,→,right,→,0.5722317999461666,True,18
23K21,627,experiment,96,←,left,←,0.6519807999720797,True,18
23K21,628,experiment,120,↓,up,↑,0.848249000031501,False,18
23K21,629,experiment,144,←,left,←,1.2022365999873728,True,18
23K21,630,experiment,48,↑,up,↑,0.43411130004096776,True,18
23K21,631,experiment,168,↓,down,↓,0.5665066000074148,True,18
23K21,632,experiment,12,→,right,→,0.47776170005090535,True,18
23K21,633,experiment,48,→,right,→,1.138368200045079,True,18
23K21,634,experiment,12,←,left,←,0.5719383000396192,True,18
23K21,635,experiment,96,↓,down,↓,0.6750995999900624,True,18
23K21,636,experiment,48,↑,down,↓,1.0601127999834716,False,18
23K21,637,experiment,60,→,right,→,0.40119360003154725,True,18
23K21,638,experiment,144,↑,up,↑,0.9137989999726415,True,18
23K21,639,experiment,96,→,left,←,0.7930115000344813,False,18
23K21,640,experiment,132,↓,down,↓,0.9302880000323057,True,18
23K21,641,experiment,108,→,left,←,0.690428200061433,False,18
23K21,642,experiment,132,→,left,←,1.1888747999910265,False,18
23K21,643,experiment,60,←,left,←,0.9379809000529349,True,18
23K21,644,experiment,120,→,right,→,0.5113210999406874,True,18
23K21,645,experiment,12,↑,up,↑,0.5067305999109522,True,18
23K21,646,experiment,180,←,right,→,0.7815786999417469,False,18
23K21,647,experiment,84,→,left,←,0.6400083999615163,False,18
23K21,648,experiment,48,→,up,↑,0.7009879000252113,False,18
23K21,649,experiment,120,→,left,←,0.7090113000012934,False,18
23K21,650,experiment,180,→,right,→,0.36698659998364747,True,18
23K21,651,experiment,60,→,right,→,0.6291771000251174,True,18
23K21,652,experiment,24,↑,up,↑,0.928097500000149,True,18
23K21,653,experiment,72,→,right,→,0.43365579994861037,True,18
23K21,654,experiment,132,→,up,↑,0.8024543999927118,False,18
23K21,655,experiment,36,→,right,→,0.4335366999730468,True,18
23K21,656,experiment,156,↓,no_key,no_letter,-1.0,False,18
23K21,657,experiment,36,→,left,←,0.7313329000025988,False,18
23K21,658,experiment,36,→,right,→,0.475652499939315,True,18
23K21,659,experiment,108,→,left,←,0.7567556001013145,False,18
23K21,660,experiment,156,←,left,←,0.5026322000194341,True,18
23K21,661,training,120,↑,left,←,1.0761620999546722,False,18
23K21,662,training,144,↓,down,↓,0.43370409996714443,True,18
23K21,663,training,168,←,left,←,0.43355900002643466,True,18
23K21,664,experiment,168,←,left,←,0.9027533000335097,True,18
23K21,665,experiment,60,↓,down,↓,0.6173415000084788,True,18
23K21,666,experiment,108,→,right,→,0.5206045999657363,True,18
23K21,667,experiment,180,↓,down,↓,0.3999581999378279,True,18
23K21,668,experiment,180,↓,down,↓,0.40008170006331056,True,18
23K21,669,experiment,96,→,left,←,0.6993975999066606,False,18
23K21,670,experiment,156,→,left,←,0.7264874000102282,False,18
23K21,671,experiment,24,→,left,←,0.8200633000815287,False,18
23K21,672,experiment,60,↓,down,↓,0.433565599960275,True,18
23K21,673,experiment,144,↑,down,↓,0.7955017999047413,False,18
23K21,674,experiment,96,↑,down,↓,0.983961799996905,False,18
23K21,675,experiment,60,→,right,→,0.6307887000730261,True,18
23K21,676,experiment,12,↓,down,↓,0.7162104999879375,True,18
23K21,677,experiment,84,↓,down,↓,0.6774985999800265,True,18
23K21,678,experiment,84,←,down,↓,0.8075027000159025,False,18
23K21,679,experiment,156,↑,no_key,no_letter,-1.0,False,18
23K21,680,experiment,84,←,left,←,0.5016818000003695,True,18
23K21,681,experiment,36,←,left,←,0.8393660000292584,True,18
23K21,682,experiment,132,↓,down,↓,0.4335562000051141,True,18
23K21,683,experiment,24,→,right,→,1.7770421999739483,True,18
23K21,684,experiment,36,↑,up,↑,1.1206535999663174,True,18
23K21,685,experiment,120,←,left,←,0.4176708000013605,True,18
23K21,686,experiment,72,→,left,←,0.8369154999963939,False,18
23K21,687,experiment,24,←,left,←,0.6006779000163078,True,18
23K21,688,experiment,132,↓,down,↓,0.7104832999175414,True,18
23K21,689,experiment,144,←,left,←,0.4785277000628412,True,18
23K21,690,experiment,120,↑,up,↑,1.3439777999883518,True,18
23K21,691,experiment,48,↑,up,↑,0.5505827999440953,True,18
23K21,692,experiment,108,↓,down,↓,0.4672123999334872,True,18
23K21,693,experiment,96,←,right,→,0.8378117999527603,False,18
23K21,694,experiment,144,↓,down,↓,0.510983599931933,True,18
23K21,695,experiment,180,↑,up,↑,0.605854400084354,True,18
23K21,696,experiment,180,↑,left,←,0.7695624000625685,False,18
23K21,697,experiment,72,←,left,←,0.6994748000288382,True,18
23K21,698,experiment,84,↓,down,↓,0.6719429999357089,True,18
23K21,699,experiment,48,↑,down,↓,0.7427681999979541,False,18
23K21,700,experiment,108,↑,no_key,no_letter,-1.0,False,18
23K21,701,experiment,72,↓,down,↓,0.6231995000271127,True,18
23K21,702,experiment,12,←,left,←,0.7677686000242829,True,18
23K21,703,experiment,168,←,right,→,0.7026647999882698,False,18
23K21,704,experiment,36,↑,up,↑,1.3702732999809086,True,18
23K21,705,experiment,60,↓,down,↓,0.7663355000549927,True,18
23K21,706,experiment,108,↑,left,←,0.624120399937965,False,18
23K21,707,experiment,96,→,right,→,0.607334699947387,True,18
23K21,708,experiment,12,↑,right,→,1.0240429999539629,False,18
23K21,709,experiment,12,↓,no_key,no_letter,-1.0,False,18
23K21,710,experiment,156,↓,down,↓,0.6332200999604538,True,18
23K21,711,experiment,168,↑,down,↓,0.8212190999183804,False,18
23K21,712,experiment,120,←,left,←,0.7248593000695109,True,18
23K21,713,experiment,48,→,left,←,1.3479772000573575,False,18
23K21,714,experiment,132,←,left,←,0.596591499983333,True,18
23K21,715,experiment,132,←,left,←,0.4792602000525221,True,18
23K21,716,experiment,72,→,right,→,1.1923456999938935,True,18
23K21,717,experiment,36,←,left,←,1.806870299973525,True,18
23K21,718,experiment,156,↓,down,↓,0.763979300041683,True,18
23K21,719,experiment,144,↑,up,↑,1.3850226000649855,True,18
23K21,720,experiment,168,→,right,→,1.1636675999034196,True,18
23K21,721,experiment,48,→,left,←,0.754021400003694,False,18
23K21,722,experiment,24,↓,up,↑,0.7113371000159532,False,18
23K21,723,experiment,120,→,right,→,0.6037095999345183,True,18
23K21,724,training,180,←,left,←,0.8441282999701798,True,18
23K21,725,training,168,↑,up,↑,1.1077023000689223,True,18
23K21,726,training,156,←,left,←,0.852980799973011,True,18
23K21,727,experiment,120,↓,down,↓,0.4339443000499159,True,18
23K21,728,experiment,120,↓,down,↓,0.43378439999651164,True,18
23K21,729,experiment,144,←,left,←,0.661385599989444,True,18
23K21,730,experiment,24,↑,left,←,0.9030980999814346,False,18
23K21,731,experiment,132,→,right,→,0.48169369995594025,True,18
23K21,732,experiment,36,←,right,→,0.7963382001034915,False,18
23K21,733,experiment,12,↓,up,↑,0.8032217000145465,False,18
23K21,734,experiment,12,→,right,→,0.4666842999868095,True,18
23K21,735,experiment,180,←,left,←,0.5574478999478742,True,18
23K21,736,experiment,24,↑,up,↑,0.62277679995168,True,18
23K21,737,experiment,36,↑,up,↑,1.128988999989815,True,18
23K21,738,experiment,96,↑,left,←,0.8500545000424609,False,18
23K21,739,experiment,168,↑,up,↑,1.308091999962926,True,18
23K21,740,experiment,144,→,right,→,0.5450664999661967,True,18
23K21,741,experiment,12,↑,up,↑,0.4960757000371814,True,18
23K21,742,experiment,108,↓,down,↓,1.4902252999600023,True,18
23K21,743,experiment,60,↑,up,↑,0.5276452000252903,True,18
23K21,744,experiment,108,←,left,←,0.5015470000216737,True,18
23K21,745,experiment,24,←,left,←,0.38470429996959865,True,18
23K21,746,experiment,84,↑,left,←,1.0016963999951258,False,18
23K21,747,experiment,168,→,right,→,0.7858749000588432,True,18
23K21,748,experiment,60,←,left,←,0.8367569999536499,True,18
23K21,749,experiment,108,→,left,←,0.5014586999313906,False,18
23K21,750,experiment,180,↓,left,←,1.5401337000075728,False,18
23K21,751,experiment,132,←,left,←,1.3002865000162274,True,18
23K21,752,experiment,108,→,right,→,0.49003330001141876,True,18
23K21,753,experiment,168,↑,up,↑,0.6200920999981463,True,18
23K21,754,experiment,36,↑,right,→,0.9372966000810266,False,18
23K21,755,experiment,72,←,left,←,0.4335796000668779,True,18
23K21,756,experiment,84,→,right,→,0.4009905999992043,True,18
23K21,757,experiment,156,↑,up,↑,0.7737353999400511,True,18
23K21,758,experiment,96,→,right,→,0.41718409990426153,True,18
23K21,759,experiment,24,←,left,←,0.4341982000041753,True,18
23K21,760,experiment,72,↑,up,↑,0.6807719999924302,True,18
23K21,761,experiment,48,→,right,→,0.4171232000226155,True,18
23K21,762,experiment,72,←,right,→,1.0340048999059945,False,18
23K21,763,experiment,180,↑,up,↑,0.49301229999400675,True,18
23K21,764,experiment,120,←,right,→,0.5646775000495836,False,18
23K21,765,experiment,156,↑,up,↑,0.6773356999037787,True,18
23K21,766,experiment,144,↑,up,↑,0.41705079993698746,True,18
23K21,767,experiment,60,↑,down,↓,1.3643716999795288,False,18
23K21,768,experiment,72,↓,down,↓,0.693751799990423,True,18
23K21,769,experiment,156,←,left,←,0.8382778000086546,True,18
23K21,770,experiment,60,↑,up,↑,0.6413892999989912,True,18
23K21,771,experiment,84,↓,down,↓,0.5864595000166446,True,18
23K21,772,experiment,48,→,left,←,0.8058374000247568,False,18
23K21,773,experiment,12,↑,right,→,1.0814811000600457,False,18
23K21,774,experiment,48,←,left,←,0.9742968999780715,True,18
23K21,775,experiment,96,↓,left,←,0.5988148000324145,False,18
23K21,776,experiment,132,→,right,→,1.9085330000380054,True,18
23K21,777,experiment,120,→,left,←,0.6595292999409139,False,18
23K21,778,experiment,132,←,left,←,0.6464611999690533,True,18
23K21,779,experiment,156,↑,left,←,0.6922204000875354,False,18
23K21,780,experiment,96,↑,up,↑,0.7256783000193536,True,18
23K21,781,experiment,168,←,left,←,1.3592602000571787,True,18
23K21,782,experiment,36,↓,down,↓,0.9102396999951452,True,18
23K21,783,experiment,180,→,no_key,no_letter,-1.0,False,18
23K21,784,experiment,48,↓,down,↓,1.1461185000371188,True,18
23K21,785,experiment,144,↑,up,↑,0.3842018999857828,True,18
23K21,786,experiment,84,→,right,→,0.7219697000691667,True,18
23K21,787,training,180,→,right,→,0.6727849000599235,True,18
23K21,788,training,36,→,right,→,0.38413250003941357,True,18
23K21,789,training,48,←,right,→,0.30190969991963357,False,18
23K21,790,experiment,108,↑,up,↑,0.545700200018473,True,18
23K21,791,experiment,180,↑,up,↑,0.6241374999517575,True,18
23K21,792,experiment,60,↑,up,↑,0.4722561000380665,True,18
23K21,793,experiment,144,←,left,←,0.47539310005959123,True,18
23K21,794,experiment,96,↓,down,↓,1.2132679000496864,True,18
23K21,795,experiment,36,↓,down,↓,0.683227299945429,True,18
23K21,796,experiment,84,↓,down,↓,0.7564517999999225,True,18
23K21,797,experiment,96,↓,down,↓,0.4006635999539867,True,18
23K21,798,experiment,180,↑,up,↑,1.01853330002632,True,18
23K21,799,experiment,132,↑,up,↑,1.067854299908504,True,18
23K21,800,experiment,48,↓,down,↓,0.8091750999446958,True,18
23K21,801,experiment,132,→,right,→,1.3398663999978453,True,18
23K21,802,experiment,84,→,right,→,0.6012868999969214,True,18
23K21,803,experiment,36,↑,left,←,0.7767944000661373,False,18
23K21,804,experiment,96,←,left,←,0.524961999966763,True,18
23K21,805,experiment,144,↓,down,↓,0.7878507999703288,True,18
23K21,806,experiment,156,→,right,→,1.0805167999351397,True,18
23K21,807,experiment,24,←,right,→,0.4862792999483645,False,18
23K21,808,experiment,120,→,right,→,0.5297672000015154,True,18
23K21,809,experiment,72,↓,down,↓,0.809762499993667,True,18
23K21,810,experiment,156,↓,down,↓,0.7548126999754459,True,18
23K21,811,experiment,24,←,left,←,0.7757937000133097,True,18
23K21,812,experiment,12,↓,down,↓,0.4863754999823868,True,18
23K21,813,experiment,36,→,right,→,0.5562909001018852,True,18
23K21,814,experiment,108,→,right,→,0.5832591999787837,True,18
23K21,815,experiment,120,↓,down,↓,0.6847853999352083,True,18
23K21,816,experiment,72,↓,down,↓,0.5360566000454128,True,18
23K21,817,experiment,24,↑,up,↑,0.4974464999977499,True,18
23K21,818,experiment,96,←,right,→,0.596722700051032,False,18
23K21,819,experiment,12,←,left,←,0.6160141999134794,True,18
23K21,820,experiment,12,→,right,→,0.5244401999516413,True,18
23K21,821,experiment,120,←,left,←,1.1185646000085399,True,18
23K21,822,experiment,72,←,left,←,0.43373499996960163,True,18
23K21,823,experiment,60,←,left,←,0.4012283000629395,True,18
23K21,824,experiment,144,→,right,→,0.47385880001820624,True,18
23K21,825,experiment,60,→,right,→,0.5017894998891279,True,18
23K21,826,experiment,120,↓,down,↓,0.7396054000128061,True,18
23K21,827,experiment,168,↓,down,↓,0.5799588999943808,True,18
23K21,828,experiment,84,→,right,→,0.5193622000515461,True,18
23K21,829,experiment,24,↓,down,↓,0.4858340999344364,True,18
23K21,830,experiment,168,↓,down,↓,0.542689900030382,True,18
23K21,831,experiment,144,→,right,→,0.5985216000117362,True,18
23K21,832,experiment,180,←,left,←,1.1413019000319764,True,18
23K21,833,experiment,108,↑,up,↑,0.7045067000435665,True,18
23K21,834,experiment,60,↑,up,↑,0.6635404999833554,True,18
23K21,835,experiment,48,↓,down,↓,0.4851117000216618,True,18
23K21,836,experiment,48,→,right,→,0.5465043999720365,True,18
23K21,837,experiment,180,←,left,←,0.7586971999844536,True,18
23K21,838,experiment,84,→,right,→,0.5021861999994144,True,18
23K21,839,experiment,132,←,left,←,0.5164212000090629,True,18
23K21,840,experiment,36,↑,down,↓,0.8884276999160647,False,18
23K21,841,experiment,108,→,right,→,0.567895199987106,True,18
23K21,842,experiment,12,↓,left,←,0.7941375999944285,False,18
23K21,843,experiment,168,→,right,→,0.5544001000234857,True,18
23K21,844,experiment,156,↓,down,↓,0.7165725999511778,True,18
23K21,845,experiment,132,→,right,→,0.6556137999286875,True,18
23K21,846,experiment,168,↓,down,↓,0.586202000034973,True,18
23K21,847,experiment,156,↓,down,↓,0.6168587999418378,True,18
23K21,848,experiment,72,→,right,→,0.49161639995872974,True,18
23K21,849,experiment,48,→,right,→,0.5755336000584066,True,18
