PART_ID,Trial_no,Trial_type,CSI,Stim_letter,Key_pressed,letter_choose,Rt,Corr,Stimulus Time
2A-MK2912M23,1,training,10,→,no_key,no_letter,-1.0,False,63
2A-MK2912M23,2,training,10,←,left,←,0.6337473000166938,True,63
2A-MK2912M23,3,training,10,←,left,←,0.5838223000173457,True,63
2A-MK2912M23,4,training,10,→,right,→,0.5002497999812476,True,63
2A-MK2912M23,5,training,10,←,left,←,0.43387529999017715,True,63
2A-MK2912M23,6,training,10,↓,down,↓,0.735953800030984,True,63
2A-MK2912M23,7,training,10,↓,down,↓,0.983923899999354,True,63
2A-MK2912M23,8,training,10,↓,down,↓,0.7005634999950416,True,63
2A-MK2912M23,9,experiment,14,↓,down,↓,0.7338067999808118,True,63
2A-MK2912M23,10,experiment,25,→,left,←,0.6337883999804035,False,63
2A-MK2912M23,11,experiment,17,→,right,→,0.48380460002226755,True,63
2A-MK2912M23,12,experiment,30,→,right,→,0.6169369000126608,True,63
2A-MK2912M23,13,experiment,13,←,left,←,0.6674990999745205,True,63
2A-MK2912M23,14,experiment,24,←,left,←,0.4687918000272475,True,63
2A-MK2912M23,15,experiment,21,↓,down,↓,0.8170491000055335,True,63
2A-MK2912M23,16,experiment,15,←,left,←,0.7338616999913938,True,63
2A-MK2912M23,17,experiment,18,↓,down,↓,0.4506165999919176,True,63
2A-MK2912M23,18,experiment,28,↑,up,↑,0.883847999968566,True,63
2A-MK2912M23,19,experiment,16,↑,up,↑,0.7523870000150055,True,63
2A-MK2912M23,20,experiment,20,↓,down,↓,0.8339632999850437,True,63
2A-MK2912M23,21,experiment,29,→,right,→,0.5339532000361942,True,63
2A-MK2912M23,22,experiment,26,←,left,←,0.4522620000061579,True,63
2A-MK2912M23,23,experiment,27,↓,down,↓,0.7004742000135593,True,63
2A-MK2912M23,24,experiment,19,→,right,→,0.7338243999984115,True,63
2A-MK2912M23,25,experiment,23,←,left,←,0.7340459999977611,True,63
2A-MK2912M23,26,experiment,31,↓,down,↓,0.8505409000208601,True,63
2A-MK2912M23,27,experiment,22,→,right,→,0.7170228000031784,True,63
2A-MK2912M23,28,experiment,14,↓,down,↓,0.6839527999982238,True,58
2A-MK2912M23,29,experiment,22,←,left,←,0.5005260999896564,True,58
2A-MK2912M23,30,experiment,31,←,right,→,0.5504112999769859,False,58
2A-MK2912M23,31,experiment,16,↑,up,↑,0.6671513999463059,True,58
2A-MK2912M23,32,experiment,26,→,right,→,0.5337897999561392,True,58
2A-MK2912M23,33,experiment,13,↑,up,↑,0.667198000010103,True,58
2A-MK2912M23,34,experiment,27,↑,up,↑,0.8172711000079289,True,58
2A-MK2912M23,35,experiment,24,↑,up,↑,0.5338116000057198,True,58
2A-MK2912M23,36,experiment,19,→,right,→,0.6002708000014536,True,58
2A-MK2912M23,37,experiment,18,←,left,←,0.5838323999778368,True,58
2A-MK2912M23,38,experiment,25,←,left,←,0.6838364999857731,True,58
2A-MK2912M23,39,experiment,17,↓,down,↓,0.7671567000215873,True,58
2A-MK2912M23,40,experiment,20,←,left,←,0.6004545000032522,True,58
2A-MK2912M23,41,experiment,15,↓,down,↓,0.7671585999778472,True,58
2A-MK2912M23,42,experiment,30,←,left,←,0.7837330999900587,True,58
2A-MK2912M23,43,experiment,23,←,left,←,0.7339398000040092,True,58
2A-MK2912M23,44,experiment,29,↑,up,↑,0.9173281000112183,True,58
2A-MK2912M23,45,experiment,28,↑,up,↑,0.6504828000324778,True,58
2A-MK2912M23,46,experiment,21,→,right,→,0.7021379999932833,True,58
2A-MK2912M23,47,experiment,14,↓,down,↓,0.7005436000181362,True,53
2A-MK2912M23,48,experiment,29,↓,down,↓,0.5172477999585681,True,53
2A-MK2912M23,49,experiment,16,↓,down,↓,0.6839187999721617,True,53
2A-MK2912M23,50,experiment,23,↓,down,↓,0.6005611000000499,True,53
2A-MK2912M23,51,experiment,17,→,right,→,0.7006960000144318,True,53
2A-MK2912M23,52,experiment,18,→,right,→,0.6171403000480495,True,53
2A-MK2912M23,53,experiment,27,↓,down,↓,0.7671777000068687,True,53
2A-MK2912M23,54,experiment,26,←,left,←,0.7522937000030652,True,53
2A-MK2912M23,55,experiment,25,→,right,→,0.49965210002847016,True,53
2A-MK2912M23,56,experiment,21,→,left,←,0.5503443999914452,False,53
2A-MK2912M23,57,experiment,22,←,left,←,0.48385469999630004,True,53
2A-MK2912M23,58,experiment,24,↑,up,↑,0.8505545000080019,True,53
2A-MK2912M23,59,experiment,30,→,right,→,0.450224399974104,True,53
2A-MK2912M23,60,experiment,28,↑,up,↑,0.633580899972003,True,53
2A-MK2912M23,61,experiment,15,↓,down,↓,0.7171068000025116,True,53
2A-MK2912M23,62,experiment,13,→,right,→,0.7503634000313468,True,53
2A-MK2912M23,63,experiment,19,→,right,→,0.5670994999818504,True,53
2A-MK2912M23,64,experiment,20,↑,up,↑,0.6506250000093132,True,53
2A-MK2912M23,65,experiment,31,↑,up,↑,0.7504610000178218,True,53
2A-MK2912M23,66,experiment,27,←,left,←,0.43380390002857894,True,48
2A-MK2912M23,67,experiment,26,←,left,←,0.5336584000033326,True,48
2A-MK2912M23,68,experiment,29,→,right,→,0.6516865000012331,True,48
2A-MK2912M23,69,experiment,31,←,left,←,0.467038800008595,True,48
2A-MK2912M23,70,experiment,18,←,left,←,0.4839005999965593,True,48
2A-MK2912M23,71,experiment,21,↓,down,↓,0.6173311999882571,True,48
2A-MK2912M23,72,experiment,24,↓,down,↓,0.4670740999863483,True,48
2A-MK2912M23,73,experiment,15,←,left,←,0.48374340002192184,True,48
2A-MK2912M23,74,experiment,28,↑,up,↑,0.6173942000023089,True,48
2A-MK2912M23,75,experiment,30,↑,up,↑,0.5672127000289038,True,48
2A-MK2912M23,76,experiment,22,→,right,→,0.6838408000185154,True,48
2A-MK2912M23,77,experiment,20,→,right,→,0.5503465000074357,True,48
2A-MK2912M23,78,experiment,16,↓,down,↓,0.6505043999641202,True,48
2A-MK2912M23,79,experiment,13,↑,up,↑,0.5840106000541709,True,48
2A-MK2912M23,80,experiment,14,←,left,←,0.7340066999895498,True,48
2A-MK2912M23,81,experiment,25,←,left,←,0.5687247999594547,True,48
2A-MK2912M23,82,experiment,19,↑,no_key,no_letter,-1.0,False,48
2A-MK2912M23,83,experiment,17,↓,no_key,no_letter,-1.0,False,48
2A-MK2912M23,84,experiment,23,↓,down,↓,0.683749700023327,True,48
2A-MK2912M23,85,experiment,18,←,no_key,no_letter,-1.0,False,43
2A-MK2912M23,86,experiment,31,↓,down,↓,0.6670523000066169,True,43
2A-MK2912M23,87,experiment,13,↓,down,↓,0.6004284000373445,True,43
2A-MK2912M23,88,experiment,28,→,right,→,0.48425149999093264,True,43
2A-MK2912M23,89,experiment,26,→,right,→,0.6173179000033997,True,43
2A-MK2912M23,90,experiment,25,←,left,←,0.4003821999649517,True,43
2A-MK2912M23,91,experiment,30,←,left,←,0.5169285999727435,True,43
2A-MK2912M23,92,experiment,27,→,no_key,no_letter,-1.0,False,43
2A-MK2912M23,93,experiment,22,←,left,←,0.43377900001360103,True,43
2A-MK2912M23,94,experiment,23,↑,up,↑,0.5838514000060968,True,43
2A-MK2912M23,95,experiment,17,↑,up,↑,0.38373699999647215,True,43
2A-MK2912M23,96,experiment,20,←,left,←,0.4003034000052139,True,43
2A-MK2912M23,97,experiment,15,↓,no_key,no_letter,-1.0,False,43
2A-MK2912M23,98,experiment,29,↓,down,↓,0.6001056000241078,True,43
2A-MK2912M23,99,experiment,24,→,no_key,no_letter,-1.0,False,43
2A-MK2912M23,100,experiment,21,→,right,→,0.5672509000287391,True,43
2A-MK2912M23,101,experiment,14,→,right,→,0.6172810000134632,True,43
2A-MK2912M23,102,experiment,16,←,no_key,no_letter,-1.0,False,43
2A-MK2912M23,103,experiment,19,←,no_key,no_letter,-1.0,False,43
2A-MK2912M23,104,experiment,19,↓,down,↓,0.5838062000111677,True,59
2A-MK2912M23,105,experiment,30,←,left,←,0.43374770000809804,True,59
2A-MK2912M23,106,experiment,18,↓,down,↓,0.4686441000085324,True,59
2A-MK2912M23,107,experiment,22,←,left,←,0.683913399989251,True,59
2A-MK2912M23,108,experiment,31,←,left,←,0.4838008999940939,True,59
2A-MK2912M23,109,experiment,26,←,left,←,0.5185937999631278,True,59
2A-MK2912M23,110,experiment,17,↓,down,↓,0.6171590000158176,True,59
2A-MK2912M23,111,experiment,23,↑,up,↑,0.6673287999583408,True,59
2A-MK2912M23,112,experiment,13,←,left,←,0.5172918999451213,True,59
2A-MK2912M23,113,experiment,16,→,right,→,0.5505380000104196,True,59
2A-MK2912M23,114,experiment,21,↑,up,↑,0.6506101000122726,True,59
2A-MK2912M23,115,experiment,29,↑,up,↑,0.700587400002405,True,59
2A-MK2912M23,116,experiment,20,→,right,→,0.6170610999688506,True,59
2A-MK2912M23,117,experiment,24,→,right,→,0.533963699999731,True,59
2A-MK2912M23,118,experiment,15,→,right,→,0.5004882999928668,True,59
2A-MK2912M23,119,experiment,27,↑,down,↓,0.6005732000339776,False,59
2A-MK2912M23,120,experiment,14,←,right,→,0.5839306000270881,False,59
2A-MK2912M23,121,experiment,25,↓,right,→,0.40054800000507385,False,59
2A-MK2912M23,122,experiment,28,↑,no_key,no_letter,-1.0,False,59
2A-MK2912M23,123,experiment,22,↓,down,↓,0.48387420002836734,True,75
2A-MK2912M23,124,experiment,16,←,left,←,0.6856839999672957,True,75
2A-MK2912M23,125,experiment,18,↑,up,↑,0.4503037999966182,True,75
2A-MK2912M23,126,experiment,17,→,right,→,0.5503607999999076,True,75
2A-MK2912M23,127,experiment,23,←,left,←,0.8338976000086404,True,75
2A-MK2912M23,128,experiment,14,↑,up,↑,0.6339238000218756,True,75
2A-MK2912M23,129,experiment,15,→,right,→,0.7169839999987744,True,75
2A-MK2912M23,130,experiment,21,↑,up,↑,0.7672529999981634,True,75
2A-MK2912M23,131,experiment,28,↓,down,↓,0.816921999969054,True,75
2A-MK2912M23,132,experiment,30,↑,up,↑,0.7172399999690242,True,75
2A-MK2912M23,133,experiment,24,→,right,→,0.5027058999985456,True,75
2A-MK2912M23,134,experiment,13,→,right,→,0.7858072000090033,True,75
2A-MK2912M23,135,experiment,26,→,right,→,0.7340215999865904,True,75
2A-MK2912M23,136,experiment,19,↓,down,↓,0.4504575999453664,True,75
2A-MK2912M23,137,experiment,25,→,right,→,0.5338095999904908,True,75
2A-MK2912M23,138,experiment,29,↑,up,↑,0.5171000999980606,True,75
2A-MK2912M23,139,experiment,31,↓,down,↓,0.6169327000388876,True,75
2A-MK2912M23,140,experiment,20,←,left,←,0.917126200045459,True,75
2A-MK2912M23,141,experiment,27,←,left,←,0.817413899989333,True,75
2A-MK2912M23,142,experiment,18,←,left,←,0.4340987000032328,True,73
2A-MK2912M23,143,experiment,16,↑,up,↑,0.750685999984853,True,73
2A-MK2912M23,144,experiment,22,→,right,→,0.6006840000045486,True,73
2A-MK2912M23,145,experiment,15,↓,down,↓,0.6671377000166103,True,73
2A-MK2912M23,146,experiment,14,←,left,←,0.6506375000462867,True,73
2A-MK2912M23,147,experiment,21,→,right,→,0.7522716000094078,True,73
2A-MK2912M23,148,experiment,13,↑,up,↑,0.767206399992574,True,73
2A-MK2912M23,149,experiment,24,↑,up,↑,0.7004989000270143,True,73
2A-MK2912M23,150,experiment,29,←,left,←,0.7674012000206858,True,73
2A-MK2912M23,151,experiment,26,↓,down,↓,0.8004685000050813,True,73
2A-MK2912M23,152,experiment,30,↓,down,↓,0.6356458000373095,True,73
2A-MK2912M23,153,experiment,20,←,left,←,0.6336382000008598,True,73
2A-MK2912M23,154,experiment,17,↓,down,↓,0.8338571000494994,True,73
2A-MK2912M23,155,experiment,19,←,right,→,0.6004685999942012,False,73
2A-MK2912M23,156,experiment,23,↑,up,↑,0.5838316999725066,True,73
2A-MK2912M23,157,experiment,25,←,left,←,0.4837017999961972,True,73
2A-MK2912M23,158,experiment,27,↓,down,↓,0.4673123999964446,True,73
2A-MK2912M23,159,experiment,31,←,left,←,0.6839056999888271,True,73
2A-MK2912M23,160,experiment,28,↑,up,↑,0.5504581999848597,True,73
2A-MK2912M23,161,experiment,16,↑,up,↑,0.8504059999831952,True,71
2A-MK2912M23,162,experiment,18,↑,up,↑,0.5169718000106514,True,71
2A-MK2912M23,163,experiment,14,←,left,←,0.7003645999939181,True,71
2A-MK2912M23,164,experiment,23,→,right,→,0.46882469998672605,True,71
2A-MK2912M23,165,experiment,21,←,left,←,0.7505297000170685,True,71
2A-MK2912M23,166,experiment,25,↑,up,↑,0.5839464000309817,True,71
2A-MK2912M23,167,experiment,19,↓,down,↓,0.5339914999785833,True,71
2A-MK2912M23,168,experiment,20,→,right,→,0.6847522999742068,True,71
2A-MK2912M23,169,experiment,24,←,left,←,0.6671350999968126,True,71
2A-MK2912M23,170,experiment,13,↑,up,↑,0.7855080000008456,True,71
2A-MK2912M23,171,experiment,30,←,left,←,0.6005553000140935,True,71
2A-MK2912M23,172,experiment,28,↑,up,↑,0.6503492000047117,True,71
2A-MK2912M23,173,experiment,29,←,left,←,0.6337263000314124,True,71
2A-MK2912M23,174,experiment,31,↓,down,↓,0.6838385000010021,True,71
2A-MK2912M23,175,experiment,15,↑,up,↑,0.4171263999887742,True,71
2A-MK2912M23,176,experiment,26,↑,up,↑,1.083848600042984,True,71
2A-MK2912M23,177,experiment,22,↓,down,↓,0.6505911000422202,True,71
2A-MK2912M23,178,experiment,27,→,right,→,0.7005817000172101,True,71
2A-MK2912M23,179,experiment,17,←,left,←,0.5504631000221707,True,71
2A-MK2912M23,180,experiment,25,←,right,→,0.6338427999871783,False,69
2A-MK2912M23,181,experiment,14,→,right,→,0.4838069999823347,True,69
2A-MK2912M23,182,experiment,27,↓,down,↓,0.6837102000135928,True,69
2A-MK2912M23,183,experiment,18,↓,down,↓,0.48358729999745265,True,69
2A-MK2912M23,184,experiment,23,←,left,←,0.5172382000018843,True,69
2A-MK2912M23,185,experiment,21,→,right,→,0.5836208999971859,True,69
2A-MK2912M23,186,experiment,16,←,right,→,0.8172631000052206,False,69
2A-MK2912M23,187,experiment,20,→,right,→,0.6170937999850139,True,69
2A-MK2912M23,188,experiment,19,←,no_key,no_letter,-1.0,False,69
2A-MK2912M23,189,experiment,28,←,left,←,0.8339831999619491,True,69
2A-MK2912M23,190,experiment,26,↑,up,↑,0.8672375999740325,True,69
2A-MK2912M23,191,experiment,15,→,right,→,0.5173217999981716,True,69
2A-MK2912M23,192,experiment,17,←,left,←,0.6673467000364326,True,69
2A-MK2912M23,193,experiment,31,↓,down,↓,0.7506103000487201,True,69
2A-MK2912M23,194,experiment,24,→,right,→,0.5171652999706566,True,69
2A-MK2912M23,195,experiment,29,←,left,←,0.5357090999605134,True,69
2A-MK2912M23,196,experiment,30,←,left,←,0.46713419997831807,True,69
2A-MK2912M23,197,experiment,13,↓,right,→,0.5837989999563433,False,69
2A-MK2912M23,198,experiment,22,↑,up,↑,1.0839525999617763,True,69
2A-MK2912M23,199,experiment,23,→,right,→,0.6838337000226602,True,74
2A-MK2912M23,200,experiment,15,←,left,←,0.41731910000089556,True,74
2A-MK2912M23,201,experiment,31,↑,up,↑,1.0354972999775782,True,74
2A-MK2912M23,202,experiment,13,←,left,←,0.6671041999943554,True,74
2A-MK2912M23,203,experiment,26,→,right,→,0.5852792999939993,True,74
2A-MK2912M23,204,experiment,22,↑,up,↑,0.7188236999791116,True,74
2A-MK2912M23,205,experiment,17,→,left,←,0.5172466000076383,False,74
2A-MK2912M23,206,experiment,16,↓,down,↓,0.551979299983941,True,74
2A-MK2912M23,207,experiment,30,→,right,→,0.6837388999992982,True,74
2A-MK2912M23,208,experiment,28,←,left,←,0.585355100047309,True,74
2A-MK2912M23,209,experiment,24,→,right,→,0.4520823999773711,True,74
2A-MK2912M23,210,experiment,27,↓,down,↓,0.5505309000145644,True,74
2A-MK2912M23,211,experiment,25,←,left,←,0.733823399990797,True,74
2A-MK2912M23,212,experiment,29,→,right,→,0.7504881999921054,True,74
2A-MK2912M23,213,experiment,21,→,right,→,0.8672853999887593,True,74
2A-MK2912M23,214,experiment,18,←,left,←,0.7999194000149146,True,74
2A-MK2912M23,215,experiment,19,→,right,→,0.7527639999752864,True,74
2A-MK2912M23,216,experiment,14,←,left,←,0.6336565999663435,True,74
2A-MK2912M23,217,experiment,20,→,right,→,0.5337843000306748,True,74
2A-MK2912M23,218,experiment,27,←,left,←,0.8005809999885969,True,72
2A-MK2912M23,219,experiment,16,→,right,→,0.48374860000330955,True,72
2A-MK2912M23,220,experiment,28,←,left,←,0.6004869000171311,True,72
2A-MK2912M23,221,experiment,23,←,left,←,0.5672756999847479,True,72
2A-MK2912M23,222,experiment,29,→,right,→,0.717229200003203,True,72
2A-MK2912M23,223,experiment,26,↓,down,↓,1.0836400000262074,True,72
2A-MK2912M23,224,experiment,24,←,left,←,0.8005710000288673,True,72
2A-MK2912M23,225,experiment,20,↑,up,↑,0.750365599989891,True,72
2A-MK2912M23,226,experiment,21,←,left,←,0.6337707999628037,True,72
2A-MK2912M23,227,experiment,18,↑,up,↑,0.6172623999882489,True,72
2A-MK2912M23,228,experiment,13,↑,up,↑,0.5505533000105061,True,72
2A-MK2912M23,229,experiment,22,↑,up,↑,0.5503443999914452,True,72
2A-MK2912M23,230,experiment,17,←,left,←,0.533800000033807,True,72
2A-MK2912M23,231,experiment,31,↑,up,↑,0.6173715000040829,True,72
2A-MK2912M23,232,experiment,14,↑,up,↑,0.6171660000109114,True,72
2A-MK2912M23,233,experiment,25,←,left,←,0.7172152000130154,True,72
2A-MK2912M23,234,experiment,19,↓,down,↓,0.6005202999804169,True,72
2A-MK2912M23,235,experiment,30,→,right,→,0.4837769000441767,True,72
2A-MK2912M23,236,experiment,15,→,right,→,0.9505284000188112,True,72
2A-MK2912M23,237,experiment,21,→,right,→,0.6335152999963611,True,70
2A-MK2912M23,238,experiment,27,↓,down,↓,0.5670112000079826,True,70
2A-MK2912M23,239,experiment,25,→,right,→,0.7005018999916501,True,70
2A-MK2912M23,240,experiment,30,↓,down,↓,0.7005402000504546,True,70
2A-MK2912M23,241,experiment,19,↓,down,↓,0.8506897000479512,True,70
2A-MK2912M23,242,experiment,31,↓,down,↓,0.7170991000020877,True,70
2A-MK2912M23,243,experiment,28,↑,up,↑,0.6019310000119731,True,70
2A-MK2912M23,244,experiment,18,↑,up,↑,0.9505320000462234,True,70
2A-MK2912M23,245,experiment,15,↑,up,↑,0.7339273999677971,True,70
2A-MK2912M23,246,experiment,22,↓,down,↓,0.6668899000505917,True,70
2A-MK2912M23,247,experiment,20,↑,up,↑,0.5337047000066377,True,70
2A-MK2912M23,248,experiment,29,→,right,→,0.8522638999857008,True,70
2A-MK2912M23,249,experiment,23,→,right,→,0.7837832000222988,True,70
2A-MK2912M23,250,experiment,26,←,left,←,0.5672173000057228,True,70
2A-MK2912M23,251,experiment,14,↓,down,↓,0.5687816999852657,True,70
2A-MK2912M23,252,experiment,24,←,left,←,0.5837996000191197,True,70
2A-MK2912M23,253,experiment,16,↓,no_key,no_letter,-1.0,False,70
2A-MK2912M23,254,experiment,17,↓,down,↓,0.867162799986545,True,70
2A-MK2912M23,255,experiment,13,←,left,←,0.9338718000217341,True,70
2A-MK2912M23,256,experiment,23,↑,up,↑,0.5504606000031345,True,68
2A-MK2912M23,257,experiment,17,→,right,→,0.5172173000173643,True,68
2A-MK2912M23,258,experiment,28,↓,down,↓,0.8339360000099987,True,68
2A-MK2912M23,259,experiment,21,↓,down,↓,0.9005831999820657,True,68
2A-MK2912M23,260,experiment,24,→,right,→,0.5505390000180341,True,68
2A-MK2912M23,261,experiment,14,↓,down,↓,0.917252000013832,True,68
2A-MK2912M23,262,experiment,25,←,left,←,0.5171188999665901,True,68
2A-MK2912M23,263,experiment,22,↑,up,↑,0.5007054000161588,True,68
2A-MK2912M23,264,experiment,27,↑,up,↑,0.95067549997475,True,68
2A-MK2912M23,265,experiment,13,←,left,←,0.9172972000087611,True,68
2A-MK2912M23,266,experiment,29,→,right,→,0.7504777000285685,True,68
2A-MK2912M23,267,experiment,18,→,right,→,1.0505704000242986,True,68
2A-MK2912M23,268,experiment,15,↑,up,↑,0.7005815000156872,True,68
2A-MK2912M23,269,experiment,20,→,right,→,0.6006533000036143,True,68
2A-MK2912M23,270,experiment,16,↓,down,↓,0.5852869999944232,True,68
2A-MK2912M23,271,experiment,31,↑,up,↑,1.0007441999623552,True,68
2A-MK2912M23,272,experiment,26,↑,up,↑,0.5172289000474848,True,68
2A-MK2912M23,273,experiment,19,↓,down,↓,0.5672921999939717,True,68
2A-MK2912M23,274,experiment,30,→,right,→,0.6172630999935791,True,68
2A-MK2912M23,275,experiment,22,→,right,→,0.46731249999720603,True,66
2A-MK2912M23,276,experiment,26,↑,up,↑,0.6505447000381537,True,66
2A-MK2912M23,277,experiment,21,←,down,↓,0.7840100000030361,False,66
2A-MK2912M23,278,experiment,13,←,left,←,0.7673841000068933,True,66
2A-MK2912M23,279,experiment,17,↑,up,↑,0.8004877000348642,True,66
2A-MK2912M23,280,experiment,28,←,left,←,0.5008371999720111,True,66
2A-MK2912M23,281,experiment,30,→,right,→,0.40094799996586516,True,66
2A-MK2912M23,282,experiment,20,→,right,→,0.5338306999765337,True,66
2A-MK2912M23,283,experiment,24,↓,down,↓,0.40051449998281896,True,66
2A-MK2912M23,284,experiment,29,→,right,→,0.7172879999852739,True,66
2A-MK2912M23,285,experiment,31,↓,down,↓,0.6668934000190347,True,66
2A-MK2912M23,286,experiment,14,←,left,←,0.4505697999848053,True,66
2A-MK2912M23,287,experiment,18,↑,up,↑,0.8339217000175267,True,66
2A-MK2912M23,288,experiment,19,↑,up,↑,0.4172735000029206,True,66
2A-MK2912M23,289,experiment,27,→,right,→,0.416874100046698,True,66
2A-MK2912M23,290,experiment,15,↑,up,↑,0.5838366000098176,True,66
2A-MK2912M23,291,experiment,23,↑,up,↑,0.9170374000095762,True,66
2A-MK2912M23,292,experiment,25,↑,up,↑,0.750553400022909,True,66
2A-MK2912M23,293,experiment,16,←,left,←,0.7175181000493467,True,66
2A-MK2912M23,294,experiment,27,←,left,←,0.3836648999713361,True,64
2A-MK2912M23,295,experiment,21,↓,down,↓,0.7894814000464976,True,64
2A-MK2912M23,296,experiment,26,↑,up,↑,0.5171726000262424,True,64
2A-MK2912M23,297,experiment,23,↓,down,↓,0.5838839000207372,True,64
2A-MK2912M23,298,experiment,24,↓,down,↓,0.6172353000147268,True,64
2A-MK2912M23,299,experiment,16,→,right,→,0.418897699972149,True,64
2A-MK2912M23,300,experiment,18,↑,up,↑,0.467108000011649,True,64
2A-MK2912M23,301,experiment,30,↓,down,↓,0.8837198999826796,True,64
2A-MK2912M23,302,experiment,19,→,right,→,0.7340653000283055,True,64
2A-MK2912M23,303,experiment,31,↑,down,↓,0.6019955000374466,False,64
2A-MK2912M23,304,experiment,28,→,right,→,0.5338532999739982,True,64
2A-MK2912M23,305,experiment,17,←,left,←,0.48386109998682514,True,64
2A-MK2912M23,306,experiment,15,→,right,→,0.5850175999803469,True,64
2A-MK2912M23,307,experiment,13,↑,up,↑,0.5503909999970347,True,64
2A-MK2912M23,308,experiment,14,→,right,→,0.5521322999848053,True,64
2A-MK2912M23,309,experiment,25,↑,up,↑,0.6838781999540515,True,64
2A-MK2912M23,310,experiment,29,→,right,→,0.8338436000049114,True,64
2A-MK2912M23,311,experiment,22,↑,up,↑,0.5671666000271216,True,64
2A-MK2912M23,312,experiment,20,→,right,→,1.000619900005404,True,64
2A-MK2912M23,313,experiment,21,↓,down,↓,0.5671994000440463,True,62
2A-MK2912M23,314,experiment,23,↓,down,↓,0.4836336000007577,True,62
2A-MK2912M23,315,experiment,19,→,right,→,0.6004863000125624,True,62
2A-MK2912M23,316,experiment,26,→,right,→,0.90057399997022,True,62
2A-MK2912M23,317,experiment,15,↑,up,↑,0.7171247999649495,True,62
2A-MK2912M23,318,experiment,30,←,right,→,0.6337798000313342,False,62
2A-MK2912M23,319,experiment,28,←,left,←,0.6664348000194877,True,62
2A-MK2912M23,320,experiment,25,→,right,→,0.6505116999614984,True,62
2A-MK2912M23,321,experiment,18,←,left,←,0.8503959999652579,True,62
2A-MK2912M23,322,experiment,24,→,right,→,0.7503763000131585,True,62
2A-MK2912M23,323,experiment,13,↓,down,↓,0.8337691000197083,True,62
2A-MK2912M23,324,experiment,16,↑,up,↑,0.5005413999897428,True,62
2A-MK2912M23,325,experiment,27,↑,up,↑,0.6671558000380173,True,62
2A-MK2912M23,326,experiment,17,↑,up,↑,0.6672225000220351,True,62
2A-MK2912M23,327,experiment,22,↑,up,↑,0.8005615000147372,True,62
2A-MK2912M23,328,experiment,20,↓,down,↓,0.6837689999956638,True,62
2A-MK2912M23,329,experiment,31,←,no_key,no_letter,-1.0,False,62
2A-MK2912M23,330,experiment,29,→,right,→,0.7838883999502286,True,62
2A-MK2912M23,331,experiment,14,↓,down,↓,0.7997270000050776,True,62
2A-MK2912M23,332,experiment,15,→,right,→,0.7520319999894127,True,60
2A-MK2912M23,333,experiment,21,↑,up,↑,0.8338161000283435,True,60
2A-MK2912M23,334,experiment,24,←,left,←,0.5505647999816574,True,60
2A-MK2912M23,335,experiment,16,→,right,→,0.5338338000001386,True,60
2A-MK2912M23,336,experiment,28,←,left,←,0.8334526999969967,True,60
2A-MK2912M23,337,experiment,30,↓,down,↓,0.6671057000057772,True,60
2A-MK2912M23,338,experiment,22,↑,up,↑,0.450302500044927,True,60
2A-MK2912M23,339,experiment,25,↑,up,↑,0.6336244999547489,True,60
2A-MK2912M23,340,experiment,29,→,right,→,0.46716850000666454,True,60
2A-MK2912M23,341,experiment,27,↓,down,↓,0.4837502999580465,True,60
2A-MK2912M23,342,experiment,18,↓,no_key,no_letter,-1.0,False,60
2A-MK2912M23,343,experiment,14,↑,up,↑,0.7858809999888763,True,60
2A-MK2912M23,344,experiment,19,↓,no_key,no_letter,-1.0,False,60
2A-MK2912M23,345,experiment,26,↑,up,↑,0.8337864000350237,True,60
2A-MK2912M23,346,experiment,23,↑,up,↑,0.5004121999954805,True,60
2A-MK2912M23,347,experiment,20,↑,down,↓,0.4840318000060506,False,60
2A-MK2912M23,348,experiment,31,↓,down,↓,0.5505092999665067,True,60
2A-MK2912M23,349,experiment,13,→,no_key,no_letter,-1.0,False,60
2A-MK2912M23,350,experiment,17,↑,up,↑,0.6170954999979585,True,60
