PART_ID,Trial_no,Trial_type,CSI,Stim_letter,Key_pressed,letter_choose,Rt,Corr,Stimulus Time
2B-JC0704K25,1,training,10,→,right,→,1.0171517000999302,True,63
2B-JC0704K25,2,training,10,←,left,←,0.5170557999517769,True,63
2B-JC0704K25,3,training,10,↑,up,↑,0.802049299934879,True,63
2B-JC0704K25,4,training,10,↑,up,↑,0.5004259999841452,True,63
2B-JC0704K25,5,training,10,↑,up,↑,0.45053499983623624,True,63
2B-JC0704K25,6,training,10,↑,up,↑,0.7004929000977427,True,63
2B-JC0704K25,7,training,10,←,up,↑,0.3505128000397235,False,63
2B-JC0704K25,8,training,10,↓,down,↓,0.6836806000210345,True,63
2B-JC0704K25,9,experiment,25,←,left,←,0.6170752998441458,True,63
2B-JC0704K25,10,experiment,24,←,left,←,0.5004116999916732,True,63
2B-JC0704K25,11,experiment,28,↓,up,↑,0.8174330999609083,False,63
2B-JC0704K25,12,experiment,14,↓,left,←,0.5339929999317974,False,63
2B-JC0704K25,13,experiment,20,↑,up,↑,0.617247800109908,True,63
2B-JC0704K25,14,experiment,19,↑,up,↑,0.5504776001907885,True,63
2B-JC0704K25,15,experiment,31,←,left,←,0.5335695999674499,True,63
2B-JC0704K25,16,experiment,29,↑,up,↑,0.5354154000524431,True,63
2B-JC0704K25,17,experiment,30,↓,down,↓,0.7671260999049991,True,63
2B-JC0704K25,18,experiment,16,←,left,←,0.8503038000781089,True,63
2B-JC0704K25,19,experiment,17,→,right,→,0.8841234999708831,True,63
2B-JC0704K25,20,experiment,23,←,left,←,0.6006877000909299,True,63
2B-JC0704K25,21,experiment,22,→,right,→,0.8171865998301655,True,63
2B-JC0704K25,22,experiment,15,←,left,←,0.5837988001294434,True,63
2B-JC0704K25,23,experiment,13,↓,down,↓,0.58528280002065,True,63
2B-JC0704K25,24,experiment,26,↑,up,↑,0.500169400125742,True,63
2B-JC0704K25,25,experiment,27,→,right,→,0.9005517999175936,True,63
2B-JC0704K25,26,experiment,18,→,right,→,0.7171767000108957,True,63
2B-JC0704K25,27,experiment,21,←,left,←,0.8339170999825001,True,63
2B-JC0704K25,28,experiment,27,↑,up,↑,0.8670656001195312,True,58
2B-JC0704K25,29,experiment,16,←,left,←,0.6503796000033617,True,58
2B-JC0704K25,30,experiment,23,↑,up,↑,0.46719010011292994,True,58
2B-JC0704K25,31,experiment,30,↓,down,↓,0.6005053000990301,True,58
2B-JC0704K25,32,experiment,26,→,right,→,0.500416899798438,True,58
2B-JC0704K25,33,experiment,19,↑,up,↑,0.8504595998674631,True,58
2B-JC0704K25,34,experiment,17,↓,down,↓,0.7173044998198748,True,58
2B-JC0704K25,35,experiment,14,↓,down,↓,0.5340359001420438,True,58
2B-JC0704K25,36,experiment,28,→,right,→,0.5172291998751462,True,58
2B-JC0704K25,37,experiment,25,→,right,→,0.5185373001731932,True,58
2B-JC0704K25,38,experiment,18,→,right,→,0.5837618999648839,True,58
2B-JC0704K25,39,experiment,13,←,left,←,0.5504882000386715,True,58
2B-JC0704K25,40,experiment,31,↓,no_key,no_letter,-1.0,False,58
2B-JC0704K25,41,experiment,20,←,left,←,0.6837156999390572,True,58
2B-JC0704K25,42,experiment,29,→,right,→,0.7857381000649184,True,58
2B-JC0704K25,43,experiment,21,↑,up,↑,0.7172759000677615,True,58
2B-JC0704K25,44,experiment,22,↓,down,↓,0.6006388000678271,True,58
2B-JC0704K25,45,experiment,15,←,left,←,0.5338397999294102,True,58
2B-JC0704K25,46,experiment,24,↓,up,↑,0.41711480007506907,False,58
2B-JC0704K25,47,experiment,28,↑,up,↑,0.6837760000489652,True,53
2B-JC0704K25,48,experiment,18,↑,up,↑,0.5004462001379579,True,53
2B-JC0704K25,49,experiment,31,↑,up,↑,0.5336736999452114,True,53
2B-JC0704K25,50,experiment,19,↓,up,↑,0.6346368999220431,False,53
2B-JC0704K25,51,experiment,22,→,right,→,0.7857244999613613,True,53
2B-JC0704K25,52,experiment,15,↑,up,↑,0.6836725999601185,True,53
2B-JC0704K25,53,experiment,17,↓,down,↓,0.8338988998439163,True,53
2B-JC0704K25,54,experiment,16,↓,down,↓,0.6170736001804471,True,53
2B-JC0704K25,55,experiment,25,←,left,←,0.8507638999726623,True,53
2B-JC0704K25,56,experiment,23,↓,no_key,no_letter,-1.0,False,53
2B-JC0704K25,57,experiment,26,→,right,→,0.7338248000014573,True,53
2B-JC0704K25,58,experiment,21,→,right,→,0.5837993000168353,True,53
2B-JC0704K25,59,experiment,30,↓,down,↓,0.5337342999409884,True,53
2B-JC0704K25,60,experiment,29,↓,down,↓,0.7005662000738084,True,53
2B-JC0704K25,61,experiment,24,↓,down,↓,0.5006062001921237,True,53
2B-JC0704K25,62,experiment,27,→,right,→,0.567276299931109,True,53
2B-JC0704K25,63,experiment,14,↓,down,↓,0.517097600037232,True,53
2B-JC0704K25,64,experiment,13,↑,up,↑,0.8506438999902457,True,53
2B-JC0704K25,65,experiment,20,←,left,←,0.8004267001524568,True,53
2B-JC0704K25,66,experiment,24,↓,down,↓,0.5672066998668015,True,48
2B-JC0704K25,67,experiment,30,↓,down,↓,0.7338054000865668,True,48
2B-JC0704K25,68,experiment,21,↓,down,↓,0.5173047001007944,True,48
2B-JC0704K25,69,experiment,22,←,left,←,0.7671276000328362,True,48
2B-JC0704K25,70,experiment,17,↓,no_key,no_letter,-1.0,False,48
2B-JC0704K25,71,experiment,13,↓,down,↓,0.7337884998414665,True,48
2B-JC0704K25,72,experiment,29,←,left,←,0.7170438000466675,True,48
2B-JC0704K25,73,experiment,25,↓,down,↓,0.6837927000597119,True,48
2B-JC0704K25,74,experiment,20,↓,down,↓,0.6505523999221623,True,48
2B-JC0704K25,75,experiment,14,→,right,→,0.7172913998365402,True,48
2B-JC0704K25,76,experiment,23,←,no_key,no_letter,-1.0,False,48
2B-JC0704K25,77,experiment,28,↓,down,↓,0.5339089999906719,True,48
2B-JC0704K25,78,experiment,31,↑,up,↑,0.6171712998766452,True,48
2B-JC0704K25,79,experiment,19,→,right,→,0.5338550000451505,True,48
2B-JC0704K25,80,experiment,27,→,no_key,no_letter,-1.0,False,48
2B-JC0704K25,81,experiment,15,↑,up,↑,0.550319200148806,True,48
2B-JC0704K25,82,experiment,26,←,left,←,0.46926259994506836,True,48
2B-JC0704K25,83,experiment,18,↓,no_key,no_letter,-1.0,False,48
2B-JC0704K25,84,experiment,16,→,right,→,0.5671312001068145,True,48
2B-JC0704K25,85,experiment,26,→,right,→,0.5687420999165624,True,64
2B-JC0704K25,86,experiment,27,→,right,→,0.5339536999817938,True,64
2B-JC0704K25,87,experiment,31,↑,up,↑,0.4521174000110477,True,64
2B-JC0704K25,88,experiment,18,↑,up,↑,0.5505910001229495,True,64
2B-JC0704K25,89,experiment,25,→,right,→,0.7338284000288695,True,64
2B-JC0704K25,90,experiment,19,↑,up,↑,0.8838034002110362,True,64
2B-JC0704K25,91,experiment,28,←,right,→,0.6338038998655975,False,64
2B-JC0704K25,92,experiment,23,→,right,→,0.7838988997973502,True,64
2B-JC0704K25,93,experiment,30,←,left,←,0.7839198999572545,True,64
2B-JC0704K25,94,experiment,22,→,right,→,0.7503848001360893,True,64
2B-JC0704K25,95,experiment,15,→,right,→,0.5505369999445975,True,64
2B-JC0704K25,96,experiment,14,→,right,→,0.6837710000108927,True,64
2B-JC0704K25,97,experiment,24,←,left,←,0.5353803001344204,True,64
2B-JC0704K25,98,experiment,16,↑,up,↑,0.717093399958685,True,64
2B-JC0704K25,99,experiment,20,↑,up,↑,0.45220549986697733,True,64
2B-JC0704K25,100,experiment,29,↑,up,↑,0.43392879981547594,True,64
2B-JC0704K25,101,experiment,13,→,up,↑,0.3838849999010563,False,64
2B-JC0704K25,102,experiment,17,←,left,←,0.8675351999700069,True,64
2B-JC0704K25,103,experiment,21,↑,up,↑,0.5338645000010729,True,64
2B-JC0704K25,104,experiment,29,→,right,→,0.5171026999596506,True,59
2B-JC0704K25,105,experiment,30,↑,up,↑,0.5670480998232961,True,59
2B-JC0704K25,106,experiment,14,←,left,←,0.6669544000178576,True,59
2B-JC0704K25,107,experiment,28,↑,up,↑,0.45057669980451465,True,59
2B-JC0704K25,108,experiment,22,↓,right,→,0.617068599909544,False,59
2B-JC0704K25,109,experiment,21,→,right,→,0.8171323998831213,True,59
2B-JC0704K25,110,experiment,24,→,right,→,0.5671715000644326,True,59
2B-JC0704K25,111,experiment,16,→,right,→,0.7504473000299186,True,59
2B-JC0704K25,112,experiment,26,↓,down,↓,0.7505092001520097,True,59
2B-JC0704K25,113,experiment,27,↑,up,↑,0.7504589001182467,True,59
2B-JC0704K25,114,experiment,20,←,left,←,0.5672045000828803,True,59
2B-JC0704K25,115,experiment,15,↑,up,↑,0.6338460999540985,True,59
2B-JC0704K25,116,experiment,19,←,left,←,0.7672664001584053,True,59
2B-JC0704K25,117,experiment,17,→,down,↓,0.38370399991981685,False,59
2B-JC0704K25,118,experiment,31,←,left,←,0.5676743001677096,True,59
2B-JC0704K25,119,experiment,23,↑,up,↑,0.6521096001379192,True,59
2B-JC0704K25,120,experiment,13,→,right,→,0.5506138000637293,True,59
2B-JC0704K25,121,experiment,18,↑,up,↑,0.46728059998713434,True,59
2B-JC0704K25,122,experiment,25,→,right,→,0.7171241000760347,True,59
2B-JC0704K25,123,experiment,16,←,left,←,0.5003579000476748,True,54
2B-JC0704K25,124,experiment,31,↓,down,↓,0.5837922999635339,True,54
2B-JC0704K25,125,experiment,14,→,right,→,0.6005635999608785,True,54
2B-JC0704K25,126,experiment,29,→,right,→,0.4840142000466585,True,54
2B-JC0704K25,127,experiment,25,↓,down,↓,0.6004221998155117,True,54
2B-JC0704K25,128,experiment,23,→,right,→,0.4671865999698639,True,54
2B-JC0704K25,129,experiment,22,↑,up,↑,0.6837076998781413,True,54
2B-JC0704K25,130,experiment,21,↑,up,↑,0.8338379000779241,True,54
2B-JC0704K25,131,experiment,18,→,right,→,0.4672469000797719,True,54
2B-JC0704K25,132,experiment,24,↑,up,↑,0.6505116999614984,True,54
2B-JC0704K25,133,experiment,27,↑,up,↑,0.40036919992417097,True,54
2B-JC0704K25,134,experiment,19,↑,up,↑,0.4502291001845151,True,54
2B-JC0704K25,135,experiment,17,↓,up,↑,0.5507048999425024,False,54
2B-JC0704K25,136,experiment,15,↓,down,↓,0.5503926000092179,True,54
2B-JC0704K25,137,experiment,30,→,right,→,0.5686190999113023,True,54
2B-JC0704K25,138,experiment,13,→,right,→,0.5337641998194158,True,54
2B-JC0704K25,139,experiment,20,←,left,←,0.6672382999677211,True,54
2B-JC0704K25,140,experiment,26,←,right,→,0.550559600116685,False,54
2B-JC0704K25,141,experiment,28,→,right,→,0.6004576000850648,True,54
2B-JC0704K25,142,experiment,13,↓,no_key,no_letter,-1.0,False,52
2B-JC0704K25,143,experiment,31,↓,down,↓,0.6171032001730055,True,52
2B-JC0704K25,144,experiment,30,←,left,←,0.5836924999020994,True,52
2B-JC0704K25,145,experiment,28,←,left,←,0.6007554000243545,True,52
2B-JC0704K25,146,experiment,23,↓,down,↓,0.7172053998801857,True,52
2B-JC0704K25,147,experiment,17,→,right,→,0.5336536001414061,True,52
2B-JC0704K25,148,experiment,20,←,left,←,0.6669387000147253,True,52
2B-JC0704K25,149,experiment,14,↓,up,↑,0.3670874999370426,False,52
2B-JC0704K25,150,experiment,21,→,right,→,0.7838800000026822,True,52
2B-JC0704K25,151,experiment,22,↑,up,↑,0.7338888000231236,True,52
2B-JC0704K25,152,experiment,29,↑,up,↑,0.6672408999875188,True,52
2B-JC0704K25,153,experiment,19,↓,down,↓,0.5335220999550074,True,52
2B-JC0704K25,154,experiment,15,→,right,→,0.5505770999006927,True,52
2B-JC0704K25,155,experiment,16,↑,up,↑,0.5857956998515874,True,52
2B-JC0704K25,156,experiment,27,↓,down,↓,0.6671994000207633,True,52
2B-JC0704K25,157,experiment,18,←,left,←,0.6172189000062644,True,52
2B-JC0704K25,158,experiment,25,↑,up,↑,0.750759300077334,True,52
2B-JC0704K25,159,experiment,26,↑,up,↑,0.4671296998858452,True,52
2B-JC0704K25,160,experiment,24,→,no_key,no_letter,-1.0,False,52
2B-JC0704K25,161,experiment,22,↓,no_key,no_letter,-1.0,False,50
2B-JC0704K25,162,experiment,17,↑,up,↑,0.4671626999042928,True,50
2B-JC0704K25,163,experiment,31,↓,down,↓,0.7339576999656856,True,50
2B-JC0704K25,164,experiment,18,↑,up,↑,0.4838592999149114,True,50
2B-JC0704K25,165,experiment,29,↓,down,↓,0.5838345000520349,True,50
2B-JC0704K25,166,experiment,16,←,right,→,0.567223799880594,False,50
2B-JC0704K25,167,experiment,28,↓,down,↓,0.8005439001135528,True,50
2B-JC0704K25,168,experiment,23,→,right,→,0.6338201998732984,True,50
2B-JC0704K25,169,experiment,24,↑,up,↑,0.7671759000513703,True,50
2B-JC0704K25,170,experiment,19,↓,down,↓,0.7838492000009865,True,50
2B-JC0704K25,171,experiment,14,↑,up,↑,0.6006026000250131,True,50
2B-JC0704K25,172,experiment,20,←,left,←,0.5504647002089769,True,50
2B-JC0704K25,173,experiment,30,→,right,→,0.7338515999726951,True,50
2B-JC0704K25,174,experiment,27,↑,up,↑,0.45061809988692403,True,50
2B-JC0704K25,175,experiment,25,↓,down,↓,0.4519207999110222,True,50
2B-JC0704K25,176,experiment,26,←,left,←,0.5171255001332611,True,50
2B-JC0704K25,177,experiment,13,←,up,↑,0.38399950019083917,False,50
2B-JC0704K25,178,experiment,15,→,no_key,no_letter,-1.0,False,50
2B-JC0704K25,179,experiment,21,←,left,←,0.46712739998474717,True,50
2B-JC0704K25,180,experiment,17,↓,no_key,no_letter,-1.0,False,55
2B-JC0704K25,181,experiment,16,←,left,←,0.4671581999864429,True,55
2B-JC0704K25,182,experiment,30,→,right,→,0.6187972000334412,True,55
2B-JC0704K25,183,experiment,22,↓,down,↓,0.8671806999482214,True,55
2B-JC0704K25,184,experiment,23,→,right,→,0.6335834001656622,True,55
2B-JC0704K25,185,experiment,18,←,left,←,0.8339718000497669,True,55
2B-JC0704K25,186,experiment,27,↓,down,↓,0.48376509989611804,True,55
2B-JC0704K25,187,experiment,29,→,right,→,0.8521261001005769,True,55
2B-JC0704K25,188,experiment,24,↓,down,↓,0.4671060999389738,True,55
2B-JC0704K25,189,experiment,19,↑,up,↑,0.750466100173071,True,55
2B-JC0704K25,190,experiment,28,↑,up,↑,0.5339512000791728,True,55
2B-JC0704K25,191,experiment,26,←,left,←,0.8338447001297027,True,55
2B-JC0704K25,192,experiment,13,←,left,←,0.6170799001120031,True,55
2B-JC0704K25,193,experiment,31,↑,up,↑,0.5171308999415487,True,55
2B-JC0704K25,194,experiment,25,↓,down,↓,0.400731299770996,True,55
2B-JC0704K25,195,experiment,15,↓,down,↓,0.7504424001090229,True,55
2B-JC0704K25,196,experiment,21,←,left,←,0.6838609999977052,True,55
2B-JC0704K25,197,experiment,20,←,left,←,0.45049040019512177,True,55
2B-JC0704K25,198,experiment,14,←,left,←,0.41704079997725785,True,55
2B-JC0704K25,199,experiment,16,→,right,→,0.7024091000203043,True,53
2B-JC0704K25,200,experiment,23,↓,down,↓,0.500446799909696,True,53
2B-JC0704K25,201,experiment,28,↓,down,↓,0.6337698998395354,True,53
2B-JC0704K25,202,experiment,26,←,left,←,0.38377289986237884,True,53
2B-JC0704K25,203,experiment,29,←,left,←,0.5170156999956816,True,53
2B-JC0704K25,204,experiment,27,↑,up,↑,0.6670683000702411,True,53
2B-JC0704K25,205,experiment,13,↑,up,↑,0.6670802999287844,True,53
2B-JC0704K25,206,experiment,31,→,right,→,0.800475399941206,True,53
2B-JC0704K25,207,experiment,17,↓,down,↓,0.7338598999194801,True,53
2B-JC0704K25,208,experiment,22,→,right,→,0.5671631000004709,True,53
2B-JC0704K25,209,experiment,30,↓,down,↓,0.48380309995263815,True,53
2B-JC0704K25,210,experiment,24,↓,down,↓,0.650603299960494,True,53
2B-JC0704K25,211,experiment,15,→,no_key,no_letter,-1.0,False,53
2B-JC0704K25,212,experiment,20,→,right,→,0.6337234999518842,True,53
2B-JC0704K25,213,experiment,25,←,left,←,0.48376749991439283,True,53
2B-JC0704K25,214,experiment,14,→,right,→,0.6003640999551862,True,53
2B-JC0704K25,215,experiment,21,↑,up,↑,0.3503030000720173,True,53
2B-JC0704K25,216,experiment,19,→,right,→,0.5171534998808056,True,53
2B-JC0704K25,217,experiment,18,↑,up,↑,0.4838966999668628,True,53
2B-JC0704K25,218,experiment,31,↑,up,↑,0.733869600109756,True,51
2B-JC0704K25,219,experiment,23,↑,right,→,0.6337972998153418,False,51
2B-JC0704K25,220,experiment,24,↓,up,↑,0.4837716000620276,False,51
2B-JC0704K25,221,experiment,29,→,up,↑,0.7841080001089722,False,51
2B-JC0704K25,222,experiment,25,↓,down,↓,0.7505799001082778,True,51
2B-JC0704K25,223,experiment,27,→,right,→,0.6856456000823528,True,51
2B-JC0704K25,224,experiment,30,↑,up,↑,0.6504591000266373,True,51
2B-JC0704K25,225,experiment,18,←,left,←,0.683826900087297,True,51
2B-JC0704K25,226,experiment,14,↓,down,↓,0.600447699893266,True,51
2B-JC0704K25,227,experiment,22,→,right,→,0.5338237001560628,True,51
2B-JC0704K25,228,experiment,17,→,right,→,0.7002199999988079,True,51
2B-JC0704K25,229,experiment,13,→,right,→,0.7171545999590307,True,51
2B-JC0704K25,230,experiment,19,→,right,→,0.6005375001113862,True,51
2B-JC0704K25,231,experiment,26,↓,no_key,no_letter,-1.0,False,51
2B-JC0704K25,232,experiment,28,→,right,→,0.7338004000484943,True,51
2B-JC0704K25,233,experiment,21,→,no_key,no_letter,-1.0,False,51
2B-JC0704K25,234,experiment,16,←,right,→,0.583602299913764,False,51
2B-JC0704K25,235,experiment,15,→,right,→,0.6508097001351416,True,51
2B-JC0704K25,236,experiment,20,←,no_key,no_letter,-1.0,False,51
2B-JC0704K25,237,experiment,23,↑,up,↑,0.6671374998986721,True,56
2B-JC0704K25,238,experiment,22,↑,up,↑,0.8005826000589877,True,56
2B-JC0704K25,239,experiment,17,↑,up,↑,0.5339168000500649,True,56
2B-JC0704K25,240,experiment,15,→,right,→,0.550521400058642,True,56
2B-JC0704K25,241,experiment,16,↑,up,↑,0.8687583999708295,True,56
2B-JC0704K25,242,experiment,19,←,left,←,0.6671072000171989,True,56
2B-JC0704K25,243,experiment,31,←,down,↓,0.6015852000564337,False,56
2B-JC0704K25,244,experiment,26,→,right,→,0.7338644000701606,True,56
2B-JC0704K25,245,experiment,29,→,right,→,0.7838014999870211,True,56
2B-JC0704K25,246,experiment,20,↓,down,↓,0.7505245001520962,True,56
2B-JC0704K25,247,experiment,14,←,left,←,0.46705889981240034,True,56
2B-JC0704K25,248,experiment,28,↓,down,↓,0.733962900005281,True,56
2B-JC0704K25,249,experiment,24,↑,up,↑,0.7336558999959379,True,56
2B-JC0704K25,250,experiment,25,↓,down,↓,0.8838456999510527,True,56
2B-JC0704K25,251,experiment,18,→,right,→,0.8502988000400364,True,56
2B-JC0704K25,252,experiment,30,↓,down,↓,0.5840215000789613,True,56
2B-JC0704K25,253,experiment,13,↓,down,↓,0.7687004001345485,True,56
2B-JC0704K25,254,experiment,27,↑,down,↓,0.5666702999733388,False,56
2B-JC0704K25,255,experiment,21,→,right,→,0.7339317000005394,True,56
2B-JC0704K25,256,experiment,30,←,left,←,0.7671286999247968,True,54
2B-JC0704K25,257,experiment,18,←,left,←,0.800408799899742,True,54
2B-JC0704K25,258,experiment,13,←,left,←,0.4838810998480767,True,54
2B-JC0704K25,259,experiment,17,↓,down,↓,0.6839447999373078,True,54
2B-JC0704K25,260,experiment,23,↓,down,↓,0.6005208999849856,True,54
2B-JC0704K25,261,experiment,19,←,left,←,0.8504845998249948,True,54
2B-JC0704K25,262,experiment,21,↑,up,↑,0.7185267000459135,True,54
2B-JC0704K25,263,experiment,27,→,right,→,0.7019985001534224,True,54
2B-JC0704K25,264,experiment,26,→,right,→,0.7509179001208395,True,54
2B-JC0704K25,265,experiment,29,←,left,←,0.7837769000325352,True,54
2B-JC0704K25,266,experiment,16,→,right,→,0.683829499874264,True,54
2B-JC0704K25,267,experiment,15,→,right,→,0.7172056999988854,True,54
2B-JC0704K25,268,experiment,31,↑,up,↑,0.8670799999963492,True,54
2B-JC0704K25,269,experiment,22,→,right,→,0.7837659001816064,True,54
2B-JC0704K25,270,experiment,14,↓,down,↓,0.5672288001514971,True,54
2B-JC0704K25,271,experiment,24,→,right,→,0.6171746999025345,True,54
2B-JC0704K25,272,experiment,20,↑,up,↑,0.7504606998991221,True,54
2B-JC0704K25,273,experiment,28,→,right,→,0.7172738998197019,True,54
2B-JC0704K25,274,experiment,25,↑,up,↑,0.7505123999435455,True,54
2B-JC0704K25,275,experiment,22,→,right,→,0.6004785001277924,True,52
2B-JC0704K25,276,experiment,21,→,right,→,0.6689383999910206,True,52
2B-JC0704K25,277,experiment,19,↑,up,↑,0.7171821999363601,True,52
2B-JC0704K25,278,experiment,14,↓,no_key,no_letter,-1.0,False,52
2B-JC0704K25,279,experiment,25,←,left,←,0.6352304997853935,True,52
2B-JC0704K25,280,experiment,28,↓,down,↓,0.8004982001148164,True,52
2B-JC0704K25,281,experiment,18,↑,up,↑,0.6853416000958532,True,52
2B-JC0704K25,282,experiment,15,←,left,←,0.8004666001070291,True,52
2B-JC0704K25,283,experiment,24,→,right,→,0.7671938999556005,True,52
2B-JC0704K25,284,experiment,27,→,right,→,0.7173599998932332,True,52
2B-JC0704K25,285,experiment,31,←,left,←,0.6504830999765545,True,52
2B-JC0704K25,286,experiment,30,↓,no_key,no_letter,-1.0,False,52
2B-JC0704K25,287,experiment,29,→,right,→,0.65046829986386,True,52
2B-JC0704K25,288,experiment,13,↑,up,↑,0.7670740999747068,True,52
2B-JC0704K25,289,experiment,20,←,left,←,0.6338057001121342,True,52
2B-JC0704K25,290,experiment,17,↓,down,↓,0.7337917000986636,True,52
2B-JC0704K25,291,experiment,16,→,right,→,0.6339433998800814,True,52
2B-JC0704K25,292,experiment,26,←,left,←,0.8339829000178725,True,52
2B-JC0704K25,293,experiment,23,→,right,→,0.5504834000021219,True,52
2B-JC0704K25,294,experiment,28,←,left,←,0.6839022999629378,True,50
2B-JC0704K25,295,experiment,20,→,right,→,0.633505400037393,True,50
2B-JC0704K25,296,experiment,19,→,right,→,0.6009174999780953,True,50
2B-JC0704K25,297,experiment,16,↑,up,↑,0.7004927000962198,True,50
2B-JC0704K25,298,experiment,30,↓,down,↓,0.7669599000364542,True,50
2B-JC0704K25,299,experiment,31,←,left,←,0.6173572998959571,True,50
2B-JC0704K25,300,experiment,15,↑,up,↑,0.533777300035581,True,50
2B-JC0704K25,301,experiment,23,→,right,→,0.5172391999512911,True,50
2B-JC0704K25,302,experiment,21,↓,down,↓,0.5169742999132723,True,50
2B-JC0704K25,303,experiment,18,↓,left,←,0.3838422999251634,False,50
2B-JC0704K25,304,experiment,22,↑,down,↓,0.367181200068444,False,50
2B-JC0704K25,305,experiment,14,↓,down,↓,0.7841055998578668,True,50
2B-JC0704K25,306,experiment,13,↑,up,↑,0.6854699000250548,True,50
2B-JC0704K25,307,experiment,24,↑,up,↑,0.7338272000197321,True,50
2B-JC0704K25,308,experiment,27,→,right,→,0.7670821000356227,True,50
2B-JC0704K25,309,experiment,17,↑,up,↑,0.5003652998711914,True,50
2B-JC0704K25,310,experiment,25,→,right,→,0.7339709000661969,True,50
2B-JC0704K25,311,experiment,29,↑,up,↑,0.6338047999888659,True,50
2B-JC0704K25,312,experiment,26,↑,up,↑,0.7669728000182658,True,50
2B-JC0704K25,313,experiment,30,↑,no_key,no_letter,-1.0,False,48
2B-JC0704K25,314,experiment,31,←,left,←,0.7171052999328822,True,48
2B-JC0704K25,315,experiment,24,→,right,→,0.6172795000020415,True,48
2B-JC0704K25,316,experiment,16,↓,no_key,no_letter,-1.0,False,48
2B-JC0704K25,317,experiment,28,↓,down,↓,0.7170382000040263,True,48
2B-JC0704K25,318,experiment,20,→,right,→,0.5504781999625266,True,48
2B-JC0704K25,319,experiment,22,→,right,→,0.5836261999793351,True,48
2B-JC0704K25,320,experiment,25,↑,up,↑,0.4505618999246508,True,48
2B-JC0704K25,321,experiment,13,↓,down,↓,0.4837212001439184,True,48
2B-JC0704K25,322,experiment,21,↓,down,↓,0.6505050999112427,True,48
2B-JC0704K25,323,experiment,29,↓,down,↓,0.450405600015074,True,48
2B-JC0704K25,324,experiment,19,↓,down,↓,0.38386860000900924,True,48
2B-JC0704K25,325,experiment,27,←,down,↓,0.46722450014203787,False,48
2B-JC0704K25,326,experiment,15,↓,down,↓,0.6671688000205904,True,48
2B-JC0704K25,327,experiment,26,→,right,→,0.5505075000692159,True,48
2B-JC0704K25,328,experiment,17,↓,down,↓,0.5170486001297832,True,48
2B-JC0704K25,329,experiment,18,←,left,←,0.5837161999661475,True,48
2B-JC0704K25,330,experiment,14,↑,up,↑,0.4838391998782754,True,48
2B-JC0704K25,331,experiment,23,→,right,→,0.6837534999940544,True,48
2B-JC0704K25,332,experiment,31,←,left,←,0.5172774998936802,True,46
2B-JC0704K25,333,experiment,13,↓,down,↓,0.6336825999896973,True,46
2B-JC0704K25,334,experiment,17,→,right,→,0.6686978000216186,True,46
2B-JC0704K25,335,experiment,27,→,right,→,0.51716069993563,True,46
2B-JC0704K25,336,experiment,14,←,left,←,0.5504560999106616,True,46
2B-JC0704K25,337,experiment,21,↓,down,↓,0.7185444000642747,True,46
2B-JC0704K25,338,experiment,24,←,left,←,0.7172067000064999,True,46
2B-JC0704K25,339,experiment,22,→,right,→,0.7337523000314832,True,46
2B-JC0704K25,340,experiment,26,↓,down,↓,0.6839867001399398,True,46
2B-JC0704K25,341,experiment,15,↓,down,↓,0.6338766999542713,True,46
2B-JC0704K25,342,experiment,16,→,right,→,0.7339391000568867,True,46
2B-JC0704K25,343,experiment,20,←,left,←,0.5188577999360859,True,46
2B-JC0704K25,344,experiment,28,→,right,→,0.6006947001442313,True,46
2B-JC0704K25,345,experiment,30,↓,down,↓,0.500559699954465,True,46
2B-JC0704K25,346,experiment,23,↑,up,↑,0.7170474999584258,True,46
2B-JC0704K25,347,experiment,18,→,right,→,0.6189506000373513,True,46
2B-JC0704K25,348,experiment,29,↑,up,↑,0.6838782001286745,True,46
2B-JC0704K25,349,experiment,25,↓,down,↓,0.6672664999496192,True,46
2B-JC0704K25,350,experiment,19,↓,no_key,no_letter,-1.0,False,46
