PART_ID,Trial_no,Trial_type,CSI,Stim_letter,Key_pressed,letter_choose,Rt,Corr,Stimulus Time
2B-KS2606K30,1,training,10,←,no_key,no_letter,-1.0,False,63
2B-KS2606K30,2,training,10,←,no_key,no_letter,-1.0,False,63
2B-KS2606K30,3,training,10,↑,up,↑,0.9173353999940446,True,63
2B-KS2606K30,4,training,10,→,right,→,0.9671885999996448,True,63
2B-KS2606K30,5,training,10,↓,down,↓,0.9000854000041727,True,63
2B-KS2606K30,6,training,10,→,right,→,0.7838191000046209,True,63
2B-KS2606K30,7,training,10,↓,down,↓,0.90063000000373,True,63
2B-KS2606K30,8,training,10,↑,up,↑,0.717170999996597,True,63
2B-KS2606K30,9,experiment,25,←,left,←,0.6005762999993749,True,63
2B-KS2606K30,10,experiment,28,←,left,←,0.4839388999971561,True,63
2B-KS2606K30,11,experiment,22,→,right,→,0.5504598000115948,True,63
2B-KS2606K30,12,experiment,23,→,right,→,0.4672106000070926,True,63
2B-KS2606K30,13,experiment,17,↑,up,↑,0.7337853000062751,True,63
2B-KS2606K30,14,experiment,26,↓,down,↓,0.6190935999911744,True,63
2B-KS2606K30,15,experiment,29,↓,down,↓,0.7504311000084272,True,63
2B-KS2606K30,16,experiment,21,↓,down,↓,0.583944199999678,True,63
2B-KS2606K30,17,experiment,31,←,left,←,0.5836410000047181,True,63
2B-KS2606K30,18,experiment,15,←,left,←,0.7339442000084091,True,63
2B-KS2606K30,19,experiment,18,←,left,←,0.6341345999971963,True,63
2B-KS2606K30,20,experiment,14,↓,down,↓,0.5670708999969065,True,63
2B-KS2606K30,21,experiment,13,↓,down,↓,0.4673351000092225,True,63
2B-KS2606K30,22,experiment,19,↑,up,↑,0.7684324000001652,True,63
2B-KS2606K30,23,experiment,16,←,left,←,0.4507187999988673,True,63
2B-KS2606K30,24,experiment,20,↓,down,↓,0.800623800008907,True,63
2B-KS2606K30,25,experiment,30,↑,up,↑,0.6005154999875231,True,63
2B-KS2606K30,26,experiment,24,→,right,→,0.9339593000040622,True,63
2B-KS2606K30,27,experiment,27,↓,down,↓,0.8170408000005409,True,63
2B-KS2606K30,28,experiment,15,↓,down,↓,0.7505191000091145,True,58
2B-KS2606K30,29,experiment,27,↑,up,↑,0.7837946000072407,True,58
2B-KS2606K30,30,experiment,20,↑,up,↑,0.7005558999953791,True,58
2B-KS2606K30,31,experiment,26,↑,up,↑,0.5671060000022408,True,58
2B-KS2606K30,32,experiment,28,→,right,→,0.5501898999937112,True,58
2B-KS2606K30,33,experiment,31,→,right,→,0.8171168999979272,True,58
2B-KS2606K30,34,experiment,14,↓,down,↓,0.6006515000044601,True,58
2B-KS2606K30,35,experiment,25,↑,up,↑,0.4503055000095628,True,58
2B-KS2606K30,36,experiment,29,←,left,←,0.6672342999954708,True,58
2B-KS2606K30,37,experiment,16,↓,down,↓,0.7339232000085758,True,58
2B-KS2606K30,38,experiment,22,↑,up,↑,0.4672030999936396,True,58
2B-KS2606K30,39,experiment,30,↓,down,↓,0.6335631999972975,True,58
2B-KS2606K30,40,experiment,13,↑,down,↓,0.6523164999962319,False,58
2B-KS2606K30,41,experiment,19,←,left,←,0.5502956000127597,True,58
2B-KS2606K30,42,experiment,23,↓,up,↑,0.7171929000032833,False,58
2B-KS2606K30,43,experiment,24,→,right,→,0.6174963999947067,True,58
2B-KS2606K30,44,experiment,18,↓,down,↓,0.5673081999993883,True,58
2B-KS2606K30,45,experiment,17,↑,up,↑,0.7005319000018062,True,58
2B-KS2606K30,46,experiment,21,↓,down,↓,0.45051759999478236,True,58
2B-KS2606K30,47,experiment,13,↓,down,↓,0.5672156999935396,True,53
2B-KS2606K30,48,experiment,24,↑,up,↑,0.6505103000090457,True,53
2B-KS2606K30,49,experiment,14,←,left,←,0.5169826000055764,True,53
2B-KS2606K30,50,experiment,23,↑,up,↑,0.41726819999166764,True,53
2B-KS2606K30,51,experiment,29,→,right,→,0.600623699996504,True,53
2B-KS2606K30,52,experiment,21,↓,down,↓,0.518907699995907,True,53
2B-KS2606K30,53,experiment,16,→,right,→,0.5672522999957437,True,53
2B-KS2606K30,54,experiment,17,→,right,→,0.4338774999923771,True,53
2B-KS2606K30,55,experiment,18,←,left,←,0.6837950000044657,True,53
2B-KS2606K30,56,experiment,20,↓,down,↓,0.5169777999981306,True,53
2B-KS2606K30,57,experiment,31,→,right,→,0.5002101999998558,True,53
2B-KS2606K30,58,experiment,15,←,left,←,0.5838319000031333,True,53
2B-KS2606K30,59,experiment,19,←,right,→,0.700274899994838,False,53
2B-KS2606K30,60,experiment,26,↑,up,↑,0.7505349999992177,True,53
2B-KS2606K30,61,experiment,22,↑,up,↑,0.6505270000052406,True,53
2B-KS2606K30,62,experiment,25,↑,up,↑,0.7671445000014501,True,53
2B-KS2606K30,63,experiment,28,→,right,→,0.6854671000037342,True,53
2B-KS2606K30,64,experiment,30,→,right,→,0.5504262999893399,True,53
2B-KS2606K30,65,experiment,27,←,left,←,0.683838700002525,True,53
2B-KS2606K30,66,experiment,28,↓,down,↓,0.7338705000001937,True,48
2B-KS2606K30,67,experiment,15,←,left,←,0.4837609000096563,True,48
2B-KS2606K30,68,experiment,19,←,left,←,0.6670806000038283,True,48
2B-KS2606K30,69,experiment,20,↑,up,↑,0.7168534000084037,True,48
2B-KS2606K30,70,experiment,30,←,left,←,0.5504626000038115,True,48
2B-KS2606K30,71,experiment,14,↓,no_key,no_letter,-1.0,False,48
2B-KS2606K30,72,experiment,26,↑,up,↑,0.667091099996469,True,48
2B-KS2606K30,73,experiment,23,→,right,→,0.5338121999957366,True,48
2B-KS2606K30,74,experiment,17,←,no_key,no_letter,-1.0,False,48
2B-KS2606K30,75,experiment,31,↑,up,↑,0.5172262999985833,True,48
2B-KS2606K30,76,experiment,13,↑,no_key,no_letter,-1.0,False,48
2B-KS2606K30,77,experiment,16,←,left,←,0.617229600000428,True,48
2B-KS2606K30,78,experiment,25,↓,down,↓,0.6194894000072964,True,48
2B-KS2606K30,79,experiment,18,↓,down,↓,0.5170945999998366,True,48
2B-KS2606K30,80,experiment,22,←,left,←,0.5011429000005592,True,48
2B-KS2606K30,81,experiment,21,↑,up,↑,0.7169137000018964,True,48
2B-KS2606K30,82,experiment,29,↑,up,↑,0.552248400010285,True,48
2B-KS2606K30,83,experiment,27,→,no_key,no_letter,-1.0,False,48
2B-KS2606K30,84,experiment,24,↑,down,↓,0.5188542000105372,False,48
2B-KS2606K30,85,experiment,23,←,left,←,0.6838343999988865,True,64
2B-KS2606K30,86,experiment,25,→,right,→,0.6670958000031533,True,64
2B-KS2606K30,87,experiment,15,→,right,→,0.6338754000025801,True,64
2B-KS2606K30,88,experiment,26,↓,down,↓,0.5018380999972578,True,64
2B-KS2606K30,89,experiment,16,↓,down,↓,0.48568739999609534,True,64
2B-KS2606K30,90,experiment,19,←,left,←,0.4837039999983972,True,64
2B-KS2606K30,91,experiment,24,↑,right,→,0.3838185000058729,False,64
2B-KS2606K30,92,experiment,14,↑,up,↑,0.40039989999786485,True,64
2B-KS2606K30,93,experiment,22,→,right,→,0.5671926000068197,True,64
2B-KS2606K30,94,experiment,20,↓,down,↓,0.733715199996368,True,64
2B-KS2606K30,95,experiment,18,↑,up,↑,0.7172673999884864,True,64
2B-KS2606K30,96,experiment,21,←,left,←,0.5672284999891417,True,64
2B-KS2606K30,97,experiment,31,→,right,→,0.7007004000042798,True,64
2B-KS2606K30,98,experiment,27,→,right,→,0.6508420999889495,True,64
2B-KS2606K30,99,experiment,30,↑,up,↑,0.5505596000002697,True,64
2B-KS2606K30,100,experiment,17,←,left,←,0.46872150000126567,True,64
2B-KS2606K30,101,experiment,29,↑,up,↑,0.4503260999917984,True,64
2B-KS2606K30,102,experiment,13,↑,up,↑,0.7856664999999339,True,64
2B-KS2606K30,103,experiment,28,→,right,→,0.533853500004625,True,64
2B-KS2606K30,104,experiment,29,↓,up,↑,0.6357172999996692,False,59
2B-KS2606K30,105,experiment,14,→,right,→,0.4505920999945374,True,59
2B-KS2606K30,106,experiment,24,↑,up,↑,0.633883300004527,True,59
2B-KS2606K30,107,experiment,18,→,left,←,0.5504170999920461,False,59
2B-KS2606K30,108,experiment,17,→,right,→,0.45230950000404846,True,59
2B-KS2606K30,109,experiment,25,↓,down,↓,0.6171598999935668,True,59
2B-KS2606K30,110,experiment,20,←,left,←,0.5671809999912512,True,59
2B-KS2606K30,111,experiment,31,↓,down,↓,0.7339880000072299,True,59
2B-KS2606K30,112,experiment,21,→,right,→,0.4336081999936141,True,59
2B-KS2606K30,113,experiment,15,←,left,←,0.4839745000062976,True,59
2B-KS2606K30,114,experiment,13,→,left,←,0.5337425999896368,False,59
2B-KS2606K30,115,experiment,23,↓,down,↓,0.6690768000116805,True,59
2B-KS2606K30,116,experiment,22,↑,right,→,0.38389709999319166,False,59
2B-KS2606K30,117,experiment,28,→,right,→,0.5506634000048507,True,59
2B-KS2606K30,118,experiment,27,↑,up,↑,0.7171584000025177,True,59
2B-KS2606K30,119,experiment,30,↓,down,↓,0.7171942999993917,True,59
2B-KS2606K30,120,experiment,19,→,right,→,0.4504663000116125,True,59
2B-KS2606K30,121,experiment,26,←,left,←,0.6672343000100227,True,59
2B-KS2606K30,122,experiment,16,←,left,←,0.46748330000264104,True,59
2B-KS2606K30,123,experiment,29,↑,up,↑,0.6837077000091085,True,75
2B-KS2606K30,124,experiment,16,←,left,←,0.4852415000059409,True,75
2B-KS2606K30,125,experiment,24,←,left,←,0.4839153999928385,True,75
2B-KS2606K30,126,experiment,17,←,left,←,0.46895450000010896,True,75
2B-KS2606K30,127,experiment,28,→,right,→,0.7003071000071941,True,75
2B-KS2606K30,128,experiment,15,→,right,→,0.5170294000126887,True,75
2B-KS2606K30,129,experiment,13,↑,up,↑,0.6668306999927154,True,75
2B-KS2606K30,130,experiment,20,←,left,←,0.5170262000028742,True,75
2B-KS2606K30,131,experiment,18,↓,down,↓,0.7005284000042593,True,75
2B-KS2606K30,132,experiment,30,←,left,←,0.5005455999926198,True,75
2B-KS2606K30,133,experiment,22,←,left,←,0.4337521999987075,True,75
2B-KS2606K30,134,experiment,19,←,down,↓,0.4339367999928072,False,75
2B-KS2606K30,135,experiment,23,→,right,→,0.4672514999983832,True,75
2B-KS2606K30,136,experiment,14,↓,down,↓,0.46720600000116974,True,75
2B-KS2606K30,137,experiment,27,←,left,←,0.45026850000431295,True,75
2B-KS2606K30,138,experiment,26,↑,up,↑,0.45195880001119804,True,75
2B-KS2606K30,139,experiment,31,→,left,←,0.550382500005071,False,75
2B-KS2606K30,140,experiment,21,↑,up,↑,0.817001799994614,True,75
2B-KS2606K30,141,experiment,25,→,right,→,0.5504989000037313,True,75
2B-KS2606K30,142,experiment,21,↓,down,↓,0.5338894999877084,True,73
2B-KS2606K30,143,experiment,31,←,left,←,0.6342933000123594,True,73
2B-KS2606K30,144,experiment,18,→,left,←,0.46729270000651013,False,73
2B-KS2606K30,145,experiment,13,↓,down,↓,0.8175323000032222,True,73
2B-KS2606K30,146,experiment,27,↑,down,↓,0.4339202999981353,False,73
2B-KS2606K30,147,experiment,30,←,left,←,0.6506291999976384,True,73
2B-KS2606K30,148,experiment,26,→,right,→,0.5005765999958385,True,73
2B-KS2606K30,149,experiment,15,↓,down,↓,0.5839262000081362,True,73
2B-KS2606K30,150,experiment,20,←,left,←,0.6337118999945233,True,73
2B-KS2606K30,151,experiment,16,↓,down,↓,0.6004034999932628,True,73
2B-KS2606K30,152,experiment,25,↓,down,↓,0.5673302999930456,True,73
2B-KS2606K30,153,experiment,29,←,left,←,0.6007030000037048,True,73
2B-KS2606K30,154,experiment,22,→,left,←,0.5671429999929387,False,73
2B-KS2606K30,155,experiment,23,↑,up,↑,0.6520184000110021,True,73
2B-KS2606K30,156,experiment,24,→,right,→,0.7170660999981919,True,73
2B-KS2606K30,157,experiment,14,→,right,→,0.6339848000061465,True,73
2B-KS2606K30,158,experiment,19,↓,down,↓,0.6352192000049399,True,73
2B-KS2606K30,159,experiment,17,←,left,←,0.600557600002503,True,73
2B-KS2606K30,160,experiment,28,←,left,←,0.550419499995769,True,73
2B-KS2606K30,161,experiment,26,↑,down,↓,0.717156700004125,False,71
2B-KS2606K30,162,experiment,24,←,left,←,0.4838646999996854,True,71
2B-KS2606K30,163,experiment,25,←,left,←,0.5505300000077114,True,71
2B-KS2606K30,164,experiment,18,→,left,←,0.4690405000001192,False,71
2B-KS2606K30,165,experiment,31,→,right,→,0.6339043000043603,True,71
2B-KS2606K30,166,experiment,23,↓,down,↓,0.6336292000050889,True,71
2B-KS2606K30,167,experiment,16,↓,down,↓,0.5838416000042344,True,71
2B-KS2606K30,168,experiment,27,↑,up,↑,0.6171300999994855,True,71
2B-KS2606K30,169,experiment,20,↑,up,↑,0.48361280000244733,True,71
2B-KS2606K30,170,experiment,22,↓,down,↓,0.5172601999947801,True,71
2B-KS2606K30,171,experiment,19,↑,up,↑,0.7006421000114642,True,71
2B-KS2606K30,172,experiment,30,↓,down,↓,0.8338322999916272,True,71
2B-KS2606K30,173,experiment,15,→,right,→,0.5167209999926854,True,71
2B-KS2606K30,174,experiment,17,←,left,←,0.4673602000111714,True,71
2B-KS2606K30,175,experiment,14,→,right,→,0.533825499995146,True,71
2B-KS2606K30,176,experiment,13,←,left,←,0.7505741000059061,True,71
2B-KS2606K30,177,experiment,28,←,left,←,0.9004820999980439,True,71
2B-KS2606K30,178,experiment,21,←,left,←,0.6671530999883544,True,71
2B-KS2606K30,179,experiment,29,←,left,←,0.4335599000041839,True,71
2B-KS2606K30,180,experiment,15,↑,up,↑,0.5004881000058958,True,69
2B-KS2606K30,181,experiment,29,↓,down,↓,0.6005531999981031,True,69
2B-KS2606K30,182,experiment,23,←,left,←,0.7338617999921553,True,69
2B-KS2606K30,183,experiment,17,↓,down,↓,0.5840440999891143,True,69
2B-KS2606K30,184,experiment,21,↑,up,↑,0.7004490999970585,True,69
2B-KS2606K30,185,experiment,30,↑,up,↑,1.0506386999913957,True,69
2B-KS2606K30,186,experiment,18,→,right,→,0.6172071999899345,True,69
2B-KS2606K30,187,experiment,28,↓,down,↓,0.7342252999951597,True,69
2B-KS2606K30,188,experiment,20,→,right,→,0.7172546999936458,True,69
2B-KS2606K30,189,experiment,27,↑,up,↑,0.5669849999976577,True,69
2B-KS2606K30,190,experiment,31,←,left,←,0.7006422999984352,True,69
2B-KS2606K30,191,experiment,24,↑,up,↑,0.4668411000020569,True,69
2B-KS2606K30,192,experiment,19,↓,up,↑,0.4838812000089092,False,69
2B-KS2606K30,193,experiment,25,→,right,→,0.6836390999960713,True,69
2B-KS2606K30,194,experiment,13,↑,up,↑,0.6675504999875557,True,69
2B-KS2606K30,195,experiment,22,←,left,←,0.5336931000056211,True,69
2B-KS2606K30,196,experiment,14,↑,up,↑,0.7508482999983244,True,69
2B-KS2606K30,197,experiment,26,←,left,←,0.5670611999958055,True,69
2B-KS2606K30,198,experiment,16,↓,down,↓,0.5505302999954438,True,69
2B-KS2606K30,199,experiment,16,→,right,→,0.8505952999985311,True,67
2B-KS2606K30,200,experiment,23,↓,down,↓,0.7337712000007741,True,67
2B-KS2606K30,201,experiment,15,←,left,←,0.4836592999927234,True,67
2B-KS2606K30,202,experiment,29,↑,up,↑,0.6672223000059603,True,67
2B-KS2606K30,203,experiment,18,↓,down,↓,0.5670823999971617,True,67
2B-KS2606K30,204,experiment,27,→,right,→,0.6673525999940466,True,67
2B-KS2606K30,205,experiment,22,↓,down,↓,0.7837328999885358,True,67
2B-KS2606K30,206,experiment,19,↑,up,↑,0.6171863999916241,True,67
2B-KS2606K30,207,experiment,17,↑,up,↑,0.5504720000026282,True,67
2B-KS2606K30,208,experiment,28,→,right,→,0.6507469000061974,True,67
2B-KS2606K30,209,experiment,30,→,right,→,0.5839050999929896,True,67
2B-KS2606K30,210,experiment,14,↑,up,↑,0.7009287999972003,True,67
2B-KS2606K30,211,experiment,25,→,right,→,0.5838240000011865,True,67
2B-KS2606K30,212,experiment,21,←,left,←,0.7170642999990378,True,67
2B-KS2606K30,213,experiment,31,↑,up,↑,0.6509298000019044,True,67
2B-KS2606K30,214,experiment,13,→,right,→,0.7172978000016883,True,67
2B-KS2606K30,215,experiment,20,↓,down,↓,0.7171335000020918,True,67
2B-KS2606K30,216,experiment,26,↑,up,↑,0.6673694999917643,True,67
2B-KS2606K30,217,experiment,24,→,right,→,0.6831725000083679,True,67
2B-KS2606K30,218,experiment,29,↓,down,↓,0.8173441999970237,True,65
2B-KS2606K30,219,experiment,13,←,left,←,0.6338479999976698,True,65
2B-KS2606K30,220,experiment,24,↓,down,↓,0.81699409999419,True,65
2B-KS2606K30,221,experiment,25,←,left,←,0.8006880999892019,True,65
2B-KS2606K30,222,experiment,22,↑,up,↑,0.6670391999941785,True,65
2B-KS2606K30,223,experiment,30,↓,down,↓,0.6837116999959107,True,65
2B-KS2606K30,224,experiment,27,↓,down,↓,0.6009423999930732,True,65
2B-KS2606K30,225,experiment,19,↓,down,↓,0.6004194999986794,True,65
2B-KS2606K30,226,experiment,20,←,left,←,0.7172597000026144,True,65
2B-KS2606K30,227,experiment,26,↑,up,↑,0.817184699990321,True,65
2B-KS2606K30,228,experiment,23,↑,up,↑,0.5173781000048621,True,65
2B-KS2606K30,229,experiment,16,↓,down,↓,0.8677758000121685,True,65
2B-KS2606K30,230,experiment,18,←,left,←,0.6167692000017269,True,65
2B-KS2606K30,231,experiment,21,←,left,←,0.5670582000020659,True,65
2B-KS2606K30,232,experiment,28,→,right,→,0.5338017000030959,True,65
2B-KS2606K30,233,experiment,15,→,right,→,0.8673352000041632,True,65
2B-KS2606K30,234,experiment,17,→,right,→,0.6504067999921972,True,65
2B-KS2606K30,235,experiment,31,→,right,→,0.6671953000040958,True,65
2B-KS2606K30,236,experiment,14,↓,down,↓,0.8172739000001457,True,65
2B-KS2606K30,237,experiment,23,→,left,←,0.567040599999018,False,63
2B-KS2606K30,238,experiment,20,↑,up,↑,0.8174944000056712,True,63
2B-KS2606K30,239,experiment,13,←,left,←,0.5505555999989156,True,63
2B-KS2606K30,240,experiment,30,↓,down,↓,0.7504305000038585,True,63
2B-KS2606K30,241,experiment,16,↓,down,↓,0.750549400007003,True,63
2B-KS2606K30,242,experiment,19,←,left,←,0.633692899995367,True,63
2B-KS2606K30,243,experiment,14,→,right,→,0.683813800002099,True,63
2B-KS2606K30,244,experiment,17,↑,up,↑,0.7170868000102928,True,63
2B-KS2606K30,245,experiment,24,↓,up,↑,0.5171812000044156,False,63
2B-KS2606K30,246,experiment,31,↑,up,↑,0.5502623999927891,True,63
2B-KS2606K30,247,experiment,27,↓,down,↓,0.617197200001101,True,63
2B-KS2606K30,248,experiment,15,↑,up,↑,0.783757199998945,True,63
2B-KS2606K30,249,experiment,21,→,right,→,0.8339034000091488,True,63
2B-KS2606K30,250,experiment,26,↑,up,↑,0.6671222000004491,True,63
2B-KS2606K30,251,experiment,28,↑,up,↑,0.683686399992439,True,63
2B-KS2606K30,252,experiment,29,↓,down,↓,0.5006030999938957,True,63
2B-KS2606K30,253,experiment,22,↓,down,↓,0.5170988000027137,True,63
2B-KS2606K30,254,experiment,18,↑,up,↑,0.6004248999961419,True,63
2B-KS2606K30,255,experiment,25,←,left,←,0.517488699988462,True,63
2B-KS2606K30,256,experiment,20,↓,no_key,no_letter,-1.0,False,61
2B-KS2606K30,257,experiment,16,↑,up,↑,0.900543399999151,True,61
2B-KS2606K30,258,experiment,14,↓,down,↓,0.7168494000070496,True,61
2B-KS2606K30,259,experiment,18,↑,no_key,no_letter,-1.0,False,61
2B-KS2606K30,260,experiment,19,↓,down,↓,0.7339106999861542,True,61
2B-KS2606K30,261,experiment,27,↓,down,↓,0.7839090000052238,True,61
2B-KS2606K30,262,experiment,25,↓,down,↓,0.5169938999897568,True,61
2B-KS2606K30,263,experiment,28,←,left,←,0.6839131000015186,True,61
2B-KS2606K30,264,experiment,31,↑,up,↑,0.7339821999921696,True,61
2B-KS2606K30,265,experiment,22,↑,up,↑,0.5503373000101419,True,61
2B-KS2606K30,266,experiment,15,→,right,→,0.5840740999992704,True,61
2B-KS2606K30,267,experiment,21,↑,up,↑,0.7506368999893311,True,61
2B-KS2606K30,268,experiment,29,←,left,←,0.767238800006453,True,61
2B-KS2606K30,269,experiment,24,←,left,←,0.7341836999985389,True,61
2B-KS2606K30,270,experiment,26,→,right,→,0.7671734999894397,True,61
2B-KS2606K30,271,experiment,13,→,right,→,0.6504729000007501,True,61
2B-KS2606K30,272,experiment,30,←,left,←,0.7342921000090428,True,61
2B-KS2606K30,273,experiment,17,↑,up,↑,0.7504356999997981,True,61
2B-KS2606K30,274,experiment,23,↑,up,↑,0.6506910000025528,True,61
2B-KS2606K30,275,experiment,16,↓,down,↓,0.600239600011264,True,59
2B-KS2606K30,276,experiment,31,←,left,←,0.5173601999995299,True,59
2B-KS2606K30,277,experiment,18,←,left,←,0.46713990000716876,True,59
2B-KS2606K30,278,experiment,30,→,right,→,0.9170650000014575,True,59
2B-KS2606K30,279,experiment,21,←,left,←,0.7339127999875927,True,59
2B-KS2606K30,280,experiment,26,↓,down,↓,0.7683784000109881,True,59
2B-KS2606K30,281,experiment,22,↑,up,↑,0.7170466000097804,True,59
2B-KS2606K30,282,experiment,24,←,left,←,0.6005421000008937,True,59
2B-KS2606K30,283,experiment,17,→,right,→,0.6505475999874761,True,59
2B-KS2606K30,284,experiment,13,←,left,←,0.6172703000047477,True,59
2B-KS2606K30,285,experiment,23,↑,up,↑,0.6505231000046479,True,59
2B-KS2606K30,286,experiment,25,↓,down,↓,0.6335489000048256,True,59
2B-KS2606K30,287,experiment,15,←,left,←,0.8504369000002043,True,59
2B-KS2606K30,288,experiment,20,↓,down,↓,0.7686123999883421,True,59
2B-KS2606K30,289,experiment,28,↑,up,↑,0.6022777000034694,True,59
2B-KS2606K30,290,experiment,27,←,left,←,0.5521759999974165,True,59
2B-KS2606K30,291,experiment,29,↓,up,↑,0.7173767999920528,False,59
2B-KS2606K30,292,experiment,19,←,left,←,0.7336940000095638,True,59
2B-KS2606K30,293,experiment,14,↓,down,↓,0.5670325999963097,True,59
2B-KS2606K30,294,experiment,16,←,left,←,0.5506510999985039,True,57
2B-KS2606K30,295,experiment,23,↑,up,↑,0.8002489999926183,True,57
2B-KS2606K30,296,experiment,20,↑,up,↑,0.6006209999904968,True,57
2B-KS2606K30,297,experiment,27,←,left,←,0.48391180000908207,True,57
2B-KS2606K30,298,experiment,28,←,left,←,0.5360053000040352,True,57
2B-KS2606K30,299,experiment,26,→,right,→,0.8669519999966724,True,57
2B-KS2606K30,300,experiment,24,↑,up,↑,0.6006709000066621,True,57
2B-KS2606K30,301,experiment,17,→,right,→,0.5861017999995966,True,57
2B-KS2606K30,302,experiment,13,↑,up,↑,0.6860206999990623,True,57
2B-KS2606K30,303,experiment,15,↑,up,↑,0.5001309999934165,True,57
2B-KS2606K30,304,experiment,31,←,left,←,0.7505700000037905,True,57
2B-KS2606K30,305,experiment,14,←,left,←,0.5687493000004906,True,57
2B-KS2606K30,306,experiment,29,↓,down,↓,0.8177667999989353,True,57
2B-KS2606K30,307,experiment,19,↑,up,↑,0.8004608000046574,True,57
2B-KS2606K30,308,experiment,21,→,right,→,0.7504482000076678,True,57
2B-KS2606K30,309,experiment,30,↑,up,↑,0.5675667000032263,True,57
2B-KS2606K30,310,experiment,18,↓,down,↓,0.533796000003349,True,57
2B-KS2606K30,311,experiment,22,↓,down,↓,0.7837178999907337,True,57
2B-KS2606K30,312,experiment,25,→,right,→,0.8838197000004584,True,57
2B-KS2606K30,313,experiment,25,←,left,←,0.45090389999677427,True,55
2B-KS2606K30,314,experiment,13,→,right,→,0.48424539998814,True,55
2B-KS2606K30,315,experiment,18,↑,up,↑,0.750525600000401,True,55
2B-KS2606K30,316,experiment,31,←,left,←,0.6006608000025153,True,55
2B-KS2606K30,317,experiment,20,↓,down,↓,0.5674369999906048,True,55
2B-KS2606K30,318,experiment,19,↑,up,↑,0.750567900002352,True,55
2B-KS2606K30,319,experiment,15,↑,up,↑,0.5004881999921054,True,55
2B-KS2606K30,320,experiment,30,→,right,→,0.4839661000005435,True,55
2B-KS2606K30,321,experiment,17,↓,down,↓,0.8504908000031719,True,55
2B-KS2606K30,322,experiment,29,↓,down,↓,0.8007748999953037,True,55
2B-KS2606K30,323,experiment,28,↓,down,↓,0.618804400000954,True,55
2B-KS2606K30,324,experiment,22,↑,up,↑,0.5004052000003867,True,55
2B-KS2606K30,325,experiment,16,→,right,→,0.7838331999955699,True,55
2B-KS2606K30,326,experiment,24,↑,up,↑,0.5505529000074603,True,55
2B-KS2606K30,327,experiment,26,↓,up,↑,0.6336846000049263,False,55
2B-KS2606K30,328,experiment,23,→,right,→,0.7505001000099583,True,55
2B-KS2606K30,329,experiment,21,→,right,→,0.6838601999916136,True,55
2B-KS2606K30,330,experiment,27,↓,down,↓,0.7004558000044199,True,55
2B-KS2606K30,331,experiment,14,←,left,←,0.6339502000046195,True,55
2B-KS2606K30,332,experiment,13,←,left,←,0.6004084999876795,True,53
2B-KS2606K30,333,experiment,19,→,right,→,0.6172972000058508,True,53
2B-KS2606K30,334,experiment,21,→,right,→,0.5673414999910165,True,53
2B-KS2606K30,335,experiment,18,↓,down,↓,0.8006743000005372,True,53
2B-KS2606K30,336,experiment,20,↑,up,↑,0.8171377999969991,True,53
2B-KS2606K30,337,experiment,31,→,right,→,0.7505203000037,True,53
2B-KS2606K30,338,experiment,27,→,right,→,0.5515513999998802,True,53
2B-KS2606K30,339,experiment,29,←,left,←,0.5507010000001173,True,53
2B-KS2606K30,340,experiment,26,↑,up,↑,0.7171786999970209,True,53
2B-KS2606K30,341,experiment,15,↓,up,↑,0.6837673999980325,False,53
2B-KS2606K30,342,experiment,28,↓,down,↓,0.5506537999899592,True,53
2B-KS2606K30,343,experiment,17,↓,down,↓,0.7339189999911468,True,53
2B-KS2606K30,344,experiment,16,↑,up,↑,0.6173882000002777,True,53
2B-KS2606K30,345,experiment,24,↓,down,↓,0.7671618000022136,True,53
2B-KS2606K30,346,experiment,25,↓,no_key,no_letter,-1.0,False,53
2B-KS2606K30,347,experiment,22,↓,down,↓,0.700546399995801,True,53
2B-KS2606K30,348,experiment,23,↓,no_key,no_letter,-1.0,False,53
2B-KS2606K30,349,experiment,30,→,right,→,0.5839794000057736,True,53
2B-KS2606K30,350,experiment,14,↑,no_key,no_letter,-1.0,False,53
