PART_ID,Trial_no,Trial_type,PDI,Stim_letter,Key_pressed,letter_choose,Rt,Corr,Stimulus Time
2M24,1,training,10,↓,right,→,1.5986929000355303,False,30
2M24,2,training,10,↓,no_key,no_letter,-1.0,False,30
2M24,3,training,10,→,left,←,2.0769923999905586,False,30
2M24,4,training,10,→,right,→,1.0300875999964774,True,30
2M24,5,training,10,↑,up,↑,0.9433498997241259,True,30
2M24,6,training,10,←,left,←,0.9509352999739349,True,30
2M24,7,training,10,↓,down,↓,0.8097329000011086,True,30
2M24,8,training,10,→,right,→,0.6925578997470438,True,30
2M24,9,training,10,↓,left,←,1.360552600119263,False,30
2M24,10,training,10,↑,up,↑,0.8825297998264432,True,30
2M24,11,training,10,↓,down,↓,0.7869710996747017,True,30
2M24,12,training,10,←,left,←,0.6958314999938011,True,30
2M24,13,training,10,←,left,←,0.9699773997999728,True,30
2M24,14,training,10,↓,down,↓,0.8533462001942098,True,30
2M24,15,training,10,↑,up,↑,0.6915950002148747,True,30
2M24,16,training,10,→,right,→,0.9052639999426901,True,30
2M24,17,training,10,↓,down,↓,0.9491851003840566,True,30
2M24,18,training,10,↑,up,↑,0.975144499912858,True,30
2M24,19,training,10,↑,up,↑,0.8977072001434863,True,30
2M24,20,training,10,↑,up,↑,0.8719309000298381,True,30
2M24,21,training,10,↑,up,↑,0.7256856001913548,True,18
2M24,22,training,10,←,left,←,0.5194882000796497,True,18
2M24,23,training,10,←,left,←,0.5453701000660658,True,18
2M24,24,training,10,↑,up,↑,0.5925731002353132,True,18
2M24,25,training,10,→,right,→,0.6308418000116944,True,18
2M24,26,training,10,←,up,↑,1.1491744001396,False,18
2M24,27,training,10,↑,up,↑,0.9434404000639915,True,18
2M24,28,training,10,←,left,←,0.6530074002221227,True,18
2M24,29,training,10,↓,up,↑,0.9700184999965131,False,18
2M24,30,training,10,←,left,←,0.6096652001142502,True,18
2M24,31,training,36,↓,down,↓,0.8943121000193059,True,15
2M24,32,training,180,←,left,←,0.7982266996987164,True,15
2M24,33,training,132,←,up,↑,0.8051161002367735,False,15
2M24,34,experiment,36,→,right,→,0.6776495003141463,True,15
2M24,35,experiment,108,↑,up,↑,0.8568438999354839,True,15
2M24,36,experiment,36,↓,down,↓,0.7619558996520936,True,15
2M24,37,experiment,48,↑,up,↑,0.7866535000503063,True,15
2M24,38,experiment,72,↓,down,↓,0.644770700018853,True,15
2M24,39,experiment,96,↓,down,↓,0.8187716999091208,True,15
2M24,40,experiment,132,↑,up,↑,0.5945115000940859,True,15
2M24,41,experiment,108,←,left,←,0.6101552001200616,True,15
2M24,42,experiment,144,↑,up,↑,0.5273462999612093,True,15
2M24,43,experiment,60,↓,down,↓,0.8081018999218941,True,15
2M24,44,experiment,48,↑,up,↑,0.7337317997589707,True,15
2M24,45,experiment,60,←,left,←,0.7508907001465559,True,15
2M24,46,experiment,156,↓,right,→,1.0199188999831676,False,15
2M24,47,experiment,12,↓,right,→,0.9543776996433735,False,15
2M24,48,experiment,48,↓,up,↑,0.7173726996406913,False,15
2M24,49,experiment,132,←,left,←,0.6643143002875149,True,15
2M24,50,experiment,24,↓,left,←,1.0123183000832796,False,15
2M24,51,experiment,144,↑,down,↓,0.860960400197655,False,15
2M24,52,experiment,12,←,right,→,0.9031905997544527,False,15
2M24,53,experiment,180,←,down,↓,0.9852828001603484,False,15
2M24,54,experiment,48,←,left,←,0.6109402002766728,True,15
2M24,55,experiment,132,↓,down,↓,0.9108851002529263,True,15
2M24,56,experiment,108,→,right,→,0.5907148998230696,True,15
2M24,57,experiment,108,↓,down,↓,0.7343250000849366,True,15
2M24,58,experiment,24,↓,down,↓,1.2814502003602684,True,15
2M24,59,experiment,12,←,left,←,0.6150831999257207,True,15
2M24,60,experiment,60,↑,right,→,1.1957141999155283,False,15
2M24,61,experiment,156,←,left,←,0.6079336004331708,True,15
2M24,62,experiment,156,↑,left,←,0.6873512002639472,False,15
2M24,63,experiment,84,↑,up,↑,0.8397967000491917,True,15
2M24,64,experiment,84,↓,down,↓,0.6219532997347414,True,15
2M24,65,experiment,72,↑,up,↑,0.9340395000763237,True,15
2M24,66,experiment,156,←,left,←,0.6017628996632993,True,15
2M24,67,experiment,120,↓,up,↑,0.8456770996563137,False,15
2M24,68,experiment,120,←,left,←,0.6904536001384258,True,15
2M24,69,experiment,24,→,up,↑,0.7437587999738753,False,15
2M24,70,experiment,168,↓,left,←,0.7429922996088862,False,15
2M24,71,experiment,180,↓,right,→,0.8343163998797536,False,15
2M24,72,experiment,96,←,up,↑,1.280321900267154,False,15
2M24,73,experiment,72,↑,left,←,0.8372936998493969,False,15
2M24,74,experiment,36,↓,down,↓,0.6665451000444591,True,15
2M24,75,experiment,60,↑,down,↓,1.0041449000127614,False,15
2M24,76,experiment,84,←,up,↑,0.8291333001106977,False,15
2M24,77,experiment,132,↓,left,←,0.9306761003099382,False,15
2M24,78,experiment,144,←,right,→,0.9951610001735389,False,15
2M24,79,experiment,120,↑,left,←,0.8634420000016689,False,15
2M24,80,experiment,12,↑,up,↑,0.9950610999949276,True,15
2M24,81,experiment,84,←,down,↓,1.7161456998437643,False,15
2M24,82,experiment,168,↓,down,↓,0.9042360996827483,True,15
2M24,83,experiment,120,←,left,←,0.7467502998188138,True,15
2M24,84,experiment,168,←,left,←,1.3750113998539746,True,15
2M24,85,experiment,96,←,up,↑,0.9408554001711309,False,15
2M24,86,experiment,168,←,right,→,1.127566299866885,False,15
2M24,87,experiment,96,→,right,→,0.690136699937284,True,15
2M24,88,experiment,72,←,left,←,0.7636108999140561,True,15
2M24,89,experiment,180,→,left,←,0.8123198999091983,False,15
2M24,90,experiment,180,←,left,←,0.565490999724716,True,15
2M24,91,experiment,144,↑,up,↑,0.7001016000285745,True,15
2M24,92,experiment,24,→,up,↑,1.0719229001551867,False,15
2M24,93,experiment,36,→,up,↑,1.0649314997717738,False,15
2M24,94,training,60,←,left,←,0.7558604995720088,True,16
2M24,95,training,48,↓,down,↓,0.6292237001471221,True,16
2M24,96,training,12,↑,up,↑,0.6978969001211226,True,16
2M24,97,experiment,96,↑,up,↑,0.6714099003002048,True,16
2M24,98,experiment,180,→,right,→,0.6652267999015749,True,16
2M24,99,experiment,132,↑,up,↑,0.5154063999652863,True,16
2M24,100,experiment,60,→,right,→,0.5886295000091195,True,16
2M24,101,experiment,156,↑,up,↑,0.50643640011549,True,16
2M24,102,experiment,144,↓,down,↓,0.6422307998873293,True,16
2M24,103,experiment,108,←,up,↑,0.7210099999792874,False,16
2M24,104,experiment,120,↑,up,↑,0.7145135998725891,True,16
2M24,105,experiment,84,↑,down,↓,0.995745399966836,False,16
2M24,106,experiment,108,↓,up,↑,0.8661104999482632,False,16
2M24,107,experiment,168,↓,left,←,1.2663421998731792,False,16
2M24,108,experiment,24,↑,right,→,1.7194377002306283,False,16
2M24,109,experiment,48,←,left,←,0.8510583001188934,True,16
2M24,110,experiment,180,↑,up,↑,0.8537451000884175,True,16
2M24,111,experiment,168,↓,up,↑,0.9272511000744998,False,16
2M24,112,experiment,84,←,left,←,0.7594800000078976,True,16
2M24,113,experiment,120,↑,down,↓,0.8499566996470094,False,16
2M24,114,experiment,60,←,right,→,0.8165903999470174,False,16
2M24,115,experiment,168,↓,down,↓,0.7126825000159442,True,16
2M24,116,experiment,96,↑,up,↑,0.9586153002455831,True,16
2M24,117,experiment,120,↑,up,↑,0.6790754999965429,True,16
2M24,118,experiment,144,→,left,←,1.6114000999368727,False,16
2M24,119,experiment,60,←,left,←,0.746178399771452,True,16
2M24,120,experiment,60,↑,right,→,0.870030699763447,False,16
2M24,121,experiment,156,↓,down,↓,0.710317499935627,True,16
2M24,122,experiment,24,←,down,↓,1.1217228001914918,False,16
2M24,123,experiment,132,←,right,→,1.237659899983555,False,16
2M24,124,experiment,12,↓,right,→,1.1689983000978827,False,16
2M24,125,experiment,36,←,down,↓,0.9704113001935184,False,16
2M24,126,experiment,120,↑,up,↑,0.8828716999851167,True,16
2M24,127,experiment,84,↑,up,↑,1.0837729000486434,True,16
2M24,128,experiment,96,↑,left,←,1.139412899967283,False,16
2M24,129,experiment,132,↑,up,↑,1.1102732000872493,True,16
2M24,130,experiment,132,→,left,←,0.9258153000846505,False,16
2M24,131,experiment,12,→,right,→,0.656611000187695,True,16
2M24,132,experiment,108,↑,right,→,0.8027474000118673,False,16
2M24,133,experiment,156,↑,right,→,1.0211014999076724,False,16
2M24,134,experiment,48,→,left,←,0.995545799843967,False,16
2M24,135,experiment,12,↓,right,→,0.7929785000160336,False,16
2M24,136,experiment,36,→,right,→,0.8320044996216893,True,16
2M24,137,experiment,144,←,left,←,0.8722044001333416,True,16
2M24,138,experiment,12,←,right,→,1.3254724000580609,False,16
2M24,139,experiment,108,→,left,←,0.9629707997664809,False,16
2M24,140,experiment,24,↓,no_key,no_letter,-1.0,False,16
2M24,141,experiment,72,→,right,→,1.0542402998544276,True,16
2M24,142,experiment,72,↑,down,↓,0.948870100080967,False,16
2M24,143,experiment,48,→,down,↓,0.8588564000092447,False,16
2M24,144,experiment,168,↓,down,↓,0.6713882000185549,True,16
2M24,145,experiment,36,↓,up,↑,1.1801493000239134,False,16
2M24,146,experiment,96,←,up,↑,1.1571867000311613,False,16
2M24,147,experiment,72,↑,up,↑,0.9223533999174833,True,16
2M24,148,experiment,36,↑,right,→,1.4460595999844372,False,16
2M24,149,experiment,24,↓,down,↓,0.9585191998630762,True,16
2M24,150,experiment,180,↓,up,↑,1.1697740000672638,False,16
2M24,151,experiment,180,←,left,←,0.5909603997133672,True,16
2M24,152,experiment,144,↓,down,↓,0.8507318999618292,True,16
2M24,153,experiment,84,↑,up,↑,0.7070980998687446,True,16
2M24,154,experiment,156,↓,down,↓,1.1910304999910295,True,16
2M24,155,experiment,72,←,left,←,1.1760501000098884,True,16
2M24,156,experiment,48,→,down,↓,0.877626100089401,False,16
2M24,157,training,168,←,left,←,0.7063611000776291,True,17
2M24,158,training,96,↑,no_key,no_letter,-1.0,False,17
2M24,159,training,168,←,down,↓,0.33402330009266734,False,17
2M24,160,experiment,120,←,right,→,0.7212233003228903,False,17
2M24,161,experiment,180,↑,left,←,0.8782784999348223,False,17
2M24,162,experiment,48,←,down,↓,1.343527799937874,False,17
2M24,163,experiment,156,↑,up,↑,0.7311998000368476,True,17
2M24,164,experiment,36,←,left,←,0.9497123002074659,True,17
2M24,165,experiment,48,←,left,←,0.8621354000642896,True,17
2M24,166,experiment,36,↓,down,↓,0.7481577000580728,True,17
2M24,167,experiment,60,←,right,→,0.6579962000250816,False,17
2M24,168,experiment,84,→,right,→,0.6627683998085558,True,17
2M24,169,experiment,24,↑,up,↑,1.3126405999064445,True,17
2M24,170,experiment,60,←,left,←,1.400776700116694,True,17
2M24,171,experiment,144,↓,right,→,0.6680833999998868,False,17
2M24,172,experiment,48,↓,up,↑,0.8429907998070121,False,17
2M24,173,experiment,36,↑,up,↑,0.5446740998886526,True,17
2M24,174,experiment,24,↓,up,↑,1.1738638998940587,False,17
2M24,175,experiment,180,←,down,↓,1.0561998998746276,False,17
2M24,176,experiment,120,←,down,↓,0.15053700003772974,False,17
2M24,177,experiment,72,↓,up,↑,0.7476185001432896,False,17
2M24,178,experiment,24,→,left,←,1.7961261002346873,False,17
2M24,179,experiment,168,←,right,→,1.3300272999331355,False,17
2M24,180,experiment,132,→,no_key,no_letter,-1.0,False,17
2M24,181,experiment,108,↑,up,↑,0.7299763998016715,True,17
2M24,182,experiment,108,←,down,↓,1.4470896003767848,False,17
2M24,183,experiment,168,↓,right,→,1.055796999949962,False,17
2M24,184,experiment,12,←,left,←,1.0502055999822915,True,17
2M24,185,experiment,180,↑,down,↓,1.0871640001423657,False,17
2M24,186,experiment,72,↑,left,←,0.383856900036335,False,17
2M24,187,experiment,48,↑,left,←,1.0600349996238947,False,17
2M24,188,experiment,84,←,up,↑,0.6510035996325314,False,17
2M24,189,experiment,96,↑,up,↑,0.6075995001010597,True,17
2M24,190,experiment,12,↑,up,↑,0.6193968998268247,True,17
2M24,191,experiment,24,←,right,→,0.8249364998191595,False,17
2M24,192,experiment,96,↑,left,←,1.0211679004132748,False,17
2M24,193,experiment,72,→,right,→,0.7419207999482751,True,17
2M24,194,experiment,96,←,down,↓,1.0938527998514473,False,17
2M24,195,experiment,96,←,right,→,0.4927252000197768,False,17
2M24,196,experiment,84,←,left,←,0.6611703000962734,True,17
2M24,197,experiment,156,↓,down,↓,0.6272352999076247,True,17
2M24,198,experiment,132,←,right,→,1.2496744999662042,False,17
2M24,199,experiment,36,↑,no_key,no_letter,-1.0,False,17
2M24,200,experiment,144,←,up,↑,0.6936466000042856,False,17
2M24,201,experiment,120,←,right,→,0.661920000333339,False,17
2M24,202,experiment,144,→,right,→,0.6854277998209,True,17
2M24,203,experiment,156,↓,up,↑,0.8605017997324467,False,17
2M24,204,experiment,108,↑,down,↓,1.0291268001310527,False,17
2M24,205,experiment,132,→,down,↓,1.8044460997916758,False,17
2M24,206,experiment,72,→,left,←,0.6391675998456776,False,17
2M24,207,experiment,120,↓,down,↓,0.8697127001360059,True,17
2M24,208,experiment,84,←,no_key,no_letter,-1.0,False,17
2M24,209,experiment,12,←,left,←,0.6388409002684057,True,17
2M24,210,experiment,168,→,right,→,0.9851676002144814,True,17
2M24,211,experiment,132,→,down,↓,0.8552677002735436,False,17
2M24,212,experiment,180,←,right,→,0.5928090997040272,False,17
2M24,213,experiment,168,↓,down,↓,0.6716322000138462,True,17
2M24,214,experiment,156,↓,down,↓,1.1254958002828062,True,17
2M24,215,experiment,60,→,up,↑,0.7897973996587098,False,17
2M24,216,experiment,60,↑,left,←,0.3005568999797106,False,17
2M24,217,experiment,144,↓,right,→,0.3671364998444915,False,17
2M24,218,experiment,108,↓,left,←,0.7038351004011929,False,17
2M24,219,experiment,12,→,down,↓,1.2415811996906996,False,17
2M24,220,training,144,↓,down,↓,0.619393200147897,True,18
2M24,221,training,156,↑,up,↑,0.7217629002407193,True,18
2M24,222,training,48,←,left,←,0.49456269992515445,True,18
2M24,223,experiment,132,↓,down,↓,0.8465670999139547,True,18
2M24,224,experiment,108,→,left,←,0.6940544000826776,False,18
2M24,225,experiment,120,↑,right,→,0.740718699991703,False,18
2M24,226,experiment,144,↓,up,↑,0.5597705002874136,False,18
2M24,227,experiment,96,↓,down,↓,1.5858943001367152,True,18
2M24,228,experiment,132,←,right,→,0.8846843997016549,False,18
2M24,229,experiment,156,→,right,→,0.6899491003714502,True,18
2M24,230,experiment,12,→,right,→,0.552303500007838,True,18
2M24,231,experiment,180,→,right,→,0.7708831997588277,True,18
2M24,232,experiment,60,→,right,→,0.5378229999914765,True,18
2M24,233,experiment,24,←,left,←,0.7350188000127673,True,18
2M24,234,experiment,132,→,right,→,0.811239399947226,True,18
2M24,235,experiment,48,↓,right,→,1.0324881002306938,False,18
2M24,236,experiment,72,↑,up,↑,0.9926420003175735,True,18
2M24,237,experiment,120,←,left,←,0.8429837003350258,True,18
2M24,238,experiment,60,←,down,↓,1.3361595999449492,False,18
2M24,239,experiment,36,←,left,←,0.753355999942869,True,18
2M24,240,experiment,168,↑,down,↓,1.4883390003815293,False,18
2M24,241,experiment,180,→,right,→,0.6629439000971615,True,18
2M24,242,experiment,168,↓,up,↑,0.9728378998115659,False,18
2M24,243,experiment,24,←,left,←,0.7406461997888982,True,18
2M24,244,experiment,180,→,left,←,0.8242770000360906,False,18
2M24,245,experiment,180,→,right,→,1.54819759959355,True,18
2M24,246,experiment,12,←,no_key,no_letter,-1.0,False,18
2M24,247,experiment,48,↓,down,↓,0.9585247999057174,True,18
2M24,248,experiment,60,↑,up,↑,0.6575337001122534,True,18
2M24,249,experiment,144,←,left,←,0.7361754002049565,True,18
2M24,250,experiment,108,←,no_key,no_letter,-1.0,False,18
2M24,251,experiment,108,↓,down,↓,0.8983543999493122,True,18
2M24,252,experiment,36,←,no_key,no_letter,-1.0,False,18
2M24,253,experiment,120,↓,right,→,1.2130050002597272,False,18
2M24,254,experiment,60,↑,up,↑,0.6742032002657652,True,18
2M24,255,experiment,156,→,right,→,0.7781663001514971,True,18
2M24,256,experiment,48,↓,down,↓,0.706935899797827,True,18
2M24,257,experiment,24,←,right,→,1.0604027998633683,False,18
2M24,258,experiment,36,↑,down,↓,1.2643921999260783,False,18
2M24,259,experiment,72,→,left,←,1.233635799959302,False,18
2M24,260,experiment,96,→,down,↓,0.8517653997987509,False,18
2M24,261,experiment,12,←,down,↓,0.9193278001621366,False,18
2M24,262,experiment,168,→,right,→,0.5799652999266982,True,18
2M24,263,experiment,84,→,right,→,0.8235586998052895,True,18
2M24,264,experiment,120,↑,left,←,0.7256672000512481,False,18
2M24,265,experiment,12,↓,left,←,0.6673237001523376,False,18
2M24,266,experiment,24,↓,up,↑,0.8981240000575781,False,18
2M24,267,experiment,156,←,right,→,1.072537800297141,False,18
2M24,268,experiment,84,↑,up,↑,0.8763602999970317,True,18
2M24,269,experiment,132,↑,down,↓,0.9180866000242531,False,18
2M24,270,experiment,144,→,down,↓,0.9318515001796186,False,18
2M24,271,experiment,144,←,left,←,1.1392855998128653,True,18
2M24,272,experiment,48,→,up,↑,0.819679900072515,False,18
2M24,273,experiment,72,→,down,↓,0.40065319975838065,False,18
2M24,274,experiment,84,←,right,→,1.3515166998840868,False,18
2M24,275,experiment,156,↑,down,↓,0.7589696003124118,False,18
2M24,276,experiment,84,←,up,↑,0.7572850999422371,False,18
2M24,277,experiment,36,↑,right,→,0.7232469003647566,False,18
2M24,278,experiment,96,↑,down,↓,0.7869464000687003,False,18
2M24,279,experiment,72,↓,left,←,1.540393800009042,False,18
2M24,280,experiment,96,↑,left,←,0.7403848003596067,False,18
2M24,281,experiment,108,↓,up,↑,1.1173415002413094,False,18
2M24,282,experiment,168,→,right,→,0.89991519972682,True,18
2M24,283,training,168,→,right,→,0.8899528998881578,True,18
2M24,284,training,24,↓,up,↑,0.8506979998201132,False,18
2M24,285,training,84,↓,down,↓,0.8106794003397226,True,18
2M24,286,experiment,108,↓,up,↑,0.9135102997533977,False,18
2M24,287,experiment,84,←,right,→,0.8016978995874524,False,18
2M24,288,experiment,60,←,left,←,0.577432599849999,True,18
2M24,289,experiment,108,←,up,↑,0.9081427999772131,False,18
2M24,290,experiment,120,→,up,↑,1.069645999930799,False,18
2M24,291,experiment,168,↑,down,↓,0.41715760016813874,False,18
2M24,292,experiment,48,↓,right,→,1.756071800366044,False,18
2M24,293,experiment,168,↑,left,←,1.3222988997586071,False,18
2M24,294,experiment,120,↓,no_key,no_letter,-1.0,False,18
2M24,295,experiment,48,↑,no_key,no_letter,-1.0,False,18
2M24,296,experiment,60,↓,down,↓,1.1698272000066936,True,18
2M24,297,experiment,24,←,left,←,1.1291481000371277,True,18
2M24,298,experiment,180,↑,right,→,1.0092295999638736,False,18
2M24,299,experiment,60,→,right,→,1.5403414000757039,True,18
2M24,300,experiment,132,→,down,↓,0.21711979992687702,False,18
2M24,301,experiment,168,→,up,↑,0.30041969986632466,False,18
2M24,302,experiment,72,←,left,←,0.6067262999713421,True,18
2M24,303,experiment,60,→,right,→,0.3504651002585888,True,18
2M24,304,experiment,72,→,up,↑,0.41762829991057515,False,18
2M24,305,experiment,180,←,left,←,1.4887675000354648,True,18
2M24,306,experiment,132,↓,down,↓,1.0125389997847378,True,18
2M24,307,experiment,132,→,left,←,1.476600100286305,False,18
2M24,308,experiment,96,↑,up,↑,1.2980723003856838,True,18
2M24,309,experiment,132,↓,down,↓,1.8178921998478472,True,18
2M24,310,experiment,108,→,right,→,1.2375918999314308,True,18
2M24,311,experiment,108,↓,down,↓,1.5475905002094805,True,18
2M24,312,experiment,156,↑,up,↑,0.1670536999590695,True,18
2M24,313,experiment,96,→,right,→,0.7538999998942018,True,18
2M24,314,experiment,120,↑,up,↑,0.7349070999771357,True,18
2M24,315,experiment,36,→,up,↑,1.522070599719882,False,18
2M24,316,experiment,144,↓,down,↓,0.7207768000662327,True,18
2M24,317,experiment,168,↓,no_key,no_letter,-1.0,False,18
2M24,318,experiment,36,↓,up,↑,0.20040430035442114,False,18
2M24,319,experiment,156,←,right,→,1.424893599934876,False,18
2M24,320,experiment,24,↑,down,↓,1.0175671000033617,False,18
2M24,321,experiment,156,→,right,→,0.7213985999114811,True,18
2M24,322,experiment,84,←,left,←,1.052339400164783,True,18
2M24,323,experiment,48,↑,right,→,1.522131399717182,False,18
2M24,324,experiment,84,↑,down,↓,0.9155401000753045,False,18
2M24,325,experiment,36,←,up,↑,1.5415333998389542,False,18
2M24,326,experiment,12,↑,no_key,no_letter,-1.0,False,18
2M24,327,experiment,144,↑,right,→,1.102884499821812,False,18
2M24,328,experiment,180,←,right,→,0.8241842999123037,False,18
2M24,329,experiment,72,→,left,←,1.1985901999287307,False,18
2M24,330,experiment,12,↓,down,↓,0.6119475997984409,True,18
2M24,331,experiment,84,↓,up,↑,0.9412539000622928,False,18
2M24,332,experiment,180,→,left,←,0.8893070998601615,False,18
2M24,333,experiment,36,←,up,↑,1.3005764000117779,False,18
2M24,334,experiment,24,←,up,↑,1.1303703002631664,False,18
2M24,335,experiment,144,↑,up,↑,0.8358196998015046,True,18
2M24,336,experiment,48,↓,down,↓,0.8771110000088811,True,18
2M24,337,experiment,96,↓,down,↓,1.362155199982226,True,18
2M24,338,experiment,72,↓,left,←,1.150425999891013,False,18
2M24,339,experiment,96,↓,down,↓,1.4432800002396107,True,18
2M24,340,experiment,156,←,left,←,1.1932036001235247,True,18
2M24,341,experiment,120,↑,right,→,1.6145775001496077,False,18
2M24,342,experiment,12,→,up,↑,1.3604911998845637,False,18
2M24,343,experiment,12,→,no_key,no_letter,-1.0,False,18
2M24,344,experiment,24,↓,down,↓,0.4342303997837007,True,18
2M24,345,experiment,144,↑,up,↑,0.7351262997835875,True,18
2M24,346,training,12,↑,left,←,1.5896607004106045,False,18
2M24,347,training,168,↓,down,↓,0.8828774001449347,True,18
2M24,348,training,156,↑,up,↑,0.7744744000956416,True,18
2M24,349,experiment,60,←,left,←,0.6787884002551436,True,18
2M24,350,experiment,72,↑,right,→,0.8048026002943516,False,18
2M24,351,experiment,36,→,right,→,0.7150187003426254,True,18
2M24,352,experiment,72,↓,right,→,0.9476568000391126,False,18
2M24,353,experiment,108,↑,up,↑,0.7469345997087657,True,18
2M24,354,experiment,132,→,down,↓,0.21697219973430037,False,18
2M24,355,experiment,108,↑,up,↑,0.637975100427866,True,18
2M24,356,experiment,168,←,up,↑,1.448718999978155,False,18
2M24,357,experiment,108,↓,left,←,1.470311100129038,False,18
2M24,358,experiment,180,←,down,↓,1.0510978000238538,False,18
2M24,359,experiment,96,↓,left,←,0.9993449002504349,False,18
2M24,360,experiment,180,↑,left,←,1.8564045000821352,False,18
2M24,361,experiment,144,↑,right,→,1.3631460997276008,False,18
2M24,362,experiment,180,↑,left,←,0.5151535999029875,False,18
2M24,363,experiment,156,→,right,→,0.9204074000008404,True,18
2M24,364,experiment,132,→,down,↓,0.3003583000972867,False,18
2M24,365,experiment,120,↑,no_key,no_letter,-1.0,False,18
2M24,366,experiment,48,→,no_key,no_letter,-1.0,False,18
2M24,367,experiment,84,↑,no_key,no_letter,-1.0,False,18
2M24,368,experiment,84,←,down,↓,1.294771600048989,False,18
2M24,369,experiment,156,→,left,←,1.3681696997955441,False,18
2M24,370,experiment,36,↓,no_key,no_letter,-1.0,False,18
2M24,371,experiment,24,←,right,→,1.2555689001455903,False,18
2M24,372,experiment,48,↑,no_key,no_letter,-1.0,False,18
2M24,373,experiment,24,↑,down,↓,1.706061900127679,False,18
2M24,374,experiment,120,↓,down,↓,0.9277551998384297,True,18
2M24,375,experiment,84,→,right,→,1.4023633999750018,True,18
2M24,376,experiment,12,→,up,↑,1.819364400114864,False,18
2M24,377,experiment,60,↓,right,→,0.9575402000918984,False,18
2M24,378,experiment,144,↓,left,←,0.6896656001918018,False,18
2M24,379,experiment,96,←,left,←,1.154055600054562,True,18
2M24,380,experiment,156,←,right,→,0.8362423996441066,False,18
2M24,381,experiment,24,↑,no_key,no_letter,-1.0,False,18
2M24,382,experiment,144,↑,up,↑,0.7897767000831664,True,18
2M24,383,experiment,120,→,right,→,0.03384050028398633,True,18
2M24,384,experiment,12,→,right,→,0.08396779978647828,True,18
2M24,385,experiment,156,↑,down,↓,1.439897600095719,False,18
2M24,386,experiment,168,→,no_key,no_letter,-1.0,False,18
2M24,387,experiment,144,↑,down,↓,1.0716590997762978,False,18
2M24,388,experiment,132,←,down,↓,1.806263200007379,False,18
2M24,389,experiment,180,↓,up,↑,0.9601232996210456,False,18
2M24,390,experiment,36,↑,down,↓,1.2365337000228465,False,18
2M24,391,experiment,60,↑,right,→,0.938051899895072,False,18
2M24,392,experiment,72,→,up,↑,0.3838074002414942,False,18
2M24,393,experiment,48,↑,left,←,1.35627429978922,False,18
2M24,394,experiment,60,←,right,→,1.2032885998487473,False,18
2M24,395,experiment,168,←,left,←,1.8616985999979079,True,18
2M24,396,experiment,96,↓,up,↑,0.793070400133729,False,18
2M24,397,experiment,48,←,down,↓,1.0164824002422392,False,18
2M24,398,experiment,24,←,right,→,0.9994899001903832,False,18
2M24,399,experiment,12,↓,up,↑,1.5033774999901652,False,18
2M24,400,experiment,108,↑,down,↓,0.08364679990336299,False,18
2M24,401,experiment,72,↓,down,↓,1.4578817998990417,True,18
2M24,402,experiment,84,←,down,↓,1.1206404999829829,False,18
2M24,403,experiment,120,→,right,→,0.7686664001084864,True,18
2M24,404,experiment,36,↓,left,←,0.8536828998476267,False,18
2M24,405,experiment,12,↓,left,←,0.9635602999478579,False,18
2M24,406,experiment,96,↓,down,↓,0.7534895003773272,True,18
2M24,407,experiment,168,↓,down,↓,0.7402552999556065,True,18
2M24,408,experiment,132,↑,up,↑,0.7578803999349475,True,18
2M24,409,training,180,→,right,→,0.7425627000629902,True,18
2M24,410,training,48,↑,left,←,1.1356072998605669,False,18
2M24,411,training,180,↓,down,↓,0.7528346995823085,True,18
2M24,412,experiment,36,↓,down,↓,1.331154900137335,True,18
2M24,413,experiment,156,↓,down,↓,0.8050216999836266,True,18
2M24,414,experiment,120,↑,right,→,0.5952869998291135,False,18
2M24,415,experiment,60,↑,up,↑,0.8859478998929262,True,18
2M24,416,experiment,156,→,no_key,no_letter,-1.0,False,18
2M24,417,experiment,48,↑,down,↓,0.017248400021344423,False,18
2M24,418,experiment,120,↑,no_key,no_letter,-1.0,False,18
2M24,419,experiment,120,↑,left,←,1.5375307998619974,False,18
2M24,420,experiment,108,↓,left,←,1.3440098999999464,False,18
2M24,421,experiment,96,↑,up,↑,1.4564355998300016,True,18
2M24,422,experiment,84,↑,up,↑,0.40043479995802045,True,18
2M24,423,experiment,168,↑,right,→,1.22247500019148,False,18
2M24,424,experiment,144,↑,left,←,1.2681114999577403,False,18
2M24,425,experiment,180,←,left,←,0.49642079975456,True,18
2M24,426,experiment,144,→,up,↑,1.2590055000036955,False,18
2M24,427,experiment,144,→,right,→,0.9565677000209689,True,18
2M24,428,experiment,168,↑,left,←,0.7873227000236511,False,18
2M24,429,experiment,96,←,left,←,0.5859391000121832,True,18
2M24,430,experiment,36,→,up,↑,0.9318850999698043,False,18
2M24,431,experiment,24,↓,left,←,1.8061414998956025,False,18
2M24,432,experiment,120,←,up,↑,0.8599402001127601,False,18
2M24,433,experiment,96,←,left,←,0.7339443997479975,True,18
2M24,434,experiment,180,↑,right,→,0.7592895003035665,False,18
2M24,435,experiment,12,→,up,↑,1.0668037999421358,False,18
2M24,436,experiment,168,→,down,↓,0.7350166002288461,False,18
2M24,437,experiment,12,↑,no_key,no_letter,-1.0,False,18
2M24,438,experiment,48,→,right,→,1.1586267999373376,True,18
2M24,439,experiment,96,↑,up,↑,0.1681880997493863,True,18
2M24,440,experiment,72,→,right,→,1.135563800111413,True,18
2M24,441,experiment,84,→,right,→,1.636896699666977,True,18
2M24,442,experiment,48,↑,right,→,1.534885700326413,False,18
2M24,443,experiment,24,↑,left,←,1.479761099908501,False,18
2M24,444,experiment,12,←,down,↓,0.9713093996979296,False,18
2M24,445,experiment,84,←,right,→,1.1194561999291182,False,18
2M24,446,experiment,60,↑,up,↑,1.020916999783367,True,18
2M24,447,experiment,132,←,no_key,no_letter,-1.0,False,18
2M24,448,experiment,144,→,up,↑,0.49497170001268387,False,18
2M24,449,experiment,72,←,left,←,1.008388599846512,True,18
2M24,450,experiment,156,↓,down,↓,0.5033489000052214,True,18
2M24,451,experiment,72,→,left,←,1.502332499716431,False,18
2M24,452,experiment,180,←,down,↓,1.095943400170654,False,18
2M24,453,experiment,108,↑,down,↓,1.0994035000912845,False,18
2M24,454,experiment,108,←,down,↓,1.1640685996972024,False,18
2M24,455,experiment,24,→,no_key,no_letter,-1.0,False,18
2M24,456,experiment,36,←,down,↓,1.1236052997410297,False,18
2M24,457,experiment,108,→,right,→,0.9404246998019516,True,18
2M24,458,experiment,72,↑,right,→,0.9789416999556124,False,18
2M24,459,experiment,36,→,right,→,0.6163271996192634,True,18
2M24,460,experiment,132,←,down,↓,0.7451253002509475,False,18
2M24,461,experiment,24,↑,left,←,1.188359399791807,False,18
2M24,462,experiment,132,→,down,↓,1.1740878000855446,False,18
2M24,463,experiment,84,←,down,↓,0.0004965001717209816,False,18
2M24,464,experiment,132,→,right,→,0.6132629998028278,True,18
2M24,465,experiment,60,→,up,↑,0.8417794997803867,False,18
2M24,466,experiment,156,↓,no_key,no_letter,-1.0,False,18
2M24,467,experiment,48,↓,no_key,no_letter,-1.0,False,18
2M24,468,experiment,12,→,right,→,0.7047762000001967,True,18
2M24,469,experiment,60,←,no_key,no_letter,-1.0,False,18
2M24,470,experiment,168,→,up,↑,1.089172299951315,False,18
2M24,471,experiment,180,↓,down,↓,0.9540862999856472,True,18
2M24,472,training,60,→,down,↓,0.815576400142163,False,18
2M24,473,training,120,←,left,←,0.659706300124526,True,18
2M24,474,training,108,↑,right,→,0.5974681000225246,False,18
2M24,475,experiment,84,↓,left,←,0.6549316998571157,False,18
2M24,476,experiment,156,↑,right,→,1.2493984997272491,False,18
2M24,477,experiment,96,←,no_key,no_letter,-1.0,False,18
2M24,478,experiment,180,↑,right,→,1.054523800034076,False,18
2M24,479,experiment,144,←,no_key,no_letter,-1.0,False,18
2M24,480,experiment,168,↑,down,↓,0.3504985002800822,False,18
2M24,481,experiment,156,←,left,←,0.6450900002382696,True,18
2M24,482,experiment,120,↑,up,↑,1.047685300000012,True,18
2M24,483,experiment,12,↑,up,↑,0.7313673999160528,True,18
2M24,484,experiment,96,↑,up,↑,0.6409057001583278,True,18
2M24,485,experiment,168,↑,up,↑,0.7380678998306394,True,18
2M24,486,experiment,132,↑,down,↓,1.0807000999338925,False,18
2M24,487,experiment,24,→,no_key,no_letter,-1.0,False,18
2M24,488,experiment,168,←,up,↑,0.867465800140053,False,18
2M24,489,experiment,120,↑,up,↑,1.0738208000548184,True,18
2M24,490,experiment,24,↑,up,↑,0.7178603997454047,True,18
2M24,491,experiment,180,→,right,→,1.2147050998173654,True,18
2M24,492,experiment,60,↓,left,←,1.136208700016141,False,18
2M24,493,experiment,84,→,right,→,0.8519028001464903,True,18
2M24,494,experiment,120,↑,right,→,0.7666313000954688,False,18
2M24,495,experiment,72,↑,no_key,no_letter,-1.0,False,18
2M24,496,experiment,180,→,up,↑,0.9571155002340674,False,18
2M24,497,experiment,108,↓,down,↓,1.0136490003205836,True,18
2M24,498,experiment,48,↑,up,↑,0.949698300100863,True,18
2M24,499,experiment,24,↑,up,↑,0.9737867000512779,True,18
2M24,500,experiment,96,↑,no_key,no_letter,-1.0,False,18
2M24,501,experiment,168,→,right,→,0.7146815997548401,True,18
2M24,502,experiment,156,↑,down,↓,1.2281735995784402,False,18
2M24,503,experiment,36,↓,down,↓,0.83491240022704,True,18
2M24,504,experiment,36,←,up,↑,0.8736600000411272,False,18
2M24,505,experiment,36,↑,left,←,1.4838394997641444,False,18
2M24,506,experiment,48,←,right,→,0.9677479001693428,False,18
2M24,507,experiment,144,↑,up,↑,0.9473482999019325,True,18
2M24,508,experiment,120,→,right,→,0.9325847001746297,True,18
2M24,509,experiment,84,↑,up,↑,1.1588204996660352,True,18
2M24,510,experiment,72,↓,no_key,no_letter,-1.0,False,18
2M24,511,experiment,108,←,right,→,0.7401254000142217,False,18
2M24,512,experiment,36,→,up,↑,0.8206421001814306,False,18
2M24,513,experiment,48,←,right,→,0.7092685997486115,False,18
2M24,514,experiment,12,↑,right,→,1.3310891003347933,False,18
2M24,515,experiment,24,↓,down,↓,0.8024500999599695,True,18
2M24,516,experiment,84,→,left,←,0.7274396996945143,False,18
2M24,517,experiment,60,↑,left,←,1.1760628996416926,False,18
2M24,518,experiment,144,→,right,→,0.30058149993419647,True,18
2M24,519,experiment,48,↓,no_key,no_letter,-1.0,False,18
2M24,520,experiment,72,→,left,←,0.8537884000688791,False,18
2M24,521,experiment,108,→,right,→,0.699123399797827,True,18
2M24,522,experiment,12,→,up,↑,1.252031700219959,False,18
2M24,523,experiment,156,↓,down,↓,0.7135601998306811,True,18
2M24,524,experiment,60,→,right,→,0.7516867001540959,True,18
2M24,525,experiment,132,→,right,→,0.7657828000374138,True,18
2M24,526,experiment,60,←,left,←,0.5863238000310957,True,18
2M24,527,experiment,132,←,left,←,0.7892984002828598,True,18
2M24,528,experiment,132,→,right,→,1.0273659001104534,True,18
2M24,529,experiment,180,↓,left,←,1.940603299997747,False,18
2M24,530,experiment,72,↓,down,↓,1.0108432997949421,True,18
2M24,531,experiment,144,→,down,↓,1.015593800228089,False,18
2M24,532,experiment,96,→,down,↓,0.9639615998603404,False,18
2M24,533,experiment,108,←,left,←,0.8159644999541342,True,18
2M24,534,experiment,12,→,no_key,no_letter,-1.0,False,18
2M24,535,training,84,→,right,→,1.3553941999562085,True,18
2M24,536,training,132,↓,down,↓,0.5232842001132667,True,18
2M24,537,training,144,↓,down,↓,0.7713134000077844,True,18
2M24,538,experiment,12,↑,up,↑,0.5569666000083089,True,18
2M24,539,experiment,108,→,right,→,0.6965699000284076,True,18
2M24,540,experiment,108,→,right,→,0.4912036997266114,True,18
2M24,541,experiment,132,→,right,→,0.6735951998271048,True,18
2M24,542,experiment,168,→,right,→,0.6465089996345341,True,18
2M24,543,experiment,120,→,right,→,0.7309069000184536,True,18
2M24,544,experiment,12,↑,up,↑,0.8513772999867797,True,18
2M24,545,experiment,48,↓,down,↓,0.60034150024876,True,18
2M24,546,experiment,144,←,left,←,1.1588118998333812,True,18
2M24,547,experiment,96,→,right,→,0.6375425001606345,True,18
2M24,548,experiment,36,→,right,→,0.5559229999780655,True,18
2M24,549,experiment,156,↑,up,↑,0.5821424000896513,True,18
2M24,550,experiment,60,↑,no_key,no_letter,-1.0,False,18
2M24,551,experiment,96,↑,right,→,0.9667203999124467,False,18
2M24,552,experiment,156,↓,up,↑,0.8089251001365483,False,18
2M24,553,experiment,84,→,left,←,0.9508035001344979,False,18
2M24,554,experiment,60,↓,left,←,1.2245982997119427,False,18
2M24,555,experiment,36,↑,left,←,0.8439144999720156,False,18
2M24,556,experiment,120,←,right,→,0.08404610026627779,False,18
2M24,557,experiment,180,←,no_key,no_letter,-1.0,False,18
2M24,558,experiment,144,↑,right,→,1.4912624000571668,False,18
2M24,559,experiment,168,→,up,↑,1.0986186997033656,False,18
2M24,560,experiment,48,↑,right,→,1.1664646998979151,False,18
2M24,561,experiment,144,←,left,←,0.6354434001259506,True,18
2M24,562,experiment,84,→,no_key,no_letter,-1.0,False,18
2M24,563,experiment,72,↑,down,↓,0.8538814997300506,False,18
2M24,564,experiment,120,→,right,→,0.6172321001067758,True,18
2M24,565,experiment,120,↓,right,→,0.8024029000662267,False,18
2M24,566,experiment,12,↓,up,↑,0.8265744000673294,False,18
2M24,567,experiment,96,↓,down,↓,0.698331699706614,True,18
2M24,568,experiment,36,→,right,→,0.6610648999921978,True,18
2M24,569,experiment,72,↑,down,↓,1.2066767001524568,False,18
2M24,570,experiment,108,←,up,↑,0.90863800002262,False,18
2M24,571,experiment,12,←,no_key,no_letter,-1.0,False,18
2M24,572,experiment,180,←,left,←,0.7549874000251293,True,18
2M24,573,experiment,84,→,right,→,1.0873163002543151,True,18
2M24,574,experiment,24,↓,no_key,no_letter,-1.0,False,18
2M24,575,experiment,84,→,down,↓,1.1819281000643969,False,18
2M24,576,experiment,180,↑,left,←,1.4039361998438835,False,18
2M24,577,experiment,72,↓,right,→,1.100502499844879,False,18
2M24,578,experiment,60,↓,no_key,no_letter,-1.0,False,18
2M24,579,experiment,180,↑,left,←,0.997957699932158,False,18
2M24,580,experiment,108,→,right,→,1.7743075001053512,True,18
2M24,581,experiment,24,↑,no_key,no_letter,-1.0,False,18
2M24,582,experiment,24,↓,up,↑,1.0056288996711373,False,18
2M24,583,experiment,72,↑,left,←,0.9749937998130918,False,18
2M24,584,experiment,24,↓,right,→,1.002076799981296,False,18
2M24,585,experiment,132,↓,right,→,0.7542241001501679,False,18
2M24,586,experiment,48,←,left,←,1.289199999999255,True,18
2M24,587,experiment,132,↑,no_key,no_letter,-1.0,False,18
2M24,588,experiment,156,←,left,←,1.902784699574113,True,18
2M24,589,experiment,36,↓,down,↓,0.1671551000326872,True,18
2M24,590,experiment,168,↑,right,→,0.7205324000678957,False,18
2M24,591,experiment,60,←,left,←,0.6020507998764515,True,18
2M24,592,experiment,132,↑,right,→,1.330723499879241,False,18
2M24,593,experiment,156,↑,down,↓,0.8497095997445285,False,18
2M24,594,experiment,144,↑,no_key,no_letter,-1.0,False,18
2M24,595,experiment,48,↑,up,↑,1.0979687999933958,True,18
2M24,596,experiment,96,←,down,↓,0.60091059980914,False,18
2M24,597,experiment,168,↑,right,→,1.1157916998490691,False,18
2M24,598,training,144,↓,down,↓,0.7214501001872122,True,18
2M24,599,training,72,↓,down,↓,0.625533000100404,True,18
2M24,600,training,180,↑,down,↓,1.223107900004834,False,18
2M24,601,experiment,48,↓,down,↓,1.3201100998558104,True,18
2M24,602,experiment,180,→,right,→,1.5507674999535084,True,18
2M24,603,experiment,48,↓,left,←,1.30199269996956,False,18
2M24,604,experiment,132,→,right,→,1.184735800139606,True,18
2M24,605,experiment,48,←,left,←,1.1513002999126911,True,18
2M24,606,experiment,168,↑,left,←,1.4454600997269154,False,18
2M24,607,experiment,168,↑,up,↑,0.6602497999556363,True,18
2M24,608,experiment,144,→,right,→,0.5902444999665022,True,18
2M24,609,experiment,96,→,right,→,0.7538013001903892,True,18
2M24,610,experiment,108,→,right,→,0.6440598000772297,True,18
2M24,611,experiment,72,→,no_key,no_letter,-1.0,False,18
2M24,612,experiment,132,↓,left,←,1.1072815000079572,False,18
2M24,613,experiment,132,→,up,↑,0.10052500013262033,False,18
2M24,614,experiment,48,↑,up,↑,0.43371149990707636,True,18
2M24,615,experiment,24,←,no_key,no_letter,-1.0,False,18
2M24,616,experiment,156,↓,no_key,no_letter,-1.0,False,18
2M24,617,experiment,60,↑,down,↓,1.0968559002503753,False,18
2M24,618,experiment,96,↓,right,→,0.5914555001072586,False,18
2M24,619,experiment,120,↑,down,↓,1.4816995998844504,False,18
2M24,620,experiment,180,↑,left,←,0.8242182997055352,False,18
2M24,621,experiment,144,↑,right,→,0.747703299857676,False,18
2M24,622,experiment,120,↑,left,←,1.0627242997288704,False,18
2M24,623,experiment,84,↓,down,↓,0.8596139000728726,True,18
2M24,624,experiment,72,→,left,←,1.0606645997613668,False,18
2M24,625,experiment,120,←,left,←,0.5693994998000562,True,18
2M24,626,experiment,12,↓,no_key,no_letter,-1.0,False,18
2M24,627,experiment,72,↑,right,→,0.05041690031066537,False,18
2M24,628,experiment,108,←,no_key,no_letter,-1.0,False,18
2M24,629,experiment,36,→,down,↓,1.7495536003261805,False,18
2M24,630,experiment,12,↓,left,←,1.6015719999559224,False,18
2M24,631,experiment,156,→,no_key,no_letter,-1.0,False,18
2M24,632,experiment,12,→,no_key,no_letter,-1.0,False,18
2M24,633,experiment,168,↓,right,→,0.10072099976241589,False,18
2M24,634,experiment,60,←,no_key,no_letter,-1.0,False,18
2M24,635,experiment,120,←,left,←,0.6254658997058868,True,18
2M24,636,experiment,12,↓,right,→,0.8674749997444451,False,18
2M24,637,experiment,36,↓,left,←,0.9638571999967098,False,18
2M24,638,experiment,96,↓,up,↑,0.7874139002524316,False,18
2M24,639,experiment,132,↓,down,↓,1.596599499695003,True,18
2M24,640,experiment,108,↑,left,←,1.4625351000577211,False,18
2M24,641,experiment,60,↑,no_key,no_letter,-1.0,False,18
2M24,642,experiment,24,→,no_key,no_letter,-1.0,False,18
2M24,643,experiment,24,→,left,←,0.9183204998262227,False,18
2M24,644,experiment,144,↓,no_key,no_letter,-1.0,False,18
2M24,645,experiment,36,↓,no_key,no_letter,-1.0,False,18
2M24,646,experiment,156,↑,no_key,no_letter,-1.0,False,18
2M24,647,experiment,72,↑,left,←,1.6200267001986504,False,18
2M24,648,experiment,36,↓,no_key,no_letter,-1.0,False,18
2M24,649,experiment,156,←,up,↑,1.450241099577397,False,18
2M24,650,experiment,180,←,left,←,0.9863364002667367,True,18
2M24,651,experiment,144,←,down,↓,0.7840860998257995,False,18
2M24,652,experiment,180,↑,right,→,1.0222304002381861,False,18
2M24,653,experiment,108,→,left,←,1.7852277997881174,False,18
2M24,654,experiment,96,←,right,→,1.6134766000322998,False,18
2M24,655,experiment,84,↓,up,↑,1.1581592997536063,False,18
2M24,656,experiment,84,←,down,↓,1.379635600373149,False,18
2M24,657,experiment,24,↑,left,←,1.0727353999391198,False,18
2M24,658,experiment,60,↑,up,↑,0.765612100251019,True,18
2M24,659,experiment,168,→,right,→,1.0762784997932613,True,18
2M24,660,experiment,84,↑,up,↑,0.6664164001122117,True,18
2M24,661,training,12,↓,up,↑,0.9066880000755191,False,18
2M24,662,training,132,↓,right,→,1.2130408002994955,False,18
2M24,663,training,84,→,no_key,no_letter,-1.0,False,18
2M24,664,experiment,36,→,down,↓,0.8480793000198901,False,18
2M24,665,experiment,48,↑,down,↓,0.9640930001623929,False,18
2M24,666,experiment,96,↑,left,←,0.4701371002011001,False,18
2M24,667,experiment,120,←,left,←,0.65049699973315,True,18
2M24,668,experiment,156,↓,left,←,0.6735958997160196,False,18
2M24,669,experiment,72,↑,up,↑,1.7246452998369932,True,18
2M24,670,experiment,24,↓,down,↓,0.6312909000553191,True,18
2M24,671,experiment,108,→,right,→,0.5143762999214232,True,18
2M24,672,experiment,180,↓,down,↓,0.6645929999649525,True,18
2M24,673,experiment,36,→,left,←,0.9997568000108004,False,18
2M24,674,experiment,108,↑,up,↑,0.676345800049603,True,18
2M24,675,experiment,72,↑,up,↑,0.522305500227958,True,18
2M24,676,experiment,132,↓,down,↓,0.9437068998813629,True,18
2M24,677,experiment,132,→,right,→,0.7502959999255836,True,18
2M24,678,experiment,108,↓,down,↓,0.5355652999132872,True,18
2M24,679,experiment,168,↑,down,↓,0.5240670000202954,False,18
2M24,680,experiment,132,→,down,↓,0.03437379980459809,False,18
2M24,681,experiment,36,↑,down,↓,1.338419099804014,False,18
2M24,682,experiment,96,→,up,↑,1.2554442998953164,False,18
2M24,683,experiment,12,→,right,→,1.1198033997789025,True,18
2M24,684,experiment,144,↓,down,↓,0.6891267001628876,True,18
2M24,685,experiment,60,↑,up,↑,0.9062715000472963,True,18
2M24,686,experiment,12,↑,up,↑,1.0356093998998404,True,18
2M24,687,experiment,168,←,left,←,0.835116199683398,True,18
2M24,688,experiment,96,←,right,→,1.1980288000777364,False,18
2M24,689,experiment,24,↓,up,↑,1.132759299594909,False,18
2M24,690,experiment,108,↑,down,↓,0.9892503996379673,False,18
2M24,691,experiment,120,→,right,→,0.651452699676156,True,18
2M24,692,experiment,156,→,up,↑,1.0264202998951077,False,18
2M24,693,experiment,72,↑,up,↑,0.7553929002024233,True,18
2M24,694,experiment,84,↓,right,→,0.6918647000566125,False,18
2M24,695,experiment,36,↑,left,←,0.8217651997692883,False,18
2M24,696,experiment,180,↓,right,→,0.963841600343585,False,18
2M24,697,experiment,180,↑,up,↑,0.4864098997786641,True,18
2M24,698,experiment,156,↑,down,↓,1.3733744001947343,False,18
2M24,699,experiment,144,←,no_key,no_letter,-1.0,False,18
2M24,700,experiment,144,←,no_key,no_letter,-1.0,False,18
2M24,701,experiment,12,↑,left,←,1.0621131998486817,False,18
2M24,702,experiment,84,→,right,→,0.982213499955833,True,18
2M24,703,experiment,24,↑,no_key,no_letter,-1.0,False,18
2M24,704,experiment,72,←,no_key,no_letter,-1.0,False,18
2M24,705,experiment,84,→,up,↑,0.7345325001515448,False,18
2M24,706,experiment,156,←,down,↓,0.7036414998583496,False,18
2M24,707,experiment,120,↑,right,→,1.395342799834907,False,18
2M24,708,experiment,60,←,left,←,0.9280512998811901,True,18
2M24,709,experiment,120,↑,down,↓,1.302863100077957,False,18
2M24,710,experiment,60,←,right,→,0.9619570998474956,False,18
2M24,711,experiment,12,↓,no_key,no_letter,-1.0,False,18
2M24,712,experiment,168,↓,right,→,1.0855237999930978,False,18
2M24,713,experiment,144,↓,left,←,1.3240167000330985,False,18
2M24,714,experiment,48,←,left,←,1.0421459004282951,True,18
2M24,715,experiment,60,↓,down,↓,1.1409972002729774,True,18
2M24,716,experiment,48,→,up,↑,1.593421600293368,False,18
2M24,717,experiment,84,↑,left,←,0.6595045002177358,False,18
2M24,718,experiment,48,↑,down,↓,0.8507728995755315,False,18
2M24,719,experiment,180,←,right,→,0.9655977999791503,False,18
2M24,720,experiment,96,↓,up,↑,0.5357647999189794,False,18
2M24,721,experiment,168,←,down,↓,1.1290855999104679,False,18
2M24,722,experiment,24,→,up,↑,1.203551100101322,False,18
2M24,723,experiment,132,↑,down,↓,0.6419601999223232,False,18
2M24,724,training,144,←,right,→,1.5163690000772476,False,18
2M24,725,training,132,↑,right,→,0.8910610000602901,False,18
2M24,726,training,48,←,up,↑,1.9290598002262414,False,18
2M24,727,experiment,108,←,down,↓,0.5490218997001648,False,18
2M24,728,experiment,36,→,no_key,no_letter,-1.0,False,18
2M24,729,experiment,72,→,left,←,1.8541434998624027,False,18
2M24,730,experiment,84,↓,right,→,1.8203508998267353,False,18
2M24,731,experiment,132,↑,up,↑,0.5121234999969602,True,18
2M24,732,experiment,84,←,up,↑,1.6407556999474764,False,18
2M24,733,experiment,156,↑,no_key,no_letter,-1.0,False,18
2M24,734,experiment,24,←,left,←,1.0736511000432074,True,18
2M24,735,experiment,72,→,right,→,0.8170758998021483,True,18
2M24,736,experiment,120,↑,up,↑,0.8320313999429345,True,18
2M24,737,experiment,60,←,up,↑,1.0860899002291262,False,18
2M24,738,experiment,96,→,no_key,no_letter,-1.0,False,18
2M24,739,experiment,168,←,right,→,0.7983091999776661,False,18
2M24,740,experiment,60,↓,no_key,no_letter,-1.0,False,18
2M24,741,experiment,12,←,up,↑,0.28368630027398467,False,18
2M24,742,experiment,144,↑,right,→,1.3775198999792337,False,18
2M24,743,experiment,120,↓,no_key,no_letter,-1.0,False,18
2M24,744,experiment,36,↑,right,→,1.3424177998676896,False,18
2M24,745,experiment,60,→,left,←,0.8428465002216399,False,18
2M24,746,experiment,96,→,right,→,1.0699168001301587,True,18
2M24,747,experiment,108,↓,down,↓,0.8231401001103222,True,18
2M24,748,experiment,180,↓,down,↓,1.205302500165999,True,18
2M24,749,experiment,84,↓,down,↓,0.654133299831301,True,18
2M24,750,experiment,168,↓,right,→,0.8614997998811305,False,18
2M24,751,experiment,24,↑,up,↑,0.5539428000338376,True,18
2M24,752,experiment,180,↓,up,↑,0.677473200019449,False,18
2M24,753,experiment,24,↑,up,↑,0.8129809000529349,True,18
2M24,754,experiment,12,→,up,↑,0.8366775000467896,False,18
2M24,755,experiment,96,←,left,←,0.5732581000775099,True,18
2M24,756,experiment,12,←,left,←,1.1343210004270077,True,18
2M24,757,experiment,180,↑,left,←,1.3000835999846458,False,18
2M24,758,experiment,48,↑,up,↑,0.7989207999780774,True,18
2M24,759,experiment,156,↓,down,↓,0.663062599953264,True,18
2M24,760,experiment,84,←,left,←,1.0444438001140952,True,18
2M24,761,experiment,36,↓,left,←,1.4233536999672651,False,18
2M24,762,experiment,48,→,down,↓,1.065548799932003,False,18
2M24,763,experiment,72,↑,no_key,no_letter,-1.0,False,18
2M24,764,experiment,108,←,up,↑,1.6840006997808814,False,18
2M24,765,experiment,144,←,left,←,0.6619920996017754,True,18
2M24,766,experiment,120,↓,left,←,1.1097925999201834,False,18
2M24,767,experiment,48,↓,down,↓,0.6397249000146985,True,18
2M24,768,experiment,144,→,left,←,1.0461419001221657,False,18
2M24,769,experiment,156,←,left,←,1.4825120000168681,True,18
2M24,770,experiment,132,↓,down,↓,0.6221167002804577,True,18
2M24,771,experiment,36,←,down,↓,0.9017715002410114,False,18
2M24,772,experiment,108,↓,right,→,0.7052524001337588,False,18
2M24,773,experiment,24,↑,down,↓,0.9664377002045512,False,18
2M24,774,experiment,156,→,down,↓,0.8492912999354303,False,18
2M24,775,experiment,12,→,left,←,1.2326640002429485,False,18
2M24,776,experiment,48,←,right,→,0.7128789997659624,False,18
2M24,777,experiment,144,←,left,←,1.0767631996423006,True,18
2M24,778,experiment,168,←,no_key,no_letter,-1.0,False,18
2M24,779,experiment,96,←,left,←,0.6379126999527216,True,18
2M24,780,experiment,180,→,down,↓,1.098641900345683,False,18
2M24,781,experiment,120,→,right,→,0.8552474998869002,True,18
2M24,782,experiment,132,←,left,←,0.595450900029391,True,18
2M24,783,experiment,132,→,up,↑,0.7531858999282122,False,18
2M24,784,experiment,72,↑,right,→,0.6744091999717057,False,18
2M24,785,experiment,60,↓,down,↓,1.5053832000121474,True,18
2M24,786,experiment,168,↑,right,→,0.7783463997766376,False,18
2M24,787,training,24,↑,right,→,0.9596392000094056,False,18
2M24,788,training,60,←,left,←,0.4862575000151992,True,18
2M24,789,training,96,←,left,←,0.5739187002182007,True,18
2M24,790,experiment,96,→,right,→,1.0403668000362813,True,18
2M24,791,experiment,36,↑,up,↑,0.776027699932456,True,18
2M24,792,experiment,96,←,left,←,0.5471251998096704,True,18
2M24,793,experiment,12,↓,up,↑,0.766677999868989,False,18
2M24,794,experiment,12,←,left,←,0.5370291001163423,True,18
2M24,795,experiment,60,→,right,→,1.3539815000258386,True,18
2M24,796,experiment,48,→,right,→,0.7166422000154853,True,18
2M24,797,experiment,48,↑,up,↑,0.692142500076443,True,18
2M24,798,experiment,156,↑,up,↑,0.8030534000135958,True,18
2M24,799,experiment,36,→,right,→,0.615406499709934,True,18
2M24,800,experiment,12,↑,up,↑,0.6245339000597596,True,18
2M24,801,experiment,84,↓,up,↑,0.8419026997871697,False,18
2M24,802,experiment,168,←,right,→,0.6331781004555523,False,18
2M24,803,experiment,144,→,up,↑,1.055356899742037,False,18
2M24,804,experiment,156,←,up,↑,0.00024239998310804367,False,18
2M24,805,experiment,168,→,right,→,0.5747356000356376,True,18
2M24,806,experiment,60,←,left,←,0.68988629989326,True,18
2M24,807,experiment,108,←,left,←,0.7879400001838803,True,18
2M24,808,experiment,36,↑,down,↓,1.0048460001125932,False,18
2M24,809,experiment,108,←,left,←,0.8597111999988556,True,18
2M24,810,experiment,24,↓,right,→,1.8359590000472963,False,18
2M24,811,experiment,168,→,no_key,no_letter,-1.0,False,18
2M24,812,experiment,156,→,up,↑,1.1799868000671268,False,18
2M24,813,experiment,60,→,left,←,1.0350085999816656,False,18
2M24,814,experiment,132,→,up,↑,0.8513307999819517,False,18
2M24,815,experiment,60,↓,down,↓,1.1858760002069175,True,18
2M24,816,experiment,24,←,up,↑,1.2290650000795722,False,18
2M24,817,experiment,156,→,up,↑,0.7275352999567986,False,18
2M24,818,experiment,132,←,left,←,0.6480856002308428,True,18
2M24,819,experiment,180,→,right,→,1.0577072002924979,True,18
2M24,820,experiment,180,↓,down,↓,0.8110474003478885,True,18
2M24,821,experiment,180,↓,up,↑,0.6457113004289567,False,18
2M24,822,experiment,48,←,no_key,no_letter,-1.0,False,18
2M24,823,experiment,72,↓,up,↑,0.8326516998931766,False,18
2M24,824,experiment,120,↑,no_key,no_letter,-1.0,False,18
2M24,825,experiment,84,→,left,←,1.1721418001689017,False,18
2M24,826,experiment,96,←,right,→,0.9382772999815643,False,18
2M24,827,experiment,168,→,down,↓,0.8439275999553502,False,18
2M24,828,experiment,144,↑,left,←,1.566675600130111,False,18
2M24,829,experiment,120,←,right,→,1.763140699826181,False,18
2M24,830,experiment,108,↑,down,↓,0.8335394999012351,False,18
2M24,831,experiment,108,→,right,→,0.8151008998975158,True,18
2M24,832,experiment,48,←,right,→,0.9847208000719547,False,18
2M24,833,experiment,132,↑,down,↓,1.6542568998411298,False,18
2M24,834,experiment,84,↑,left,←,1.2777510997839272,False,18
2M24,835,experiment,180,↑,left,←,1.2535522999241948,False,18
2M24,836,experiment,120,←,right,→,1.4313703002408147,False,18
2M24,837,experiment,120,←,left,←,0.8423417001031339,True,18
2M24,838,experiment,84,→,down,↓,0.9028421998955309,False,18
2M24,839,experiment,96,↓,up,↑,0.7774256002157927,False,18
2M24,840,experiment,24,↑,no_key,no_letter,-1.0,False,18
2M24,841,experiment,72,↓,left,←,1.0414797998964787,False,18
2M24,842,experiment,36,←,left,←,0.5165463001467288,True,18
2M24,843,experiment,72,→,right,→,1.0230425000190735,True,18
2M24,844,experiment,132,↑,down,↓,0.16712130000814795,False,18
2M24,845,experiment,24,→,right,→,1.1405417998321354,True,18
2M24,846,experiment,144,←,no_key,no_letter,-1.0,False,18
2M24,847,experiment,72,↓,left,←,1.0562797002494335,False,18
2M24,848,experiment,12,←,down,↓,1.1730031999759376,False,18
2M24,849,experiment,144,←,down,↓,1.1885291999205947,False,18
