PART_ID,Trial_no,Trial_type,PDI,Stim_letter,Key_pressed,letter_choose,Rt,Corr,Stimulus Time
8K24,1,training,10,↑,up,↑,1.2356112000416033,True,30
8K24,2,training,10,↓,down,↓,0.8127355000469834,True,30
8K24,3,training,10,↑,up,↑,0.7757980999886058,True,30
8K24,4,training,10,→,right,→,1.5192032000049949,True,30
8K24,5,training,10,←,left,←,1.0632520000217482,True,30
8K24,6,training,10,←,left,←,0.8004033999750391,True,30
8K24,7,training,10,→,left,←,0.5171564999618568,False,30
8K24,8,training,10,←,left,←,1.0310830000089481,True,30
8K24,9,training,10,←,left,←,1.0126634999760427,True,30
8K24,10,training,10,→,right,→,1.040659099991899,True,30
8K24,11,training,10,←,left,←,1.823904799995944,True,30
8K24,12,training,10,→,right,→,0.9639404999907129,True,30
8K24,13,training,10,→,right,→,1.5740482999826781,True,30
8K24,14,training,10,←,left,←,0.6807811000035144,True,30
8K24,15,training,10,↓,down,↓,0.8498165000346489,True,30
8K24,16,training,10,↓,down,↓,0.617162200040184,True,30
8K24,17,training,10,→,right,→,0.6792009999626316,True,30
8K24,18,training,10,↑,up,↑,0.8876342999865301,True,30
8K24,19,training,10,↑,up,↑,0.7774478999781422,True,30
8K24,20,training,10,↓,down,↓,0.8228311999700963,True,30
8K24,21,training,10,↑,up,↑,0.4173216999624856,True,18
8K24,22,training,10,→,right,→,0.5171787000144832,True,18
8K24,23,training,10,↓,down,↓,0.6296226000413299,True,18
8K24,24,training,10,↓,down,↓,0.4865569999674335,True,18
8K24,25,training,10,→,right,→,0.48978949995944276,True,18
8K24,26,training,10,←,down,↓,1.0863695000298321,False,18
8K24,27,training,10,←,left,←,0.6039653000188991,True,18
8K24,28,training,10,↑,up,↑,0.7218125000363216,True,18
8K24,29,training,10,→,right,→,0.996977299975697,True,18
8K24,30,training,10,↓,down,↓,0.6008232000167482,True,18
8K24,31,training,96,↓,down,↓,0.9395790999988094,True,15
8K24,32,training,84,→,right,→,0.5879933999967761,True,15
8K24,33,training,96,↑,up,↑,0.7445136000169441,True,15
8K24,34,experiment,108,↓,right,→,1.0314194000093266,False,15
8K24,35,experiment,156,↓,up,↑,1.479540399974212,False,15
8K24,36,experiment,108,↓,down,↓,0.9431656999513507,True,15
8K24,37,experiment,180,←,right,→,1.114963500003796,False,15
8K24,38,experiment,168,↑,up,↑,0.8261176000232808,True,15
8K24,39,experiment,72,↓,down,↓,0.6416523000225425,True,15
8K24,40,experiment,60,↓,down,↓,0.7935254999902099,True,15
8K24,41,experiment,132,↓,right,→,0.8755569999921136,False,15
8K24,42,experiment,84,↑,up,↑,0.9050368999596685,True,15
8K24,43,experiment,168,↓,down,↓,0.8266454999684356,True,15
8K24,44,experiment,60,↑,down,↓,0.6771825000178069,False,15
8K24,45,experiment,12,↑,up,↑,1.0201654999982566,True,15
8K24,46,experiment,84,→,right,→,0.8316277000121772,True,15
8K24,47,experiment,36,↓,down,↓,0.7648613000055775,True,15
8K24,48,experiment,180,↑,right,→,1.085694900015369,False,15
8K24,49,experiment,72,→,right,→,1.005378199974075,True,15
8K24,50,experiment,108,↓,down,↓,0.7052633999846876,True,15
8K24,51,experiment,84,→,right,→,0.731611100025475,True,15
8K24,52,experiment,36,→,right,→,0.6628082999959588,True,15
8K24,53,experiment,120,←,left,←,0.7211325999815017,True,15
8K24,54,experiment,72,←,left,←,0.7349776999908499,True,15
8K24,55,experiment,24,↓,down,↓,1.2933220000122674,True,15
8K24,56,experiment,180,→,left,←,0.7071421000291593,False,15
8K24,57,experiment,168,↓,down,↓,0.6042886999784969,True,15
8K24,58,experiment,132,↓,down,↓,0.7111607000115328,True,15
8K24,59,experiment,180,↑,up,↑,0.7028100999887101,True,15
8K24,60,experiment,168,←,left,←,0.5074068999965675,True,15
8K24,61,experiment,48,←,right,→,0.6177875999710523,False,15
8K24,62,experiment,48,↑,up,↑,0.7116604999755509,True,15
8K24,63,experiment,144,→,left,←,1.3207331000012346,False,15
8K24,64,experiment,120,←,left,←,0.9827940000104718,True,15
8K24,65,experiment,84,←,left,←,1.3637830999796279,True,15
8K24,66,experiment,144,↓,down,↓,0.6727088000043295,True,15
8K24,67,experiment,60,↓,down,↓,0.912681799964048,True,15
8K24,68,experiment,60,↑,right,→,0.9054610999883153,False,15
8K24,69,experiment,36,↓,down,↓,0.7024525000015274,True,15
8K24,70,experiment,48,→,right,→,0.57727700000396,True,15
8K24,71,experiment,96,→,right,→,0.5692912999656983,True,15
8K24,72,experiment,96,←,right,→,0.8797695999965072,False,15
8K24,73,experiment,132,→,left,←,1.2123912000097334,False,15
8K24,74,experiment,96,→,right,→,0.5981041000341065,True,15
8K24,75,experiment,36,↑,up,↑,1.0245916999992914,True,15
8K24,76,experiment,12,↑,up,↑,0.47974539996357635,True,15
8K24,77,experiment,12,←,right,→,0.8108554999926127,False,15
8K24,78,experiment,132,↑,right,→,1.0529895999934524,False,15
8K24,79,experiment,24,↓,left,←,1.4069266999722458,False,15
8K24,80,experiment,120,↑,up,↑,1.2685794999706559,True,15
8K24,81,experiment,156,↑,up,↑,0.8591431000386365,True,15
8K24,82,experiment,72,↓,down,↓,0.624306500016246,True,15
8K24,83,experiment,48,↓,up,↑,1.0341337000136264,False,15
8K24,84,experiment,156,↑,up,↑,0.9178286999813281,True,15
8K24,85,experiment,24,↑,up,↑,0.7148951000417583,True,15
8K24,86,experiment,156,→,left,←,1.07601960003376,False,15
8K24,87,experiment,144,→,right,→,1.0697031000163406,True,15
8K24,88,experiment,24,→,up,↑,1.0906112000229768,False,15
8K24,89,experiment,120,→,right,→,0.9426796000334434,True,15
8K24,90,experiment,144,←,left,←,0.6590870000072755,True,15
8K24,91,experiment,108,↑,up,↑,0.9579405999975279,True,15
8K24,92,experiment,96,←,right,→,0.952751700009685,False,15
8K24,93,experiment,12,←,right,→,1.2076118999975733,False,15
8K24,94,training,120,→,left,←,0.9808233000221662,False,15
8K24,95,training,24,↓,down,↓,0.9690650000120513,True,15
8K24,96,training,120,↑,right,→,0.6764065999886952,False,15
8K24,97,experiment,108,↓,up,↑,0.9272442999645136,False,15
8K24,98,experiment,72,↑,down,↓,0.669921200023964,False,15
8K24,99,experiment,96,↑,up,↑,0.6088145999819972,True,15
8K24,100,experiment,24,←,left,←,0.7358374000177719,True,15
8K24,101,experiment,84,←,left,←,1.0464750999817625,True,15
8K24,102,experiment,168,→,right,→,0.7261684999684803,True,15
8K24,103,experiment,144,↓,right,→,0.5497251999913715,False,15
8K24,104,experiment,12,←,left,←,1.098658200004138,True,15
8K24,105,experiment,36,↑,up,↑,0.9056797999655828,True,15
8K24,106,experiment,96,←,left,←,0.8199206000426784,True,15
8K24,107,experiment,132,↑,up,↑,0.9197842000285164,True,15
8K24,108,experiment,12,→,right,→,0.5005136000108905,True,15
8K24,109,experiment,60,↑,up,↑,0.7187579000019468,True,15
8K24,110,experiment,120,←,left,←,0.9935011999914423,True,15
8K24,111,experiment,144,↓,up,↑,0.7790204999619164,False,15
8K24,112,experiment,48,↓,right,→,1.4378320999676362,False,15
8K24,113,experiment,144,↓,down,↓,0.6308856999967247,True,15
8K24,114,experiment,36,→,right,→,0.7979926000116393,True,15
8K24,115,experiment,180,↑,left,←,0.9368235999718308,False,15
8K24,116,experiment,168,→,right,→,0.5134626000071876,True,15
8K24,117,experiment,60,↓,down,↓,0.8543873999733478,True,15
8K24,118,experiment,108,←,right,→,0.9480829000240192,False,15
8K24,119,experiment,84,↑,left,←,1.0998280000058003,False,15
8K24,120,experiment,120,→,right,→,0.6035727999988012,True,15
8K24,121,experiment,156,↓,down,↓,0.8342479999992065,True,15
8K24,122,experiment,60,←,right,→,0.6890497999847867,False,15
8K24,123,experiment,96,↓,down,↓,0.9013109999941662,True,15
8K24,124,experiment,132,→,right,→,0.5678044999949634,True,15
8K24,125,experiment,12,←,left,←,1.45332019997295,True,15
8K24,126,experiment,24,↓,down,↓,0.6618075999431312,True,15
8K24,127,experiment,96,↑,up,↑,1.2178207999677397,True,15
8K24,128,experiment,132,↑,down,↓,1.0452061999822035,False,15
8K24,129,experiment,156,←,left,←,1.1605622000060976,True,15
8K24,130,experiment,72,↓,down,↓,0.6071116999955848,True,15
8K24,131,experiment,168,←,left,←,0.77120219997596,True,15
8K24,132,experiment,180,↑,up,↑,0.7119109000195749,True,15
8K24,133,experiment,120,↓,right,→,0.5851213000132702,False,15
8K24,134,experiment,180,↑,up,↑,0.9681494000251405,True,15
8K24,135,experiment,156,↓,down,↓,1.0452713999547996,True,15
8K24,136,experiment,84,↓,right,→,0.7262051999568939,False,15
8K24,137,experiment,48,←,left,←,0.6538685000268742,True,15
8K24,138,experiment,156,↓,down,↓,0.7815745000261813,True,15
8K24,139,experiment,108,↓,down,↓,0.8297920000040904,True,15
8K24,140,experiment,168,↓,right,→,0.7254288999829441,False,15
8K24,141,experiment,132,↑,down,↓,0.765748200006783,False,15
8K24,142,experiment,144,↓,down,↓,0.949012600001879,True,15
8K24,143,experiment,84,←,left,←,0.7591716999886557,True,15
8K24,144,experiment,24,↓,down,↓,0.7234700000262819,True,15
8K24,145,experiment,12,↑,down,↓,0.8159333000076003,False,15
8K24,146,experiment,48,→,right,→,0.8205462000332773,True,15
8K24,147,experiment,180,↓,right,→,0.5605806999956258,False,15
8K24,148,experiment,48,↑,right,→,0.6649096999899484,False,15
8K24,149,experiment,108,↑,down,↓,0.7815018999972381,False,15
8K24,150,experiment,36,→,right,→,0.6673187999986112,True,15
8K24,151,experiment,72,↑,up,↑,0.9150034000049345,True,15
8K24,152,experiment,60,↑,up,↑,0.8522044999990612,True,15
8K24,153,experiment,24,←,right,→,1.0249178999802098,False,15
8K24,154,experiment,72,→,right,→,0.5273733000503853,True,15
8K24,155,experiment,36,→,right,→,0.8857964999624528,True,15
8K24,156,experiment,120,↓,down,↓,0.6927579000475816,True,15
8K24,157,training,36,←,right,→,0.8634946999954991,False,15
8K24,158,training,72,↓,up,↑,0.9256603000103496,False,15
8K24,159,training,156,→,right,→,0.7939596999785863,True,15
8K24,160,experiment,60,↑,up,↑,0.7162480999832042,True,15
8K24,161,experiment,72,→,right,→,0.7987337000085972,True,15
8K24,162,experiment,144,→,right,→,0.9020077000022866,True,15
8K24,163,experiment,156,↑,up,↑,0.8292462999816053,True,15
8K24,164,experiment,48,→,right,→,0.5307102000224404,True,15
8K24,165,experiment,36,→,right,→,0.560956500004977,True,15
8K24,166,experiment,36,→,right,→,0.44861580000724643,True,15
8K24,167,experiment,108,↑,right,→,0.8433523999992758,False,15
8K24,168,experiment,60,←,left,←,0.9580023000016809,True,15
8K24,169,experiment,72,↑,left,←,0.6601611999794841,False,15
8K24,170,experiment,72,→,right,→,0.5375185000011697,True,15
8K24,171,experiment,108,←,right,→,0.7942964000394568,False,15
8K24,172,experiment,12,→,right,→,0.6193774999701418,True,15
8K24,173,experiment,24,←,left,←,0.7617302999715321,True,15
8K24,174,experiment,108,↑,up,↑,0.7467550999717787,True,15
8K24,175,experiment,180,←,left,←,0.8781105999951251,True,15
8K24,176,experiment,24,→,left,←,0.8580298000015318,False,15
8K24,177,experiment,168,↑,up,↑,0.605499500001315,True,15
8K24,178,experiment,12,↑,right,→,0.7415305000031367,False,15
8K24,179,experiment,96,→,up,↑,0.9505312999826856,False,15
8K24,180,experiment,120,→,left,←,1.0457437000004575,False,15
8K24,181,experiment,84,↓,down,↓,0.7780833999859169,True,15
8K24,182,experiment,12,↑,down,↓,1.2780741000315174,False,15
8K24,183,experiment,132,→,left,←,0.7721553000155836,False,15
8K24,184,experiment,132,←,left,←,1.1881544000352733,True,15
8K24,185,experiment,168,←,left,←,0.8799622000078671,True,15
8K24,186,experiment,144,←,right,→,0.6003895000321791,False,15
8K24,187,experiment,120,→,right,→,0.7612681000027806,True,15
8K24,188,experiment,156,→,left,←,0.7309915999649093,False,15
8K24,189,experiment,156,↑,up,↑,0.8408070000004955,True,15
8K24,190,experiment,48,←,down,↓,0.9483299000421539,False,15
8K24,191,experiment,24,←,left,←,0.669385900022462,True,15
8K24,192,experiment,132,↑,up,↑,1.0128435000078753,True,15
8K24,193,experiment,168,←,left,←,0.8522207000060007,True,15
8K24,194,experiment,132,↓,up,↑,0.8102078000083566,False,15
8K24,195,experiment,168,→,right,→,0.8667238999623805,True,15
8K24,196,experiment,36,↓,up,↑,0.9283121000044048,False,15
8K24,197,experiment,108,↑,up,↑,0.5970662999898195,True,15
8K24,198,experiment,96,→,right,→,0.583698199945502,True,15
8K24,199,experiment,24,→,right,→,0.4758317999658175,True,15
8K24,200,experiment,36,←,left,←,0.8378269999520853,True,15
8K24,201,experiment,180,↓,up,↑,0.7158340000314638,False,15
8K24,202,experiment,156,↑,up,↑,0.7165389999863692,True,15
8K24,203,experiment,96,↓,down,↓,0.602879700018093,True,15
8K24,204,experiment,60,↓,up,↑,0.8957239000010304,False,15
8K24,205,experiment,144,→,up,↑,0.8901584999985062,False,15
8K24,206,experiment,120,→,up,↑,0.7810135000036098,False,15
8K24,207,experiment,48,↓,down,↓,0.7418373000109568,True,15
8K24,208,experiment,60,→,left,←,1.4084709000308067,False,15
8K24,209,experiment,48,↑,up,↑,0.7225530000287108,True,15
8K24,210,experiment,72,→,right,→,0.9143918000045232,True,15
8K24,211,experiment,96,→,left,←,1.103951099968981,False,15
8K24,212,experiment,120,↓,down,↓,0.6834657000144944,True,15
8K24,213,experiment,180,↑,up,↑,0.7862196000060067,True,15
8K24,214,experiment,12,↑,down,↓,0.8991210000240244,False,15
8K24,215,experiment,144,↑,down,↓,0.7766474999953061,False,15
8K24,216,experiment,84,↑,up,↑,0.7186859000357799,True,15
8K24,217,experiment,180,→,right,→,0.6015168000012636,True,15
8K24,218,experiment,84,→,left,←,0.6558965999865904,False,15
8K24,219,experiment,84,→,left,←,0.830989399983082,False,15
8K24,220,training,60,→,right,→,0.5919271999737248,True,15
8K24,221,training,12,→,left,←,1.0807825999800116,False,15
8K24,222,training,36,↑,up,↑,0.8552232999936678,True,15
8K24,223,experiment,36,↓,up,↑,0.934809900005348,False,15
8K24,224,experiment,144,←,left,←,0.9545486999559216,True,15
8K24,225,experiment,132,↑,up,↑,0.6756697000237182,True,15
8K24,226,experiment,72,↓,down,↓,0.6319955000071786,True,15
8K24,227,experiment,180,↓,left,←,1.1432776000001468,False,15
8K24,228,experiment,156,←,left,←,0.9671472999616526,True,15
8K24,229,experiment,120,→,left,←,0.9439349999884143,False,15
8K24,230,experiment,108,↓,down,↓,0.9752875000122003,True,15
8K24,231,experiment,96,←,down,↓,0.8019289000076242,False,15
8K24,232,experiment,156,→,left,←,0.8416600999771617,False,15
8K24,233,experiment,96,↓,down,↓,0.8717244999716058,True,15
8K24,234,experiment,168,→,left,←,0.7527755000046454,False,15
8K24,235,experiment,144,←,left,←,0.9754660000326112,True,15
8K24,236,experiment,120,←,left,←,0.7807526999968104,True,15
8K24,237,experiment,180,↓,up,↑,1.1689186000148766,False,15
8K24,238,experiment,12,↓,down,↓,1.1595894999918528,True,15
8K24,239,experiment,84,→,left,←,0.7242930999491364,False,15
8K24,240,experiment,24,↓,down,↓,0.6411843000096269,True,15
8K24,241,experiment,36,→,right,→,0.7954214999917895,True,15
8K24,242,experiment,72,→,right,→,0.4983170999912545,True,15
8K24,243,experiment,12,←,right,→,1.071880900010001,False,15
8K24,244,experiment,36,↓,left,←,1.465846800012514,False,15
8K24,245,experiment,168,←,left,←,0.6037364999647252,True,15
8K24,246,experiment,84,→,left,←,0.739316199964378,False,15
8K24,247,experiment,24,→,right,→,1.1686508999555372,True,15
8K24,248,experiment,132,←,up,↑,0.9470745999715291,False,15
8K24,249,experiment,108,↓,down,↓,0.7015088000334799,True,15
8K24,250,experiment,12,←,up,↑,0.8133447999716736,False,15
8K24,251,experiment,60,←,down,↓,1.2376143999863416,False,15
8K24,252,experiment,96,→,right,→,0.6702601999859326,True,15
8K24,253,experiment,12,→,down,↓,1.1034028000431135,False,15
8K24,254,experiment,48,←,down,↓,0.8491759999888018,False,15
8K24,255,experiment,168,↓,down,↓,0.877416200004518,True,15
8K24,256,experiment,96,↑,up,↑,0.772372399980668,True,15
8K24,257,experiment,84,→,right,→,0.7008196000242606,True,15
8K24,258,experiment,120,↓,down,↓,0.6510153000126593,True,15
8K24,259,experiment,60,→,right,→,0.6015458999900147,True,15
8K24,260,experiment,24,↑,down,↓,0.7208380000083707,False,15
8K24,261,experiment,132,→,right,→,0.5979596000397578,True,15
8K24,262,experiment,144,↑,down,↓,0.763039099983871,False,15
8K24,263,experiment,108,←,left,←,0.6256458999705501,True,15
8K24,264,experiment,48,↑,right,→,0.5308563999715261,False,15
8K24,265,experiment,48,←,right,→,0.7081975999753922,False,15
8K24,266,experiment,72,↓,down,↓,0.8086887000245042,True,15
8K24,267,experiment,108,→,down,↓,1.086000300012529,False,15
8K24,268,experiment,36,↓,down,↓,0.7035031999694183,True,15
8K24,269,experiment,48,→,up,↑,1.1726178000099026,False,15
8K24,270,experiment,168,←,down,↓,0.7560129999765195,False,15
8K24,271,experiment,180,←,down,↓,0.6836447000387125,False,15
8K24,272,experiment,72,↑,up,↑,0.7483998999814503,True,15
8K24,273,experiment,132,↓,down,↓,0.5568882000516169,True,15
8K24,274,experiment,144,←,down,↓,0.986744900001213,False,15
8K24,275,experiment,60,↑,down,↓,0.7671250000130385,False,15
8K24,276,experiment,60,↓,down,↓,0.7357770999660715,True,15
8K24,277,experiment,84,→,right,→,0.7881111000315286,True,15
8K24,278,experiment,156,→,right,→,0.7487146999919787,True,15
8K24,279,experiment,120,↓,down,↓,0.6351683000102639,True,15
8K24,280,experiment,24,←,right,→,0.7494846000336111,False,15
8K24,281,experiment,180,↓,down,↓,0.6644086000160314,True,15
8K24,282,experiment,156,↓,down,↓,0.6416001999750733,True,15
8K24,283,training,72,→,down,↓,0.796008100034669,False,16
8K24,284,training,12,→,left,←,0.782278899976518,False,16
8K24,285,training,144,→,right,→,0.7218824999872595,True,16
8K24,286,experiment,120,←,left,←,0.851431799994316,True,16
8K24,287,experiment,60,↑,left,←,1.1093490000348538,False,16
8K24,288,experiment,60,←,right,→,1.213818899996113,False,16
8K24,289,experiment,120,↓,up,↑,1.1442034000065178,False,16
8K24,290,experiment,144,←,right,→,0.8000943000079133,False,16
8K24,291,experiment,144,←,right,→,0.8663191000232473,False,16
8K24,292,experiment,48,↑,right,→,0.7970717999851331,False,16
8K24,293,experiment,168,←,left,←,0.9094389000092633,True,16
8K24,294,experiment,84,↑,up,↑,0.7955343000357971,True,16
8K24,295,experiment,24,→,right,→,0.6857113000005484,True,16
8K24,296,experiment,168,←,left,←,0.8476311999838799,True,16
8K24,297,experiment,180,↑,right,→,0.6924173000152223,False,16
8K24,298,experiment,84,↑,up,↑,0.7748346999869682,True,16
8K24,299,experiment,156,←,left,←,0.7757660999777727,True,16
8K24,300,experiment,108,←,left,←,0.7197370999492705,True,16
8K24,301,experiment,12,←,up,↑,1.3836790000204928,False,16
8K24,302,experiment,96,↓,right,→,0.7524611999979243,False,16
8K24,303,experiment,84,←,up,↑,0.8004199999850243,False,16
8K24,304,experiment,84,←,left,←,0.6086227999767289,True,16
8K24,305,experiment,36,←,left,←,0.6420614999951795,True,16
8K24,306,experiment,60,←,left,←,0.7241408000118099,True,16
8K24,307,experiment,96,→,right,→,0.7869828999973834,True,16
8K24,308,experiment,168,↓,down,↓,0.7117689999868162,True,16
8K24,309,experiment,168,←,right,→,0.8052190999733284,False,16
8K24,310,experiment,12,↓,right,→,1.1055260000284761,False,16
8K24,311,experiment,132,↓,down,↓,0.6031012000166811,True,16
8K24,312,experiment,120,↑,down,↓,1.0631847999757156,False,16
8K24,313,experiment,156,↓,down,↓,0.7701007000287063,True,16
8K24,314,experiment,96,←,left,←,0.7314712999504991,True,16
8K24,315,experiment,48,↑,up,↑,0.9866751999943517,True,16
8K24,316,experiment,24,↓,up,↑,1.1067161000100896,False,16
8K24,317,experiment,36,←,right,→,0.6970076999859884,False,16
8K24,318,experiment,36,↑,up,↑,0.7516141000087373,True,16
8K24,319,experiment,144,←,left,←,1.1927306999568827,True,16
8K24,320,experiment,96,←,right,→,0.695326599990949,False,16
8K24,321,experiment,12,↓,down,↓,0.6419955000164919,True,16
8K24,322,experiment,108,↓,down,↓,0.864580900000874,True,16
8K24,323,experiment,180,←,left,←,0.791945900011342,True,16
8K24,324,experiment,132,↓,down,↓,0.9080236000008881,True,16
8K24,325,experiment,180,←,left,←,0.6771808000048622,True,16
8K24,326,experiment,72,↓,down,↓,0.7623273999779485,True,16
8K24,327,experiment,144,←,down,↓,1.1295588000211865,False,16
8K24,328,experiment,180,←,down,↓,0.9236950000049546,False,16
8K24,329,experiment,108,↓,down,↓,0.7797142000054009,True,16
8K24,330,experiment,132,↑,up,↑,0.9021331000258215,True,16
8K24,331,experiment,48,←,left,←,0.5372852000291459,True,16
8K24,332,experiment,72,→,right,→,0.9422637999523431,True,16
8K24,333,experiment,36,→,right,→,0.78671439999016,True,16
8K24,334,experiment,12,→,right,→,1.1449346999870613,True,16
8K24,335,experiment,132,→,right,→,0.7369704999728128,True,16
8K24,336,experiment,72,↑,up,↑,0.7499424000270665,True,16
8K24,337,experiment,156,←,left,←,0.639267899969127,True,16
8K24,338,experiment,72,←,down,↓,0.9167329999618232,False,16
8K24,339,experiment,60,↓,up,↑,0.8998510999954306,False,16
8K24,340,experiment,120,←,left,←,0.6809591000201181,True,16
8K24,341,experiment,24,→,right,→,0.6916063000098802,True,16
8K24,342,experiment,48,↓,down,↓,0.7138951999950223,True,16
8K24,343,experiment,156,→,right,→,0.5144653999595903,True,16
8K24,344,experiment,24,↑,left,←,1.2312933999928646,False,16
8K24,345,experiment,108,↓,down,↓,0.6830624000285752,True,16
8K24,346,training,36,←,right,→,0.7723191999830306,False,16
8K24,347,training,84,↓,down,↓,0.6240292000002228,True,16
8K24,348,training,108,→,right,→,0.5809277000371367,True,16
8K24,349,experiment,72,↑,down,↓,0.5884023999678902,False,16
8K24,350,experiment,144,→,right,→,0.7632694999920204,True,16
8K24,351,experiment,48,↓,down,↓,0.6915108999819495,True,16
8K24,352,experiment,132,↑,down,↓,0.6634546999703161,False,16
8K24,353,experiment,72,→,right,→,0.5935976000037044,True,16
8K24,354,experiment,132,↓,down,↓,0.5944474000134505,True,16
8K24,355,experiment,156,←,left,←,0.8198208000394516,True,16
8K24,356,experiment,168,←,down,↓,1.0914644000004046,False,16
8K24,357,experiment,48,→,left,←,0.9373327000066638,False,16
8K24,358,experiment,12,→,right,→,0.7875540999812074,True,16
8K24,359,experiment,168,↑,down,↓,0.8293269000132568,False,16
8K24,360,experiment,60,↑,down,↓,0.7545920999837108,False,16
8K24,361,experiment,12,↓,down,↓,0.7462264999630861,True,16
8K24,362,experiment,168,↑,up,↑,0.8213840000098571,True,16
8K24,363,experiment,84,→,down,↓,0.7733859999570996,False,16
8K24,364,experiment,36,↑,up,↑,0.8355824999744073,True,16
8K24,365,experiment,120,↓,down,↓,0.7369851999683306,True,16
8K24,366,experiment,84,↑,down,↓,0.6706305000116117,False,16
8K24,367,experiment,156,↓,down,↓,0.6216908000060357,True,16
8K24,368,experiment,108,←,left,←,0.7323855999857187,True,16
8K24,369,experiment,108,→,right,→,0.6662603000295348,True,16
8K24,370,experiment,24,→,left,←,0.8133391999872401,False,16
8K24,371,experiment,60,↓,down,↓,0.834379700012505,True,16
8K24,372,experiment,144,↓,down,↓,0.6903864999767393,True,16
8K24,373,experiment,180,→,right,→,0.9408566999481991,True,16
8K24,374,experiment,120,→,left,←,1.562283400038723,False,16
8K24,375,experiment,120,←,right,→,0.5307042999775149,False,16
8K24,376,experiment,96,↓,down,↓,0.7009053999790922,True,16
8K24,377,experiment,132,↓,down,↓,0.7754633000004105,True,16
8K24,378,experiment,156,→,left,←,1.517422600009013,False,16
8K24,379,experiment,120,↓,down,↓,0.6705423000385053,True,16
8K24,380,experiment,108,↑,up,↑,0.8502481000032276,True,16
8K24,381,experiment,144,↓,up,↑,0.8299118999857455,False,16
8K24,382,experiment,180,↑,up,↑,0.7990654000313953,True,16
8K24,383,experiment,36,←,up,↑,1.0676561999716796,False,16
8K24,384,experiment,84,↑,left,←,1.3091763999545947,False,16
8K24,385,experiment,168,↓,up,↑,0.9872502000071108,False,16
8K24,386,experiment,72,↑,up,↑,0.6322752999840304,True,16
8K24,387,experiment,144,→,right,→,0.7026318000280298,True,16
8K24,388,experiment,84,→,left,←,0.7513655999791808,False,16
8K24,389,experiment,180,←,left,←,1.0107646000105888,True,16
8K24,390,experiment,24,↑,right,→,1.0367530999938026,False,16
8K24,391,experiment,60,→,no_key,no_letter,-1.0,False,16
8K24,392,experiment,48,↓,left,←,0.017172199964988977,False,16
8K24,393,experiment,36,←,down,↓,0.9687152999686077,False,16
8K24,394,experiment,96,↓,up,↑,0.7953742000390776,False,16
8K24,395,experiment,132,↑,up,↑,0.8569585999939591,True,16
8K24,396,experiment,96,↓,down,↓,0.5692605000222102,True,16
8K24,397,experiment,24,→,up,↑,1.1867936000344343,False,16
8K24,398,experiment,24,↓,down,↓,0.5933851999579929,True,16
8K24,399,experiment,12,→,right,→,0.7834461000165902,True,16
8K24,400,experiment,72,←,left,←,0.6346486000111327,True,16
8K24,401,experiment,180,→,right,→,0.6776474000071175,True,16
8K24,402,experiment,108,←,left,←,0.7217980000423267,True,16
8K24,403,experiment,96,→,right,→,0.6429960000095889,True,16
8K24,404,experiment,60,→,left,←,0.5553384000086226,False,16
8K24,405,experiment,12,→,left,←,1.7795309000066482,False,16
8K24,406,experiment,48,↓,left,←,1.0823097000247799,False,16
8K24,407,experiment,36,↓,right,→,1.4720086999586783,False,16
8K24,408,experiment,156,↑,up,↑,0.7788811999489553,True,16
8K24,409,training,120,↓,down,↓,0.9998185000149533,True,17
8K24,410,training,168,↓,down,↓,0.4910074999788776,True,17
8K24,411,training,180,←,left,←,0.6248013000003994,True,17
8K24,412,experiment,180,←,left,←,0.6665852000005543,True,17
8K24,413,experiment,168,↓,down,↓,0.66663430002518,True,17
8K24,414,experiment,108,→,right,→,0.6687256000004709,True,17
8K24,415,experiment,36,→,right,→,0.5221253000199795,True,17
8K24,416,experiment,144,↓,down,↓,0.737149299995508,True,17
8K24,417,experiment,180,↓,down,↓,0.8763378000003286,True,17
8K24,418,experiment,48,→,left,←,0.7512869999627583,False,17
8K24,419,experiment,144,↑,right,→,0.9350373999914154,False,17
8K24,420,experiment,96,→,left,←,0.7237413999973796,False,17
8K24,421,experiment,132,→,right,→,0.6885567999561317,True,17
8K24,422,experiment,144,↑,up,↑,0.9029708000016399,True,17
8K24,423,experiment,60,→,right,→,0.7085964999860153,True,17
8K24,424,experiment,84,↓,down,↓,0.7908278999966569,True,17
8K24,425,experiment,72,←,left,←,0.8917577000102028,True,17
8K24,426,experiment,180,↑,up,↑,0.8806959000066854,True,17
8K24,427,experiment,24,←,left,←,0.7027120999991894,True,17
8K24,428,experiment,156,←,left,←,0.813218199997209,True,17
8K24,429,experiment,156,←,up,↑,0.9604460999835283,False,17
8K24,430,experiment,36,↓,down,↓,1.3268555999966338,True,17
8K24,431,experiment,24,↓,down,↓,0.7770769000053406,True,17
8K24,432,experiment,60,↑,down,↓,0.8395398000138812,False,17
8K24,433,experiment,24,→,right,→,0.795643099991139,True,17
8K24,434,experiment,84,↑,up,↑,0.7761840000166558,True,17
8K24,435,experiment,48,→,right,→,0.7163555999868549,True,17
8K24,436,experiment,132,↓,up,↑,0.8926106000435539,False,17
8K24,437,experiment,48,↑,up,↑,1.0613886999781244,True,17
8K24,438,experiment,108,→,right,→,0.5853462000377476,True,17
8K24,439,experiment,168,→,no_key,no_letter,-1.0,False,17
8K24,440,experiment,108,→,left,←,1.826033399964217,False,17
8K24,441,experiment,12,↑,up,↑,1.138211700017564,True,17
8K24,442,experiment,84,↑,down,↓,0.6125604000408202,False,17
8K24,443,experiment,12,←,left,←,0.8513324000523426,True,17
8K24,444,experiment,96,↑,down,↓,0.61763749999227,False,17
8K24,445,experiment,96,→,right,→,0.66554170002928,True,17
8K24,446,experiment,120,→,up,↑,0.8776566999731585,False,17
8K24,447,experiment,120,→,up,↑,1.199728099978529,False,17
8K24,448,experiment,60,←,left,←,0.6299087000079453,True,17
8K24,449,experiment,120,←,down,↓,1.0113208999973722,False,17
8K24,450,experiment,60,←,left,←,0.6655117999762297,True,17
8K24,451,experiment,96,↓,up,↑,1.0199272999889217,False,17
8K24,452,experiment,180,→,up,↑,0.8045385999721475,False,17
8K24,453,experiment,72,→,right,→,0.8833489999524318,True,17
8K24,454,experiment,72,←,right,→,0.616730900015682,False,17
8K24,455,experiment,132,←,right,→,0.7211602999595925,False,17
8K24,456,experiment,48,→,left,←,1.5126811999944039,False,17
8K24,457,experiment,156,←,left,←,1.1858015999896452,True,17
8K24,458,experiment,120,←,up,↑,1.0695605000364594,False,17
8K24,459,experiment,36,→,up,↑,1.435684499971103,False,17
8K24,460,experiment,12,→,left,←,1.0149017999647185,False,17
8K24,461,experiment,156,←,left,←,0.8706117999972776,True,17
8K24,462,experiment,168,←,up,↑,1.2632407000055537,False,17
8K24,463,experiment,72,↓,down,↓,0.7520856999908574,True,17
8K24,464,experiment,36,→,down,↓,0.8205030999961309,False,17
8K24,465,experiment,132,↓,no_key,no_letter,-1.0,False,17
8K24,466,experiment,84,→,down,↓,0.8388116999994963,False,17
8K24,467,experiment,24,↑,down,↓,1.8557657999917865,False,17
8K24,468,experiment,108,↓,down,↓,0.8036409000051208,True,17
8K24,469,experiment,144,↑,down,↓,0.7298868999932893,False,17
8K24,470,experiment,12,←,up,↑,1.0093218000256456,False,17
8K24,471,experiment,168,↑,left,←,1.399112300015986,False,17
8K24,472,training,36,↓,down,↓,0.6485991000081412,True,18
8K24,473,training,132,↓,down,↓,0.596445000031963,True,18
8K24,474,training,144,→,right,→,0.7026043000514619,True,18
8K24,475,experiment,168,→,right,→,0.684832600003574,True,18
8K24,476,experiment,72,↑,down,↓,0.5538759999908507,False,18
8K24,477,experiment,180,↑,right,→,1.4440299000125378,False,18
8K24,478,experiment,24,←,left,←,1.0622336999513209,True,18
8K24,479,experiment,168,↑,up,↑,0.7109454000019468,True,18
8K24,480,experiment,180,↓,down,↓,1.246946100029163,True,18
8K24,481,experiment,36,↓,up,↑,1.3321712000179105,False,18
8K24,482,experiment,168,↑,right,→,1.7533146999776363,False,18
8K24,483,experiment,12,→,left,←,0.7657708000042476,False,18
8K24,484,experiment,120,→,up,↑,1.065978600003291,False,18
8K24,485,experiment,108,←,right,→,0.8526390999904834,False,18
8K24,486,experiment,156,→,left,←,0.9523741999873891,False,18
8K24,487,experiment,180,←,left,←,0.8268979000276886,True,18
8K24,488,experiment,60,→,right,→,0.7605894000153057,True,18
8K24,489,experiment,72,←,left,←,0.5522010000422597,True,18
8K24,490,experiment,84,←,up,↑,1.4494016999960877,False,18
8K24,491,experiment,132,↓,left,←,1.1485197999863885,False,18
8K24,492,experiment,96,←,right,→,1.1575163999805227,False,18
8K24,493,experiment,84,←,left,←,0.7880106000229716,True,18
8K24,494,experiment,132,→,left,←,1.4448049999773502,False,18
8K24,495,experiment,12,↓,down,↓,1.21726820000913,True,18
8K24,496,experiment,108,↓,down,↓,0.5962811000063084,True,18
8K24,497,experiment,36,←,left,←,0.6683812999981456,True,18
8K24,498,experiment,132,←,no_key,no_letter,-1.0,False,18
8K24,499,experiment,180,↑,right,→,1.150094100041315,False,18
8K24,500,experiment,48,↑,down,↓,1.0086808999767527,False,18
8K24,501,experiment,48,↑,no_key,no_letter,-1.0,False,18
8K24,502,experiment,120,←,left,←,1.0388383000390604,True,18
8K24,503,experiment,108,↓,left,←,1.2294433999923058,False,18
8K24,504,experiment,144,←,no_key,no_letter,-1.0,False,18
8K24,505,experiment,108,←,down,↓,1.8453622999950312,False,18
8K24,506,experiment,60,↑,down,↓,0.9007172000128776,False,18
8K24,507,experiment,12,↑,down,↓,1.094693000020925,False,18
8K24,508,experiment,36,↓,up,↑,1.0992239999468438,False,18
8K24,509,experiment,120,←,right,→,0.6474611000157893,False,18
8K24,510,experiment,96,↑,up,↑,1.277781300013885,True,18
8K24,511,experiment,156,→,left,←,1.0575825999840163,False,18
8K24,512,experiment,12,←,right,→,1.2328350999741815,False,18
8K24,513,experiment,156,↓,right,→,1.6615814000251703,False,18
8K24,514,experiment,168,↓,right,→,1.6866997999604791,False,18
8K24,515,experiment,132,↑,down,↓,0.6970666999695823,False,18
8K24,516,experiment,72,↑,up,↑,0.8859443999826908,True,18
8K24,517,experiment,84,→,up,↑,0.8255787000525743,False,18
8K24,518,experiment,144,←,up,↑,1.8936159999575466,False,18
8K24,519,experiment,48,←,left,←,0.7436821000301279,True,18
8K24,520,experiment,120,↑,left,←,1.078306799987331,False,18
8K24,521,experiment,156,↓,right,→,0.9982029999955557,False,18
8K24,522,experiment,36,→,up,↑,1.131246300006751,False,18
8K24,523,experiment,48,↓,down,↓,1.423534200002905,True,18
8K24,524,experiment,60,→,no_key,no_letter,-1.0,False,18
8K24,525,experiment,144,→,no_key,no_letter,-1.0,False,18
8K24,526,experiment,24,↑,no_key,no_letter,-1.0,False,18
8K24,527,experiment,96,↑,right,→,1.1995861000032164,False,18
8K24,528,experiment,24,→,up,↑,1.8924842000124045,False,18
8K24,529,experiment,96,←,no_key,no_letter,-1.0,False,18
8K24,530,experiment,60,↓,down,↓,0.7995760000194423,True,18
8K24,531,experiment,144,↑,down,↓,0.714249899960123,False,18
8K24,532,experiment,84,←,right,→,0.870794799993746,False,18
8K24,533,experiment,24,←,left,←,0.7282274000463076,True,18
8K24,534,experiment,72,↓,no_key,no_letter,-1.0,False,18
8K24,535,training,156,↓,left,←,0.8162252999609336,False,18
8K24,536,training,132,↓,down,↓,0.5911425999947824,True,18
8K24,537,training,12,→,left,←,0.5991733000264503,False,18
8K24,538,experiment,144,←,left,←,0.6820231999736279,True,18
8K24,539,experiment,120,↓,left,←,0.9772555999807082,False,18
8K24,540,experiment,72,↓,down,↓,0.6786084999912418,True,18
8K24,541,experiment,12,↓,up,↑,1.9441260999883525,False,18
8K24,542,experiment,108,→,no_key,no_letter,-1.0,False,18
8K24,543,experiment,180,→,right,→,0.8044721999904141,True,18
8K24,544,experiment,144,←,down,↓,1.5378925999975763,False,18
8K24,545,experiment,180,←,no_key,no_letter,-1.0,False,18
8K24,546,experiment,168,←,right,→,0.6334025000105612,False,18
8K24,547,experiment,180,↓,right,→,0.7846490999800153,False,18
8K24,548,experiment,144,←,no_key,no_letter,-1.0,False,18
8K24,549,experiment,36,→,down,↓,1.5483389000291936,False,18
8K24,550,experiment,48,↓,right,→,1.0819300999864936,False,18
8K24,551,experiment,84,↑,right,→,0.7414291999884881,False,18
8K24,552,experiment,72,→,up,↑,1.3456789000192657,False,18
8K24,553,experiment,96,←,left,←,0.7628667000099085,True,18
8K24,554,experiment,180,→,right,→,0.6026416000095196,True,18
8K24,555,experiment,156,→,down,↓,1.094504600041546,False,18
8K24,556,experiment,168,→,right,→,0.7156454999931157,True,18
8K24,557,experiment,12,↑,no_key,no_letter,-1.0,False,18
8K24,558,experiment,24,←,no_key,no_letter,-1.0,False,18
8K24,559,experiment,36,→,right,→,0.40023919998202473,True,18
8K24,560,experiment,156,↑,no_key,no_letter,-1.0,False,18
8K24,561,experiment,84,↓,down,↓,0.8894505999633111,True,18
8K24,562,experiment,24,←,right,→,0.6742015000199899,False,18
8K24,563,experiment,48,←,no_key,no_letter,-1.0,False,18
8K24,564,experiment,132,→,down,↓,0.8067424999899231,False,18
8K24,565,experiment,108,→,left,←,0.675502400030382,False,18
8K24,566,experiment,108,→,right,→,0.7760374000063166,True,18
8K24,567,experiment,12,→,no_key,no_letter,-1.0,False,18
8K24,568,experiment,168,↑,down,↓,1.9610474999644794,False,18
8K24,569,experiment,36,←,up,↑,1.0775361999985762,False,18
8K24,570,experiment,120,→,no_key,no_letter,-1.0,False,18
8K24,571,experiment,108,↑,up,↑,0.3340221000253223,True,18
8K24,572,experiment,132,↑,down,↓,0.7269358000485227,False,18
8K24,573,experiment,60,↑,right,→,1.217185299959965,False,18
8K24,574,experiment,156,↓,down,↓,1.8789402000256814,True,18
8K24,575,experiment,60,←,left,←,0.7842228999943472,True,18
8K24,576,experiment,24,↓,up,↑,1.020957000029739,False,18
8K24,577,experiment,60,↑,down,↓,1.6412722000386566,False,18
8K24,578,experiment,84,←,right,→,0.8781376999686472,False,18
8K24,579,experiment,144,↓,no_key,no_letter,-1.0,False,18
8K24,580,experiment,96,↓,down,↓,1.1526959999464452,True,18
8K24,581,experiment,120,↓,right,→,0.7416990000056103,False,18
8K24,582,experiment,96,→,no_key,no_letter,-1.0,False,18
8K24,583,experiment,120,←,right,→,0.7828665999695659,False,18
8K24,584,experiment,132,↑,no_key,no_letter,-1.0,False,18
8K24,585,experiment,72,←,right,→,0.7518979000160471,False,18
8K24,586,experiment,60,↑,down,↓,1.1361126999836415,False,18
8K24,587,experiment,72,←,no_key,no_letter,-1.0,False,18
8K24,588,experiment,96,↑,no_key,no_letter,-1.0,False,18
8K24,589,experiment,48,↑,no_key,no_letter,-1.0,False,18
8K24,590,experiment,48,↑,left,←,1.172095799993258,False,18
8K24,591,experiment,132,↑,right,→,1.0530580999911763,False,18
8K24,592,experiment,168,↓,right,→,1.1756048999959603,False,18
8K24,593,experiment,84,↑,left,←,1.224606700008735,False,18
8K24,594,experiment,156,↓,left,←,0.9535123000387102,False,18
8K24,595,experiment,12,→,no_key,no_letter,-1.0,False,18
8K24,596,experiment,36,→,right,→,1.9476639999775216,True,18
8K24,597,experiment,24,↑,down,↓,0.777556499990169,False,18
8K24,598,training,156,→,right,→,0.6577501999563538,True,18
8K24,599,training,12,→,right,→,0.7043279000208713,True,18
8K24,600,training,156,↑,up,↑,0.9336742999730632,True,18
8K24,601,experiment,72,↓,down,↓,0.7009056999813765,True,18
8K24,602,experiment,132,←,right,→,0.6571996999555267,False,18
8K24,603,experiment,180,←,left,←,0.8257044999627396,True,18
8K24,604,experiment,156,↑,left,←,0.9160571999964304,False,18
8K24,605,experiment,84,↓,left,←,1.9081047999789007,False,18
8K24,606,experiment,48,→,left,←,1.2691279000137001,False,18
8K24,607,experiment,96,→,right,→,1.5240897999610752,True,18
8K24,608,experiment,144,↓,no_key,no_letter,-1.0,False,18
8K24,609,experiment,120,→,left,←,1.4034846000140533,False,18
8K24,610,experiment,84,↑,up,↑,0.7076885999995284,True,18
8K24,611,experiment,180,↑,no_key,no_letter,-1.0,False,18
8K24,612,experiment,120,↓,left,←,1.094710599980317,False,18
8K24,613,experiment,60,←,left,←,0.9150563000002876,True,18
8K24,614,experiment,36,↓,no_key,no_letter,-1.0,False,18
8K24,615,experiment,144,←,no_key,no_letter,-1.0,False,18
8K24,616,experiment,168,→,right,→,0.683745899994392,True,18
8K24,617,experiment,24,→,down,↓,0.5681128000142053,False,18
8K24,618,experiment,84,←,left,←,0.7696102000190876,True,18
8K24,619,experiment,36,↓,down,↓,0.7359166999813169,True,18
8K24,620,experiment,132,↑,left,←,0.634748300013598,False,18
8K24,621,experiment,180,↑,down,↓,0.6073337999987416,False,18
8K24,622,experiment,168,←,left,←,0.99982829997316,True,18
8K24,623,experiment,72,↑,no_key,no_letter,-1.0,False,18
8K24,624,experiment,48,↓,down,↓,0.8188222000026144,True,18
8K24,625,experiment,168,↓,left,←,1.094190299976617,False,18
8K24,626,experiment,12,→,left,←,1.032989399973303,False,18
8K24,627,experiment,132,←,no_key,no_letter,-1.0,False,18
8K24,628,experiment,96,←,left,←,0.5603288999991491,True,18
8K24,629,experiment,12,↑,down,↓,1.1799116000183858,False,18
8K24,630,experiment,108,→,right,→,0.5719708999968134,True,18
8K24,631,experiment,48,←,no_key,no_letter,-1.0,False,18
8K24,632,experiment,36,→,no_key,no_letter,-1.0,False,18
8K24,633,experiment,60,↓,no_key,no_letter,-1.0,False,18
8K24,634,experiment,168,↑,no_key,no_letter,-1.0,False,18
8K24,635,experiment,48,↓,down,↓,1.3966917999787256,True,18
8K24,636,experiment,108,→,down,↓,0.9699995999690145,False,18
8K24,637,experiment,144,↓,up,↑,1.7329105000244454,False,18
8K24,638,experiment,120,↑,down,↓,1.2912428000126965,False,18
8K24,639,experiment,24,↓,up,↑,1.471197500010021,False,18
8K24,640,experiment,96,↓,down,↓,1.2735714000300504,True,18
8K24,641,experiment,156,↓,up,↑,0.9963921000016853,False,18
8K24,642,experiment,84,→,no_key,no_letter,-1.0,False,18
8K24,643,experiment,12,↓,up,↑,0.8416705999989063,False,18
8K24,644,experiment,108,→,no_key,no_letter,-1.0,False,18
8K24,645,experiment,156,↑,up,↑,1.5749180000275373,True,18
8K24,646,experiment,24,↑,left,←,1.0320367999956943,False,18
8K24,647,experiment,96,←,left,←,0.76407549995929,True,18
8K24,648,experiment,180,→,left,←,0.7121025000233203,False,18
8K24,649,experiment,60,↓,no_key,no_letter,-1.0,False,18
8K24,650,experiment,72,→,no_key,no_letter,-1.0,False,18
8K24,651,experiment,60,←,no_key,no_letter,-1.0,False,18
8K24,652,experiment,72,↓,no_key,no_letter,-1.0,False,18
8K24,653,experiment,132,←,no_key,no_letter,-1.0,False,18
8K24,654,experiment,12,↑,down,↓,1.6902101000305265,False,18
8K24,655,experiment,156,←,no_key,no_letter,-1.0,False,18
8K24,656,experiment,36,↓,right,→,1.851269799983129,False,18
8K24,657,experiment,144,↓,left,←,0.9839948000153527,False,18
8K24,658,experiment,24,→,no_key,no_letter,-1.0,False,18
8K24,659,experiment,108,←,no_key,no_letter,-1.0,False,18
8K24,660,experiment,120,↓,left,←,1.501358000037726,False,18
8K24,661,training,144,↓,down,↓,0.7081268999609165,True,18
8K24,662,training,132,→,right,→,0.6584852000232786,True,18
8K24,663,training,36,←,left,←,0.7356392000219785,True,18
8K24,664,experiment,72,↓,down,↓,0.5821658999775536,True,18
8K24,665,experiment,60,←,left,←,1.6048758999677375,True,18
8K24,666,experiment,120,↑,down,↓,0.671481900033541,False,18
8K24,667,experiment,60,→,right,→,0.6383920999942347,True,18
8K24,668,experiment,120,←,left,←,0.5692183999926783,True,18
8K24,669,experiment,132,←,left,←,0.5244864999549463,True,18
8K24,670,experiment,144,↑,up,↑,0.7318797999760136,True,18
8K24,671,experiment,180,↑,up,↑,0.8332758000469767,True,18
8K24,672,experiment,180,→,right,→,0.48292009998112917,True,18
8K24,673,experiment,72,→,right,→,0.5635707000037655,True,18
8K24,674,experiment,108,→,right,→,0.6748305999790318,True,18
8K24,675,experiment,84,→,right,→,0.6826558000175282,True,18
8K24,676,experiment,72,↓,down,↓,0.6822395999915898,True,18
8K24,677,experiment,156,↑,right,→,0.6579712999518961,False,18
8K24,678,experiment,120,→,right,→,0.5349073999677785,True,18
8K24,679,experiment,60,↓,up,↑,1.0638343999744393,False,18
8K24,680,experiment,48,↓,down,↓,0.9407599999685772,True,18
8K24,681,experiment,96,←,left,←,0.7348016999894753,True,18
8K24,682,experiment,168,→,left,←,0.7920654999907129,False,18
8K24,683,experiment,120,←,left,←,0.7939940000069328,True,18
8K24,684,experiment,48,↑,up,↑,1.10069619998103,True,18
8K24,685,experiment,144,→,right,→,0.5953446000348777,True,18
8K24,686,experiment,96,↓,down,↓,0.7356443000026047,True,18
8K24,687,experiment,72,←,left,←,0.9598070000065491,True,18
8K24,688,experiment,168,↓,down,↓,0.7610430999775417,True,18
8K24,689,experiment,24,←,left,←,0.639437599980738,True,18
8K24,690,experiment,36,→,right,→,0.6821327999932691,True,18
8K24,691,experiment,24,→,right,→,0.7017322999890894,True,18
8K24,692,experiment,36,←,left,←,0.5294430999783799,True,18
8K24,693,experiment,180,→,right,→,0.9651465000351891,True,18
8K24,694,experiment,108,←,left,←,0.5076031999778934,True,18
8K24,695,experiment,12,↑,up,↑,1.0348623000318184,True,18
8K24,696,experiment,96,↑,up,↑,0.8532099999720231,True,18
8K24,697,experiment,84,→,right,→,0.489273699990008,True,18
8K24,698,experiment,168,↑,up,↑,0.8789046999881975,True,18
8K24,699,experiment,60,←,right,→,0.9025955999968573,False,18
8K24,700,experiment,84,↑,up,↑,0.8209051000303589,True,18
8K24,701,experiment,36,→,right,→,0.7445510000106879,True,18
8K24,702,experiment,132,←,left,←,0.7657344000181183,True,18
8K24,703,experiment,156,↓,down,↓,0.7085639999713749,True,18
8K24,704,experiment,12,←,left,←,0.817039699992165,True,18
8K24,705,experiment,168,↓,down,↓,0.7538323000189848,True,18
8K24,706,experiment,132,←,left,←,0.5983129999949597,True,18
8K24,707,experiment,12,→,left,←,0.9860363999614492,False,18
8K24,708,experiment,12,↑,up,↑,0.7551937999669462,True,18
8K24,709,experiment,48,→,right,→,0.6086285000201315,True,18
8K24,710,experiment,24,←,left,←,0.7536087000044063,True,18
8K24,711,experiment,48,←,left,←,0.7550878000329249,True,18
8K24,712,experiment,84,←,left,←,0.706102300027851,True,18
8K24,713,experiment,108,↑,up,↑,0.862218499998562,True,18
8K24,714,experiment,180,→,right,→,0.6316155000240542,True,18
8K24,715,experiment,108,↑,up,↑,0.7262281000148505,True,18
8K24,716,experiment,144,→,right,→,0.7239668999682181,True,18
8K24,717,experiment,36,↓,down,↓,1.2892733000335284,True,18
8K24,718,experiment,144,↑,up,↑,0.5709975999779999,True,18
8K24,719,experiment,132,↑,up,↑,0.7283708000322804,True,18
8K24,720,experiment,156,→,right,→,0.6843112999922596,True,18
8K24,721,experiment,156,←,left,←,0.7192677999846637,True,18
8K24,722,experiment,24,↓,left,←,1.0466997000039555,False,18
8K24,723,experiment,96,←,left,←,0.5515603999956511,True,18
8K24,724,training,48,↓,down,↓,0.7339530999888666,True,18
8K24,725,training,48,↑,up,↑,0.842724000045564,True,18
8K24,726,training,96,←,left,←,0.7710291999974288,True,18
8K24,727,experiment,84,↑,down,↓,0.7617738000117242,False,18
8K24,728,experiment,156,↓,down,↓,0.6506238000001758,True,18
8K24,729,experiment,168,→,right,→,0.7879520999849774,True,18
8K24,730,experiment,72,↓,down,↓,0.6305607999674976,True,18
8K24,731,experiment,60,←,left,←,0.637240500014741,True,18
8K24,732,experiment,180,←,left,←,0.6113746999762952,True,18
8K24,733,experiment,132,↓,down,↓,0.7944136000005528,True,18
8K24,734,experiment,132,←,left,←,0.6757161999703385,True,18
8K24,735,experiment,180,→,left,←,1.017326699977275,False,18
8K24,736,experiment,168,↑,left,←,0.9057676000520587,False,18
8K24,737,experiment,72,↓,down,↓,0.6276641000295058,True,18
8K24,738,experiment,84,←,down,↓,0.8187479000189342,False,18
8K24,739,experiment,60,→,left,←,0.7770344999735244,False,18
8K24,740,experiment,156,↓,left,←,1.0810011000139639,False,18
8K24,741,experiment,120,←,no_key,no_letter,-1.0,False,18
8K24,742,experiment,180,↑,down,↓,0.8130902000120841,False,18
8K24,743,experiment,144,↑,up,↑,0.9991423999890685,True,18
8K24,744,experiment,24,↓,left,←,1.0771269999677315,False,18
8K24,745,experiment,12,←,left,←,0.6706161000183783,True,18
8K24,746,experiment,96,←,left,←,0.8251406999770552,True,18
8K24,747,experiment,96,↓,down,↓,0.5669061999651603,True,18
8K24,748,experiment,168,→,right,→,0.8817421999992803,True,18
8K24,749,experiment,84,↓,down,↓,0.7841553000034764,True,18
8K24,750,experiment,24,←,down,↓,1.0995055999956094,False,18
8K24,751,experiment,12,↓,up,↑,1.0938383000320755,False,18
8K24,752,experiment,12,↓,down,↓,0.6660968000069261,True,18
8K24,753,experiment,24,→,right,→,0.8031523000099696,True,18
8K24,754,experiment,84,←,right,→,0.8510959999985062,False,18
8K24,755,experiment,108,↑,up,↑,0.860226699966006,True,18
8K24,756,experiment,144,↑,up,↑,0.7787756999605335,True,18
8K24,757,experiment,156,→,right,→,0.5796869999612682,True,18
8K24,758,experiment,36,→,right,→,0.5910011000232771,True,18
8K24,759,experiment,24,↓,down,↓,0.6530404000077397,True,18
8K24,760,experiment,120,↑,up,↑,0.7722071000025608,True,18
8K24,761,experiment,48,↓,down,↓,0.7116757000330836,True,18
8K24,762,experiment,48,↓,no_key,no_letter,-1.0,False,18
8K24,763,experiment,108,→,down,↓,0.9851015000022016,False,18
8K24,764,experiment,108,→,left,←,0.7511722999624908,False,18
8K24,765,experiment,36,←,left,←,1.2976262000156567,True,18
8K24,766,experiment,144,←,left,←,0.9286219999776222,True,18
8K24,767,experiment,132,↓,up,↑,0.814378899987787,False,18
8K24,768,experiment,144,↑,left,←,0.871107499988284,False,18
8K24,769,experiment,72,↓,no_key,no_letter,-1.0,False,18
8K24,770,experiment,48,↑,down,↓,0.9755384000018239,False,18
8K24,771,experiment,132,↑,down,↓,0.630931599996984,False,18
8K24,772,experiment,156,←,up,↑,0.8114651000360027,False,18
8K24,773,experiment,120,↑,down,↓,1.2964285000343807,False,18
8K24,774,experiment,168,↑,down,↓,1.9239620000007562,False,18
8K24,775,experiment,60,↓,down,↓,0.5810630999621935,True,18
8K24,776,experiment,120,←,left,←,0.7782484000199474,True,18
8K24,777,experiment,180,↑,left,←,0.6166345999808982,False,18
8K24,778,experiment,72,↓,no_key,no_letter,-1.0,False,18
8K24,779,experiment,36,↓,no_key,no_letter,-1.0,False,18
8K24,780,experiment,36,→,up,↑,0.13386180001543835,False,18
8K24,781,experiment,96,←,left,←,1.0107930999947712,True,18
8K24,782,experiment,60,→,no_key,no_letter,-1.0,False,18
8K24,783,experiment,12,←,left,←,1.0631866999901831,True,18
8K24,784,experiment,48,←,down,↓,1.2591177999856882,False,18
8K24,785,experiment,108,↓,no_key,no_letter,-1.0,False,18
8K24,786,experiment,96,←,left,←,1.0145813000272028,True,18
8K24,787,training,156,→,left,←,0.9386133999796584,False,18
8K24,788,training,96,←,left,←,0.7925967000192031,True,18
8K24,789,training,108,←,left,←,0.586744100030046,True,18
8K24,790,experiment,120,→,no_key,no_letter,-1.0,False,18
8K24,791,experiment,132,→,up,↑,1.3217154999729246,False,18
8K24,792,experiment,84,←,left,←,1.3026206999784335,True,18
8K24,793,experiment,48,→,no_key,no_letter,-1.0,False,18
8K24,794,experiment,12,↑,down,↓,0.750429300009273,False,18
8K24,795,experiment,156,↓,no_key,no_letter,-1.0,False,18
8K24,796,experiment,120,↑,no_key,no_letter,-1.0,False,18
8K24,797,experiment,168,↓,up,↑,1.450617599999532,False,18
8K24,798,experiment,144,←,left,←,0.7786344999913126,True,18
8K24,799,experiment,132,→,no_key,no_letter,-1.0,False,18
8K24,800,experiment,168,←,left,←,0.7098206999944523,True,18
8K24,801,experiment,168,↓,right,→,0.8011668000253849,False,18
8K24,802,experiment,12,←,right,→,1.1472764000063762,False,18
8K24,803,experiment,48,↓,no_key,no_letter,-1.0,False,18
8K24,804,experiment,36,←,left,←,0.8162416000268422,True,18
8K24,805,experiment,96,↓,no_key,no_letter,-1.0,False,18
8K24,806,experiment,72,↑,up,↑,0.929483000014443,True,18
8K24,807,experiment,120,↑,down,↓,0.25130750000244007,False,18
8K24,808,experiment,144,←,down,↓,0.8940899000153877,False,18
8K24,809,experiment,120,→,right,→,0.5673239000025205,True,18
8K24,810,experiment,96,←,left,←,0.6084028999903239,True,18
8K24,811,experiment,108,→,right,→,0.8754539000219665,True,18
8K24,812,experiment,96,←,left,←,0.6801591000403278,True,18
8K24,813,experiment,36,↓,down,↓,0.7481951999943703,True,18
8K24,814,experiment,12,↓,up,↑,1.559779700008221,False,18
8K24,815,experiment,24,→,no_key,no_letter,-1.0,False,18
8K24,816,experiment,24,↓,no_key,no_letter,-1.0,False,18
8K24,817,experiment,156,↓,left,←,0.8726415000273846,False,18
8K24,818,experiment,156,↓,down,↓,0.7370248999795876,True,18
8K24,819,experiment,84,↑,no_key,no_letter,-1.0,False,18
8K24,820,experiment,84,↓,left,←,0.6957984999753535,False,18
8K24,821,experiment,60,←,down,↓,0.8841181000461802,False,18
8K24,822,experiment,168,←,down,↓,0.35046829999191687,False,18
8K24,823,experiment,12,↓,down,↓,0.3504255000152625,True,18
8K24,824,experiment,60,←,no_key,no_letter,-1.0,False,18
8K24,825,experiment,24,↑,down,↓,0.10047529998701066,False,18
8K24,826,experiment,180,←,no_key,no_letter,-1.0,False,18
8K24,827,experiment,72,→,down,↓,0.8338841000222601,False,18
8K24,828,experiment,72,←,left,←,0.9472590999794193,True,18
8K24,829,experiment,108,↓,left,←,0.5584713999996893,False,18
8K24,830,experiment,60,←,left,←,0.9410726000205614,True,18
8K24,831,experiment,108,←,no_key,no_letter,-1.0,False,18
8K24,832,experiment,144,↑,down,↓,1.2936330000520684,False,18
8K24,833,experiment,48,↑,no_key,no_letter,-1.0,False,18
8K24,834,experiment,72,←,down,↓,1.883954899967648,False,18
8K24,835,experiment,84,↑,right,→,1.205915600003209,False,18
8K24,836,experiment,48,↑,no_key,no_letter,-1.0,False,18
8K24,837,experiment,180,←,up,↑,0.796317900007125,False,18
8K24,838,experiment,24,←,left,←,1.0288296000217088,True,18
8K24,839,experiment,180,←,right,→,0.4886348999571055,False,18
8K24,840,experiment,156,→,no_key,no_letter,-1.0,False,18
8K24,841,experiment,108,↓,down,↓,0.8704237999627367,True,18
8K24,842,experiment,144,→,down,↓,0.936791899963282,False,18
8K24,843,experiment,36,↑,right,→,1.208107199985534,False,18
8K24,844,experiment,132,←,up,↑,1.187462300003972,False,18
8K24,845,experiment,96,↓,down,↓,0.723901699995622,True,18
8K24,846,experiment,36,→,up,↑,1.1179756000055932,False,18
8K24,847,experiment,180,←,left,←,0.8199897999875247,True,18
8K24,848,experiment,60,→,right,→,0.6388036999851465,True,18
8K24,849,experiment,132,←,left,←,0.6242753000115044,True,18
