PART_ID,Trial_no,Trial_type,PDI,Stim_letter,Key_pressed,letter_choose,Rt,Corr,Stimulus Time
A032K23,1,training,10,←,left,←,1.2739873999962583,True,30
A032K23,2,training,10,↓,down,↓,0.7478203000064241,True,30
A032K23,3,training,10,↓,down,↓,1.717526699998416,True,30
A032K23,4,training,10,←,left,←,0.7070542000001296,True,30
A032K23,5,training,10,→,right,→,0.6004803999967407,True,30
A032K23,6,training,10,→,right,→,1.1466376000025775,True,30
A032K23,7,training,10,→,right,→,0.7473633000045083,True,30
A032K23,8,training,10,↓,down,↓,0.5003942000039387,True,30
A032K23,9,training,10,↑,up,↑,0.6735239000117872,True,30
A032K23,10,training,10,↓,down,↓,1.9060239999962505,True,30
A032K23,11,training,10,→,right,→,0.5005413000035333,True,30
A032K23,12,training,10,←,left,←,0.5337934999988647,True,30
A032K23,13,training,10,↓,down,↓,0.5671048999938648,True,30
A032K23,14,training,10,→,right,→,0.5837267999886535,True,30
A032K23,15,training,10,↓,down,↓,0.5672430000122404,True,30
A032K23,16,training,10,↓,down,↓,0.5670933000074001,True,30
A032K23,17,training,10,←,left,←,0.5178599999926519,True,30
A032K23,18,training,10,→,right,→,0.5838003000098979,True,30
A032K23,19,training,10,←,left,←,0.4005083999945782,True,30
A032K23,20,training,10,←,left,←,0.5006611999997403,True,30
A032K23,21,training,10,→,left,←,0.8255317000002833,False,18
A032K23,22,training,10,→,right,→,0.6148971000075107,True,18
A032K23,23,training,10,↓,down,↓,0.471681000009994,True,18
A032K23,24,training,10,↑,up,↑,0.6752271000004839,True,18
A032K23,25,training,10,↓,down,↓,0.3838841999968281,True,18
A032K23,26,training,10,↑,up,↑,1.2548049000033643,True,18
A032K23,27,training,10,↓,down,↓,0.6122479000041494,True,18
A032K23,28,training,10,↓,down,↓,0.5110464000026695,True,18
A032K23,29,training,10,→,right,→,0.41745610001089517,True,18
A032K23,30,training,10,←,left,←,0.6005502000043634,True,18
A032K23,31,training,72,←,left,←,0.4954425999894738,True,15
A032K23,32,training,180,←,left,←,0.6173817000089912,True,15
A032K23,33,training,156,←,left,←,0.47986070001206826,True,15
A032K23,34,experiment,36,↓,down,↓,0.4541495000012219,True,15
A032K23,35,experiment,48,↓,right,→,0.45605280000017956,False,15
A032K23,36,experiment,96,↓,down,↓,0.5234587000013562,True,15
A032K23,37,experiment,108,←,left,←,0.4881825999909779,True,15
A032K23,38,experiment,132,→,left,←,0.7114929999952437,False,15
A032K23,39,experiment,144,↓,down,↓,0.4959113999939291,True,15
A032K23,40,experiment,168,↓,down,↓,0.47453170000517275,True,15
A032K23,41,experiment,120,↑,up,↑,0.6433408000011696,True,15
A032K23,42,experiment,24,→,right,→,1.0196966999938013,True,15
A032K23,43,experiment,48,↑,up,↑,0.6120453000039561,True,15
A032K23,44,experiment,60,→,right,→,0.5240808999951696,True,15
A032K23,45,experiment,96,←,up,↑,0.6368310000107158,False,15
A032K23,46,experiment,36,→,right,→,0.6747027999954298,True,15
A032K23,47,experiment,108,↓,right,→,0.971206300004269,False,15
A032K23,48,experiment,120,→,right,→,0.4925641000008909,True,15
A032K23,49,experiment,84,↑,up,↑,0.5442862000054447,True,15
A032K23,50,experiment,120,←,left,←,0.8304522999969777,True,15
A032K23,51,experiment,12,←,no_key,no_letter,-1.0,False,15
A032K23,52,experiment,156,↑,up,↑,0.5067219999909867,True,15
A032K23,53,experiment,144,↑,up,↑,0.5693386999919312,True,15
A032K23,54,experiment,12,↑,right,→,1.2209577999892645,False,15
A032K23,55,experiment,132,↓,down,↓,0.8833714000065811,True,15
A032K23,56,experiment,72,→,left,←,0.6166846999985864,False,15
A032K23,57,experiment,180,↓,down,↓,0.6439900000113994,True,15
A032K23,58,experiment,84,↑,up,↑,0.8270190000039292,True,15
A032K23,59,experiment,108,→,right,→,0.579037800009246,True,15
A032K23,60,experiment,96,↑,up,↑,0.604655700008152,True,15
A032K23,61,experiment,132,←,left,←,0.45462720000068657,True,15
A032K23,62,experiment,72,←,left,←,1.3074810999969486,True,15
A032K23,63,experiment,60,←,left,←,1.1372413999924902,True,15
A032K23,64,experiment,156,←,left,←,0.5452085999859264,True,15
A032K23,65,experiment,72,←,left,←,0.7532284999906551,True,15
A032K23,66,experiment,84,↑,up,↑,0.532621400008793,True,15
A032K23,67,experiment,144,→,right,→,0.41820929999812506,True,15
A032K23,68,experiment,60,→,right,→,0.7177922000118997,True,15
A032K23,69,experiment,72,↑,up,↑,0.6572550999990199,True,15
A032K23,70,experiment,36,↑,up,↑,0.5469125999952666,True,15
A032K23,71,experiment,60,←,left,←,0.5994898999924771,True,15
A032K23,72,experiment,168,←,left,←,0.6006320000014966,True,15
A032K23,73,experiment,12,↓,right,→,0.5588635000021895,False,15
A032K23,74,experiment,108,←,left,←,0.5820909000030952,True,15
A032K23,75,experiment,132,↑,right,→,0.8826203999924473,False,15
A032K23,76,experiment,120,↑,up,↑,0.8553952000074787,True,15
A032K23,77,experiment,180,→,right,→,0.6135269000078551,True,15
A032K23,78,experiment,144,←,left,←,0.5122542000026442,True,15
A032K23,79,experiment,168,↓,up,↑,0.5540650000039022,False,15
A032K23,80,experiment,36,↓,down,↓,0.7429367000004277,True,15
A032K23,81,experiment,24,→,right,→,0.5193539000028977,True,15
A032K23,82,experiment,180,↑,up,↑,0.5650506000092719,True,15
A032K23,83,experiment,168,→,right,→,0.6095807999954559,True,15
A032K23,84,experiment,84,↓,up,↑,0.6131485000078101,False,15
A032K23,85,experiment,48,←,left,←,0.6306971999874804,True,15
A032K23,86,experiment,48,←,left,←,0.6269539000059012,True,15
A032K23,87,experiment,24,↑,up,↑,0.6382750999910058,True,15
A032K23,88,experiment,24,↑,up,↑,1.7000238000036916,True,15
A032K23,89,experiment,156,↓,up,↑,0.4645832999958657,False,15
A032K23,90,experiment,96,←,left,←,1.038090200003353,True,15
A032K23,91,experiment,156,↑,left,←,0.8282462999923155,False,15
A032K23,92,experiment,180,↓,left,←,0.9973942999931751,False,15
A032K23,93,experiment,12,→,right,→,0.5954274999967311,True,15
A032K23,94,training,168,←,left,←,0.613128199998755,True,15
A032K23,95,training,156,↓,down,↓,0.616944199995487,True,15
A032K23,96,training,156,↓,down,↓,0.8917045999987749,True,15
A032K23,97,experiment,180,←,left,←,0.5996925000072224,True,15
A032K23,98,experiment,132,↑,left,←,0.629568600008497,False,15
A032K23,99,experiment,72,↑,up,↑,0.8373265999980504,True,15
A032K23,100,experiment,84,↓,down,↓,0.6685099000023911,True,15
A032K23,101,experiment,84,↑,up,↑,0.44514389999676496,True,15
A032K23,102,experiment,120,→,right,→,0.5216513000050327,True,15
A032K23,103,experiment,96,→,right,→,0.5919300000095973,True,15
A032K23,104,experiment,72,←,left,←,0.7064022999984445,True,15
A032K23,105,experiment,144,↑,up,↑,0.6324107000109507,True,15
A032K23,106,experiment,60,↑,up,↑,0.5100303999934113,True,15
A032K23,107,experiment,108,↓,down,↓,0.8337387000065064,True,15
A032K23,108,experiment,108,↑,up,↑,0.7181001999997534,True,15
A032K23,109,experiment,108,→,right,→,0.5488458000036189,True,15
A032K23,110,experiment,96,←,left,←,0.6462216999934753,True,15
A032K23,111,experiment,36,←,left,←,0.5481629999994766,True,15
A032K23,112,experiment,180,←,left,←,0.7174461000104202,True,15
A032K23,113,experiment,132,→,right,→,0.6421979000006104,True,15
A032K23,114,experiment,24,↑,up,↑,0.5461358000029577,True,15
A032K23,115,experiment,156,→,right,→,0.45505139998567756,True,15
A032K23,116,experiment,180,↑,up,↑,0.6947977000090759,True,15
A032K23,117,experiment,132,↓,left,←,0.8860700999939581,False,15
A032K23,118,experiment,48,↓,down,↓,0.7269077000091784,True,15
A032K23,119,experiment,12,↓,no_key,no_letter,-1.0,False,15
A032K23,120,experiment,12,→,left,←,0.8966681000019889,False,15
A032K23,121,experiment,60,←,left,←,1.7524634000001242,True,15
A032K23,122,experiment,108,←,left,←,0.3677426999929594,True,15
A032K23,123,experiment,132,↓,right,→,0.6574894999939715,False,15
A032K23,124,experiment,72,↓,down,↓,0.7687288000015542,True,15
A032K23,125,experiment,84,→,left,←,0.5191324999905191,False,15
A032K23,126,experiment,24,←,right,→,1.3013018999918131,False,15
A032K23,127,experiment,36,→,right,→,0.46852519999083597,True,15
A032K23,128,experiment,168,→,right,→,1.6363700999936555,True,15
A032K23,129,experiment,12,↑,right,→,0.7268928999983473,False,15
A032K23,130,experiment,180,↑,up,↑,0.4529179999954067,True,15
A032K23,131,experiment,120,→,right,→,0.5457418000005418,True,15
A032K23,132,experiment,96,↓,down,↓,1.2522252999915509,True,15
A032K23,133,experiment,120,↓,down,↓,0.5950408999924548,True,15
A032K23,134,experiment,48,←,left,←,0.6321634000050835,True,15
A032K23,135,experiment,36,←,left,←,0.5762551999941934,True,15
A032K23,136,experiment,24,→,left,←,0.9375945000065258,False,15
A032K23,137,experiment,144,←,left,←,0.6845362999883946,True,15
A032K23,138,experiment,24,↓,no_key,no_letter,-1.0,False,15
A032K23,139,experiment,48,←,left,←,0.7570321999955922,True,15
A032K23,140,experiment,60,→,left,←,0.8015391999942949,False,15
A032K23,141,experiment,168,↑,up,↑,0.6862530000071274,True,15
A032K23,142,experiment,156,→,right,→,0.4653336000046693,True,15
A032K23,143,experiment,60,↓,down,↓,0.8818883999920217,True,15
A032K23,144,experiment,144,↑,up,↑,0.699940799997421,True,15
A032K23,145,experiment,84,→,right,→,0.7208662000048207,True,15
A032K23,146,experiment,12,↓,down,↓,0.7900432000024011,True,15
A032K23,147,experiment,144,↑,right,→,0.9090670000005048,False,15
A032K23,148,experiment,72,→,left,←,0.5676609999936773,False,15
A032K23,149,experiment,168,→,left,←,0.5251224999956321,False,15
A032K23,150,experiment,120,↓,down,↓,0.7153479000116931,True,15
A032K23,151,experiment,36,↑,left,←,0.7794604999944568,False,15
A032K23,152,experiment,156,→,down,↓,1.0658574999979464,False,15
A032K23,153,experiment,48,←,left,←,0.7938097000005655,True,15
A032K23,154,experiment,156,←,left,←,0.6401634000067133,True,15
A032K23,155,experiment,168,←,left,←,0.6143052999977954,True,15
A032K23,156,experiment,96,↓,down,↓,0.7577533000003314,True,15
A032K23,157,training,180,↓,down,↓,1.0115176000108477,True,15
A032K23,158,training,48,→,left,←,0.6649555999902077,False,15
A032K23,159,training,144,←,left,←,0.6191429000027711,True,15
A032K23,160,experiment,12,↑,left,←,0.6146061000035843,False,15
A032K23,161,experiment,144,↑,up,↑,0.7498649999906775,True,15
A032K23,162,experiment,120,←,left,←,0.5163758999988204,True,15
A032K23,163,experiment,12,→,left,←,0.6401505000103498,False,15
A032K23,164,experiment,156,↓,up,↑,0.650166999999783,False,15
A032K23,165,experiment,120,→,right,→,0.7011819000035757,True,15
A032K23,166,experiment,120,→,right,→,0.6170527999929618,True,15
A032K23,167,experiment,120,←,left,←,0.4905410000064876,True,15
A032K23,168,experiment,168,←,left,←,0.5643011000065599,True,15
A032K23,169,experiment,84,←,right,→,0.7916761999949813,False,15
A032K23,170,experiment,144,→,right,→,0.4757887000014307,True,15
A032K23,171,experiment,180,→,right,→,0.5304342000017641,True,15
A032K23,172,experiment,132,→,right,→,0.6579013000009581,True,15
A032K23,173,experiment,60,→,left,←,0.6877266999945277,False,15
A032K23,174,experiment,108,↑,up,↑,0.5945980999968015,True,15
A032K23,175,experiment,72,→,right,→,0.7829574000061257,True,15
A032K23,176,experiment,36,→,right,→,0.5959595000022091,True,15
A032K23,177,experiment,144,↑,right,→,0.541881299999659,False,15
A032K23,178,experiment,36,↓,left,←,1.322977699994226,False,15
A032K23,179,experiment,84,←,left,←,0.350471000012476,True,15
A032K23,180,experiment,24,↓,down,↓,0.9490585999883479,True,15
A032K23,181,experiment,24,↑,down,↓,1.156772499991348,False,15
A032K23,182,experiment,60,←,left,←,1.0536381999991136,True,15
A032K23,183,experiment,180,↓,down,↓,0.685518400001456,True,15
A032K23,184,experiment,24,→,right,→,0.5497183999978006,True,15
A032K23,185,experiment,108,←,left,←,0.45739269998739474,True,15
A032K23,186,experiment,156,←,left,←,0.5303394999937154,True,15
A032K23,187,experiment,132,↑,up,↑,0.556923000011011,True,15
A032K23,188,experiment,108,↑,up,↑,0.8396113000053447,True,15
A032K23,189,experiment,48,↑,up,↑,1.087833600002341,True,15
A032K23,190,experiment,168,↑,no_key,no_letter,-1.0,False,15
A032K23,191,experiment,24,←,left,←,0.6495173000002978,True,15
A032K23,192,experiment,132,↑,right,→,1.4012041999958456,False,15
A032K23,193,experiment,36,→,left,←,0.80733510000573,False,15
A032K23,194,experiment,168,↑,up,↑,0.4544076000020141,True,15
A032K23,195,experiment,36,↑,left,←,0.7212436999980127,False,15
A032K23,196,experiment,48,→,right,→,0.6858844999951543,True,15
A032K23,197,experiment,144,→,right,→,0.46472599999106023,True,15
A032K23,198,experiment,12,←,left,←,0.7633311999961734,True,15
A032K23,199,experiment,12,↓,left,←,0.7511983000003966,False,15
A032K23,200,experiment,72,←,left,←,0.7479768999910448,True,15
A032K23,201,experiment,132,↓,down,↓,0.8277629999938654,True,15
A032K23,202,experiment,96,↑,up,↑,0.8896040999970865,True,15
A032K23,203,experiment,48,↓,right,→,0.8938004999945406,False,15
A032K23,204,experiment,60,↑,up,↑,0.5723590999987209,True,15
A032K23,205,experiment,48,→,right,→,0.4899705999996513,True,15
A032K23,206,experiment,96,←,no_key,no_letter,-1.0,False,15
A032K23,207,experiment,108,↑,up,↑,0.8640500000037719,True,15
A032K23,208,experiment,96,→,right,→,0.5591676000040025,True,15
A032K23,209,experiment,60,↑,up,↑,0.4774230000039097,True,15
A032K23,210,experiment,84,↑,up,↑,0.4878360000002431,True,15
A032K23,211,experiment,72,→,right,→,0.6054467999929329,True,15
A032K23,212,experiment,168,↓,down,↓,0.5992469999910099,True,15
A032K23,213,experiment,156,←,left,←,0.4525456999981543,True,15
A032K23,214,experiment,96,→,right,→,0.6390370000008261,True,15
A032K23,215,experiment,180,↑,up,↑,0.6442707000096561,True,15
A032K23,216,experiment,84,→,left,←,0.9489794000110123,False,15
A032K23,217,experiment,72,↑,up,↑,0.6664503999927547,True,15
A032K23,218,experiment,156,→,right,→,0.554032100000768,True,15
A032K23,219,experiment,180,↓,down,↓,0.8269919000013033,True,15
A032K23,220,training,144,→,right,→,0.5727505999966525,True,15
A032K23,221,training,132,←,left,←,0.637799800009816,True,15
A032K23,222,training,72,←,left,←,0.7398882999987109,True,15
A032K23,223,experiment,120,↓,down,↓,0.5630669999954989,True,15
A032K23,224,experiment,24,→,right,→,0.43800399999599904,True,15
A032K23,225,experiment,180,↑,up,↑,0.7797442000010051,True,15
A032K23,226,experiment,96,→,right,→,0.8510351999866543,True,15
A032K23,227,experiment,120,↓,down,↓,0.8300370999932056,True,15
A032K23,228,experiment,108,↑,right,→,0.8340020000032382,False,15
A032K23,229,experiment,36,↑,up,↑,0.6400054000114324,True,15
A032K23,230,experiment,120,↑,up,↑,0.5591582000051858,True,15
A032K23,231,experiment,120,↓,down,↓,0.8538968999928329,True,15
A032K23,232,experiment,144,←,left,←,0.5240384000062477,True,15
A032K23,233,experiment,132,↑,up,↑,0.5321418000094127,True,15
A032K23,234,experiment,12,↓,down,↓,0.6205112999887206,True,15
A032K23,235,experiment,132,↓,left,←,0.9142330000031507,False,15
A032K23,236,experiment,108,→,left,←,0.825963800001773,False,15
A032K23,237,experiment,84,↑,up,↑,0.5254092999966815,True,15
A032K23,238,experiment,144,↑,left,←,0.7459239000017988,False,15
A032K23,239,experiment,60,→,left,←,0.6091363000014098,False,15
A032K23,240,experiment,144,↓,down,↓,0.829761500004679,True,15
A032K23,241,experiment,156,↑,left,←,0.711753099996713,False,15
A032K23,242,experiment,24,↓,left,←,0.8860625000088476,False,15
A032K23,243,experiment,168,↑,up,↑,0.635044900001958,True,15
A032K23,244,experiment,84,→,right,→,0.6611544000043068,True,15
A032K23,245,experiment,156,↓,down,↓,0.7984201999934157,True,15
A032K23,246,experiment,144,←,up,↑,1.0888762999966275,False,15
A032K23,247,experiment,168,→,right,→,0.6086317000008421,True,15
A032K23,248,experiment,84,←,left,←,0.6191532000084408,True,15
A032K23,249,experiment,96,↑,up,↑,0.8730535999929998,True,15
A032K23,250,experiment,12,→,up,↑,1.2537873999972362,False,15
A032K23,251,experiment,156,↑,up,↑,0.43999719999555964,True,15
A032K23,252,experiment,72,↓,down,↓,0.7907936999981757,True,15
A032K23,253,experiment,72,↓,up,↑,1.3885867000062717,False,15
A032K23,254,experiment,72,↓,down,↓,0.7897626000049058,True,15
A032K23,255,experiment,24,←,up,↑,1.4079452000005404,False,15
A032K23,256,experiment,180,↑,up,↑,0.6994457000109833,True,15
A032K23,257,experiment,48,←,left,←,0.5537371999962488,True,15
A032K23,258,experiment,168,→,right,→,0.6927656000043498,True,15
A032K23,259,experiment,132,↑,no_key,no_letter,-1.0,False,15
A032K23,260,experiment,72,↓,up,↑,0.6489753999921959,False,15
A032K23,261,experiment,180,→,right,→,0.49052280001342297,True,15
A032K23,262,experiment,108,↑,up,↑,0.5538628000067547,True,15
A032K23,263,experiment,96,←,left,←,0.5841075999924215,True,15
A032K23,264,experiment,168,→,up,↑,0.6555380000063451,False,15
A032K23,265,experiment,108,←,right,→,0.6138077999930829,False,15
A032K23,266,experiment,12,↑,up,↑,0.6083915999915916,True,15
A032K23,267,experiment,48,↓,right,→,1.0132513999997173,False,15
A032K23,268,experiment,36,↑,right,→,0.9469972000078997,False,15
A032K23,269,experiment,36,↓,up,↑,0.8892869999981485,False,15
A032K23,270,experiment,36,←,left,←,0.4631943999993382,True,15
A032K23,271,experiment,48,↑,up,↑,0.503397299995413,True,15
A032K23,272,experiment,12,→,up,↑,0.7671325999981491,False,15
A032K23,273,experiment,48,←,left,←,0.659817000007024,True,15
A032K23,274,experiment,60,←,left,←,0.456143899995368,True,15
A032K23,275,experiment,156,↓,down,↓,0.7603530000051251,True,15
A032K23,276,experiment,132,←,left,←,0.7710816000035265,True,15
A032K23,277,experiment,180,↓,down,↓,1.6284814999962691,True,15
A032K23,278,experiment,96,↓,down,↓,1.0882935999979964,True,15
A032K23,279,experiment,84,↑,up,↑,0.45347349999065045,True,15
A032K23,280,experiment,60,←,left,←,0.5759099999995669,True,15
A032K23,281,experiment,24,→,left,←,0.8409758000052534,False,15
A032K23,282,experiment,60,↓,down,↓,0.7951994000031846,True,15
A032K23,283,training,60,←,left,←,0.5927248999942094,True,15
A032K23,284,training,36,↑,up,↑,0.7390894999989541,True,15
A032K23,285,training,24,←,left,←,0.4377915000077337,True,15
A032K23,286,experiment,132,↑,up,↑,0.5157541000080528,True,15
A032K23,287,experiment,96,↓,down,↓,0.7645841999910772,True,15
A032K23,288,experiment,24,↓,down,↓,0.8752137000119546,True,15
A032K23,289,experiment,24,↑,up,↑,0.4767256000050111,True,15
A032K23,290,experiment,36,↓,down,↓,0.6113435000006575,True,15
A032K23,291,experiment,120,↓,down,↓,0.5999092999991262,True,15
A032K23,292,experiment,180,→,right,→,0.6696705999929691,True,15
A032K23,293,experiment,144,↑,up,↑,0.5129176999907941,True,15
A032K23,294,experiment,156,←,up,↑,0.7851651000091806,False,15
A032K23,295,experiment,120,→,right,→,0.713853300010669,True,15
A032K23,296,experiment,24,↓,up,↑,0.8672541999985697,False,15
A032K23,297,experiment,156,→,right,→,0.44677589999628253,True,15
A032K23,298,experiment,60,↓,up,↑,0.6043980999966152,False,15
A032K23,299,experiment,24,←,left,←,0.8119054999988293,True,15
A032K23,300,experiment,108,→,up,↑,0.7086381999979494,False,15
A032K23,301,experiment,84,↑,up,↑,1.391235900009633,True,15
A032K23,302,experiment,144,↑,up,↑,0.4447146000020439,True,15
A032K23,303,experiment,96,↑,up,↑,0.5901334999944083,True,15
A032K23,304,experiment,132,↑,up,↑,0.513552600008552,True,15
A032K23,305,experiment,12,→,up,↑,0.6785174999968149,False,15
A032K23,306,experiment,60,↓,down,↓,0.8075604000041494,True,15
A032K23,307,experiment,108,↑,up,↑,0.7329854999989038,True,15
A032K23,308,experiment,96,←,up,↑,0.6340407999960007,False,15
A032K23,309,experiment,72,↑,up,↑,0.5100995999964653,True,15
A032K23,310,experiment,120,←,left,←,0.4563798000017414,True,15
A032K23,311,experiment,48,↓,down,↓,0.6398979000077816,True,15
A032K23,312,experiment,168,→,right,→,0.4497961999877589,True,15
A032K23,313,experiment,144,→,right,→,0.4930338000121992,True,15
A032K23,314,experiment,108,↓,down,↓,0.6338058999972418,True,15
A032K23,315,experiment,60,←,left,←,0.5930513000057545,True,15
A032K23,316,experiment,36,←,left,←,0.8684275999985402,True,15
A032K23,317,experiment,48,←,up,↑,0.7868813999957638,False,15
A032K23,318,experiment,132,←,left,←,0.35041119999368675,True,15
A032K23,319,experiment,132,←,left,←,0.6492164999945089,True,15
A032K23,320,experiment,84,↑,up,↑,0.624949100005324,True,15
A032K23,321,experiment,156,←,no_key,no_letter,-1.0,False,15
A032K23,322,experiment,72,→,right,→,0.5161548999894876,True,15
A032K23,323,experiment,60,↓,down,↓,0.6006612000055611,True,15
A032K23,324,experiment,180,←,left,←,1.5748516000021482,True,15
A032K23,325,experiment,108,→,right,→,1.2009950999927241,True,15
A032K23,326,experiment,180,→,right,→,1.7191982999938773,True,15
A032K23,327,experiment,180,→,right,→,0.45679469998867717,True,15
A032K23,328,experiment,48,↓,up,↑,0.6124929000070551,False,15
A032K23,329,experiment,36,↑,no_key,no_letter,-1.0,False,15
A032K23,330,experiment,84,↑,up,↑,0.5608413000009023,True,15
A032K23,331,experiment,84,→,left,←,0.5353228000021772,False,15
A032K23,332,experiment,36,↑,up,↑,0.7582639999891398,True,15
A032K23,333,experiment,144,↓,down,↓,0.664648699996178,True,15
A032K23,334,experiment,48,↑,up,↑,0.4998632000060752,True,15
A032K23,335,experiment,168,→,no_key,no_letter,-1.0,False,15
A032K23,336,experiment,168,→,right,→,0.6190763000049628,True,15
A032K23,337,experiment,72,↑,up,↑,0.5122203000064474,True,15
A032K23,338,experiment,156,↑,up,↑,0.816254100005608,True,15
A032K23,339,experiment,96,←,left,←,0.6005753999925219,True,15
A032K23,340,experiment,12,↑,up,↑,0.6552156999969156,True,15
A032K23,341,experiment,72,↓,left,←,0.868104699999094,False,15
A032K23,342,experiment,168,→,right,→,0.6428340999991633,True,15
A032K23,343,experiment,120,↑,right,→,0.9699356000055559,False,15
A032K23,344,experiment,12,↑,up,↑,1.0100021999969613,True,15
A032K23,345,experiment,12,↑,up,↑,0.9764419999992242,True,15
A032K23,346,training,132,↓,down,↓,0.6252021999971475,True,15
A032K23,347,training,108,↑,down,↓,1.0994094000052428,False,15
A032K23,348,training,24,↑,down,↓,0.7101720000064233,False,15
A032K23,349,experiment,24,←,left,←,0.6207133999996586,True,15
A032K23,350,experiment,120,↑,up,↑,0.6175712999975076,True,15
A032K23,351,experiment,12,←,right,→,0.7020171000040136,False,15
A032K23,352,experiment,36,→,right,→,0.6140815999970073,True,15
A032K23,353,experiment,108,↓,down,↓,0.769644399988465,True,15
A032K23,354,experiment,156,↑,up,↑,0.8108671999943908,True,15
A032K23,355,experiment,108,←,left,←,0.520675099993241,True,15
A032K23,356,experiment,96,←,left,←,0.45100520001142286,True,15
A032K23,357,experiment,168,→,right,→,0.4791844000137644,True,15
A032K23,358,experiment,24,←,left,←,0.6210090999957174,True,15
A032K23,359,experiment,48,↑,up,↑,0.6840687999938382,True,15
A032K23,360,experiment,120,↓,down,↓,0.7303772000013851,True,15
A032K23,361,experiment,12,↓,down,↓,0.6415071000083117,True,15
A032K23,362,experiment,96,↓,down,↓,0.4892056999960914,True,15
A032K23,363,experiment,60,←,left,←,0.4526202999986708,True,15
A032K23,364,experiment,156,→,right,→,0.4181979999993928,True,15
A032K23,365,experiment,144,↑,right,→,0.8598752999969292,False,15
A032K23,366,experiment,60,←,left,←,0.4826917000027606,True,15
A032K23,367,experiment,36,↓,up,↑,1.338316199995461,False,15
A032K23,368,experiment,132,←,left,←,1.138741899994784,True,15
A032K23,369,experiment,132,↑,no_key,no_letter,-1.0,False,15
A032K23,370,experiment,168,↑,up,↑,0.5570488999946974,True,15
A032K23,371,experiment,60,←,left,←,1.1612936000019545,True,15
A032K23,372,experiment,84,→,up,↑,0.9552464000007603,False,15
A032K23,373,experiment,96,→,right,→,0.5165938999998616,True,15
A032K23,374,experiment,12,←,left,←,0.587430100000347,True,15
A032K23,375,experiment,60,↓,up,↑,1.0701441999990493,False,15
A032K23,376,experiment,144,→,right,→,0.6366695999895455,True,15
A032K23,377,experiment,132,←,left,←,0.44181019999086857,True,15
A032K23,378,experiment,48,↑,up,↑,0.6381997999997111,True,15
A032K23,379,experiment,24,↑,up,↑,0.7059098000027006,True,15
A032K23,380,experiment,108,↑,up,↑,0.48003399999288376,True,15
A032K23,381,experiment,180,↑,up,↑,0.5008785000100033,True,15
A032K23,382,experiment,24,→,right,→,0.6205046999966726,True,15
A032K23,383,experiment,72,→,up,↑,0.6721794999903068,False,15
A032K23,384,experiment,180,←,left,←,0.6583853000047384,True,15
A032K23,385,experiment,168,→,right,→,0.4997511000110535,True,15
A032K23,386,experiment,72,←,right,→,0.9421740999969188,False,15
A032K23,387,experiment,144,↑,up,↑,0.8095377999998163,True,15
A032K23,388,experiment,12,↑,left,←,0.7379595000093104,False,15
A032K23,389,experiment,48,↑,down,↓,1.0177834000060102,False,15
A032K23,390,experiment,96,←,left,←,0.5214241000066977,True,15
A032K23,391,experiment,84,↓,down,↓,1.0233396999974502,True,15
A032K23,392,experiment,108,↑,down,↓,0.7451930000097491,False,15
A032K23,393,experiment,144,→,left,←,0.6238766999886138,False,15
A032K23,394,experiment,180,←,left,←,0.741147099994123,True,15
A032K23,395,experiment,72,←,left,←,0.5793294000031892,True,15
A032K23,396,experiment,48,→,right,→,0.7018645999924047,True,15
A032K23,397,experiment,180,↑,down,↓,0.4319569000072079,False,15
A032K23,398,experiment,168,←,left,←,0.602155300002778,True,15
A032K23,399,experiment,156,←,left,←,0.5486627000063891,True,15
A032K23,400,experiment,84,→,left,←,0.9157689999992726,False,15
A032K23,401,experiment,132,←,left,←,0.710390100008226,True,15
A032K23,402,experiment,72,←,left,←,0.7139702000131365,True,15
A032K23,403,experiment,36,↑,left,←,1.1728199000062887,False,15
A032K23,404,experiment,84,←,left,←,0.5455269000085536,True,15
A032K23,405,experiment,120,↓,down,↓,0.649574399998528,True,15
A032K23,406,experiment,120,↓,down,↓,0.6479613000119571,True,15
A032K23,407,experiment,156,→,left,←,0.6328579999972135,False,15
A032K23,408,experiment,36,↑,up,↑,0.6783827000035672,True,15
A032K23,409,training,156,↓,down,↓,0.7256978000077652,True,15
A032K23,410,training,84,↑,down,↓,0.7388791000121273,False,15
A032K23,411,training,60,→,right,→,0.7041456000006292,True,15
A032K23,412,experiment,120,↓,down,↓,0.5173474000039278,True,15
A032K23,413,experiment,72,←,left,←,0.5819821000040974,True,15
A032K23,414,experiment,96,←,no_key,no_letter,-1.0,False,15
A032K23,415,experiment,132,↑,up,↑,0.3504901999986032,True,15
A032K23,416,experiment,96,↓,down,↓,0.6501897999987705,True,15
A032K23,417,experiment,168,↑,up,↑,0.43743210000684485,True,15
A032K23,418,experiment,48,↓,down,↓,0.7670778000028804,True,15
A032K23,419,experiment,48,↓,down,↓,0.6175570000050357,True,15
A032K23,420,experiment,36,→,right,→,0.4903603999991901,True,15
A032K23,421,experiment,120,↑,up,↑,0.5671753000060562,True,15
A032K23,422,experiment,24,→,left,←,0.7937791000003926,False,15
A032K23,423,experiment,84,↓,down,↓,0.9610507000033977,True,15
A032K23,424,experiment,180,↑,up,↑,0.8662248000036925,True,15
A032K23,425,experiment,12,↓,up,↑,0.8559767999977339,False,15
A032K23,426,experiment,84,→,left,←,0.4444853000022704,False,15
A032K23,427,experiment,12,→,up,↑,0.9546905000024708,False,15
A032K23,428,experiment,12,→,left,←,0.7126906000048621,False,15
A032K23,429,experiment,132,↑,up,↑,0.5272962000017287,True,15
A032K23,430,experiment,96,←,left,←,0.7857054000050994,True,15
A032K23,431,experiment,60,↑,up,↑,0.8188676999998279,True,15
A032K23,432,experiment,144,↑,up,↑,0.6021425000071758,True,15
A032K23,433,experiment,180,↑,left,←,0.5991256999986945,False,15
A032K23,434,experiment,96,↓,left,←,0.8360334000026342,False,15
A032K23,435,experiment,180,↓,up,↑,0.6788877999933902,False,15
A032K23,436,experiment,36,→,left,←,0.5464653999952134,False,15
A032K23,437,experiment,144,←,left,←,0.7835140999959549,True,15
A032K23,438,experiment,108,←,left,←,0.4894806999946013,True,15
A032K23,439,experiment,72,→,right,→,0.6148040000116453,True,15
A032K23,440,experiment,156,←,left,←,0.6296945000067353,True,15
A032K23,441,experiment,36,←,left,←,0.4730513999966206,True,15
A032K23,442,experiment,120,↑,up,↑,0.4600810999982059,True,15
A032K23,443,experiment,24,↑,up,↑,0.44396420000703074,True,15
A032K23,444,experiment,156,↓,down,↓,0.5875979999982519,True,15
A032K23,445,experiment,180,↑,up,↑,0.4280606000102125,True,15
A032K23,446,experiment,156,↓,down,↓,0.7451007000054233,True,15
A032K23,447,experiment,144,→,right,→,0.7045806999958586,True,15
A032K23,448,experiment,132,→,left,←,0.8935262999875704,False,15
A032K23,449,experiment,168,←,left,←,0.5004374999989523,True,15
A032K23,450,experiment,48,↑,left,←,0.9437757000123383,False,15
A032K23,451,experiment,60,↓,right,→,0.7242693000007421,False,15
A032K23,452,experiment,84,→,left,←,0.8736149000033038,False,15
A032K23,453,experiment,48,↓,up,↑,0.6438304000039352,False,15
A032K23,454,experiment,120,↓,down,↓,0.7730087000090862,True,15
A032K23,455,experiment,108,↓,down,↓,1.1850623000063933,True,15
A032K23,456,experiment,144,←,left,←,0.9959595999971498,True,15
A032K23,457,experiment,72,→,right,→,0.5694617999979528,True,15
A032K23,458,experiment,168,→,right,→,0.45012470000074245,True,15
A032K23,459,experiment,24,↑,up,↑,0.6866626999981236,True,15
A032K23,460,experiment,132,↑,up,↑,0.6702974999934668,True,15
A032K23,461,experiment,12,→,up,↑,1.5227415999979712,False,15
A032K23,462,experiment,60,↓,up,↑,0.782588999994914,False,15
A032K23,463,experiment,84,↑,up,↑,1.1044049999909475,True,15
A032K23,464,experiment,108,↓,up,↑,0.6632195999991382,False,15
A032K23,465,experiment,60,←,left,←,0.7532662000012351,True,15
A032K23,466,experiment,108,↑,up,↑,0.42729680000047665,True,15
A032K23,467,experiment,72,↑,up,↑,0.605687700008275,True,15
A032K23,468,experiment,36,↑,right,→,0.9144265000068117,False,15
A032K23,469,experiment,24,↓,up,↑,0.6901594999944791,False,15
A032K23,470,experiment,156,↑,up,↑,0.7577566999971168,True,15
A032K23,471,experiment,168,↑,up,↑,0.5805101000005379,True,15
A032K23,472,training,132,↑,up,↑,0.6033221999969101,True,15
A032K23,473,training,60,↑,up,↑,0.6767303999949945,True,15
A032K23,474,training,24,→,left,←,0.6355666000017663,False,15
A032K23,475,experiment,108,→,right,→,0.5050256999966223,True,15
A032K23,476,experiment,156,←,left,←,0.6409041000006255,True,15
A032K23,477,experiment,60,←,left,←,0.46348089999810327,True,15
A032K23,478,experiment,48,←,left,←,0.43827489999239333,True,15
A032K23,479,experiment,144,→,right,→,0.5740687000070466,True,15
A032K23,480,experiment,132,↑,up,↑,0.6159383000049274,True,15
A032K23,481,experiment,84,→,left,←,0.5067712000018219,False,15
A032K23,482,experiment,144,←,left,←,0.5942162999999709,True,15
A032K23,483,experiment,168,↓,left,←,1.2237500999908661,False,15
A032K23,484,experiment,168,→,right,→,0.6416256999946199,True,15
A032K23,485,experiment,168,↓,down,↓,1.4404275999986567,True,15
A032K23,486,experiment,48,↓,down,↓,0.6252253999991808,True,15
A032K23,487,experiment,168,↑,up,↑,0.9277799999981653,True,15
A032K23,488,experiment,36,↑,left,←,1.2567741999955615,False,15
A032K23,489,experiment,84,↓,no_key,no_letter,-1.0,False,15
A032K23,490,experiment,12,↑,no_key,no_letter,-1.0,False,15
A032K23,491,experiment,144,←,left,←,0.5774225000059232,True,15
A032K23,492,experiment,156,↓,down,↓,0.45139909999852534,True,15
A032K23,493,experiment,108,→,right,→,0.6047664999932749,True,15
A032K23,494,experiment,36,→,left,←,0.6970281000103569,False,15
A032K23,495,experiment,120,→,right,→,0.7202758000057656,True,15
A032K23,496,experiment,12,↓,down,↓,0.6195255999919027,True,15
A032K23,497,experiment,120,→,left,←,0.7645210000046063,False,15
A032K23,498,experiment,108,←,left,←,0.60594090000086,True,15
A032K23,499,experiment,24,→,right,→,0.5954284000035841,True,15
A032K23,500,experiment,12,↑,left,←,0.8763237999955891,False,15
A032K23,501,experiment,72,↓,down,↓,0.8065409000118962,True,15
A032K23,502,experiment,60,↑,up,↑,0.7454116000008071,True,15
A032K23,503,experiment,36,←,left,←,0.5978159000078449,True,15
A032K23,504,experiment,180,→,right,→,0.5209270999912405,True,15
A032K23,505,experiment,12,↑,up,↑,0.8669664000044577,True,15
A032K23,506,experiment,24,→,left,←,1.2062095000001136,False,15
A032K23,507,experiment,84,↓,down,↓,0.7941932999965502,True,15
A032K23,508,experiment,96,↓,left,←,0.7410481999977492,False,15
A032K23,509,experiment,96,↓,down,↓,0.45209130000148434,True,15
A032K23,510,experiment,132,←,left,←,1.611673699997482,True,15
A032K23,511,experiment,72,→,left,←,0.9026463999907719,False,15
A032K23,512,experiment,60,→,right,→,0.49212850000185426,True,15
A032K23,513,experiment,120,↓,down,↓,0.4476501999888569,True,15
A032K23,514,experiment,144,←,left,←,0.6971007999964058,True,15
A032K23,515,experiment,48,→,right,→,0.6889405999972951,True,15
A032K23,516,experiment,132,←,left,←,0.6862660000042524,True,15
A032K23,517,experiment,24,↑,up,↑,0.7244098000082886,True,15
A032K23,518,experiment,48,↑,down,↓,1.0404269999999087,False,15
A032K23,519,experiment,120,↓,down,↓,0.47261269998853095,True,15
A032K23,520,experiment,72,→,right,→,0.49271790000784677,True,15
A032K23,521,experiment,108,→,right,→,0.9077924999874085,True,15
A032K23,522,experiment,180,→,right,→,0.9792456999857677,True,15
A032K23,523,experiment,72,→,right,→,1.2708431000064593,True,15
A032K23,524,experiment,96,↓,down,↓,0.485130000000936,True,15
A032K23,525,experiment,132,↑,left,←,0.6927389999909792,False,15
A032K23,526,experiment,60,←,left,←,0.5108482999930857,True,15
A032K23,527,experiment,36,↑,up,↑,0.5165479000133928,True,15
A032K23,528,experiment,156,←,left,←,0.3502844000031473,True,15
A032K23,529,experiment,180,←,left,←,0.3837831999990158,True,15
A032K23,530,experiment,84,↓,left,←,0.8111742000037339,False,15
A032K23,531,experiment,24,←,left,←,0.5795180999994045,True,15
A032K23,532,experiment,180,↓,down,↓,0.6373467000084929,True,15
A032K23,533,experiment,96,→,left,←,0.7057920000079321,False,15
A032K23,534,experiment,156,←,left,←,0.5935752000077628,True,15
A032K23,535,training,36,←,left,←,0.7303456999943592,True,15
A032K23,536,training,156,→,up,↑,1.1439404999982798,False,15
A032K23,537,training,108,→,up,↑,0.6153306000051089,False,15
A032K23,538,experiment,180,↑,up,↑,0.6582644000009168,True,15
A032K23,539,experiment,12,←,left,←,0.6176627999957418,True,15
A032K23,540,experiment,24,→,right,→,0.6413647000008496,True,15
A032K23,541,experiment,48,↓,down,↓,0.5629929999995511,True,15
A032K23,542,experiment,24,→,left,←,0.7199168000079226,False,15
A032K23,543,experiment,84,↓,down,↓,0.7871674000052735,True,15
A032K23,544,experiment,36,←,right,→,0.5151608000014676,False,15
A032K23,545,experiment,48,↓,down,↓,0.7323260999983177,True,15
A032K23,546,experiment,168,→,right,→,0.5675855000008596,True,15
A032K23,547,experiment,72,↑,up,↑,0.886727899996913,True,15
A032K23,548,experiment,60,→,right,→,0.5891417999955593,True,15
A032K23,549,experiment,36,→,right,→,0.8200307000079192,True,15
A032K23,550,experiment,144,↓,down,↓,0.6046675999969011,True,15
A032K23,551,experiment,48,↑,up,↑,0.5114867999946,True,15
A032K23,552,experiment,24,↓,down,↓,0.6402230999956373,True,15
A032K23,553,experiment,168,←,left,←,0.673618400003761,True,15
A032K23,554,experiment,96,→,right,→,0.7601384999870788,True,15
A032K23,555,experiment,60,→,right,→,0.6256036999984644,True,15
A032K23,556,experiment,168,←,right,→,1.0781686000118498,False,15
A032K23,557,experiment,120,→,right,→,0.6194928000040818,True,15
A032K23,558,experiment,120,←,left,←,0.4346750999975484,True,15
A032K23,559,experiment,108,↓,up,↑,0.4795806000038283,False,15
A032K23,560,experiment,168,→,right,→,0.6961092999990797,True,15
A032K23,561,experiment,24,↑,up,↑,0.6596965000062482,True,15
A032K23,562,experiment,96,→,up,↑,0.858081400001538,False,15
A032K23,563,experiment,36,→,right,→,0.5586563999968348,True,15
A032K23,564,experiment,96,↑,up,↑,0.5989181000040844,True,15
A032K23,565,experiment,12,↓,down,↓,1.5228208000044106,True,15
A032K23,566,experiment,144,→,right,→,1.9083883999992395,True,15
A032K23,567,experiment,156,↑,up,↑,0.6214579000079539,True,15
A032K23,568,experiment,108,↑,up,↑,0.5334429000067757,True,15
A032K23,569,experiment,108,↑,left,←,0.9528704999975162,False,15
A032K23,570,experiment,108,↓,up,↑,0.6586190999951214,False,15
A032K23,571,experiment,60,↓,down,↓,0.8689575000025798,True,15
A032K23,572,experiment,72,↓,down,↓,0.5134870999900158,True,15
A032K23,573,experiment,132,→,right,→,1.175255099995411,True,15
A032K23,574,experiment,84,←,left,←,1.0776875000010477,True,15
A032K23,575,experiment,48,↓,down,↓,1.1071854000038002,True,15
A032K23,576,experiment,84,↓,down,↓,0.43368800000462215,True,15
A032K23,577,experiment,144,↑,left,←,0.9133307000010973,False,15
A032K23,578,experiment,12,→,left,←,0.9275328000076115,False,15
A032K23,579,experiment,72,↓,down,↓,0.782490500001586,True,15
A032K23,580,experiment,132,↑,up,↑,0.6319671000092058,True,15
A032K23,581,experiment,96,↑,up,↑,0.5087567000009585,True,15
A032K23,582,experiment,132,→,right,→,0.8100841999985278,True,15
A032K23,583,experiment,156,↑,up,↑,0.4197796000080416,True,15
A032K23,584,experiment,120,↑,right,→,1.0900594999984605,False,15
A032K23,585,experiment,180,→,left,←,1.366370799994911,False,15
A032K23,586,experiment,156,↓,up,↑,0.7850588000001153,False,15
A032K23,587,experiment,180,→,left,←,0.7701945000007981,False,15
A032K23,588,experiment,36,→,left,←,0.7085024000116391,False,15
A032K23,589,experiment,12,→,right,→,0.8340222999977414,True,15
A032K23,590,experiment,120,←,left,←,0.4444411000004038,True,15
A032K23,591,experiment,60,→,right,→,0.6565503000019817,True,15
A032K23,592,experiment,156,←,left,←,0.6948959999863291,True,15
A032K23,593,experiment,180,↓,down,↓,0.6997553999972297,True,15
A032K23,594,experiment,132,↓,down,↓,0.6110254999948665,True,15
A032K23,595,experiment,72,↑,left,←,0.5515840000007302,False,15
A032K23,596,experiment,144,↑,up,↑,0.750227199998335,True,15
A032K23,597,experiment,84,←,right,→,0.6511284000007436,False,15
A032K23,598,training,48,↓,down,↓,0.7133934999874327,True,15
A032K23,599,training,108,→,right,→,0.657554399993387,True,15
A032K23,600,training,156,↑,up,↑,0.5003290999884484,True,15
A032K23,601,experiment,48,↓,down,↓,0.8637495000002673,True,15
A032K23,602,experiment,168,↓,down,↓,0.4249792000046,True,15
A032K23,603,experiment,60,↑,up,↑,0.6006868999975268,True,15
A032K23,604,experiment,132,←,left,←,0.923060599991004,True,15
A032K23,605,experiment,48,↑,up,↑,0.8440084999892861,True,15
A032K23,606,experiment,96,←,down,↓,0.9357136999897193,False,15
A032K23,607,experiment,144,←,left,←,0.7535733999975491,True,15
A032K23,608,experiment,96,→,right,→,1.1576063000102295,True,15
A032K23,609,experiment,144,←,up,↑,0.9405201999907149,False,15
A032K23,610,experiment,96,→,right,→,0.4220467999984976,True,15
A032K23,611,experiment,72,↓,up,↑,0.6034263000037754,False,15
A032K23,612,experiment,12,↓,down,↓,0.9701208000042243,True,15
A032K23,613,experiment,84,↓,down,↓,0.4647100000001956,True,15
A032K23,614,experiment,120,←,down,↓,0.5894640000042273,False,15
A032K23,615,experiment,84,↓,down,↓,0.487359299993841,True,15
A032K23,616,experiment,156,↓,down,↓,0.6934827999939444,True,15
A032K23,617,experiment,120,↓,down,↓,0.7093391999951564,True,15
A032K23,618,experiment,180,↑,up,↑,0.6824492000014288,True,15
A032K23,619,experiment,132,→,down,↓,0.8800871999992523,False,15
A032K23,620,experiment,156,←,left,←,0.6522194999997737,True,15
A032K23,621,experiment,60,↓,up,↑,1.076287299991236,False,15
A032K23,622,experiment,24,←,left,←,0.6501898999995319,True,15
A032K23,623,experiment,72,←,left,←,0.4189918000047328,True,15
A032K23,624,experiment,156,↓,left,←,0.7972673000040231,False,15
A032K23,625,experiment,12,↑,up,↑,0.6622878999914974,True,15
A032K23,626,experiment,24,←,up,↑,1.0245295999920927,False,15
A032K23,627,experiment,120,↑,up,↑,0.5209479000041028,True,15
A032K23,628,experiment,12,→,left,←,1.510571400009212,False,15
A032K23,629,experiment,24,←,left,←,0.8258044999965932,True,15
A032K23,630,experiment,108,→,left,←,0.8196890999970492,False,15
A032K23,631,experiment,36,↓,right,→,1.26978479999525,False,15
A032K23,632,experiment,72,←,left,←,0.48983449999650475,True,15
A032K23,633,experiment,36,↑,up,↑,0.4944548999919789,True,15
A032K23,634,experiment,168,←,left,←,0.4577086999925086,True,15
A032K23,635,experiment,48,↑,up,↑,0.6576770999963628,True,15
A032K23,636,experiment,84,←,left,←,0.4367455999890808,True,15
A032K23,637,experiment,96,↑,up,↑,0.4732174999953713,True,15
A032K23,638,experiment,180,←,left,←,0.43667190000996925,True,15
A032K23,639,experiment,156,↑,up,↑,0.4943287999922177,True,15
A032K23,640,experiment,168,→,left,←,0.542975700009265,False,15
A032K23,641,experiment,12,←,left,←,0.8441937999887159,True,15
A032K23,642,experiment,120,↑,up,↑,0.6138973999914015,True,15
A032K23,643,experiment,108,↑,up,↑,0.5322215999913169,True,15
A032K23,644,experiment,144,→,right,→,0.8754033000004711,True,15
A032K23,645,experiment,48,↓,down,↓,0.6818886999972165,True,15
A032K23,646,experiment,132,→,left,←,0.7293680000002496,False,15
A032K23,647,experiment,180,←,left,←,0.6014023999887286,True,15
A032K23,648,experiment,180,←,left,←,0.6484600999974646,True,15
A032K23,649,experiment,24,↑,up,↑,0.8118362000095658,True,15
A032K23,650,experiment,84,↑,up,↑,0.5459734999894863,True,15
A032K23,651,experiment,168,↓,down,↓,0.7749723000015365,True,15
A032K23,652,experiment,108,←,left,←,0.36743169999681413,True,15
A032K23,653,experiment,60,→,left,←,1.024427199998172,False,15
A032K23,654,experiment,132,↓,down,↓,0.6044198000017786,True,15
A032K23,655,experiment,144,←,left,←,0.5314362999924924,True,15
A032K23,656,experiment,72,↓,down,↓,0.7320220999972662,True,15
A032K23,657,experiment,60,→,down,↓,1.0255352000094717,False,15
A032K23,658,experiment,36,↓,left,←,0.815240800002357,False,15
A032K23,659,experiment,36,→,left,←,0.8112484000012046,False,15
A032K23,660,experiment,108,↓,down,↓,0.6365577999968082,True,15
A032K23,661,training,180,→,left,←,1.1289391000027535,False,15
A032K23,662,training,168,←,left,←,0.6486740999971516,True,15
A032K23,663,training,132,→,right,→,0.5776067999977386,True,15
A032K23,664,experiment,120,↓,right,→,1.2238704999908805,False,15
A032K23,665,experiment,36,→,right,→,0.9617891999951098,True,15
A032K23,666,experiment,120,←,left,←,0.701981500009424,True,15
A032K23,667,experiment,36,↑,left,←,0.7201175000082003,False,15
A032K23,668,experiment,36,↓,down,↓,0.643164599998272,True,15
A032K23,669,experiment,156,↓,down,↓,0.9010385000001406,True,15
A032K23,670,experiment,84,←,left,←,0.5538014000048861,True,15
A032K23,671,experiment,120,↑,down,↓,0.9559537999884924,False,15
A032K23,672,experiment,72,↑,up,↑,0.7665083000028972,True,15
A032K23,673,experiment,84,→,left,←,0.4319258000032278,False,15
A032K23,674,experiment,168,↑,up,↑,0.5605938000080641,True,15
A032K23,675,experiment,108,↑,up,↑,0.60040840000147,True,15
A032K23,676,experiment,12,←,up,↑,0.7990704999974696,False,15
A032K23,677,experiment,60,←,right,→,0.5816864999942482,False,15
A032K23,678,experiment,156,←,left,←,1.370758899996872,True,15
A032K23,679,experiment,168,→,right,→,0.7530495999963023,True,15
A032K23,680,experiment,108,↑,up,↑,0.6856984000041848,True,15
A032K23,681,experiment,60,→,up,↑,0.8552425000088988,False,15
A032K23,682,experiment,84,↓,down,↓,0.8829373999906238,True,15
A032K23,683,experiment,24,←,left,←,0.49937649999628775,True,15
A032K23,684,experiment,72,↑,up,↑,0.9705705999949714,True,15
A032K23,685,experiment,156,←,left,←,0.524573100003181,True,15
A032K23,686,experiment,24,↓,down,↓,0.7295906000072137,True,15
A032K23,687,experiment,132,←,left,←,0.7191746000025887,True,15
A032K23,688,experiment,132,←,left,←,0.5382303999940632,True,15
A032K23,689,experiment,96,←,left,←,0.4822937999997521,True,15
A032K23,690,experiment,132,↓,left,←,0.481298800004879,False,15
A032K23,691,experiment,108,→,right,→,0.4492917000025045,True,15
A032K23,692,experiment,48,→,left,←,0.7952468999865232,False,15
A032K23,693,experiment,48,←,down,↓,0.676320400001714,False,15
A032K23,694,experiment,132,→,right,→,0.45851320000656415,True,15
A032K23,695,experiment,144,↓,down,↓,0.43007740000030026,True,15
A032K23,696,experiment,144,↑,right,→,1.09955820000323,False,15
A032K23,697,experiment,12,→,left,←,1.2044482000055723,False,15
A032K23,698,experiment,12,←,right,→,0.8990832999988925,False,15
A032K23,699,experiment,72,↓,right,→,0.9213962000067113,False,15
A032K23,700,experiment,96,←,left,←,0.6311281999951461,True,15
A032K23,701,experiment,24,→,right,→,0.6253581000055419,True,15
A032K23,702,experiment,72,←,left,←,0.6890388000028906,True,15
A032K23,703,experiment,144,→,right,→,0.6377082999970298,True,15
A032K23,704,experiment,60,←,left,←,0.6520052999985637,True,15
A032K23,705,experiment,96,↑,up,↑,0.8501452000054996,True,15
A032K23,706,experiment,168,↑,up,↑,0.5395980000030249,True,15
A032K23,707,experiment,180,↑,up,↑,0.442957799998112,True,15
A032K23,708,experiment,12,←,left,←,1.0873308000009274,True,15
A032K23,709,experiment,180,↓,down,↓,0.5884051000030013,True,15
A032K23,710,experiment,60,←,left,←,0.7264772000053199,True,15
A032K23,711,experiment,84,↑,up,↑,0.9111835999938194,True,15
A032K23,712,experiment,48,←,left,←,1.6485371999879135,True,15
A032K23,713,experiment,168,↓,down,↓,0.5156514999980573,True,15
A032K23,714,experiment,120,↓,up,↑,0.9417362000094727,False,15
A032K23,715,experiment,156,→,left,←,0.8714472999999998,False,15
A032K23,716,experiment,24,↑,no_key,no_letter,-1.0,False,15
A032K23,717,experiment,96,↓,down,↓,0.6142435999936424,True,15
A032K23,718,experiment,108,←,right,→,1.0379866000002949,False,15
A032K23,719,experiment,180,↓,down,↓,0.6305582000059076,True,15
A032K23,720,experiment,144,→,right,→,0.5242855999968015,True,15
A032K23,721,experiment,180,↑,right,→,0.7947436999966158,False,15
A032K23,722,experiment,36,→,right,→,0.9834454000083497,True,15
A032K23,723,experiment,48,←,left,←,0.9248395999893546,True,15
A032K23,724,training,12,↑,right,→,1.546089400013443,False,15
A032K23,725,training,144,←,left,←,0.47760749999724794,True,15
A032K23,726,training,180,↓,right,→,0.9661741000018083,False,15
A032K23,727,experiment,96,↓,right,→,0.8165834000101313,False,15
A032K23,728,experiment,24,→,right,→,0.5638556999911088,True,15
A032K23,729,experiment,108,↑,right,→,0.7036013000033563,False,15
A032K23,730,experiment,132,→,right,→,0.6590323999989778,True,15
A032K23,731,experiment,60,→,right,→,0.5763817999977618,True,15
A032K23,732,experiment,60,→,right,→,0.6963366999989375,True,15
A032K23,733,experiment,36,↓,down,↓,0.7132254000025569,True,15
A032K23,734,experiment,48,→,right,→,0.6277724000101443,True,15
A032K23,735,experiment,168,→,right,→,0.6042230000020936,True,15
A032K23,736,experiment,132,↑,up,↑,0.6670094000000972,True,15
A032K23,737,experiment,180,↓,left,←,0.8694273000000976,False,15
A032K23,738,experiment,132,↑,up,↑,0.6214310000068508,True,15
A032K23,739,experiment,48,→,right,→,0.7683022999990499,True,15
A032K23,740,experiment,72,←,right,→,0.8240724999923259,False,15
A032K23,741,experiment,12,→,right,→,0.5483752000000095,True,15
A032K23,742,experiment,84,←,left,←,0.3837572999909753,True,15
A032K23,743,experiment,108,←,right,→,0.9148380999977235,False,15
A032K23,744,experiment,12,↓,left,←,0.7028963999910047,False,15
A032K23,745,experiment,96,←,up,↑,0.5818089000094915,False,15
A032K23,746,experiment,156,→,right,→,0.6287348000041675,True,15
A032K23,747,experiment,168,←,right,→,0.42495030000281986,False,15
A032K23,748,experiment,24,→,right,→,0.5724003000068478,True,15
A032K23,749,experiment,180,↓,right,→,0.4277564999938477,False,15
A032K23,750,experiment,84,↓,up,↑,0.6795235000026878,False,15
A032K23,751,experiment,72,→,right,→,0.9871869000053266,True,15
A032K23,752,experiment,60,←,left,←,0.6273973999923328,True,15
A032K23,753,experiment,108,←,left,←,0.5778561999904923,True,15
A032K23,754,experiment,24,↑,up,↑,0.585032200004207,True,15
A032K23,755,experiment,36,↑,up,↑,1.3854722999967635,True,15
A032K23,756,experiment,132,←,left,←,0.5120386000053259,True,15
A032K23,757,experiment,168,←,left,←,0.5041237999976147,True,15
A032K23,758,experiment,48,→,right,→,0.6111522999999579,True,15
A032K23,759,experiment,156,↑,up,↑,0.4454175999999279,True,15
A032K23,760,experiment,120,↓,up,↑,0.6833793999976479,False,15
A032K23,761,experiment,12,→,left,←,0.7267929000081494,False,15
A032K23,762,experiment,36,→,right,→,0.6309433999995235,True,15
A032K23,763,experiment,156,↑,up,↑,0.5099336999992374,True,15
A032K23,764,experiment,144,↓,up,↑,0.6381308999989415,False,15
A032K23,765,experiment,156,↑,up,↑,0.6567662000015844,True,15
A032K23,766,experiment,24,↑,left,←,0.7639330000092741,False,15
A032K23,767,experiment,144,↓,down,↓,0.786756699992111,True,15
A032K23,768,experiment,60,↓,right,→,1.1394706000137376,False,15
A032K23,769,experiment,36,↑,right,→,1.075080499998876,False,15
A032K23,770,experiment,96,←,right,→,0.9437369999941438,False,15
A032K23,771,experiment,144,→,right,→,0.8658474999974715,True,15
A032K23,772,experiment,72,→,right,→,0.6069150999974227,True,15
A032K23,773,experiment,72,←,right,→,0.8210091999935685,False,15
A032K23,774,experiment,180,→,up,↑,0.5130392999999458,False,15
A032K23,775,experiment,120,←,right,→,0.9541390999947907,False,15
A032K23,776,experiment,120,↓,down,↓,0.7767636999924434,True,15
A032K23,777,experiment,96,↑,up,↑,1.388727799989283,True,15
A032K23,778,experiment,144,↓,down,↓,0.9495357999985572,True,15
A032K23,779,experiment,84,→,right,→,0.82694050000282,True,15
A032K23,780,experiment,168,↓,down,↓,0.8779078999941703,True,15
A032K23,781,experiment,120,↑,up,↑,0.6214220999972895,True,15
A032K23,782,experiment,48,←,left,←,0.7795555999909993,True,15
A032K23,783,experiment,84,→,left,←,1.105033399988315,False,15
A032K23,784,experiment,12,←,left,←,0.5742713000072399,True,15
A032K23,785,experiment,180,→,left,←,0.8135425999935251,False,15
A032K23,786,experiment,108,↓,down,↓,0.584606199990958,True,15
A032K23,787,training,24,↑,left,←,1.568401000011363,False,15
A032K23,788,training,156,←,left,←,0.5287511000060476,True,15
A032K23,789,training,96,→,left,←,0.7029334000108065,False,15
A032K23,790,experiment,84,↓,down,↓,0.6440303999988828,True,15
A032K23,791,experiment,36,←,left,←,0.8108253999962471,True,15
A032K23,792,experiment,72,→,left,←,0.8597921999898972,False,15
A032K23,793,experiment,96,→,right,→,0.556192900010501,True,15
A032K23,794,experiment,12,←,left,←,0.6747568999999203,True,15
A032K23,795,experiment,36,→,left,←,0.8909456999972463,False,15
A032K23,796,experiment,48,←,left,←,0.5705090999981621,True,15
A032K23,797,experiment,156,←,left,←,0.6505101000075229,True,15
A032K23,798,experiment,24,→,left,←,0.6785120999993524,False,15
A032K23,799,experiment,96,←,left,←,0.6045591000001878,True,15
A032K23,800,experiment,60,←,left,←,0.5197152000037022,True,15
A032K23,801,experiment,156,↑,up,↑,0.5579117000015685,True,15
A032K23,802,experiment,36,→,right,→,0.6388873999967473,True,15
A032K23,803,experiment,132,←,up,↑,0.5435369000042556,False,15
A032K23,804,experiment,108,↓,down,↓,0.6929257000010693,True,15
A032K23,805,experiment,180,→,right,→,0.6618536000023596,True,15
A032K23,806,experiment,120,↑,left,←,0.6476314000028651,False,15
A032K23,807,experiment,120,→,up,↑,0.7366610000026412,False,15
A032K23,808,experiment,144,↓,left,←,0.7310313999914797,False,15
A032K23,809,experiment,48,←,left,←,0.4528260000079172,True,15
A032K23,810,experiment,24,↓,down,↓,0.9090746000001673,True,15
A032K23,811,experiment,12,↓,down,↓,1.3684872000012547,True,15
A032K23,812,experiment,120,→,right,→,0.6804390000033891,True,15
A032K23,813,experiment,144,←,left,←,0.4681352000043262,True,15
A032K23,814,experiment,72,→,left,←,0.7984618000045884,False,15
A032K23,815,experiment,24,→,down,↓,1.8877619999984745,False,15
A032K23,816,experiment,132,↑,up,↑,1.8754516000044532,True,15
A032K23,817,experiment,180,→,right,→,0.6527072999888333,True,15
A032K23,818,experiment,12,↑,up,↑,0.8310592999914661,True,15
A032K23,819,experiment,24,↓,down,↓,1.0921420000086073,True,15
A032K23,820,experiment,156,↓,left,←,0.615629899999476,False,15
A032K23,821,experiment,36,←,left,←,1.0174990999948932,True,15
A032K23,822,experiment,108,↓,down,↓,0.8485751999978675,True,15
A032K23,823,experiment,60,↓,down,↓,0.6604464999982156,True,15
A032K23,824,experiment,144,→,down,↓,0.7697473000007449,False,15
A032K23,825,experiment,60,↓,down,↓,0.5622540999902412,True,15
A032K23,826,experiment,84,←,left,←,0.5460105000092881,True,15
A032K23,827,experiment,72,→,right,→,1.4675832999928389,True,15
A032K23,828,experiment,132,↑,up,↑,1.1195534999860683,True,15
A032K23,829,experiment,84,←,left,←,0.5045056999952067,True,15
A032K23,830,experiment,72,↑,up,↑,0.6090355000051204,True,15
A032K23,831,experiment,168,←,down,↓,0.8038759999908507,False,15
A032K23,832,experiment,96,↑,left,←,0.551337799988687,False,15
A032K23,833,experiment,60,←,down,↓,1.688325499999337,False,15
A032K23,834,experiment,180,↓,down,↓,0.7637179999874206,True,15
A032K23,835,experiment,132,↓,down,↓,0.5023464999976568,True,15
A032K23,836,experiment,48,↑,down,↓,0.9216995999886421,False,15
A032K23,837,experiment,168,←,left,←,0.9063431000104174,True,15
A032K23,838,experiment,168,→,left,←,0.5636293999996269,False,15
A032K23,839,experiment,144,↓,down,↓,0.5490902999881655,True,15
A032K23,840,experiment,120,←,left,←,0.6317775000061374,True,15
A032K23,841,experiment,108,←,left,←,0.6585908999986714,True,15
A032K23,842,experiment,96,→,right,→,0.8276705000025686,True,15
A032K23,843,experiment,156,↑,up,↑,0.8728846000012709,True,15
A032K23,844,experiment,12,↑,up,↑,1.688959099992644,True,15
A032K23,845,experiment,180,↑,up,↑,0.5416493999946397,True,15
A032K23,846,experiment,108,←,left,←,0.554226699998253,True,15
A032K23,847,experiment,48,←,left,←,0.657779400004074,True,15
A032K23,848,experiment,168,↑,right,→,0.8326498999958858,False,15
A032K23,849,experiment,84,→,right,→,0.6004608999937773,True,15
