PART_ID,Trial_no,Trial_type,PDI,Stim_letter,Key_pressed,letter_choose,Rt,Corr,Stimulus Time
X011K27,1,training,10,→,left,←,1.2425970998592675,False,30
X011K27,2,training,10,↓,right,→,1.1457254998385906,False,30
X011K27,3,training,10,↑,no_key,no_letter,-1.0,False,30
X011K27,4,training,10,←,left,←,1.2350071999244392,True,30
X011K27,5,training,10,→,right,→,0.9316591001115739,True,30
X011K27,6,training,10,←,left,←,0.9686937001533806,True,30
X011K27,7,training,10,→,right,→,0.822439800016582,True,30
X011K27,8,training,10,←,left,←,0.6892201001755893,True,30
X011K27,9,training,10,→,right,→,0.8111823000945151,True,30
X011K27,10,training,10,↓,down,↓,1.3125674999319017,True,30
X011K27,11,training,10,↑,up,↑,0.9691181001253426,True,30
X011K27,12,training,10,↑,up,↑,0.5340077998116612,True,30
X011K27,13,training,10,↓,down,↓,1.252642699982971,True,30
X011K27,14,training,10,↑,up,↑,0.4504891000688076,True,30
X011K27,15,training,10,↑,up,↑,0.82693379977718,True,30
X011K27,16,training,10,↑,up,↑,0.772146699950099,True,30
X011K27,17,training,10,↓,down,↓,1.3580186003819108,True,30
X011K27,18,training,10,↓,down,↓,0.8997295000590384,True,30
X011K27,19,training,10,←,left,←,0.8661668999120593,True,30
X011K27,20,training,10,↑,up,↑,0.7775946003384888,True,30
X011K27,21,training,10,→,right,→,0.8117428999394178,True,18
X011K27,22,training,10,↑,up,↑,0.7276337998919189,True,18
X011K27,23,training,10,↓,down,↓,0.6832149997353554,True,18
X011K27,24,training,10,↑,up,↑,0.7572565996088088,True,18
X011K27,25,training,10,←,left,←,0.7626299001276493,True,18
X011K27,26,training,10,↓,down,↓,0.9026179001666605,True,18
X011K27,27,training,10,→,right,→,0.5276240999810398,True,18
X011K27,28,training,10,→,right,→,0.575532800052315,True,18
X011K27,29,training,10,→,left,←,0.6597025999799371,False,18
X011K27,30,training,10,↑,up,↑,0.4338981998153031,True,18
X011K27,31,training,180,↑,up,↑,1.069908100180328,True,15
X011K27,32,training,72,←,left,←,0.6291346997022629,True,15
X011K27,33,training,132,←,left,←,0.6805225997231901,True,15
X011K27,34,experiment,36,↑,down,↓,0.954923199955374,False,15
X011K27,35,experiment,60,↓,down,↓,0.8323611998930573,True,15
X011K27,36,experiment,132,←,left,←,0.5845066998153925,True,15
X011K27,37,experiment,72,↑,up,↑,0.7004225999116898,True,15
X011K27,38,experiment,120,↑,up,↑,0.7373402998782694,True,15
X011K27,39,experiment,120,→,left,←,0.7103843004442751,False,15
X011K27,40,experiment,156,↑,up,↑,0.7203241996467113,True,15
X011K27,41,experiment,48,←,left,←,0.6478770999237895,True,15
X011K27,42,experiment,144,↑,up,↑,0.5714219999499619,True,15
X011K27,43,experiment,168,↑,up,↑,0.8603035002015531,True,15
X011K27,44,experiment,36,→,right,→,0.6745850997976959,True,15
X011K27,45,experiment,96,→,left,←,0.7063005003146827,False,15
X011K27,46,experiment,72,↑,up,↑,0.5044436999596655,True,15
X011K27,47,experiment,12,←,left,←,0.6256510000675917,True,15
X011K27,48,experiment,180,→,left,←,0.7410816997289658,False,15
X011K27,49,experiment,132,←,up,↑,1.2051857002079487,False,15
X011K27,50,experiment,48,→,left,←,0.7652305997908115,False,15
X011K27,51,experiment,144,←,left,←,0.7127672997303307,True,15
X011K27,52,experiment,24,↓,down,↓,1.0025848001241684,True,15
X011K27,53,experiment,144,↑,left,←,0.8209805996157229,False,15
X011K27,54,experiment,132,↓,down,↓,0.9490441000089049,True,15
X011K27,55,experiment,156,↑,down,↓,0.8565716999582946,False,15
X011K27,56,experiment,168,↑,down,↓,0.7342818998731673,False,15
X011K27,57,experiment,144,←,left,←,0.5801234999671578,True,15
X011K27,58,experiment,84,↑,up,↑,0.7727173999883235,True,15
X011K27,59,experiment,36,←,left,←,0.6428017998114228,True,15
X011K27,60,experiment,108,←,left,←,0.6467146999202669,True,15
X011K27,61,experiment,96,→,left,←,0.645144899841398,False,15
X011K27,62,experiment,72,←,left,←,0.6516018002294004,True,15
X011K27,63,experiment,60,↓,left,←,0.7260404997505248,False,15
X011K27,64,experiment,24,→,right,→,0.7296166997402906,True,15
X011K27,65,experiment,84,↑,up,↑,0.769499700050801,True,15
X011K27,66,experiment,120,→,right,→,0.5015467996709049,True,15
X011K27,67,experiment,12,↓,up,↑,0.6690066000446677,False,15
X011K27,68,experiment,36,↑,up,↑,0.6974996002390981,True,15
X011K27,69,experiment,120,↑,up,↑,0.7284042998217046,True,15
X011K27,70,experiment,12,↑,up,↑,0.4905976001173258,True,15
X011K27,71,experiment,132,←,right,→,0.6873391000553966,False,15
X011K27,72,experiment,72,↑,up,↑,0.488060399889946,True,15
X011K27,73,experiment,60,→,right,→,0.5496016000397503,True,15
X011K27,74,experiment,96,↓,down,↓,0.8773226998746395,True,15
X011K27,75,experiment,84,→,right,→,0.534710600040853,True,15
X011K27,76,experiment,108,←,right,→,0.6047375998459756,False,15
X011K27,77,experiment,156,←,right,→,0.3004902000539005,False,15
X011K27,78,experiment,12,→,right,→,0.7350897998549044,True,15
X011K27,79,experiment,180,↓,right,→,0.545834899879992,False,15
X011K27,80,experiment,84,↓,down,↓,0.7903555002994835,True,15
X011K27,81,experiment,180,→,right,→,0.5716587002389133,True,15
X011K27,82,experiment,108,↑,down,↓,0.9948048000223935,False,15
X011K27,83,experiment,168,↑,up,↑,0.541604199912399,True,15
X011K27,84,experiment,156,↓,down,↓,0.8310238998383284,True,15
X011K27,85,experiment,96,←,left,←,0.6103679998777807,True,15
X011K27,86,experiment,24,←,right,→,0.8411735999397933,False,15
X011K27,87,experiment,180,→,up,↑,0.8469943003728986,False,15
X011K27,88,experiment,60,←,left,←,0.7269707000814378,True,15
X011K27,89,experiment,108,←,down,↓,1.1769431997090578,False,15
X011K27,90,experiment,24,↑,up,↑,0.7074477998539805,True,15
X011K27,91,experiment,48,←,left,←,0.606914000120014,True,15
X011K27,92,experiment,48,→,right,→,0.522479800041765,True,15
X011K27,93,experiment,168,→,left,←,0.6105263000354171,False,15
X011K27,94,training,132,↑,up,↑,0.7239830000326037,True,15
X011K27,95,training,48,→,left,←,0.6524691004306078,False,15
X011K27,96,training,108,↑,up,↑,0.6084993002004921,True,15
X011K27,97,experiment,108,←,left,←,0.6447608000598848,True,15
X011K27,98,experiment,36,→,left,←,0.5906743998639286,False,15
X011K27,99,experiment,36,→,left,←,0.6486527998931706,False,15
X011K27,100,experiment,180,→,right,→,0.5708681000396609,True,15
X011K27,101,experiment,120,→,right,→,0.5114208003506064,True,15
X011K27,102,experiment,36,↑,up,↑,0.5287890997715294,True,15
X011K27,103,experiment,108,←,right,→,0.6212976998649538,False,15
X011K27,104,experiment,96,←,left,←,0.7396088996902108,True,15
X011K27,105,experiment,180,←,left,←,0.5359769999049604,True,15
X011K27,106,experiment,132,↓,down,↓,1.1034686001949012,True,15
X011K27,107,experiment,12,↓,down,↓,1.1189562999643385,True,15
X011K27,108,experiment,72,↓,up,↑,0.6922428999096155,False,15
X011K27,109,experiment,156,↓,down,↓,0.9081239998340607,True,15
X011K27,110,experiment,12,←,down,↓,0.819769499823451,False,15
X011K27,111,experiment,24,↓,down,↓,0.5833394001238048,True,15
X011K27,112,experiment,120,→,right,→,0.47053820034489036,True,15
X011K27,113,experiment,132,←,right,→,0.7109872000291944,False,15
X011K27,114,experiment,24,←,down,↓,0.8712598998099566,False,15
X011K27,115,experiment,168,↑,down,↓,0.9097527996636927,False,15
X011K27,116,experiment,156,↓,down,↓,0.8584847003221512,True,15
X011K27,117,experiment,120,←,left,←,0.4872094998136163,True,15
X011K27,118,experiment,60,↑,right,→,0.674872100353241,False,15
X011K27,119,experiment,48,←,left,←,0.6817337004467845,True,15
X011K27,120,experiment,24,↓,right,→,0.7620971999131143,False,15
X011K27,121,experiment,156,↓,down,↓,0.7199059999547899,True,15
X011K27,122,experiment,108,↓,down,↓,0.8113365997560322,True,15
X011K27,123,experiment,84,→,right,→,0.4759988998994231,True,15
X011K27,124,experiment,144,→,right,→,0.5472050998359919,True,15
X011K27,125,experiment,84,←,left,←,0.6280073998495936,True,15
X011K27,126,experiment,180,←,right,→,0.905502799898386,False,15
X011K27,127,experiment,144,←,left,←,0.5292236004024744,True,15
X011K27,128,experiment,60,←,left,←,0.8159215999767184,True,15
X011K27,129,experiment,96,←,right,→,0.5522806998342276,False,15
X011K27,130,experiment,72,↓,down,↓,0.7262816997244954,True,15
X011K27,131,experiment,144,↓,down,↓,0.6990706999786198,True,15
X011K27,132,experiment,48,↓,left,←,0.8888031002134085,False,15
X011K27,133,experiment,84,↑,down,↓,0.9143097000196576,False,15
X011K27,134,experiment,60,←,left,←,0.46785680018365383,True,15
X011K27,135,experiment,132,↑,up,↑,0.5026023001410067,True,15
X011K27,136,experiment,132,←,left,←,0.6516065001487732,True,15
X011K27,137,experiment,156,→,right,→,0.6506142998114228,True,15
X011K27,138,experiment,168,→,left,←,0.8196219000965357,False,15
X011K27,139,experiment,168,→,left,←,0.7254046997986734,False,15
X011K27,140,experiment,12,↑,no_key,no_letter,-1.0,False,15
X011K27,141,experiment,108,↑,left,←,0.8066402999684215,False,15
X011K27,142,experiment,168,↑,right,→,0.6050936998799443,False,15
X011K27,143,experiment,24,↓,down,↓,0.855069600045681,True,15
X011K27,144,experiment,84,←,left,←,0.6084423996508121,True,15
X011K27,145,experiment,36,→,left,←,0.8575567002408206,False,15
X011K27,146,experiment,96,←,left,←,0.7160881003364921,True,15
X011K27,147,experiment,60,←,left,←,0.6994175999425352,True,15
X011K27,148,experiment,96,←,left,←,0.6659305999055505,True,15
X011K27,149,experiment,72,←,left,←,0.6270477999933064,True,15
X011K27,150,experiment,120,←,right,→,0.5980505999177694,False,15
X011K27,151,experiment,144,→,left,←,0.669627099763602,False,15
X011K27,152,experiment,48,←,left,←,0.4799739997833967,True,15
X011K27,153,experiment,48,↓,left,←,0.8327039000578225,False,15
X011K27,154,experiment,180,←,left,←,0.551347500178963,True,15
X011K27,155,experiment,72,↑,up,↑,0.8688238002359867,True,15
X011K27,156,experiment,12,↑,up,↑,0.5390481003560126,True,15
X011K27,157,training,108,↑,up,↑,0.7397588002495468,True,15
X011K27,158,training,72,→,right,→,0.6428600996732712,True,15
X011K27,159,training,144,←,left,←,0.4846077999100089,True,15
X011K27,160,experiment,84,↑,up,↑,0.5422999002039433,True,15
X011K27,161,experiment,12,↓,down,↓,0.9843981000594795,True,15
X011K27,162,experiment,144,↑,up,↑,0.42188420007005334,True,15
X011K27,163,experiment,168,←,left,←,0.7810793998651206,True,15
X011K27,164,experiment,36,←,left,←,0.5014418000355363,True,15
X011K27,165,experiment,84,↑,up,↑,0.707676200196147,True,15
X011K27,166,experiment,24,→,left,←,0.9027318996377289,False,15
X011K27,167,experiment,96,↑,up,↑,0.6196771999821067,True,15
X011K27,168,experiment,72,↑,down,↓,0.9840429998002946,False,15
X011K27,169,experiment,96,→,right,→,0.509732199832797,True,15
X011K27,170,experiment,96,←,left,←,0.6320234001614153,True,15
X011K27,171,experiment,180,→,left,←,0.6794703998602927,False,15
X011K27,172,experiment,72,←,left,←,0.7279694997705519,True,15
X011K27,173,experiment,132,→,left,←,0.5345386997796595,False,15
X011K27,174,experiment,180,↑,up,↑,0.6143268998712301,True,15
X011K27,175,experiment,144,↑,up,↑,0.6631534001789987,True,15
X011K27,176,experiment,144,↑,up,↑,0.5648762001655996,True,15
X011K27,177,experiment,48,→,up,↑,0.6217869003303349,False,15
X011K27,178,experiment,36,←,left,←,0.6601513000205159,True,15
X011K27,179,experiment,180,↓,up,↑,0.6690381998196244,False,15
X011K27,180,experiment,24,←,left,←,0.51576909981668,True,15
X011K27,181,experiment,24,↑,up,↑,0.7023857003077865,True,15
X011K27,182,experiment,180,→,left,←,0.9100271002389491,False,15
X011K27,183,experiment,84,↓,down,↓,0.5140144997276366,True,15
X011K27,184,experiment,132,↑,up,↑,0.5709831002168357,True,15
X011K27,185,experiment,60,↓,down,↓,0.6101898001506925,True,15
X011K27,186,experiment,12,↑,up,↑,0.5089529999531806,True,15
X011K27,187,experiment,24,→,right,→,0.7483447999693453,True,15
X011K27,188,experiment,72,→,right,→,0.6311556999571621,True,15
X011K27,189,experiment,60,←,right,→,0.7929957001470029,False,15
X011K27,190,experiment,48,←,left,←,0.5412641996517777,True,15
X011K27,191,experiment,156,←,right,→,0.6269983001984656,False,15
X011K27,192,experiment,36,↓,down,↓,0.7004359001293778,True,15
X011K27,193,experiment,156,←,left,←,0.6778797996230423,True,15
X011K27,194,experiment,96,↑,up,↑,0.6429511001333594,True,15
X011K27,195,experiment,144,←,right,→,0.6643829997628927,False,15
X011K27,196,experiment,60,←,left,←,0.5935851996764541,True,15
X011K27,197,experiment,72,←,left,←,0.6216556001454592,True,15
X011K27,198,experiment,120,↑,down,↓,0.6800325000658631,False,15
X011K27,199,experiment,60,↑,right,→,0.6434925002977252,False,15
X011K27,200,experiment,108,→,right,→,0.5725568998605013,True,15
X011K27,201,experiment,84,←,left,←,0.5661055003292859,True,15
X011K27,202,experiment,120,←,left,←,0.4924364001490176,True,15
X011K27,203,experiment,120,↑,up,↑,0.5461820000782609,True,15
X011K27,204,experiment,108,←,left,←,0.6357161998748779,True,15
X011K27,205,experiment,48,→,right,→,0.50355330016464,True,15
X011K27,206,experiment,156,↓,right,→,0.8330585998483002,False,15
X011K27,207,experiment,132,←,left,←,0.6642057001590729,True,15
X011K27,208,experiment,48,←,left,←,0.8428739001974463,True,15
X011K27,209,experiment,156,←,left,←,0.6859106002375484,True,15
X011K27,210,experiment,168,→,right,→,0.7130448999814689,True,15
X011K27,211,experiment,12,→,left,←,0.6776152001693845,False,15
X011K27,212,experiment,108,→,right,→,0.5035254000686109,True,15
X011K27,213,experiment,108,→,left,←,0.5316369999200106,False,15
X011K27,214,experiment,168,↑,up,↑,0.4912441000342369,True,15
X011K27,215,experiment,36,↓,down,↓,0.5098045999184251,True,15
X011K27,216,experiment,132,↓,up,↑,0.47280999971553683,False,15
X011K27,217,experiment,12,↓,down,↓,1.1229968997649848,True,15
X011K27,218,experiment,120,↓,down,↓,0.6247956003062427,True,15
X011K27,219,experiment,168,→,right,→,0.5734600001014769,True,15
X011K27,220,training,156,←,right,→,0.6928944000974298,False,15
X011K27,221,training,24,←,left,←,1.1335132997483015,True,15
X011K27,222,training,144,↑,left,←,0.6913582002744079,False,15
X011K27,223,experiment,168,→,right,→,0.4810815998353064,True,15
X011K27,224,experiment,108,→,left,←,0.6020567999221385,False,15
X011K27,225,experiment,12,↓,left,←,0.8188066999427974,False,15
X011K27,226,experiment,72,←,left,←,0.5131331002339721,True,15
X011K27,227,experiment,132,←,left,←,0.46056999964639544,True,15
X011K27,228,experiment,60,→,right,→,0.6512058000080287,True,15
X011K27,229,experiment,84,↑,left,←,0.6581495995633304,False,15
X011K27,230,experiment,72,↓,right,→,0.7249616999179125,False,15
X011K27,231,experiment,12,↑,left,←,0.9353417996317148,False,15
X011K27,232,experiment,60,↓,down,↓,1.2553592002950609,True,15
X011K27,233,experiment,120,↑,down,↓,0.6433268999680877,False,15
X011K27,234,experiment,156,←,left,←,0.5110969999805093,True,15
X011K27,235,experiment,156,→,left,←,0.6382905002683401,False,15
X011K27,236,experiment,24,←,left,←,0.5850661997683346,True,15
X011K27,237,experiment,24,↓,left,←,0.6491511999629438,False,15
X011K27,238,experiment,84,→,right,→,0.6761121000163257,True,15
X011K27,239,experiment,24,→,right,→,0.5284631997346878,True,15
X011K27,240,experiment,72,↓,down,↓,0.5053563001565635,True,15
X011K27,241,experiment,12,↓,down,↓,0.3838108000345528,True,15
X011K27,242,experiment,108,↓,right,→,0.5418791002593935,False,15
X011K27,243,experiment,48,←,left,←,0.554595600347966,True,15
X011K27,244,experiment,168,↓,down,↓,0.46473139990121126,True,15
X011K27,245,experiment,96,→,right,→,0.5563795999623835,True,15
X011K27,246,experiment,168,↓,down,↓,0.5081957997754216,True,15
X011K27,247,experiment,60,↑,up,↑,0.5425649001263082,True,15
X011K27,248,experiment,36,↑,up,↑,0.4363122000358999,True,15
X011K27,249,experiment,144,←,left,←,0.5486039998941123,True,15
X011K27,250,experiment,60,↓,down,↓,0.47362190019339323,True,15
X011K27,251,experiment,36,↓,down,↓,0.9171060998924077,True,15
X011K27,252,experiment,156,↓,down,↓,0.49549899995326996,True,15
X011K27,253,experiment,24,↑,down,↓,0.9376167999580503,False,15
X011K27,254,experiment,168,→,left,←,0.591469599865377,False,15
X011K27,255,experiment,120,→,down,↓,0.6435025003738701,False,15
X011K27,256,experiment,144,→,right,→,0.6442877002991736,True,15
X011K27,257,experiment,180,←,left,←,0.5671270000748336,True,15
X011K27,258,experiment,120,↑,down,↓,0.6103942999616265,False,15
X011K27,259,experiment,48,↑,left,←,0.6190448999404907,False,15
X011K27,260,experiment,84,→,left,←,0.6069024996832013,False,15
X011K27,261,experiment,144,→,right,→,0.6138402000069618,True,15
X011K27,262,experiment,132,→,right,→,0.48522230004891753,True,15
X011K27,263,experiment,156,←,left,←,0.6532813999801874,True,15
X011K27,264,experiment,48,→,left,←,0.6276680999435484,False,15
X011K27,265,experiment,144,←,left,←,0.5738148000091314,True,15
X011K27,266,experiment,96,→,left,←,0.8319904003292322,False,15
X011K27,267,experiment,12,↑,up,↑,0.5703531000763178,True,15
X011K27,268,experiment,180,→,right,→,0.5427406001836061,True,15
X011K27,269,experiment,84,↓,down,↓,1.0540352002717555,True,15
X011K27,270,experiment,96,↓,up,↑,0.6745184999890625,False,15
X011K27,271,experiment,108,↓,down,↓,0.9130413001403213,True,15
X011K27,272,experiment,180,↓,up,↑,0.6399257997982204,False,15
X011K27,273,experiment,132,↓,down,↓,0.5374115998856723,True,15
X011K27,274,experiment,96,←,left,←,0.6155281001701951,True,15
X011K27,275,experiment,132,←,left,←,0.5164733999408782,True,15
X011K27,276,experiment,180,↑,up,↑,0.7104909000918269,True,15
X011K27,277,experiment,48,↑,up,↑,0.6246613999828696,True,15
X011K27,278,experiment,36,←,left,←,0.7123787999153137,True,15
X011K27,279,experiment,108,↑,up,↑,0.5792302000336349,True,15
X011K27,280,experiment,120,↑,left,←,0.70257080020383,False,15
X011K27,281,experiment,36,←,left,←,0.49734480027109385,True,15
X011K27,282,experiment,72,→,left,←,0.5937016000971198,False,15
X011K27,283,training,180,↑,up,↑,0.776898399926722,True,15
X011K27,284,training,48,←,left,←,0.6850228998810053,True,15
X011K27,285,training,84,↓,down,↓,0.8750739996321499,True,15
X011K27,286,experiment,48,↓,down,↓,0.8222093000076711,True,15
X011K27,287,experiment,108,↑,down,↓,0.6965355002321303,False,15
X011K27,288,experiment,12,↓,down,↓,0.7187292003072798,True,15
X011K27,289,experiment,120,→,left,←,0.5821126997470856,False,15
X011K27,290,experiment,60,→,left,←,0.5518769999034703,False,15
X011K27,291,experiment,132,↑,left,←,0.5568717997521162,False,15
X011K27,292,experiment,144,↓,down,↓,0.6287138001061976,True,15
X011K27,293,experiment,108,↑,up,↑,0.5640149000100791,True,15
X011K27,294,experiment,144,↓,down,↓,0.7927625998854637,True,15
X011K27,295,experiment,180,→,left,←,0.7249761000275612,False,15
X011K27,296,experiment,168,←,left,←,0.49861119966953993,True,15
X011K27,297,experiment,156,↑,up,↑,0.5096959001384676,True,15
X011K27,298,experiment,12,↓,down,↓,0.7145626996643841,True,15
X011K27,299,experiment,12,→,left,←,0.8474278002977371,False,15
X011K27,300,experiment,96,←,left,←,0.612945499829948,True,15
X011K27,301,experiment,24,↑,up,↑,0.6407058001495898,True,15
X011K27,302,experiment,72,→,left,←,0.564656799659133,False,15
X011K27,303,experiment,180,↑,up,↑,0.4755040002055466,True,15
X011K27,304,experiment,144,↑,left,←,0.6272351001389325,False,15
X011K27,305,experiment,120,←,left,←,0.7669262001290917,True,15
X011K27,306,experiment,132,↓,up,↑,0.8171080001629889,False,15
X011K27,307,experiment,96,↑,up,↑,0.6229305001907051,True,15
X011K27,308,experiment,132,←,left,←,0.6422001998871565,True,15
X011K27,309,experiment,120,→,right,→,0.8704709997400641,True,15
X011K27,310,experiment,36,←,right,→,0.9580132998526096,False,15
X011K27,311,experiment,72,↓,left,←,0.6691984999924898,False,15
X011K27,312,experiment,180,→,left,←,0.6523405001498759,False,15
X011K27,313,experiment,36,←,left,←,0.6183988000266254,True,15
X011K27,314,experiment,36,↓,left,←,0.638251299969852,False,15
X011K27,315,experiment,168,↑,up,↑,0.8133379998616874,True,15
X011K27,316,experiment,72,↓,up,↑,0.7605978003703058,False,15
X011K27,317,experiment,72,→,right,→,0.5250770999118686,True,15
X011K27,318,experiment,96,↑,up,↑,0.5209818999283016,True,15
X011K27,319,experiment,24,↑,up,↑,0.5083626001141965,True,15
X011K27,320,experiment,60,↓,up,↑,0.7442339002154768,False,15
X011K27,321,experiment,12,→,up,↑,0.932772200088948,False,15
X011K27,322,experiment,24,←,left,←,1.147860299795866,True,15
X011K27,323,experiment,48,↓,down,↓,0.8266143999062479,True,15
X011K27,324,experiment,156,↓,down,↓,0.9212945997714996,True,15
X011K27,325,experiment,84,←,left,←,0.5249652001075447,True,15
X011K27,326,experiment,180,↓,down,↓,0.6794540002010763,True,15
X011K27,327,experiment,96,↑,down,↓,1.0362434997223318,False,15
X011K27,328,experiment,120,←,left,←,0.618403899949044,True,15
X011K27,329,experiment,144,←,left,←,1.2156174001283944,True,15
X011K27,330,experiment,48,↓,down,↓,0.9949974003247917,True,15
X011K27,331,experiment,168,↑,down,↓,0.7817095001228154,False,15
X011K27,332,experiment,156,↑,up,↑,0.4726358996704221,True,15
X011K27,333,experiment,36,←,down,↓,0.8359932000748813,False,15
X011K27,334,experiment,168,←,left,←,0.47373600024729967,True,15
X011K27,335,experiment,108,←,left,←,0.5767421000637114,True,15
X011K27,336,experiment,84,↓,down,↓,0.689890599809587,True,15
X011K27,337,experiment,108,→,down,↓,0.7621381999924779,False,15
X011K27,338,experiment,156,→,down,↓,0.7575580002740026,False,15
X011K27,339,experiment,84,↑,up,↑,0.5691903000697494,True,15
X011K27,340,experiment,48,→,left,←,0.5577346999198198,False,15
X011K27,341,experiment,132,↓,down,↓,0.7871058001182973,True,15
X011K27,342,experiment,84,↑,up,↑,0.42758219968527555,True,15
X011K27,343,experiment,60,↓,down,↓,0.9110932000912726,True,15
X011K27,344,experiment,60,←,left,←,0.5487434999085963,True,15
X011K27,345,experiment,24,↑,left,←,0.553229599725455,False,15
X011K27,346,training,36,→,right,→,0.48783510038629174,True,15
X011K27,347,training,96,↑,down,↓,0.8398555000312626,False,15
X011K27,348,training,60,↓,down,↓,0.6387114999815822,True,15
X011K27,349,experiment,84,→,left,←,0.7812279998324811,False,15
X011K27,350,experiment,60,→,right,→,0.6598201999440789,True,15
X011K27,351,experiment,12,↑,left,←,0.8239498999901116,False,15
X011K27,352,experiment,120,↑,up,↑,0.487780200317502,True,15
X011K27,353,experiment,132,←,left,←,0.5907968999817967,True,15
X011K27,354,experiment,144,←,left,←,0.5037003001198173,True,15
X011K27,355,experiment,132,↑,right,→,0.7489458001218736,False,15
X011K27,356,experiment,168,→,left,←,0.48450620006769896,False,15
X011K27,357,experiment,36,↑,down,↓,1.558093599975109,False,15
X011K27,358,experiment,48,↑,up,↑,1.5523163001053035,True,15
X011K27,359,experiment,60,↓,down,↓,0.8239784999750555,True,15
X011K27,360,experiment,108,→,right,→,0.5284408000297844,True,15
X011K27,361,experiment,120,←,left,←,0.48110709991306067,True,15
X011K27,362,experiment,108,→,right,→,0.4877152000553906,True,15
X011K27,363,experiment,156,↑,up,↑,0.5920067001134157,True,15
X011K27,364,experiment,132,→,down,↓,1.5730647002346814,False,15
X011K27,365,experiment,144,→,right,→,0.4900265000760555,True,15
X011K27,366,experiment,132,→,right,→,0.4606964001432061,True,15
X011K27,367,experiment,60,↑,up,↑,0.659759699832648,True,15
X011K27,368,experiment,144,←,left,←,0.5808602999895811,True,15
X011K27,369,experiment,24,→,left,←,0.5154265002347529,False,15
X011K27,370,experiment,84,→,right,→,0.6651894999668002,True,15
X011K27,371,experiment,12,↑,up,↑,0.802877000067383,True,15
X011K27,372,experiment,84,→,left,←,0.5803567003458738,False,15
X011K27,373,experiment,72,↑,up,↑,0.5299510997720063,True,15
X011K27,374,experiment,108,↑,up,↑,0.696991799864918,True,15
X011K27,375,experiment,156,←,left,←,0.5457928003743291,True,15
X011K27,376,experiment,96,↓,up,↑,0.6895455000922084,False,15
X011K27,377,experiment,96,←,left,←,0.5228583998978138,True,15
X011K27,378,experiment,12,←,no_key,no_letter,-1.0,False,15
X011K27,379,experiment,12,↑,left,←,1.2308975998312235,False,15
X011K27,380,experiment,96,↑,up,↑,0.7272009002044797,True,15
X011K27,381,experiment,96,→,right,→,0.6877235998399556,True,15
X011K27,382,experiment,24,↑,up,↑,0.5599672999233007,True,15
X011K27,383,experiment,72,←,left,←,0.5693449000827968,True,15
X011K27,384,experiment,168,↑,up,↑,0.5930305002257228,True,15
X011K27,385,experiment,36,↓,up,↑,0.6249645999632776,False,15
X011K27,386,experiment,156,←,left,←,0.5708278999663889,True,15
X011K27,387,experiment,84,↓,up,↑,0.6169952000491321,False,15
X011K27,388,experiment,24,←,left,←,0.5756441000849009,True,15
X011K27,389,experiment,36,↓,left,←,0.5691582001745701,False,15
X011K27,390,experiment,48,→,right,→,0.7052067997865379,True,15
X011K27,391,experiment,168,→,right,→,0.5550478002987802,True,15
X011K27,392,experiment,144,←,left,←,0.5615534000098705,True,15
X011K27,393,experiment,24,←,left,←,0.5038581001572311,True,15
X011K27,394,experiment,180,→,right,→,0.589444600045681,True,15
X011K27,395,experiment,72,→,right,→,0.4530046000145376,True,15
X011K27,396,experiment,180,↓,down,↓,0.7403960996307433,True,15
X011K27,397,experiment,48,→,right,→,0.49901589984074235,True,15
X011K27,398,experiment,180,↓,down,↓,0.6600465998053551,True,15
X011K27,399,experiment,180,←,left,←,0.4707750999368727,True,15
X011K27,400,experiment,72,←,left,←,0.46449710009619594,True,15
X011K27,401,experiment,36,↓,down,↓,0.89376650005579,True,15
X011K27,402,experiment,168,↓,down,↓,0.5253778002224863,True,15
X011K27,403,experiment,120,↓,down,↓,0.6745996000245214,True,15
X011K27,404,experiment,48,↓,right,→,0.6468680999241769,False,15
X011K27,405,experiment,156,→,right,→,0.5891717998310924,True,15
X011K27,406,experiment,108,←,left,←,0.5433652000501752,True,15
X011K27,407,experiment,60,→,right,→,0.5050892997533083,True,15
X011K27,408,experiment,120,↑,down,↓,0.896938799880445,False,15
X011K27,409,training,12,→,left,←,0.6356265000067651,False,15
X011K27,410,training,168,→,down,↓,0.9368994003161788,False,15
X011K27,411,training,180,↓,down,↓,0.6212607999332249,True,15
X011K27,412,experiment,60,←,left,←,0.42726909974589944,True,15
X011K27,413,experiment,132,→,right,→,0.4173832996748388,True,15
X011K27,414,experiment,12,↑,up,↑,0.47628509998321533,True,15
X011K27,415,experiment,24,→,right,→,0.6747074997983873,True,15
X011K27,416,experiment,120,↑,up,↑,0.38369789998978376,True,15
X011K27,417,experiment,120,→,right,→,0.5273872003890574,True,15
X011K27,418,experiment,180,↓,down,↓,0.46832049963995814,True,15
X011K27,419,experiment,84,→,right,→,0.5640893001109362,True,15
X011K27,420,experiment,96,↑,up,↑,0.8898789999075234,True,15
X011K27,421,experiment,180,→,right,→,0.5384399998001754,True,15
X011K27,422,experiment,108,→,right,→,0.46055829990655184,True,15
X011K27,423,experiment,144,←,left,←,0.649390900041908,True,15
X011K27,424,experiment,48,←,left,←,0.600608800072223,True,15
X011K27,425,experiment,144,↓,up,↑,0.6422123000957072,False,15
X011K27,426,experiment,144,←,right,→,0.49418050004169345,False,15
X011K27,427,experiment,72,↑,up,↑,0.5255375998094678,True,15
X011K27,428,experiment,108,↓,down,↓,0.44386469991877675,True,15
X011K27,429,experiment,132,↓,up,↑,0.6537795001640916,False,15
X011K27,430,experiment,12,↓,down,↓,0.7141077001579106,True,15
X011K27,431,experiment,48,→,right,→,0.6657589999958873,True,15
X011K27,432,experiment,144,↓,up,↑,0.8838021997362375,False,15
X011K27,433,experiment,108,→,right,→,0.542563599999994,True,15
X011K27,434,experiment,36,↑,up,↑,0.6526184002868831,True,15
X011K27,435,experiment,36,←,left,←,0.5289563001133502,True,15
X011K27,436,experiment,72,↓,left,←,0.7385796997696161,False,15
X011K27,437,experiment,156,↓,down,↓,0.5433856998570263,True,15
X011K27,438,experiment,168,↓,down,↓,0.8216109997592866,True,15
X011K27,439,experiment,168,→,right,→,0.5617760000750422,True,15
X011K27,440,experiment,156,←,right,→,0.6693219002336264,False,15
X011K27,441,experiment,48,←,left,←,0.6319619999267161,True,15
X011K27,442,experiment,24,→,right,→,0.6146606002002954,True,15
X011K27,443,experiment,60,→,left,←,0.6497990000061691,False,15
X011K27,444,experiment,120,→,right,→,0.7077536000870168,True,15
X011K27,445,experiment,24,↓,left,←,0.8996481001377106,False,15
X011K27,446,experiment,48,↑,up,↑,0.5764541001990438,True,15
X011K27,447,experiment,96,→,down,↓,0.6562466002069414,False,15
X011K27,448,experiment,12,→,right,→,0.6736065996810794,True,15
X011K27,449,experiment,84,↑,up,↑,1.1070931004360318,True,15
X011K27,450,experiment,108,→,right,→,0.6007686001248658,True,15
X011K27,451,experiment,36,↓,right,→,0.7197428001090884,False,15
X011K27,452,experiment,12,↑,up,↑,0.5365968998521566,True,15
X011K27,453,experiment,180,↑,up,↑,0.5478161000646651,True,15
X011K27,454,experiment,168,→,right,→,0.6513098003342748,True,15
X011K27,455,experiment,168,←,left,←,0.6057417998090386,True,15
X011K27,456,experiment,96,↓,up,↑,0.8450478999875486,False,15
X011K27,457,experiment,84,↑,up,↑,0.6197159998118877,True,15
X011K27,458,experiment,132,→,right,→,0.7014150000177324,True,15
X011K27,459,experiment,96,←,left,←,0.7090936000458896,True,15
X011K27,460,experiment,84,↓,right,→,0.6812137998640537,False,15
X011K27,461,experiment,24,→,right,→,0.4836866999976337,True,15
X011K27,462,experiment,60,↑,up,↑,0.4488025000318885,True,15
X011K27,463,experiment,180,→,right,→,0.5063212998211384,True,15
X011K27,464,experiment,120,↑,down,↓,0.72382349986583,False,15
X011K27,465,experiment,72,↓,down,↓,0.6287372000515461,True,15
X011K27,466,experiment,156,→,right,→,0.4855597000569105,True,15
X011K27,467,experiment,156,↑,down,↓,1.0028764996677637,False,15
X011K27,468,experiment,36,←,up,↑,1.0006125001236796,False,15
X011K27,469,experiment,132,←,left,←,0.6832829001359642,True,15
X011K27,470,experiment,60,→,right,→,0.45364970015361905,True,15
X011K27,471,experiment,72,↑,up,↑,0.5167823997326195,True,15
X011K27,472,training,144,↑,up,↑,0.47844740003347397,True,15
X011K27,473,training,84,↑,up,↑,0.5211300998926163,True,15
X011K27,474,training,60,↑,up,↑,0.7633258998394012,True,15
X011K27,475,experiment,60,→,right,→,0.6152069000527263,True,15
X011K27,476,experiment,132,↓,up,↑,0.9539459999650717,False,15
X011K27,477,experiment,12,←,left,←,0.7687490000389516,True,15
X011K27,478,experiment,36,↓,left,←,1.1366717997007072,False,15
X011K27,479,experiment,84,→,right,→,0.4506665002554655,True,15
X011K27,480,experiment,36,←,left,←,0.9647388998419046,True,15
X011K27,481,experiment,120,↓,up,↑,0.78581009991467,False,15
X011K27,482,experiment,48,→,right,→,0.5067183999344707,True,15
X011K27,483,experiment,156,↑,up,↑,0.6183221000246704,True,15
X011K27,484,experiment,108,←,left,←,0.9430316998623312,True,15
X011K27,485,experiment,180,↑,down,↓,0.48989220010116696,False,15
X011K27,486,experiment,156,↑,up,↑,0.7083354000933468,True,15
X011K27,487,experiment,156,→,right,→,0.763756699860096,True,15
X011K27,488,experiment,84,↓,down,↓,0.5165571998804808,True,15
X011K27,489,experiment,60,←,left,←,0.5647328002378345,True,15
X011K27,490,experiment,12,↓,up,↑,0.7471928000450134,False,15
X011K27,491,experiment,168,←,left,←,0.7966038999147713,True,15
X011K27,492,experiment,12,↑,up,↑,0.5524302995763719,True,15
X011K27,493,experiment,60,←,right,→,0.651919299736619,False,15
X011K27,494,experiment,24,←,left,←,0.5265999999828637,True,15
X011K27,495,experiment,48,↑,up,↑,0.6358380001038313,True,15
X011K27,496,experiment,132,→,left,←,0.8181533999741077,False,15
X011K27,497,experiment,180,←,left,←,0.6875612000003457,True,15
X011K27,498,experiment,96,↓,left,←,0.6033068997785449,False,15
X011K27,499,experiment,96,→,right,→,0.45194859988987446,True,15
X011K27,500,experiment,156,←,left,←,0.4799596997909248,True,15
X011K27,501,experiment,72,→,right,→,0.46568930009379983,True,15
X011K27,502,experiment,168,→,left,←,0.6775218998081982,False,15
X011K27,503,experiment,12,↓,up,↑,0.6357409995980561,False,15
X011K27,504,experiment,72,↓,up,↑,0.6708397995680571,False,15
X011K27,505,experiment,120,↓,down,↓,0.5707139000296593,True,15
X011K27,506,experiment,84,↑,right,→,0.8614823003299534,False,15
X011K27,507,experiment,60,←,left,←,0.7556998003274202,True,15
X011K27,508,experiment,36,↑,up,↑,0.4328751000575721,True,15
X011K27,509,experiment,24,↓,down,↓,0.6052080998197198,True,15
X011K27,510,experiment,24,→,right,→,0.48308739997446537,True,15
X011K27,511,experiment,132,↑,up,↑,0.4666495998390019,True,15
X011K27,512,experiment,144,→,right,→,0.5026256996206939,True,15
X011K27,513,experiment,132,←,left,←,0.8650791002437472,True,15
X011K27,514,experiment,144,→,right,→,0.45193190034478903,True,15
X011K27,515,experiment,180,↓,down,↓,0.46144390013068914,True,15
X011K27,516,experiment,84,↑,no_key,no_letter,-1.0,False,15
X011K27,517,experiment,144,↓,down,↓,0.5829499000683427,True,15
X011K27,518,experiment,48,↑,no_key,no_letter,-1.0,False,15
X011K27,519,experiment,96,↑,up,↑,0.3668750999495387,True,15
X011K27,520,experiment,108,←,left,←,0.6038716998882592,True,15
X011K27,521,experiment,168,↓,right,→,0.4946794998832047,False,15
X011K27,522,experiment,108,↓,up,↑,0.6194962002336979,False,15
X011K27,523,experiment,120,↓,down,↓,0.5774274002760649,True,15
X011K27,524,experiment,36,↑,down,↓,0.5672863000072539,False,15
X011K27,525,experiment,48,↓,down,↓,0.6170199997723103,True,15
X011K27,526,experiment,168,↑,up,↑,0.47216999996453524,True,15
X011K27,527,experiment,72,↑,down,↓,0.6885763998143375,False,15
X011K27,528,experiment,180,→,right,→,0.5578433000482619,True,15
X011K27,529,experiment,108,↑,up,↑,0.5413354001939297,True,15
X011K27,530,experiment,24,→,right,→,0.6998213999904692,True,15
X011K27,531,experiment,96,↓,down,↓,0.4553408999927342,True,15
X011K27,532,experiment,144,→,right,→,0.5203160997480154,True,15
X011K27,533,experiment,72,↑,down,↓,0.5812336998060346,False,15
X011K27,534,experiment,120,↓,no_key,no_letter,-1.0,False,15
X011K27,535,training,36,↓,down,↓,0.7623259001411498,True,15
X011K27,536,training,120,↓,down,↓,0.7002738998271525,True,15
X011K27,537,training,132,↑,down,↓,0.6348733999766409,False,15
X011K27,538,experiment,96,→,right,→,0.6970712998881936,True,15
X011K27,539,experiment,96,→,right,→,0.611069300211966,True,15
X011K27,540,experiment,24,←,left,←,0.8770624999888241,True,15
X011K27,541,experiment,180,↓,down,↓,0.5390657000243664,True,15
X011K27,542,experiment,108,→,left,←,0.9386462001129985,False,15
X011K27,543,experiment,144,↓,down,↓,0.4883972001262009,True,15
X011K27,544,experiment,108,←,left,←,0.8174415002577007,True,15
X011K27,545,experiment,84,←,left,←,0.8021994000300765,True,15
X011K27,546,experiment,168,→,right,→,0.5076212002895772,True,15
X011K27,547,experiment,132,←,left,←,0.7679167003370821,True,15
X011K27,548,experiment,72,→,right,→,0.5331258997321129,True,15
X011K27,549,experiment,156,↑,up,↑,0.5465111997909844,True,15
X011K27,550,experiment,108,↑,up,↑,0.43779659969732165,True,15
X011K27,551,experiment,48,↑,down,↓,0.6570815001614392,False,15
X011K27,552,experiment,156,↑,up,↑,0.42525430023670197,True,15
X011K27,553,experiment,60,↑,left,←,0.646428800188005,False,15
X011K27,554,experiment,24,→,right,→,0.47378290025517344,True,15
X011K27,555,experiment,36,←,left,←,0.5159931001253426,True,15
X011K27,556,experiment,36,↑,up,↑,0.6644739001058042,True,15
X011K27,557,experiment,48,↑,down,↓,0.7106916001066566,False,15
X011K27,558,experiment,36,→,right,→,0.4927229001186788,True,15
X011K27,559,experiment,84,→,left,←,0.6768550998531282,False,15
X011K27,560,experiment,132,↓,right,→,0.5216422998346388,False,15
X011K27,561,experiment,108,↑,down,↓,0.7141382000409067,False,15
X011K27,562,experiment,96,→,right,→,0.4899034001864493,True,15
X011K27,563,experiment,48,↑,up,↑,0.601955400314182,True,15
X011K27,564,experiment,144,↑,left,←,0.6166377002373338,False,15
X011K27,565,experiment,12,→,right,→,0.5182320000603795,True,15
X011K27,566,experiment,24,→,right,→,0.44640390016138554,True,15
X011K27,567,experiment,120,↑,up,↑,0.5753946998156607,True,15
X011K27,568,experiment,144,←,left,←,0.5341344000771642,True,15
X011K27,569,experiment,120,→,right,→,0.602324599865824,True,15
X011K27,570,experiment,48,↓,up,↑,0.8252832000143826,False,15
X011K27,571,experiment,168,↑,down,↓,0.6417183997109532,False,15
X011K27,572,experiment,144,↓,down,↓,0.6854463000781834,True,15
X011K27,573,experiment,180,→,right,→,0.634699699934572,True,15
X011K27,574,experiment,60,→,right,→,0.6909554000012577,True,15
X011K27,575,experiment,168,←,right,→,0.592047399841249,False,15
X011K27,576,experiment,180,←,left,←,0.7141098999418318,True,15
X011K27,577,experiment,24,→,right,→,0.5256946999579668,True,15
X011K27,578,experiment,12,↓,down,↓,0.6795931998640299,True,15
X011K27,579,experiment,84,→,right,→,0.6471539000049233,True,15
X011K27,580,experiment,96,↓,down,↓,0.4432665999047458,True,15
X011K27,581,experiment,12,↓,down,↓,0.4518748000264168,True,15
X011K27,582,experiment,120,→,down,↓,0.6100687999278307,False,15
X011K27,583,experiment,120,→,right,→,0.4556962000206113,True,15
X011K27,584,experiment,72,↓,down,↓,0.4810145003721118,True,15
X011K27,585,experiment,156,←,left,←,0.6775656999088824,True,15
X011K27,586,experiment,156,←,left,←,0.6970601002685726,True,15
X011K27,587,experiment,72,←,left,←,0.48213639995083213,True,15
X011K27,588,experiment,84,↑,up,↑,0.6928913001902401,True,15
X011K27,589,experiment,36,↓,down,↓,0.5310935000889003,True,15
X011K27,590,experiment,60,↓,down,↓,0.5268549001775682,True,15
X011K27,591,experiment,180,→,right,→,0.47669999999925494,True,15
X011K27,592,experiment,132,←,no_key,no_letter,-1.0,False,15
X011K27,593,experiment,60,→,left,←,0.6877878000959754,False,15
X011K27,594,experiment,132,→,left,←,0.6159862000495195,False,15
X011K27,595,experiment,168,↓,down,↓,0.5712786996737123,True,15
X011K27,596,experiment,72,↓,down,↓,0.5686874003149569,True,15
X011K27,597,experiment,12,←,left,←,0.6280092000961304,True,15
X011K27,598,training,24,↓,down,↓,0.6001995000988245,True,15
X011K27,599,training,84,←,down,↓,0.5713920001871884,False,15
X011K27,600,training,108,↓,down,↓,0.4854451003484428,True,15
X011K27,601,experiment,108,↓,left,←,0.5867162998765707,False,15
X011K27,602,experiment,36,↑,down,↓,0.6820923998020589,False,15
X011K27,603,experiment,180,←,left,←,0.48260399978607893,True,15
X011K27,604,experiment,120,↑,up,↑,0.44916340010240674,True,15
X011K27,605,experiment,24,→,right,→,0.4796740999445319,True,15
X011K27,606,experiment,48,↑,down,↓,0.6966989999637008,False,15
X011K27,607,experiment,72,↓,down,↓,0.7236448000185192,True,15
X011K27,608,experiment,36,↓,down,↓,0.5394486002624035,True,15
X011K27,609,experiment,168,→,right,→,0.6921330997720361,True,15
X011K27,610,experiment,108,↓,down,↓,0.4758268999867141,True,15
X011K27,611,experiment,120,↑,down,↓,0.5840586996637285,False,15
X011K27,612,experiment,180,↑,down,↓,0.5364614999853075,False,15
X011K27,613,experiment,168,→,down,↓,0.5668355002999306,False,15
X011K27,614,experiment,108,↓,down,↓,1.78652450023219,True,15
X011K27,615,experiment,144,←,left,←,0.5931808999739587,True,15
X011K27,616,experiment,180,↓,down,↓,0.6137242000550032,True,15
X011K27,617,experiment,132,→,right,→,0.6001193998381495,True,15
X011K27,618,experiment,36,←,left,←,0.6962656998075545,True,15
X011K27,619,experiment,156,←,left,←,0.4639582000672817,True,15
X011K27,620,experiment,48,↓,down,↓,1.032975200098008,True,15
X011K27,621,experiment,60,→,right,→,0.4366787001490593,True,15
X011K27,622,experiment,168,→,right,→,0.42689530039206147,True,15
X011K27,623,experiment,96,→,right,→,1.4403881998732686,True,15
X011K27,624,experiment,132,↑,left,←,0.6972882002592087,False,15
X011K27,625,experiment,132,←,left,←,0.6174232000485063,True,15
X011K27,626,experiment,24,←,left,←,0.4483777000568807,True,15
X011K27,627,experiment,12,↓,down,↓,0.7194505003280938,True,15
X011K27,628,experiment,24,↓,down,↓,0.7286658999510109,True,15
X011K27,629,experiment,156,↑,down,↓,0.7218453004024923,False,15
X011K27,630,experiment,84,↓,down,↓,1.0009592999704182,True,15
X011K27,631,experiment,96,→,left,←,0.8755414001643658,False,15
X011K27,632,experiment,84,↑,up,↑,0.5395793998613954,True,15
X011K27,633,experiment,48,→,right,→,0.5060014999471605,True,15
X011K27,634,experiment,72,↓,down,↓,0.904630099888891,True,15
X011K27,635,experiment,48,↑,up,↑,0.5426590000279248,True,15
X011K27,636,experiment,84,↑,up,↑,0.7640888998284936,True,15
X011K27,637,experiment,96,↑,up,↑,0.574732200242579,True,15
X011K27,638,experiment,36,←,left,←,0.4822832001373172,True,15
X011K27,639,experiment,120,→,left,←,0.7036906997673213,False,15
X011K27,640,experiment,12,←,left,←,0.4539451999589801,True,15
X011K27,641,experiment,144,↓,down,↓,0.9199018999934196,True,15
X011K27,642,experiment,156,↑,up,↑,0.7922656000591815,True,15
X011K27,643,experiment,60,↓,down,↓,0.9397801999002695,True,15
X011K27,644,experiment,168,←,left,←,0.4903133003972471,True,15
X011K27,645,experiment,72,↑,up,↑,0.5502447001636028,True,15
X011K27,646,experiment,144,↑,right,→,1.0056495000608265,False,15
X011K27,647,experiment,96,→,right,→,0.6421387000009418,True,15
X011K27,648,experiment,12,→,left,←,0.7752967001870275,False,15
X011K27,649,experiment,180,←,left,←,0.5096272001974285,True,15
X011K27,650,experiment,84,→,right,→,0.47008039988577366,True,15
X011K27,651,experiment,132,↑,down,↓,0.6523026996292174,False,15
X011K27,652,experiment,24,→,left,←,0.7673851000145078,False,15
X011K27,653,experiment,12,↓,up,↑,0.8402207000181079,False,15
X011K27,654,experiment,60,→,right,→,0.4648981997743249,True,15
X011K27,655,experiment,72,↑,up,↑,0.6953015001490712,True,15
X011K27,656,experiment,156,↑,up,↑,0.7507278001867235,True,15
X011K27,657,experiment,120,↑,up,↑,0.7410681000910699,True,15
X011K27,658,experiment,108,→,right,→,1.1676519000902772,True,15
X011K27,659,experiment,144,↓,down,↓,0.8292752997949719,True,15
X011K27,660,experiment,60,↓,down,↓,0.6972909001633525,True,15
X011K27,661,training,168,↑,down,↓,1.0120700998231769,False,15
X011K27,662,training,156,↑,down,↓,0.8704087003134191,False,15
X011K27,663,training,132,↓,down,↓,0.6020174999721348,True,15
X011K27,664,experiment,168,→,right,→,0.4530576001852751,True,15
X011K27,665,experiment,96,←,left,←,0.48464970011264086,True,15
X011K27,666,experiment,108,→,right,→,0.42835980001837015,True,15
X011K27,667,experiment,36,↓,down,↓,0.8915711003355682,True,15
X011K27,668,experiment,12,←,left,←,0.5539944996125996,True,15
X011K27,669,experiment,72,←,right,→,0.49301240034401417,False,15
X011K27,670,experiment,72,←,left,←,0.42637480003759265,True,15
X011K27,671,experiment,156,↑,up,↑,0.6792385000735521,True,15
X011K27,672,experiment,120,↑,up,↑,0.5009335000067949,True,15
X011K27,673,experiment,84,↓,down,↓,0.7234049001708627,True,15
X011K27,674,experiment,12,←,left,←,0.49449980026111007,True,15
X011K27,675,experiment,72,←,left,←,0.42786770034581423,True,15
X011K27,676,experiment,84,↑,up,↑,0.44668899988755584,True,15
X011K27,677,experiment,168,↓,up,↑,0.8241861998103559,False,15
X011K27,678,experiment,24,↓,down,↓,0.7468798998743296,True,15
X011K27,679,experiment,12,←,left,←,0.7591718002222478,True,15
X011K27,680,experiment,144,↑,up,↑,0.5782602000981569,True,15
X011K27,681,experiment,48,→,left,←,0.5708280997350812,False,15
X011K27,682,experiment,120,↑,up,↑,0.4756389996036887,True,15
X011K27,683,experiment,132,←,left,←,0.5131288999691606,True,15
X011K27,684,experiment,60,↓,down,↓,0.7508565997704864,True,15
X011K27,685,experiment,156,→,left,←,0.5678654001094401,False,15
X011K27,686,experiment,36,→,left,←,0.7259103003889322,False,15
X011K27,687,experiment,180,←,left,←,0.5993625000119209,True,15
X011K27,688,experiment,72,←,left,←,1.481483000330627,True,15
X011K27,689,experiment,48,→,right,→,0.5957713997922838,True,15
X011K27,690,experiment,132,↓,down,↓,0.8049940001219511,True,15
X011K27,691,experiment,96,↑,left,←,0.5976228998042643,False,15
X011K27,692,experiment,156,↑,down,↓,0.91862430004403,False,15
X011K27,693,experiment,144,↓,down,↓,0.7093623001128435,True,15
X011K27,694,experiment,120,←,left,←,0.5427910997532308,True,15
X011K27,695,experiment,180,→,left,←,0.4331964999437332,False,15
X011K27,696,experiment,108,↓,down,↓,1.3150471998378634,True,15
X011K27,697,experiment,156,→,right,→,0.5859256996773183,True,15
X011K27,698,experiment,180,→,right,→,0.44937480008229613,True,15
X011K27,699,experiment,84,→,right,→,0.6950856000185013,True,15
X011K27,700,experiment,108,↓,down,↓,0.7831684998236597,True,15
X011K27,701,experiment,24,←,left,←,0.8175795003771782,True,15
X011K27,702,experiment,48,↓,down,↓,0.6971899997442961,True,15
X011K27,703,experiment,84,↑,down,↓,0.7672685002908111,False,15
X011K27,704,experiment,144,↑,down,↓,0.9847495998255908,False,15
X011K27,705,experiment,180,←,left,←,0.44076729984954,True,15
X011K27,706,experiment,48,←,right,→,0.5150999003089964,False,15
X011K27,707,experiment,168,↓,down,↓,0.7877692999318242,True,15
X011K27,708,experiment,36,↓,down,↓,0.6019307002425194,True,15
X011K27,709,experiment,168,←,down,↓,0.8569595003500581,False,15
X011K27,710,experiment,96,→,right,→,0.5860772002488375,True,15
X011K27,711,experiment,24,←,left,←,0.5828026002272964,True,15
X011K27,712,experiment,60,←,left,←,1.3809397001750767,True,15
X011K27,713,experiment,60,↑,up,↑,0.4486728999763727,True,15
X011K27,714,experiment,144,→,right,→,0.42045010020956397,True,15
X011K27,715,experiment,108,↓,down,↓,0.9624540000222623,True,15
X011K27,716,experiment,24,↓,down,↓,0.7118784002959728,True,15
X011K27,717,experiment,60,→,left,←,0.6659911000169814,False,15
X011K27,718,experiment,96,←,left,←,0.5721628996543586,True,15
X011K27,719,experiment,132,↓,down,↓,0.9390468001365662,True,15
X011K27,720,experiment,132,↑,up,↑,0.5622367998585105,True,15
X011K27,721,experiment,36,→,right,→,0.5090788002125919,True,15
X011K27,722,experiment,12,↓,down,↓,0.6520754001103342,True,15
X011K27,723,experiment,120,←,down,↓,0.8268208000808954,False,15
X011K27,724,training,156,↑,left,←,1.0751216001808643,False,15
X011K27,725,training,144,→,right,→,0.6361986002884805,True,15
X011K27,726,training,108,→,right,→,0.5212375996634364,True,15
X011K27,727,experiment,168,↓,down,↓,0.6634240997955203,True,15
X011K27,728,experiment,108,←,left,←,0.4441523002460599,True,15
X011K27,729,experiment,132,←,down,↓,0.9170491001568735,False,15
X011K27,730,experiment,168,→,right,→,0.5559755000285804,True,15
X011K27,731,experiment,24,↓,down,↓,0.9653110997751355,True,15
X011K27,732,experiment,24,↓,down,↓,0.6944718998856843,True,15
X011K27,733,experiment,180,↓,down,↓,0.769299800042063,True,15
X011K27,734,experiment,180,←,left,←,0.5529121998697519,True,15
X011K27,735,experiment,72,↑,up,↑,0.5242042001336813,True,15
X011K27,736,experiment,36,↑,left,←,0.639835599809885,False,15
X011K27,737,experiment,12,←,left,←,0.4551260997541249,True,15
X011K27,738,experiment,180,←,left,←,0.4223508001305163,True,15
X011K27,739,experiment,156,↑,up,↑,0.5238577998243272,True,15
X011K27,740,experiment,12,→,right,→,0.5255287000909448,True,15
X011K27,741,experiment,48,→,left,←,0.7272699000313878,False,15
X011K27,742,experiment,108,←,left,←,0.6433040997944772,True,15
X011K27,743,experiment,72,→,left,←,0.614042800385505,False,15
X011K27,744,experiment,144,→,right,→,0.9213070003315806,True,15
X011K27,745,experiment,60,↓,left,←,0.6761643001809716,False,15
X011K27,746,experiment,96,↓,down,↓,1.0415886999107897,True,15
X011K27,747,experiment,36,←,left,←,0.5784474997781217,True,15
X011K27,748,experiment,120,↓,down,↓,0.8348167003132403,True,15
X011K27,749,experiment,132,←,left,←,0.4448905996978283,True,15
X011K27,750,experiment,24,↓,down,↓,0.8132811998948455,True,15
X011K27,751,experiment,96,←,down,↓,0.7491910997778177,False,15
X011K27,752,experiment,144,↓,down,↓,0.7866175002418458,True,15
X011K27,753,experiment,72,←,left,←,0.4529579998925328,True,15
X011K27,754,experiment,120,↓,down,↓,0.6605869000777602,True,15
X011K27,755,experiment,84,↓,down,↓,0.7933321003802121,True,15
X011K27,756,experiment,96,↑,down,↓,0.8543535000644624,False,15
X011K27,757,experiment,48,↓,down,↓,0.6836794000118971,True,15
X011K27,758,experiment,60,→,right,→,0.8459783997386694,True,15
X011K27,759,experiment,120,↓,down,↓,0.7959422999992967,True,15
X011K27,760,experiment,156,→,right,→,0.6631332002580166,True,15
X011K27,761,experiment,72,→,left,←,0.7047179001383483,False,15
X011K27,762,experiment,48,→,right,→,0.6812464999966323,True,15
X011K27,763,experiment,108,→,right,→,0.5200859997421503,True,15
X011K27,764,experiment,132,←,right,→,0.636117999907583,False,15
X011K27,765,experiment,168,→,right,→,0.5648169997148216,True,15
X011K27,766,experiment,84,→,left,←,0.5668552001006901,False,15
X011K27,767,experiment,84,↓,down,↓,0.7214104002341628,True,15
X011K27,768,experiment,60,↑,right,→,0.7215529000386596,False,15
X011K27,769,experiment,36,←,left,←,1.3594964002259076,True,15
X011K27,770,experiment,24,→,left,←,0.647810900118202,False,15
X011K27,771,experiment,120,→,right,→,0.6691318000666797,True,15
X011K27,772,experiment,144,→,right,→,0.48133490001782775,True,15
X011K27,773,experiment,96,↑,right,→,0.7630544998683035,False,15
X011K27,774,experiment,60,→,right,→,0.46434770012274384,True,15
X011K27,775,experiment,132,↓,down,↓,0.9221100998111069,True,15
X011K27,776,experiment,12,→,right,→,0.5523041998967528,True,15
X011K27,777,experiment,48,←,right,→,0.6587235000915825,False,15
X011K27,778,experiment,108,→,right,→,0.6871756999753416,True,15
X011K27,779,experiment,156,←,left,←,0.7290770998224616,True,15
X011K27,780,experiment,84,→,right,→,0.5548384999856353,True,15
X011K27,781,experiment,168,→,right,→,0.633124700281769,True,15
X011K27,782,experiment,180,↑,up,↑,0.509026300162077,True,15
X011K27,783,experiment,144,→,up,↑,0.8030879003927112,False,15
X011K27,784,experiment,36,←,left,←,0.5144862001761794,True,15
X011K27,785,experiment,12,→,up,↑,0.8595293001271784,False,15
X011K27,786,experiment,156,←,left,←,0.5207604002207518,True,15
X011K27,787,training,60,↓,down,↓,0.6955603999085724,True,15
X011K27,788,training,168,↑,down,↓,0.8003638000227511,False,15
X011K27,789,training,180,↓,down,↓,0.7900578998960555,True,15
X011K27,790,experiment,36,↓,down,↓,0.6048276000656188,True,15
X011K27,791,experiment,180,↓,down,↓,0.7563724997453392,True,15
X011K27,792,experiment,180,←,left,←,0.42647659964859486,True,15
X011K27,793,experiment,168,→,right,→,0.439803599845618,True,15
X011K27,794,experiment,60,↓,down,↓,0.6693937000818551,True,15
X011K27,795,experiment,108,→,left,←,0.5895206001587212,False,15
X011K27,796,experiment,24,↑,up,↑,0.501520499587059,True,15
X011K27,797,experiment,96,←,right,→,0.6041819998063147,False,15
X011K27,798,experiment,156,↑,up,↑,0.5308134001679718,True,15
X011K27,799,experiment,48,→,left,←,0.6037512999027967,False,15
X011K27,800,experiment,108,←,left,←,0.7750689997337759,True,15
X011K27,801,experiment,36,↓,up,↑,1.0003435001708567,False,15
X011K27,802,experiment,108,→,right,→,0.4883169000968337,True,15
X011K27,803,experiment,144,←,right,→,0.6373941996134818,False,15
X011K27,804,experiment,132,←,left,←,0.6638683001510799,True,15
X011K27,805,experiment,24,→,left,←,0.5624865996651351,False,15
X011K27,806,experiment,12,↓,down,↓,1.0282279001548886,True,15
X011K27,807,experiment,48,←,left,←,0.4532253001816571,True,15
X011K27,808,experiment,144,←,left,←,0.44077220000326633,True,15
X011K27,809,experiment,180,↑,up,↑,0.4725307999178767,True,15
X011K27,810,experiment,168,↑,up,↑,0.6221107998862863,True,15
X011K27,811,experiment,132,↓,up,↑,0.5721126003190875,False,15
X011K27,812,experiment,72,→,right,→,0.6190844001248479,True,15
X011K27,813,experiment,48,→,right,→,0.5167870000004768,True,15
X011K27,814,experiment,168,→,right,→,0.4709193999879062,True,15
X011K27,815,experiment,144,←,left,←,0.46172539982944727,True,15
X011K27,816,experiment,96,↓,down,↓,0.7137170000933111,True,15
X011K27,817,experiment,36,→,right,→,0.5869158999994397,True,15
X011K27,818,experiment,24,↑,left,←,0.7121209003962576,False,15
X011K27,819,experiment,156,←,left,←,0.590567400213331,True,15
X011K27,820,experiment,84,↓,down,↓,0.823403500020504,True,15
X011K27,821,experiment,84,←,left,←,0.517057599965483,True,15
X011K27,822,experiment,84,↑,up,↑,0.5492746001109481,True,15
X011K27,823,experiment,36,←,left,←,0.6108583002351224,True,15
X011K27,824,experiment,72,↑,up,↑,0.5781761999242008,True,15
X011K27,825,experiment,132,→,right,→,0.5518844998441637,True,15
X011K27,826,experiment,84,↓,left,←,0.9185990002006292,False,15
X011K27,827,experiment,12,↓,down,↓,0.7474521002732217,True,15
X011K27,828,experiment,12,←,right,→,0.5295811002142727,False,15
X011K27,829,experiment,156,↓,down,↓,0.842675399966538,True,15
X011K27,830,experiment,72,↓,down,↓,0.7581779002211988,True,15
X011K27,831,experiment,120,↓,up,↑,0.7810255000367761,False,15
X011K27,832,experiment,96,↓,down,↓,0.711054400075227,True,15
X011K27,833,experiment,156,←,left,←,0.5510899000801146,True,15
X011K27,834,experiment,24,←,left,←,1.8274444001726806,True,15
X011K27,835,experiment,120,↓,down,↓,0.6586863999255002,True,15
X011K27,836,experiment,120,←,left,←,0.3836614997126162,True,15
X011K27,837,experiment,60,↓,right,→,0.4737698999233544,False,15
X011K27,838,experiment,72,↑,up,↑,0.6288151000626385,True,15
X011K27,839,experiment,48,↑,up,↑,0.42889910005033016,True,15
X011K27,840,experiment,132,↑,up,↑,0.3838085001334548,True,15
X011K27,841,experiment,108,↓,down,↓,1.6943549001589417,True,15
X011K27,842,experiment,60,↑,up,↑,0.7138101998716593,True,15
X011K27,843,experiment,144,↓,down,↓,0.8198319002985954,True,15
X011K27,844,experiment,12,↓,up,↑,0.6192568000406027,False,15
X011K27,845,experiment,96,←,left,←,0.6108194002881646,True,15
X011K27,846,experiment,168,→,left,←,0.5290582999587059,False,15
X011K27,847,experiment,60,→,right,→,0.7585563003085554,True,15
X011K27,848,experiment,120,←,left,←,0.7482790998183191,True,15
X011K27,849,experiment,180,↑,up,↑,0.8651362997479737,True,15
