PART_ID,Block_no,Trial_no,Block_type,Trial_type,CSI,Stim_letter,Key_pressed,letter_choose,Rt,Corr,Stimulus Time,Level,Reversal,Revs_count
008K23,1,1,PS,train,34,←,left,←,0.6676077999873087,True,30,-,-,-
008K23,1,2,PS,train,46,→,right,→,0.3511679999937769,True,30,-,-,-
008K23,1,3,PS,train,32,↑,up,↑,0.5504725000064354,True,30,-,-,-
008K23,1,4,PS,train,36,→,right,→,0.5002526000025682,True,30,-,-,-
008K23,1,5,PS,train,49,↑,up,↑,0.6004854000057094,True,30,-,-,-
008K23,1,6,PS,train,41,↓,down,↓,0.6004247999953805,True,30,-,-,-
008K23,1,7,PS,train,32,↑,no_key,no_letter,-1.0,False,30,-,-,-
008K23,1,8,PS,train,37,←,left,←,0.5669199000112712,True,30,-,-,-
008K23,1,9,PS,train,45,↓,down,↓,0.710095000002184,True,30,-,-,-
008K23,1,10,PS,train,39,→,right,→,0.583669400002691,True,30,-,-,-
008K23,2,11,AS,train,31,↓,down,↓,0.9318281000014395,True,45,-,-,-
008K23,2,12,AS,train,33,→,right,→,1.0811516999965534,True,45,-,-,-
008K23,2,13,AS,train,30,←,left,←,0.883779499999946,True,45,-,-,-
008K23,2,14,AS,train,47,↑,up,↑,0.7668698999914341,True,45,-,-,-
008K23,2,15,AS,train,41,←,no_key,no_letter,-1.0,False,45,-,-,-
008K23,2,16,AS,train,36,↑,up,↑,0.8344731999968644,True,45,-,-,-
008K23,2,17,AS,train,39,↓,down,↓,0.7505050999898231,True,45,-,-,-
008K23,2,18,AS,train,37,←,left,←,0.8172578000085196,True,45,-,-,-
008K23,2,19,AS,train,33,↑,up,↑,0.717380600006436,True,45,-,-,-
008K23,2,20,AS,train,45,→,right,→,0.7338349999918137,True,45,-,-,-
008K23,-,21,PS,adaptive,26,↓,up,↑,1.50778210000135,False,10,-1,0,0
008K23,-,22,PS,adaptive,48,↑,up,↑,0.47073440000531264,True,11,-1,0,0
008K23,-,23,PS,adaptive,49,→,right,→,0.4182528999954229,True,11,1,1,1
008K23,-,24,PS,adaptive,30,←,left,←,0.45585579999897163,True,10,1,0,1
008K23,-,25,PS,adaptive,40,↑,up,↑,0.4237045999907423,True,10,1,0,1
008K23,-,26,PS,adaptive,42,→,no_key,no_letter,-1.0,False,9,-1,1,2
008K23,-,27,PS,adaptive,34,↑,no_key,no_letter,-1.0,False,10,-1,0,2
008K23,-,28,PS,adaptive,35,→,right,→,0.6928378000011435,True,11,-1,0,2
008K23,-,29,PS,adaptive,48,↓,down,↓,0.7008187000028556,True,11,1,1,3
008K23,-,30,PS,adaptive,43,↑,up,↑,0.442280600007507,True,10,1,0,3
008K23,-,31,PS,adaptive,42,←,left,←,0.47718350001377985,True,10,1,0,3
008K23,-,32,PS,adaptive,27,→,right,→,0.35972160000528675,True,9,1,0,3
008K23,-,33,PS,adaptive,49,↓,down,↓,0.6105397999926936,True,9,1,0,3
008K23,-,34,PS,adaptive,31,↑,up,↑,0.5719368999998551,True,8,1,0,3
008K23,-,35,PS,adaptive,33,←,left,←,0.8632456000050297,True,8,1,0,3
008K23,-,36,PS,adaptive,25,↓,down,↓,0.5671411999937845,True,7,1,0,3
008K23,-,37,PS,adaptive,43,↑,up,↑,0.5228521999961231,True,7,1,0,3
008K23,-,38,PS,adaptive,27,→,right,→,0.4718177999893669,True,6,1,0,3
008K23,-,39,PS,adaptive,47,↓,down,↓,0.5944204999977956,True,6,1,0,3
008K23,-,40,PS,adaptive,30,→,up,↑,0.46309130000008736,False,5,-1,1,4
008K23,-,41,AS,adaptive,35,↓,left,←,0.35043349998886697,False,20,-1,0,0
008K23,-,42,AS,adaptive,45,→,right,→,0.5576243999967119,True,21,-1,0,0
008K23,-,43,AS,adaptive,45,←,left,←,0.6153308000066318,True,21,1,1,1
008K23,-,44,AS,adaptive,29,→,no_key,no_letter,-1.0,False,20,-1,1,2
008K23,-,45,AS,adaptive,30,←,down,↓,0.9452063000062481,False,21,-1,0,2
008K23,-,46,AS,adaptive,27,↓,left,←,1.2574335999961477,False,22,-1,0,2
008K23,-,47,AS,adaptive,47,→,right,→,0.767892000003485,True,23,-1,0,2
008K23,-,48,AS,adaptive,38,↑,up,↑,0.6925835000001825,True,23,1,1,3
008K23,-,49,AS,adaptive,48,←,left,←,0.6746359000098892,True,22,1,0,3
008K23,-,50,AS,adaptive,35,↑,up,↑,0.7783150000032037,True,22,1,0,3
008K23,-,51,AS,adaptive,39,→,right,→,1.0208385000005364,True,21,1,0,3
008K23,-,52,AS,adaptive,38,↑,up,↑,0.9250096000032499,True,21,1,0,3
008K23,-,53,AS,adaptive,26,←,no_key,no_letter,-1.0,False,20,-1,1,4
008K23,1,54,PS,intra_train,38,↑,up,↑,0.5245032000093488,True,9,-,-,-
008K23,1,55,PS,intra_train,38,←,left,←,0.5637240000069141,True,9,-,-,-
008K23,1,56,PS,intra_train,46,↑,up,↑,0.45242819999111816,True,9,-,-,-
008K23,1,57,PS,intra_train,45,↓,down,↓,1.2021805999975186,True,9,-,-,-
008K23,1,58,PS,intra_train,39,→,right,→,0.43360850001045037,True,9,-,-,-
008K23,1,59,PS,exp,34,↓,down,↓,0.6976027000055183,True,6,0,0,0
008K23,1,60,PS,exp,27,→,down,↓,0.8441167000128189,False,6,-1,0,0
008K23,1,61,PS,exp,35,↑,up,↑,0.49880499999562744,True,7,-1,0,0
008K23,1,62,PS,exp,40,↓,down,↓,0.6022262000042247,True,7,1,1,1
008K23,1,63,PS,exp,38,↑,left,←,0.7723876000090968,False,6,-1,1,2
008K23,1,64,PS,exp,37,→,right,→,0.43932459999632556,True,7,-1,0,2
008K23,1,65,PS,exp,29,↑,up,↑,0.5054159999999683,True,7,1,1,3
008K23,1,66,PS,exp,28,↓,right,→,0.558758700004546,False,6,-1,1,4
008K23,1,67,PS,exp,27,→,right,→,0.6114180000004126,True,7,-1,0,4
008K23,1,68,PS,exp,47,←,left,←,0.4440479999902891,True,7,1,1,5
008K23,1,69,PS,exp,47,→,right,→,0.5866124000021955,True,6,1,0,5
008K23,1,70,PS,exp,49,←,left,←,0.44403860000602435,True,6,1,0,5
008K23,1,71,PS,exp,50,↓,right,→,0.6701868000091054,False,5,-1,1,6
008K23,1,72,PS,exp,48,↑,up,↑,0.42939050000859424,True,6,-1,0,6
008K23,1,73,PS,exp,34,→,right,→,0.40407910000067204,True,6,1,1,7
008K23,1,74,PS,exp,46,↑,up,↑,0.5188150000030873,True,5,1,0,7
008K23,1,75,PS,exp,27,↓,down,↓,0.5690892999991775,True,5,1,0,7
008K23,1,76,PS,exp,39,→,right,→,0.585433699990972,True,4,1,0,7
008K23,1,77,PS,exp,38,←,no_key,no_letter,-1.0,False,4,-1,1,8
008K23,1,78,PS,exp,28,↑,right,→,0.6597111000010045,False,5,-1,0,8
008K23,1,79,PS,exp,49,↓,down,↓,0.6077887999999803,True,6,-1,0,8
008K23,1,80,PS,exp,40,←,left,←,0.47957739999401383,True,6,1,1,9
008K23,1,81,PS,exp,41,↓,down,↓,0.645118000000366,True,5,1,0,9
008K23,1,82,PS,exp,42,←,right,→,0.6694194000010611,False,5,-1,1,10
008K23,1,83,PS,exp,33,↑,up,↑,0.505590700005996,True,6,-1,0,10
008K23,1,84,PS,exp,33,←,right,→,0.5398624000081327,False,6,-1,0,10
008K23,1,85,PS,exp,25,↓,right,→,0.3928613000025507,False,7,-1,0,10
008K23,1,86,PS,exp,33,→,right,→,0.4571211000002222,True,8,-1,0,10
008K23,1,87,PS,exp,36,↓,right,→,1.06109909999941,False,8,-1,0,10
008K23,1,88,PS,exp,49,↑,right,→,0.5502596000005724,False,9,-1,0,10
008K23,1,89,PS,exp,35,→,right,→,0.45613930000399705,True,10,-1,0,10
008K23,1,90,PS,exp,49,↑,up,↑,0.5804464000102598,True,10,1,1,11
008K23,1,91,PS,exp,49,←,left,←,0.514493599999696,True,9,1,0,11
008K23,1,92,PS,exp,26,↑,left,←,0.9047534999990603,False,9,-1,1,12
008K23,1,93,PS,exp,39,←,left,←,0.35308320001058746,True,10,-1,0,12
008K23,1,94,PS,exp,37,↓,right,→,0.5839994999987539,False,10,-1,0,12
008K23,1,95,PS,exp,26,←,left,←,0.48844760000065435,True,11,-1,0,12
008K23,1,96,PS,exp,33,↑,up,↑,0.5005739000043832,True,11,1,1,13
008K23,1,97,PS,exp,40,→,right,→,0.3658651000005193,True,10,1,0,13
008K23,1,98,PS,exp,48,↑,left,←,0.4857293999957619,False,10,-1,1,14
008K23,2,99,AS,intra_train,46,↓,down,↓,0.7281270999956178,True,31,-,-,-
008K23,2,100,AS,intra_train,37,→,right,→,0.5671669000003021,True,31,-,-,-
008K23,2,101,AS,intra_train,26,↑,up,↑,0.977832300006412,True,31,-,-,-
008K23,2,102,AS,intra_train,25,↓,down,↓,0.8744206999981543,True,31,-,-,-
008K23,2,103,AS,intra_train,50,→,right,→,0.9399696000036784,True,31,-,-,-
008K23,2,104,AS,exp,35,↓,down,↓,0.8879396999982418,True,21,0,0,0
008K23,2,105,AS,exp,25,→,right,→,0.7505078999965917,True,21,1,0,0
008K23,2,106,AS,exp,33,↓,down,↓,0.799824500005343,True,20,1,0,0
008K23,2,107,AS,exp,40,←,left,←,0.8233078999910504,True,20,1,0,0
008K23,2,108,AS,exp,48,↑,right,→,0.5525094000040554,False,19,-1,1,1
008K23,2,109,AS,exp,37,→,right,→,0.717616399997496,True,20,-1,0,1
008K23,2,110,AS,exp,42,←,left,←,0.6313996999961091,True,20,1,1,2
008K23,2,111,AS,exp,39,→,right,→,0.6878110999969067,True,19,1,0,2
008K23,2,112,AS,exp,48,↓,up,↑,0.7425576000096044,False,19,-1,1,3
008K23,2,113,AS,exp,39,→,left,←,0.5667563000024529,False,20,-1,0,3
008K23,2,114,AS,exp,49,↑,up,↑,0.6510531999956584,True,21,-1,0,3
008K23,2,115,AS,exp,48,←,right,→,0.8325581999961287,False,21,-1,0,3
008K23,2,116,AS,exp,28,↓,down,↓,0.8508050999953412,True,22,-1,0,3
008K23,2,117,AS,exp,40,←,left,←,0.6193269999930635,True,22,1,1,4
008K23,2,118,AS,exp,29,→,up,↑,1.241225999998278,False,21,-1,1,5
008K23,2,119,AS,exp,39,↓,down,↓,0.7470423000049777,True,22,-1,0,5
008K23,2,120,AS,exp,26,↑,no_key,no_letter,-1.0,False,22,-1,0,5
008K23,2,121,AS,exp,39,→,right,→,0.633091300012893,True,23,-1,0,5
008K23,2,122,AS,exp,43,←,left,←,0.7377001000131713,True,23,1,1,6
008K23,2,123,AS,exp,30,↓,down,↓,0.5844776000012644,True,22,1,0,6
008K23,2,124,AS,exp,46,→,left,←,0.8285767000052147,False,22,-1,1,7
008K23,2,125,AS,exp,47,↓,down,↓,0.6252933999930974,True,23,-1,0,7
008K23,2,126,AS,exp,25,←,left,←,0.645862000004854,True,23,1,1,8
008K23,2,127,AS,exp,41,→,no_key,no_letter,-1.0,False,22,-1,1,9
008K23,2,128,AS,exp,31,←,left,←,0.500483499999973,True,23,-1,0,9
008K23,2,129,AS,exp,46,↓,down,↓,0.7873334000032628,True,23,1,1,10
008K23,2,130,AS,exp,33,↑,up,↑,0.5385776000039186,True,22,1,0,10
008K23,2,131,AS,exp,39,←,left,←,0.5418030000000726,True,22,1,0,10
008K23,2,132,AS,exp,31,→,right,→,0.6443550000112737,True,21,1,0,10
008K23,2,133,AS,exp,37,↑,up,↑,0.6827101999951992,True,21,1,0,10
008K23,2,134,AS,exp,39,↓,down,↓,0.666353300010087,True,20,1,0,10
008K23,2,135,AS,exp,27,→,left,←,0.8556372000020929,False,20,-1,1,11
008K23,2,136,AS,exp,41,↓,down,↓,0.596213999990141,True,21,-1,0,11
008K23,2,137,AS,exp,27,→,right,→,0.5878375000029337,True,21,1,1,12
008K23,2,138,AS,exp,39,↓,down,↓,0.5786886999994749,True,20,1,0,12
008K23,2,139,AS,exp,50,←,left,←,0.6540600000007544,True,20,1,0,12
008K23,2,140,AS,exp,35,→,right,→,0.5289116000058129,True,19,1,0,12
008K23,2,141,AS,exp,44,↑,up,↑,0.43371089998981915,True,19,1,0,12
008K23,2,142,AS,exp,27,→,right,→,0.4170179999928223,True,18,1,0,12
008K23,2,143,AS,exp,34,↓,down,↓,0.761399099996197,True,18,1,0,12
008K23,2,144,AS,exp,31,↑,right,→,0.7214588000060758,False,17,-1,1,13
008K23,2,145,AS,exp,36,→,left,←,0.592757000005804,False,18,-1,0,13
008K23,2,146,AS,exp,38,←,left,←,0.813618400003179,True,19,-1,0,13
008K23,2,147,AS,exp,26,↑,up,↑,0.8665911999996752,True,19,1,1,14
008K23,3,148,AS,intra_train,38,↓,down,↓,0.7361280000041006,True,31,-,-,-
008K23,3,149,AS,intra_train,33,→,right,→,0.4178754000022309,True,31,-,-,-
008K23,3,150,AS,intra_train,25,↑,up,↑,0.4345328000053996,True,31,-,-,-
008K23,3,151,AS,intra_train,47,↓,down,↓,0.5336977999977535,True,31,-,-,-
008K23,3,152,AS,intra_train,36,←,left,←,0.4678639000048861,True,31,-,-,-
008K23,3,153,AS,exp,47,↓,up,↑,0.8725560000020778,False,21,-1,0,0
008K23,3,154,AS,exp,42,←,right,→,0.7064653000124963,False,22,-1,0,0
008K23,3,155,AS,exp,35,↓,down,↓,1.0917800000024727,True,23,-1,0,0
008K23,3,156,AS,exp,29,↑,up,↑,0.5792248000070686,True,23,1,1,1
008K23,3,157,AS,exp,29,→,right,→,0.6854541999928188,True,22,1,0,1
008K23,3,158,AS,exp,41,↑,no_key,no_letter,-1.0,False,22,-1,1,2
008K23,3,159,AS,exp,45,↓,up,↑,0.9742164999915985,False,23,-1,0,2
008K23,3,160,AS,exp,34,↑,up,↑,0.5939403000083985,True,24,-1,0,2
008K23,3,161,AS,exp,43,↓,down,↓,0.810288099994068,True,24,1,1,3
008K23,3,162,AS,exp,38,→,no_key,no_letter,-1.0,False,23,-1,1,4
008K23,3,163,AS,exp,37,↓,down,↓,0.7490880999976071,True,24,-1,0,4
008K23,3,164,AS,exp,26,→,left,←,0.4010844000003999,False,24,-1,0,4
008K23,3,165,AS,exp,49,←,left,←,0.6136254999873927,True,25,-1,0,4
008K23,3,166,AS,exp,31,→,right,→,0.7012013999919873,True,25,1,1,5
008K23,3,167,AS,exp,46,↑,up,↑,0.5930539999972098,True,24,1,0,5
008K23,3,168,AS,exp,33,↓,down,↓,0.8348643000063021,True,24,1,0,5
008K23,3,169,AS,exp,42,→,right,→,0.4836193999944953,True,23,1,0,5
008K23,3,170,AS,exp,31,↑,up,↑,0.6749140999891097,True,23,1,0,5
008K23,3,171,AS,exp,42,→,right,→,0.5603952999954345,True,22,1,0,5
008K23,3,172,AS,exp,46,↓,down,↓,0.8636746999982279,True,22,1,0,5
008K23,3,173,AS,exp,26,←,left,←,0.705723000006401,True,21,1,0,5
008K23,3,174,AS,exp,37,→,right,→,0.7532565000001341,True,21,1,0,5
008K23,3,175,AS,exp,39,↓,down,↓,0.7964665999897989,True,20,1,0,5
008K23,3,176,AS,exp,42,↑,up,↑,0.5722474999929545,True,20,1,0,5
008K23,3,177,AS,exp,36,←,left,←,0.732426000002306,True,19,1,0,5
008K23,3,178,AS,exp,49,↑,up,↑,0.4340429000003496,True,19,1,0,5
008K23,3,179,AS,exp,47,↓,down,↓,0.710623700011638,True,18,1,0,5
008K23,3,180,AS,exp,32,→,right,→,0.5928996000002371,True,18,1,0,5
008K23,3,181,AS,exp,32,↑,up,↑,0.875079099991126,True,17,1,0,5
008K23,3,182,AS,exp,40,←,left,←,0.47205050000047777,True,17,1,0,5
008K23,3,183,AS,exp,40,→,right,→,0.8651593000104185,True,16,1,0,5
008K23,3,184,AS,exp,44,←,up,↑,0.7233683000085875,False,16,-1,1,6
008K23,3,185,AS,exp,28,→,right,→,0.6980942000081996,True,17,-1,0,6
008K23,3,186,AS,exp,31,←,left,←,0.5167474999907427,True,17,1,1,7
008K23,3,187,AS,exp,38,↓,down,↓,0.7730288000020664,True,16,1,0,7
008K23,3,188,AS,exp,30,←,right,→,0.7177096999948844,False,16,-1,1,8
008K23,3,189,AS,exp,27,→,right,→,0.7331655000016326,True,17,-1,0,8
008K23,3,190,AS,exp,43,↓,down,↓,0.7020568000007188,True,17,1,1,9
008K23,3,191,AS,exp,32,↑,up,↑,0.6514316000102554,True,16,1,0,9
008K23,3,192,AS,exp,49,→,left,←,0.5675861000054283,False,16,-1,1,10
008K23,3,193,AS,exp,45,↓,down,↓,0.8328248999896459,True,17,-1,0,10
008K23,3,194,AS,exp,30,→,right,→,0.5326715999981388,True,17,1,1,11
008K23,3,195,AS,exp,49,↓,up,↑,1.0545098000002326,False,16,-1,1,12
008K23,3,196,AS,exp,28,↑,up,↑,0.5757928000093671,True,17,-1,0,12
008K23,3,197,AS,exp,38,→,right,→,0.6147014000016497,True,17,1,1,13
008K23,3,198,AS,exp,48,↓,up,↑,0.6961468999943463,False,16,-1,1,14
008K23,4,199,PS,intra_train,44,↑,up,↑,0.4727149999962421,True,9,-,-,-
008K23,4,200,PS,intra_train,31,↓,down,↓,0.6362192999949912,True,9,-,-,-
008K23,4,201,PS,intra_train,31,↑,up,↑,0.5170305000065127,True,9,-,-,-
008K23,4,202,PS,intra_train,28,←,left,←,0.4470967999950517,True,9,-,-,-
008K23,4,203,PS,intra_train,42,↓,no_key,no_letter,-1.0,False,9,-,-,-
008K23,4,204,PS,exp,40,→,right,→,0.4171557999943616,True,6,0,0,0
008K23,4,205,PS,exp,37,↓,down,↓,0.5939845999964746,True,6,1,0,0
008K23,4,206,PS,exp,35,↑,up,↑,0.4384161999914795,True,5,1,0,0
008K23,4,207,PS,exp,47,↓,up,↑,0.661515200001304,False,5,-1,1,1
008K23,4,208,PS,exp,39,→,right,→,0.5172343000012916,True,6,-1,0,1
008K23,4,209,PS,exp,28,←,left,←,0.5397566999890842,True,6,1,1,2
008K23,4,210,PS,exp,47,↑,up,↑,0.51416920000338,True,5,1,0,2
008K23,4,211,PS,exp,25,←,up,↑,0.5981824999907985,False,5,-1,1,3
008K23,4,212,PS,exp,39,↑,up,↑,0.5657224000024144,True,6,-1,0,3
008K23,4,213,PS,exp,46,↓,down,↓,0.6366764000122203,True,6,1,1,4
008K23,4,214,PS,exp,49,→,up,↑,0.4880764999979874,False,5,-1,1,5
008K23,4,215,PS,exp,43,↑,up,↑,0.48018140000931453,True,6,-1,0,5
008K23,4,216,PS,exp,42,←,left,←,0.523634299999685,True,6,1,1,6
008K23,4,217,PS,exp,44,→,right,→,0.4620971999975154,True,5,1,0,6
008K23,4,218,PS,exp,33,↑,no_key,no_letter,-1.0,False,5,-1,1,7
008K23,4,219,PS,exp,49,←,left,←,0.5128756000049179,True,6,-1,0,7
008K23,4,220,PS,exp,36,→,right,→,0.42670529999304563,True,6,1,1,8
008K23,4,221,PS,exp,34,↑,up,↑,0.48520309999003075,True,5,1,0,8
008K23,4,222,PS,exp,44,←,left,←,0.6102581000013743,True,5,1,0,8
008K23,4,223,PS,exp,33,→,right,→,0.6118201000062982,True,4,1,0,8
008K23,4,224,PS,exp,27,↓,up,↑,0.5043341999989934,False,4,-1,1,9
008K23,4,225,PS,exp,40,→,right,→,0.4726602000009734,True,5,-1,0,9
008K23,4,226,PS,exp,35,↓,down,↓,0.8616457000025548,True,5,1,1,10
008K23,4,227,PS,exp,39,→,left,←,0.6303297999984352,False,4,-1,1,11
008K23,4,228,PS,exp,41,←,right,→,0.42271710000932217,False,5,-1,0,11
008K23,4,229,PS,exp,47,↑,up,↑,0.5579303999984404,True,6,-1,0,11
008K23,4,230,PS,exp,27,→,right,→,0.461840600008145,True,6,1,1,12
008K23,4,231,PS,exp,46,↓,right,→,0.4414634999993723,False,5,-1,1,13
008K23,4,232,PS,exp,32,←,up,↑,0.8306664999981876,False,6,-1,0,13
008K23,4,233,PS,exp,38,→,right,→,0.5105335000116611,True,7,-1,0,13
008K23,4,234,PS,exp,31,↓,left,←,0.647463000001153,False,7,-1,0,13
008K23,4,235,PS,exp,29,→,up,↑,0.3075828999863006,False,8,-1,0,13
008K23,4,236,PS,exp,37,←,no_key,no_letter,-1.0,False,9,-1,0,13
008K23,4,237,PS,exp,38,↓,no_key,no_letter,-1.0,False,10,-1,0,13
008K23,4,238,PS,exp,44,→,right,→,0.3843071999872336,True,11,-1,0,13
008K23,4,239,PS,exp,41,←,left,←,0.4574133999994956,True,11,1,1,14
008K23,5,240,PS,intra_train,27,→,right,→,0.42053719999967143,True,9,-,-,-
008K23,5,241,PS,intra_train,30,↓,right,→,0.4593655999924522,False,9,-,-,-
008K23,5,242,PS,intra_train,37,←,left,←,0.6350492000055965,True,9,-,-,-
008K23,5,243,PS,intra_train,28,→,right,→,0.36544940000749193,True,9,-,-,-
008K23,5,244,PS,intra_train,33,←,left,←,0.519413700007135,True,9,-,-,-
008K23,5,245,PS,exp,40,↓,down,↓,0.6861733000114327,True,6,0,0,0
008K23,5,246,PS,exp,42,↑,up,↑,0.5260394999932032,True,6,1,0,0
008K23,5,247,PS,exp,28,←,left,←,0.4522972000122536,True,5,1,0,0
008K23,5,248,PS,exp,43,↑,no_key,no_letter,-1.0,False,5,-1,1,1
008K23,5,249,PS,exp,27,→,right,→,0.41795030000503175,True,6,-1,0,1
008K23,5,250,PS,exp,33,←,right,→,0.36185320001095533,False,6,-1,0,1
008K23,5,251,PS,exp,31,↑,up,↑,0.4305284999863943,True,7,-1,0,1
008K23,5,252,PS,exp,34,→,right,→,0.4253969999990659,True,7,1,1,2
008K23,5,253,PS,exp,29,↑,up,↑,0.4528823000000557,True,6,1,0,2
008K23,5,254,PS,exp,36,→,right,→,0.46406060000299476,True,6,1,0,2
008K23,5,255,PS,exp,48,↑,up,↑,0.40516829999978654,True,5,1,0,2
008K23,5,256,PS,exp,30,←,left,←,0.5151806000067154,True,5,1,0,2
008K23,5,257,PS,exp,38,→,right,→,0.5476638999971328,True,4,1,0,2
008K23,5,258,PS,exp,49,←,left,←,0.5105722000007518,True,4,1,0,2
008K23,5,259,PS,exp,42,→,right,→,0.4029713000054471,True,3,1,0,2
008K23,5,260,PS,exp,39,←,right,→,0.4079206000023987,False,3,-1,1,3
008K23,5,261,PS,exp,40,↓,right,→,0.3662695000093663,False,4,-1,0,3
008K23,5,262,PS,exp,39,↑,up,↑,0.49139609999838285,True,5,-1,0,3
008K23,5,263,PS,exp,47,↓,up,↑,0.6911652999988291,False,5,-1,0,3
008K23,5,264,PS,exp,39,↑,up,↑,0.5423505999933695,True,6,-1,0,3
008K23,5,265,PS,exp,30,→,up,↑,0.8088496000127634,False,6,-1,0,3
008K23,5,266,PS,exp,49,←,right,→,0.4106465000077151,False,7,-1,0,3
008K23,5,267,PS,exp,42,↓,down,↓,0.8763550000003306,True,8,-1,0,3
008K23,5,268,PS,exp,41,↑,up,↑,0.5474817999929655,True,8,1,1,4
008K23,5,269,PS,exp,42,←,left,←,0.6890776999935042,True,7,1,0,4
008K23,5,270,PS,exp,27,↑,right,→,0.9708112000080291,False,7,-1,1,5
008K23,5,271,PS,exp,37,←,right,→,0.542090000002645,False,8,-1,0,5
008K23,5,272,PS,exp,38,→,right,→,0.6700394000072265,True,9,-1,0,5
008K23,5,273,PS,exp,35,←,left,←,0.4225276000070153,True,9,1,1,6
008K23,5,274,PS,exp,41,↑,up,↑,0.49239980000129435,True,8,1,0,6
008K23,5,275,PS,exp,37,↓,down,↓,0.7613952999963658,True,8,1,0,6
008K23,5,276,PS,exp,33,→,right,→,0.47242750000441447,True,7,1,0,6
008K23,5,277,PS,exp,43,↑,up,↑,0.42576349999581,True,7,1,0,6
008K23,5,278,PS,exp,38,→,right,→,0.4150136999960523,True,6,1,0,6
008K23,5,279,PS,exp,26,↑,up,↑,0.565092699995148,True,6,1,0,6
008K23,5,280,PS,exp,27,←,left,←,0.5210054000053788,True,5,1,0,6
008K23,5,281,PS,exp,37,↓,up,↑,0.434111299997312,False,5,-1,1,7
008K23,5,282,PS,exp,36,↑,right,→,0.5049370000051567,False,6,-1,0,7
008K23,5,283,PS,exp,25,←,left,←,0.5406972000055248,True,7,-1,0,7
008K23,5,284,PS,exp,28,↑,up,↑,0.4569091000012122,True,7,1,1,8
008K23,5,285,PS,exp,35,↓,right,→,0.5157226000010269,False,6,-1,1,9
008K23,5,286,PS,exp,26,←,left,←,0.49013480001303833,True,7,-1,0,9
008K23,5,287,PS,exp,48,→,right,→,0.4324968999862904,True,7,1,1,10
008K23,5,288,PS,exp,30,↓,down,↓,0.8280106000020169,True,6,1,0,10
008K23,5,289,PS,exp,25,→,right,→,0.40114689999609254,True,6,1,0,10
008K23,5,290,PS,exp,50,←,left,←,0.5660512000031304,True,5,1,0,10
008K23,5,291,PS,exp,49,→,right,→,0.348823899999843,True,5,1,0,10
008K23,5,292,PS,exp,46,←,left,←,0.5140541000000667,True,4,1,0,10
008K23,5,293,PS,exp,45,↑,up,↑,0.5098984000069322,True,4,1,0,10
008K23,5,294,PS,exp,25,→,right,→,0.4083704999939073,True,3,1,0,10
008K23,5,295,PS,exp,41,↑,left,←,0.5025571000005584,False,3,-1,1,11
008K23,5,296,PS,exp,39,←,left,←,0.5777871999889612,True,4,-1,0,11
008K23,5,297,PS,exp,41,↓,left,←,0.5647461000044132,False,4,-1,0,11
008K23,5,298,PS,exp,26,↑,up,↑,0.44360759999835864,True,5,-1,0,11
008K23,5,299,PS,exp,31,←,right,→,0.5776824000058696,False,5,-1,0,11
008K23,5,300,PS,exp,39,↑,up,↑,0.38453819999995176,True,6,-1,0,11
008K23,5,301,PS,exp,30,→,up,↑,0.6491859999950975,False,6,-1,0,11
008K23,5,302,PS,exp,40,↓,up,↑,0.4782281999941915,False,7,-1,0,11
008K23,5,303,PS,exp,40,↑,up,↑,0.5905093000037596,True,8,-1,0,11
008K23,5,304,PS,exp,46,→,right,→,0.4220818000030704,True,8,1,1,12
008K23,5,305,PS,exp,25,↓,down,↓,0.611267999993288,True,7,1,0,12
008K23,5,306,PS,exp,33,→,right,→,0.42778110000654124,True,7,1,0,12
008K23,5,307,PS,exp,30,↓,up,↑,0.5475548000104027,False,6,-1,1,13
008K23,5,308,PS,exp,46,↑,up,↑,0.39586589999089483,True,7,-1,0,13
008K23,5,309,PS,exp,46,↓,down,↓,0.5068852000113111,True,7,1,1,14
008K23,6,310,AS,intra_train,25,→,right,→,0.7335582000087015,True,31,-,-,-
008K23,6,311,AS,intra_train,38,↑,right,→,0.6905535999976564,False,31,-,-,-
008K23,6,312,AS,intra_train,48,↓,down,↓,0.9411468000034802,True,31,-,-,-
008K23,6,313,AS,intra_train,41,←,left,←,0.8758536999957869,True,31,-,-,-
008K23,6,314,AS,intra_train,26,↑,up,↑,0.6170051999943098,True,31,-,-,-
008K23,6,315,AS,exp,29,↓,up,↑,0.5966577000071993,False,21,-1,0,0
008K23,6,316,AS,exp,26,←,left,←,0.7907310000009602,True,22,-1,0,0
008K23,6,317,AS,exp,46,→,right,→,0.6760319000022719,True,22,1,1,1
008K23,6,318,AS,exp,50,↑,up,↑,0.5335310000082245,True,21,1,0,1
008K23,6,319,AS,exp,41,→,right,→,0.6738849999965169,True,21,1,0,1
008K23,6,320,AS,exp,37,←,left,←,0.5011143999872729,True,20,1,0,1
008K23,6,321,AS,exp,44,↓,down,↓,0.8877557999949204,True,20,1,0,1
008K23,6,322,AS,exp,41,→,right,→,0.6446235000039451,True,19,1,0,1
008K23,6,323,AS,exp,33,↑,up,↑,0.6223798999999417,True,19,1,0,1
008K23,6,324,AS,exp,30,↓,down,↓,0.5495181000005687,True,18,1,0,1
008K23,6,325,AS,exp,28,←,left,←,0.47315920000255574,True,18,1,0,1
008K23,6,326,AS,exp,40,↓,down,↓,0.9868639999913285,True,17,1,0,1
008K23,6,327,AS,exp,41,↑,up,↑,0.6575193999888143,True,17,1,0,1
008K23,6,328,AS,exp,41,↓,down,↓,0.7759933000052115,True,16,1,0,1
008K23,6,329,AS,exp,33,↑,up,↑,0.6841159999894444,True,16,1,0,1
008K23,6,330,AS,exp,48,→,right,→,0.47269589999632444,True,15,1,0,1
008K23,6,331,AS,exp,42,↓,down,↓,0.6705589999910444,True,15,1,0,1
008K23,6,332,AS,exp,48,↑,up,↑,0.7832242000004044,True,14,1,0,1
008K23,6,333,AS,exp,26,↓,left,←,0.7044976000033785,False,14,-1,1,2
008K23,6,334,AS,exp,40,↑,up,↑,0.6305760999966878,True,15,-1,0,2
008K23,6,335,AS,exp,29,→,right,→,0.5069433999888133,True,15,1,1,3
008K23,6,336,AS,exp,39,↑,up,↑,0.48212169999897014,True,14,1,0,3
008K23,6,337,AS,exp,49,←,left,←,0.4432220999879064,True,14,1,0,3
008K23,6,338,AS,exp,48,↑,right,→,0.8041566999891074,False,13,-1,1,4
008K23,6,339,AS,exp,34,→,up,↑,0.6664644000120461,False,14,-1,0,4
008K23,6,340,AS,exp,27,↑,up,↑,0.5681304000027012,True,15,-1,0,4
008K23,6,341,AS,exp,34,→,left,←,0.6890933999966364,False,15,-1,0,4
008K23,6,342,AS,exp,30,↑,no_key,no_letter,-1.0,False,16,-1,0,4
008K23,6,343,AS,exp,33,↓,down,↓,0.6205696999968495,True,17,-1,0,4
008K23,6,344,AS,exp,34,←,up,↑,1.007723699993221,False,17,-1,0,4
008K23,6,345,AS,exp,44,→,right,→,0.6648944000044139,True,18,-1,0,4
008K23,6,346,AS,exp,47,←,left,←,0.6186148999986472,True,18,1,1,5
008K23,6,347,AS,exp,29,↓,down,↓,0.6699750999978278,True,17,1,0,5
008K23,6,348,AS,exp,25,→,right,→,0.6299713999906089,True,17,1,0,5
008K23,6,349,AS,exp,45,←,left,←,0.6950188000046182,True,16,1,0,5
008K23,6,350,AS,exp,37,↓,down,↓,0.6861133000056725,True,16,1,0,5
008K23,6,351,AS,exp,49,→,right,→,0.6837805999966804,True,15,1,0,5
008K23,6,352,AS,exp,38,←,left,←,0.4357195999909891,True,15,1,0,5
008K23,6,353,AS,exp,29,↓,down,↓,0.7213637999957427,True,14,1,0,5
008K23,6,354,AS,exp,33,→,left,←,0.7852389000036055,False,14,-1,1,6
008K23,6,355,AS,exp,32,↑,down,↓,0.872118599989335,False,15,-1,0,6
008K23,6,356,AS,exp,39,↓,down,↓,0.707599500005017,True,16,-1,0,6
008K23,6,357,AS,exp,28,↑,up,↑,0.4716305000038119,True,16,1,1,7
008K23,6,358,AS,exp,43,↓,down,↓,0.7628720999928191,True,15,1,0,7
008K23,6,359,AS,exp,26,↑,up,↑,0.808671199993114,True,15,1,0,7
008K23,6,360,AS,exp,31,→,right,→,0.4476005000033183,True,14,1,0,7
008K23,6,361,AS,exp,34,↑,up,↑,0.6774875999981305,True,14,1,0,7
008K23,6,362,AS,exp,35,→,right,→,0.5995230999978958,True,13,1,0,7
008K23,6,363,AS,exp,46,↑,up,↑,0.6898712000111118,True,13,1,0,7
008K23,6,364,AS,exp,32,↓,no_key,no_letter,-1.0,False,12,-1,1,8
008K23,6,365,AS,exp,36,↑,up,↑,0.7691379999887431,True,13,-1,0,8
008K23,6,366,AS,exp,25,←,left,←,0.5032592999923509,True,13,1,1,9
008K23,6,367,AS,exp,38,→,no_key,no_letter,-1.0,False,12,-1,1,10
008K23,6,368,AS,exp,49,↑,up,↑,0.6385903999907896,True,13,-1,0,10
008K23,6,369,AS,exp,28,←,left,←,0.49629369999456685,True,13,1,1,11
008K23,6,370,AS,exp,37,→,right,→,0.781316099994001,True,12,1,0,11
008K23,6,371,AS,exp,26,↓,up,↑,0.7615112000057707,False,12,-1,1,12
008K23,6,372,AS,exp,37,↑,up,↑,0.41691980000177864,True,13,-1,0,12
008K23,6,373,AS,exp,44,→,right,→,0.4687271000002511,True,13,1,1,13
008K23,6,374,AS,exp,32,←,left,←,0.6367413999978453,True,12,1,0,13
008K23,6,375,AS,exp,28,→,right,→,0.4740626999991946,True,12,1,0,13
008K23,6,376,AS,exp,48,↓,down,↓,0.7236028999905102,True,11,1,0,13
008K23,6,377,AS,exp,43,→,right,→,0.40299790000426583,True,11,1,0,13
008K23,6,378,AS,exp,31,↓,down,↓,1.0183534000098007,True,10,1,0,13
008K23,6,379,AS,exp,44,←,left,←,0.5445505999960005,True,10,1,0,13
008K23,6,380,AS,exp,32,→,right,→,0.45496600000478793,True,9,1,0,13
008K23,6,381,AS,exp,31,↓,down,↓,1.22819919999165,True,9,1,0,13
008K23,6,382,AS,exp,44,↑,up,↑,0.7418732000078307,True,8,1,0,13
008K23,6,383,AS,exp,25,←,left,←,0.4651360999996541,True,8,1,0,13
008K23,6,384,AS,exp,27,↑,up,↑,0.5000903000036487,True,7,1,0,13
008K23,6,385,AS,exp,30,↓,down,↓,0.7850264000007883,True,7,1,0,13
008K23,6,386,AS,exp,30,↑,up,↑,0.4113582999998471,True,6,1,0,13
008K23,6,387,AS,exp,35,↓,down,↓,0.6821951000019908,True,6,1,0,13
008K23,6,388,AS,exp,38,←,left,←,0.5928481000009924,True,5,1,0,13
008K23,6,389,AS,exp,44,↓,up,↑,0.6768824000027962,False,5,-1,1,14
008K23,7,390,AS,intra_train,36,→,no_key,no_letter,-1.0,False,31,-,-,-
008K23,7,391,AS,intra_train,28,←,left,←,0.5670396000059554,True,31,-,-,-
008K23,7,392,AS,intra_train,37,→,right,→,0.600465899988194,True,31,-,-,-
008K23,7,393,AS,intra_train,25,←,left,←,0.65043959999457,True,31,-,-,-
008K23,7,394,AS,intra_train,39,→,right,→,0.550449700007448,True,31,-,-,-
008K23,7,395,AS,exp,48,↑,up,↑,0.4669884000031743,True,21,0,0,0
008K23,7,396,AS,exp,46,←,left,←,0.6564517999941017,True,21,1,0,0
008K23,7,397,AS,exp,47,↑,up,↑,0.41707519999181386,True,20,1,0,0
008K23,7,398,AS,exp,37,↓,up,↑,0.7300371000019368,False,20,-1,1,1
008K23,7,399,AS,exp,48,←,up,↑,0.4505215999961365,False,21,-1,0,1
008K23,7,400,AS,exp,40,↑,up,↑,0.5417789999919478,True,22,-1,0,1
008K23,7,401,AS,exp,28,→,right,→,0.5955853999912506,True,22,1,1,2
008K23,7,402,AS,exp,47,↓,down,↓,0.7447652999981074,True,21,1,0,2
008K23,7,403,AS,exp,46,←,left,←,0.6385275999928126,True,21,1,0,2
008K23,7,404,AS,exp,31,→,right,→,0.40046049999364186,True,20,1,0,2
008K23,7,405,AS,exp,47,↓,down,↓,0.5877897000027588,True,20,1,0,2
008K23,7,406,AS,exp,27,↑,up,↑,0.6182082999876002,True,19,1,0,2
008K23,7,407,AS,exp,43,←,no_key,no_letter,-1.0,False,19,-1,1,3
008K23,7,408,AS,exp,32,↓,down,↓,0.8324199999915436,True,20,-1,0,3
008K23,7,409,AS,exp,31,↑,up,↑,0.8138599999947473,True,20,1,1,4
008K23,7,410,AS,exp,27,↓,up,↑,0.958529899988207,False,19,-1,1,5
008K23,7,411,AS,exp,38,↑,up,↑,0.6205054000020027,True,20,-1,0,5
008K23,7,412,AS,exp,33,→,right,→,0.6174887999950442,True,20,1,1,6
008K23,7,413,AS,exp,35,↓,down,↓,0.7507620999967912,True,19,1,0,6
008K23,7,414,AS,exp,49,←,left,←,0.4938304999959655,True,19,1,0,6
008K23,7,415,AS,exp,32,→,right,→,0.3837839000043459,True,18,1,0,6
008K23,7,416,AS,exp,28,↓,right,→,0.5441116000001784,False,18,-1,1,7
008K23,7,417,AS,exp,29,←,left,←,0.4172322999947937,True,19,-1,0,7
008K23,7,418,AS,exp,50,↓,down,↓,0.7133785000041826,True,19,1,1,8
008K23,7,419,AS,exp,29,←,right,→,0.6687349999992875,False,18,-1,1,9
008K23,7,420,AS,exp,46,→,right,→,0.7002639999991516,True,19,-1,0,9
008K23,7,421,AS,exp,40,←,left,←,0.45049989999097306,True,19,1,1,10
008K23,7,422,AS,exp,41,→,right,→,0.40057499999238644,True,18,1,0,10
008K23,7,423,AS,exp,39,↑,no_key,no_letter,-1.0,False,18,-1,1,11
008K23,7,424,AS,exp,30,→,right,→,0.4172148999932688,True,19,-1,0,11
008K23,7,425,AS,exp,39,↓,down,↓,0.8058246000000509,True,19,1,1,12
008K23,7,426,AS,exp,27,←,left,←,0.65567039999587,True,18,1,0,12
008K23,7,427,AS,exp,27,↓,up,↑,0.863280500008841,False,18,-1,1,13
008K23,7,428,AS,exp,44,←,no_key,no_letter,-1.0,False,19,-1,0,13
008K23,7,429,AS,exp,42,→,right,→,0.36713799998688046,True,20,-1,0,13
008K23,7,430,AS,exp,47,↑,up,↑,0.4347186000086367,True,20,1,1,14
008K23,8,431,PS,intra_train,30,→,left,←,0.7026606999861542,False,9,-,-,-
008K23,8,432,PS,intra_train,43,←,left,←,0.48188560000562575,True,9,-,-,-
008K23,8,433,PS,intra_train,48,↓,left,←,0.46268380001129117,False,9,-,-,-
008K23,8,434,PS,intra_train,44,→,right,→,1.2476835999987088,True,9,-,-,-
008K23,8,435,PS,intra_train,31,↓,down,↓,0.5907059000019217,True,9,-,-,-
008K23,8,436,PS,exp,46,←,left,←,0.3494368999963626,True,6,0,0,0
008K23,8,437,PS,exp,35,↓,up,↑,0.5224011999962386,False,6,-1,0,0
008K23,8,438,PS,exp,50,←,left,←,0.4252142999903299,True,7,-1,0,0
008K23,8,439,PS,exp,30,↑,left,←,0.469951699997182,False,7,-1,0,0
008K23,8,440,PS,exp,50,→,right,→,0.4605104999936884,True,8,-1,0,0
008K23,8,441,PS,exp,30,←,left,←,0.5932656999939354,True,8,1,1,1
008K23,8,442,PS,exp,26,→,right,→,1.04927730000054,True,7,1,0,1
008K23,8,443,PS,exp,25,↓,down,↓,0.5901789000054123,True,7,1,0,1
008K23,8,444,PS,exp,30,→,right,→,0.39851460000500083,True,6,1,0,1
008K23,8,445,PS,exp,27,↓,down,↓,0.4441428999998607,True,6,1,0,1
008K23,8,446,PS,exp,32,→,right,→,0.6150721000012709,True,5,1,0,1
008K23,8,447,PS,exp,28,↑,up,↑,0.45867140000336803,True,5,1,0,1
008K23,8,448,PS,exp,28,←,left,←,0.4777856000000611,True,4,1,0,1
008K23,8,449,PS,exp,35,↓,right,→,0.6738198000093689,False,4,-1,1,2
008K23,8,450,PS,exp,31,↑,up,↑,0.4144693999987794,True,5,-1,0,2
008K23,8,451,PS,exp,27,↓,up,↑,0.3752803999959724,False,5,-1,0,2
008K23,8,452,PS,exp,45,←,left,←,0.42984579999756534,True,6,-1,0,2
008K23,8,453,PS,exp,40,→,up,↑,0.27865290000045206,False,6,-1,0,2
008K23,8,454,PS,exp,37,↑,up,↑,0.46955579999485053,True,7,-1,0,2
008K23,8,455,PS,exp,27,←,up,↑,0.818637199990917,False,7,-1,0,2
008K23,8,456,PS,exp,28,↑,up,↑,0.44212490000063553,True,8,-1,0,2
008K23,8,457,PS,exp,27,↓,down,↓,0.6329911000066204,True,8,1,1,3
008K23,8,458,PS,exp,30,→,right,→,0.3674419000017224,True,7,1,0,3
008K23,8,459,PS,exp,27,↓,down,↓,0.5676142000011168,True,7,1,0,3
008K23,8,460,PS,exp,48,←,left,←,0.5209770999936154,True,6,1,0,3
008K23,8,461,PS,exp,47,→,right,→,0.3339627999957884,True,6,1,0,3
008K23,8,462,PS,exp,48,←,up,↑,0.528124000004027,False,5,-1,1,4
008K23,8,463,PS,exp,34,↑,up,↑,0.490977199995541,True,6,-1,0,4
008K23,8,464,PS,exp,33,→,right,→,0.3563248999998905,True,6,1,1,5
008K23,8,465,PS,exp,28,↑,right,→,0.43297049999819137,False,5,-1,1,6
008K23,8,466,PS,exp,29,→,right,→,0.43155100000149105,True,6,-1,0,6
008K23,8,467,PS,exp,28,←,right,→,0.5308234000112861,False,6,-1,0,6
008K23,8,468,PS,exp,46,↑,up,↑,0.44191419999697246,True,7,-1,0,6
008K23,8,469,PS,exp,48,←,up,↑,0.47175939999578986,False,7,-1,0,6
008K23,8,470,PS,exp,46,→,up,↑,0.523927599992021,False,8,-1,0,6
008K23,8,471,PS,exp,46,↑,up,↑,0.40766559999610763,True,9,-1,0,6
008K23,8,472,PS,exp,49,→,right,→,0.4366328999894904,True,9,1,1,7
008K23,8,473,PS,exp,49,↑,up,↑,0.48789960000431165,True,8,1,0,7
008K23,8,474,PS,exp,43,→,right,→,0.35380099999019876,True,8,1,0,7
008K23,8,475,PS,exp,42,↓,right,→,0.4341209000122035,False,7,-1,1,8
008K23,8,476,PS,exp,33,↑,up,↑,0.3713432999938959,True,8,-1,0,8
008K23,8,477,PS,exp,38,↓,down,↓,0.6244541000050958,True,8,1,1,9
008K23,8,478,PS,exp,49,↑,right,→,0.48956439999165013,False,7,-1,1,10
008K23,8,479,PS,exp,38,←,right,→,0.4443327000044519,False,8,-1,0,10
008K23,8,480,PS,exp,35,↓,right,→,0.46713910000107717,False,9,-1,0,10
008K23,8,481,PS,exp,28,↑,up,↑,0.5476003000076162,True,10,-1,0,10
008K23,8,482,PS,exp,28,↓,down,↓,0.579227299997001,True,10,1,1,11
008K23,8,483,PS,exp,26,→,right,→,0.5247173000097973,True,9,1,0,11
008K23,8,484,PS,exp,25,↑,up,↑,0.4778814000019338,True,9,1,0,11
008K23,8,485,PS,exp,30,→,right,→,0.4669226999976672,True,8,1,0,11
008K23,8,486,PS,exp,40,↓,down,↓,0.5193775999941863,True,8,1,0,11
008K23,8,487,PS,exp,34,↑,up,↑,0.4860876000020653,True,7,1,0,11
008K23,8,488,PS,exp,33,→,right,→,0.3598223000008147,True,7,1,0,11
008K23,8,489,PS,exp,28,←,down,↓,0.5904508999956306,False,6,-1,1,12
008K23,8,490,PS,exp,44,→,right,→,0.4400651000032667,True,7,-1,0,12
008K23,8,491,PS,exp,45,↓,down,↓,0.5072912000032375,True,7,1,1,13
008K23,8,492,PS,exp,32,←,right,→,0.47729989999788813,False,6,-1,1,14
