PART_ID,Block_no,Trial_no,Block_type,Trial_type,CSI,Stim_letter,Key_pressed,letter_choose,Rt,Corr,Stimulus Time,Level,Reversal,Revs_count
082M23,1,1,PS,train,26,←,left,←,0.8007143999998334,True,30,-,-,-
082M23,1,2,PS,train,49,↓,down,↓,0.6856184000000667,True,30,-,-,-
082M23,1,3,PS,train,48,←,left,←,0.41770120000001043,True,30,-,-,-
082M23,1,4,PS,train,43,↑,up,↑,0.6801007000001391,True,30,-,-,-
082M23,1,5,PS,train,30,←,left,←,0.5338428000000022,True,30,-,-,-
082M23,1,6,PS,train,50,↑,up,↑,0.36770030000002407,True,30,-,-,-
082M23,1,7,PS,train,38,↓,down,↓,0.4010971000000154,True,30,-,-,-
082M23,1,8,PS,train,36,←,left,←,0.4511119000001145,True,30,-,-,-
082M23,1,9,PS,train,31,↑,up,↑,0.45139709999989464,True,30,-,-,-
082M23,1,10,PS,train,32,→,right,→,0.5337715000000571,True,30,-,-,-
082M23,2,11,AS,train,42,←,left,←,0.43458860000009736,True,45,-,-,-
082M23,2,12,AS,train,47,↓,up,↑,0.6845635000001948,False,45,-,-,-
082M23,2,13,AS,train,25,↑,up,↑,1.5579093000001194,True,45,-,-,-
082M23,2,14,AS,train,28,↓,down,↓,0.8337891999999556,True,45,-,-,-
082M23,2,15,AS,train,48,↑,up,↑,0.6511050000001433,True,45,-,-,-
082M23,2,16,AS,train,45,↓,down,↓,1.0683074000000943,True,45,-,-,-
082M23,2,17,AS,train,32,←,left,←,0.6011720999999852,True,45,-,-,-
082M23,2,18,AS,train,46,↓,down,↓,0.7012993000000733,True,45,-,-,-
082M23,2,19,AS,train,40,→,right,→,0.5512026999999762,True,45,-,-,-
082M23,2,20,AS,train,42,↓,down,↓,0.9198186000000987,True,45,-,-,-
082M23,-,21,PS,adaptive,37,↑,up,↑,0.9598428000001604,True,10,0,0,0
082M23,-,22,PS,adaptive,36,→,right,→,0.7477014000000963,True,10,1,0,0
082M23,-,23,PS,adaptive,34,↑,up,↑,0.751970799999981,True,9,1,0,0
082M23,-,24,PS,adaptive,30,←,left,←,0.6488331999998991,True,9,1,0,0
082M23,-,25,PS,adaptive,47,↓,down,↓,0.5058656999999585,True,8,1,0,0
082M23,-,26,PS,adaptive,34,↑,up,↑,0.6003562999999303,True,8,1,0,0
082M23,-,27,PS,adaptive,25,→,right,→,0.5856770000000324,True,7,1,0,0
082M23,-,28,PS,adaptive,31,←,down,↓,0.6428725999999187,False,7,-1,1,1
082M23,-,29,PS,adaptive,36,→,down,↓,0.6556798999999955,False,8,-1,0,1
082M23,-,30,PS,adaptive,31,↑,left,←,0.7456600999998955,False,9,-1,0,1
082M23,-,31,PS,adaptive,27,→,right,→,0.4496964999998454,True,10,-1,0,1
082M23,-,32,PS,adaptive,47,←,left,←,0.45174050000014176,True,10,1,1,2
082M23,-,33,PS,adaptive,45,↓,down,↓,0.4452146000000994,True,9,1,0,2
082M23,-,34,PS,adaptive,32,↑,down,↓,0.9611875000000509,False,9,-1,1,3
082M23,-,35,PS,adaptive,50,←,left,←,0.6147492999998576,True,10,-1,0,3
082M23,-,36,PS,adaptive,50,→,down,↓,1.1809825999998793,False,10,-1,0,3
082M23,-,37,PS,adaptive,26,↓,up,↑,0.8592584000000443,False,11,-1,0,3
082M23,-,38,PS,adaptive,27,↑,up,↑,0.5723416999999245,True,12,-1,0,3
082M23,-,39,PS,adaptive,46,↓,down,↓,0.6714779000001272,True,12,1,1,4
082M23,-,40,AS,adaptive,41,↑,up,↑,0.561750899999879,True,20,0,0,0
082M23,-,41,AS,adaptive,28,↓,down,↓,1.3990142000000105,True,20,1,0,0
082M23,-,42,AS,adaptive,46,→,down,↓,0.9640031000001272,False,19,-1,1,1
082M23,-,43,AS,adaptive,37,↓,down,↓,0.9672026000000642,True,20,-1,0,1
082M23,-,44,AS,adaptive,37,←,left,←,0.5511106999999811,True,20,1,1,2
082M23,-,45,AS,adaptive,27,↑,down,↓,0.7338927000000695,False,19,-1,1,3
082M23,-,46,AS,adaptive,30,↓,down,↓,0.46699149999994916,True,20,-1,0,3
082M23,-,47,AS,adaptive,42,←,left,←,0.7367020999997749,True,20,1,1,4
082M23,1,48,PS,intra_train,27,→,right,→,0.7070307000001321,True,16,-,-,-
082M23,1,49,PS,intra_train,34,↓,down,↓,0.5521370000001298,True,16,-,-,-
082M23,1,50,PS,intra_train,36,←,left,←,0.7146175000000312,True,16,-,-,-
082M23,1,51,PS,intra_train,28,→,right,→,0.5343169000000216,True,16,-,-,-
082M23,1,52,PS,intra_train,34,↓,down,↓,0.5324611000000914,True,16,-,-,-
082M23,1,53,PS,exp,41,→,left,←,0.8559995000000526,False,11,-1,0,0
082M23,1,54,PS,exp,30,↓,down,↓,0.7205791999999747,True,12,-1,0,0
082M23,1,55,PS,exp,43,←,left,←,0.5520727000000534,True,12,1,1,1
082M23,1,56,PS,exp,29,↑,down,↓,0.7581597000000784,False,11,-1,1,2
082M23,1,57,PS,exp,44,→,right,→,0.8561681999999564,True,12,-1,0,2
082M23,1,58,PS,exp,48,↑,up,↑,0.5720681000000241,True,12,1,1,3
082M23,1,59,PS,exp,37,←,left,←,0.6339266999998472,True,11,1,0,3
082M23,1,60,PS,exp,25,→,right,→,0.566388599999982,True,11,1,0,3
082M23,1,61,PS,exp,46,←,left,←,0.5251334999998107,True,10,1,0,3
082M23,1,62,PS,exp,29,→,right,→,0.5774309000000812,True,10,1,0,3
082M23,1,63,PS,exp,48,←,up,↑,1.399020900000096,False,9,-1,1,4
082M23,1,64,PS,exp,36,↓,down,↓,0.627687700000024,True,10,-1,0,4
082M23,1,65,PS,exp,40,↑,down,↓,0.7619136000000708,False,10,-1,0,4
082M23,1,66,PS,exp,39,→,right,→,0.7645950999999513,True,11,-1,0,4
082M23,1,67,PS,exp,31,←,left,←,0.4303058999998939,True,11,1,1,5
082M23,1,68,PS,exp,36,↓,down,↓,0.5604339999999866,True,10,1,0,5
082M23,1,69,PS,exp,37,←,left,←,0.42690620000007584,True,10,1,0,5
082M23,1,70,PS,exp,38,→,right,→,0.40687630000002173,True,9,1,0,5
082M23,1,71,PS,exp,37,↑,down,↓,0.570741800000178,False,9,-1,1,6
082M23,1,72,PS,exp,39,←,left,←,0.4858612999998968,True,10,-1,0,6
082M23,1,73,PS,exp,50,↑,right,→,0.5927816000000803,False,10,-1,0,6
082M23,1,74,PS,exp,40,↓,down,↓,0.6393384000000424,True,11,-1,0,6
082M23,1,75,PS,exp,28,←,left,←,0.5428882999999587,True,11,1,1,7
082M23,1,76,PS,exp,31,↓,down,↓,0.8968246000001727,True,10,1,0,7
082M23,1,77,PS,exp,28,←,left,←,0.8391888999999537,True,10,1,0,7
082M23,1,78,PS,exp,39,↓,right,→,0.5017719000002216,False,9,-1,1,8
082M23,1,79,PS,exp,26,↑,up,↑,0.5044536000000335,True,10,-1,0,8
082M23,1,80,PS,exp,47,→,left,←,1.0909255000001394,False,10,-1,0,8
082M23,1,81,PS,exp,43,↑,up,↑,0.6580555000000459,True,11,-1,0,8
082M23,1,82,PS,exp,32,←,left,←,0.49220219999983783,True,11,1,1,9
082M23,1,83,PS,exp,30,↓,up,↑,0.5866312000000562,False,10,-1,1,10
082M23,1,84,PS,exp,33,←,up,↑,0.5260729999999967,False,11,-1,0,10
082M23,1,85,PS,exp,39,↓,down,↓,0.6972011000000293,True,12,-1,0,10
082M23,1,86,PS,exp,25,↑,up,↑,0.48026660000004995,True,12,1,1,11
082M23,1,87,PS,exp,33,↓,up,↑,0.6811878999999408,False,11,-1,1,12
082M23,1,88,PS,exp,43,↑,up,↑,0.5101266000001488,True,12,-1,0,12
082M23,1,89,PS,exp,39,←,left,←,0.6751725999999962,True,12,1,1,13
082M23,1,90,PS,exp,28,↓,down,↓,0.8451209999998355,True,11,1,0,13
082M23,1,91,PS,exp,34,↑,up,↑,0.5909337999999025,True,11,1,0,13
082M23,1,92,PS,exp,27,↓,left,←,0.8934948000000986,False,10,-1,1,14
082M23,2,93,AS,intra_train,37,↑,up,↑,0.6003842999998596,True,28,-,-,-
082M23,2,94,AS,intra_train,38,↓,down,↓,1.0494947000001957,True,28,-,-,-
082M23,2,95,AS,intra_train,50,↑,up,↑,0.638086899999962,True,28,-,-,-
082M23,2,96,AS,intra_train,29,↓,down,↓,0.903612800000019,True,28,-,-,-
082M23,2,97,AS,intra_train,29,←,left,←,0.6834572000000207,True,28,-,-,-
082M23,2,98,AS,exp,37,↑,up,↑,0.7939168999998856,True,19,0,0,0
082M23,2,99,AS,exp,45,→,right,→,0.7316653000000315,True,19,1,0,0
082M23,2,100,AS,exp,27,↓,down,↓,0.6791908000000149,True,18,1,0,0
082M23,2,101,AS,exp,47,←,left,←,0.6816576999999597,True,18,1,0,0
082M23,2,102,AS,exp,37,↑,down,↓,0.717844100000093,False,17,-1,1,1
082M23,2,103,AS,exp,26,→,right,→,0.7360744999998587,True,18,-1,0,1
082M23,2,104,AS,exp,31,↑,down,↓,0.6502864000001409,False,18,-1,0,1
082M23,2,105,AS,exp,40,→,right,→,0.7538141999998516,True,19,-1,0,1
082M23,2,106,AS,exp,31,↑,down,↓,0.9423676000001251,False,19,-1,0,1
082M23,2,107,AS,exp,41,→,right,→,0.5761359000000539,True,20,-1,0,1
082M23,2,108,AS,exp,46,←,no_key,no_letter,-1.0,False,20,-1,0,1
082M23,2,109,AS,exp,39,↑,up,↑,0.6731523000000834,True,21,-1,0,1
082M23,2,110,AS,exp,46,→,right,→,0.4674797000000126,True,21,1,1,2
082M23,2,111,AS,exp,39,↑,down,↓,0.9551767000000382,False,20,-1,1,3
082M23,2,112,AS,exp,40,←,no_key,no_letter,-1.0,False,21,-1,0,3
082M23,2,113,AS,exp,38,↑,up,↑,0.6823203999999805,True,22,-1,0,3
082M23,2,114,AS,exp,42,↓,down,↓,0.6655019999998331,True,22,1,1,4
082M23,2,115,AS,exp,38,↑,down,↓,0.8527404999999817,False,21,-1,1,5
082M23,2,116,AS,exp,47,←,left,←,0.6162127999998575,True,22,-1,0,5
082M23,2,117,AS,exp,27,↓,down,↓,0.5455400000000736,True,22,1,1,6
082M23,2,118,AS,exp,33,↑,up,↑,0.7313686999998481,True,21,1,0,6
082M23,2,119,AS,exp,33,←,left,←,0.658475499999895,True,21,1,0,6
082M23,2,120,AS,exp,43,↓,down,↓,0.6830558000001474,True,20,1,0,6
082M23,2,121,AS,exp,37,←,left,←,0.5739385000001676,True,20,1,0,6
082M23,2,122,AS,exp,32,↓,down,↓,0.8132439000000886,True,19,1,0,6
082M23,2,123,AS,exp,30,→,right,→,0.5278238999999303,True,19,1,0,6
082M23,2,124,AS,exp,49,↑,up,↑,0.6462229999997362,True,18,1,0,6
082M23,2,125,AS,exp,49,↓,down,↓,0.5015644000000066,True,18,1,0,6
082M23,2,126,AS,exp,47,→,left,←,0.7287677000003896,False,17,-1,1,7
082M23,2,127,AS,exp,50,←,left,←,0.47401239999999234,True,18,-1,0,7
082M23,2,128,AS,exp,29,↑,up,↑,0.7901105999999345,True,18,1,1,8
082M23,2,129,AS,exp,47,↓,down,↓,0.7140679999997701,True,17,1,0,8
082M23,2,130,AS,exp,31,→,left,←,0.6604321999998319,False,17,-1,1,9
082M23,2,131,AS,exp,25,↑,up,↑,0.6290995999997904,True,18,-1,0,9
082M23,2,132,AS,exp,46,←,left,←,0.6494794999998703,True,18,1,1,10
082M23,2,133,AS,exp,39,↑,down,↓,0.7617510000000038,False,17,-1,1,11
082M23,2,134,AS,exp,50,↓,down,↓,0.49955069999987245,True,18,-1,0,11
082M23,2,135,AS,exp,50,↑,up,↑,0.5433567000000039,True,18,1,1,12
082M23,2,136,AS,exp,37,→,right,→,0.5786204000000907,True,17,1,0,12
082M23,2,137,AS,exp,36,↓,down,↓,0.5182552999999643,True,17,1,0,12
082M23,2,138,AS,exp,46,→,left,←,0.7406458000000384,False,16,-1,1,13
082M23,2,139,AS,exp,27,↑,up,↑,0.6680787999998756,True,17,-1,0,13
082M23,2,140,AS,exp,25,→,left,←,0.551528199999666,False,17,-1,0,13
082M23,2,141,AS,exp,34,←,up,↑,0.5759377999997923,False,18,-1,0,13
082M23,2,142,AS,exp,33,↓,left,←,0.9766265000002932,False,19,-1,0,13
082M23,2,143,AS,exp,30,→,right,→,0.7170829000001504,True,20,-1,0,13
082M23,2,144,AS,exp,27,↓,down,↓,0.4670456999997441,True,20,1,1,14
082M23,3,145,AS,intra_train,43,→,no_key,no_letter,-1.0,False,28,-,-,-
082M23,3,146,AS,intra_train,43,↑,up,↑,1.1348770999998123,True,28,-,-,-
082M23,3,147,AS,intra_train,30,→,right,→,0.566758800000116,True,28,-,-,-
082M23,3,148,AS,intra_train,39,↓,down,↓,1.5302538999999342,True,28,-,-,-
082M23,3,149,AS,intra_train,40,→,right,→,0.7451891000000614,True,28,-,-,-
082M23,3,150,AS,exp,40,↓,down,↓,0.4986555000000408,True,19,0,0,0
082M23,3,151,AS,exp,29,←,right,→,0.5032617000001665,False,19,-1,0,0
082M23,3,152,AS,exp,38,↓,down,↓,0.467037800000071,True,20,-1,0,0
082M23,3,153,AS,exp,50,→,right,→,0.4670015000001513,True,20,1,1,1
082M23,3,154,AS,exp,30,↓,down,↓,0.6457667000004221,True,19,1,0,1
082M23,3,155,AS,exp,49,↑,up,↑,0.5012289999999666,True,19,1,0,1
082M23,3,156,AS,exp,43,↓,down,↓,0.7111230000000432,True,18,1,0,1
082M23,3,157,AS,exp,35,→,no_key,no_letter,-1.0,False,18,-1,1,2
082M23,3,158,AS,exp,50,←,right,→,0.5483472999999321,False,19,-1,0,2
082M23,3,159,AS,exp,34,→,right,→,0.46715979999999035,True,20,-1,0,2
082M23,3,160,AS,exp,41,←,left,←,0.4667621000003237,True,20,1,1,3
082M23,3,161,AS,exp,37,↓,down,↓,0.40048350000006394,True,19,1,0,3
082M23,3,162,AS,exp,46,→,right,→,0.697823999999855,True,19,1,0,3
082M23,3,163,AS,exp,36,↑,up,↑,0.5056199000000561,True,18,1,0,3
082M23,3,164,AS,exp,26,→,right,→,0.5694895000001452,True,18,1,0,3
082M23,3,165,AS,exp,37,↓,down,↓,0.8515050999999403,True,17,1,0,3
082M23,3,166,AS,exp,30,←,left,←,0.470860200000061,True,17,1,0,3
082M23,3,167,AS,exp,46,↑,up,↑,0.6481784000002335,True,16,1,0,3
082M23,3,168,AS,exp,48,↓,down,↓,0.5657633999999234,True,16,1,0,3
082M23,3,169,AS,exp,43,←,left,←,0.5256657999998424,True,15,1,0,3
082M23,3,170,AS,exp,28,→,no_key,no_letter,-1.0,False,15,-1,1,4
082M23,3,171,AS,exp,48,↑,up,↑,0.7717234000001554,True,16,-1,0,4
082M23,3,172,AS,exp,32,←,left,←,0.48506769999994503,True,16,1,1,5
082M23,3,173,AS,exp,42,↑,up,↑,0.8273841999998695,True,15,1,0,5
082M23,3,174,AS,exp,48,↓,right,→,0.7505719000000681,False,15,-1,1,6
082M23,3,175,AS,exp,48,→,right,→,0.6385475000001861,True,16,-1,0,6
082M23,3,176,AS,exp,44,↓,up,↑,0.9908031999998457,False,16,-1,0,6
082M23,3,177,AS,exp,31,↑,up,↑,0.5099304999998822,True,17,-1,0,6
082M23,3,178,AS,exp,35,←,left,←,0.6846110999999837,True,17,1,1,7
082M23,3,179,AS,exp,33,↓,down,↓,0.5141927999998188,True,16,1,0,7
082M23,3,180,AS,exp,33,→,right,→,0.5700704000000769,True,16,1,0,7
082M23,3,181,AS,exp,40,↓,down,↓,0.44935279999981503,True,15,1,0,7
082M23,3,182,AS,exp,36,←,left,←,0.4574683000000732,True,15,1,0,7
082M23,3,183,AS,exp,50,↓,down,↓,0.48253870000007737,True,14,1,0,7
082M23,3,184,AS,exp,36,↑,down,↓,0.6496216999998978,False,14,-1,1,8
082M23,3,185,AS,exp,32,←,left,←,0.49746520000007877,True,15,-1,0,8
082M23,3,186,AS,exp,45,→,no_key,no_letter,-1.0,False,15,-1,0,8
082M23,3,187,AS,exp,45,←,right,→,0.7342225000002145,False,16,-1,0,8
082M23,3,188,AS,exp,49,↓,down,↓,0.5636428999996497,True,17,-1,0,8
082M23,3,189,AS,exp,48,↑,up,↑,0.6434217000000899,True,17,1,1,9
082M23,3,190,AS,exp,39,←,left,←,0.6643499000001611,True,16,1,0,9
082M23,3,191,AS,exp,47,→,no_key,no_letter,-1.0,False,16,-1,1,10
082M23,3,192,AS,exp,42,↓,down,↓,0.7319468000000597,True,17,-1,0,10
082M23,3,193,AS,exp,31,→,left,←,0.788724000000002,False,17,-1,0,10
082M23,3,194,AS,exp,48,↓,down,↓,1.0204733999999007,True,18,-1,0,10
082M23,3,195,AS,exp,33,↑,up,↑,0.4901582000002236,True,18,1,1,11
082M23,3,196,AS,exp,39,↓,down,↓,0.6385923999996521,True,17,1,0,11
082M23,3,197,AS,exp,50,←,left,←,0.47665710000001127,True,17,1,0,11
082M23,3,198,AS,exp,35,→,right,→,0.6795717999998487,True,16,1,0,11
082M23,3,199,AS,exp,39,↓,down,↓,1.275336199999856,True,16,1,0,11
082M23,3,200,AS,exp,39,↑,up,↑,0.6700971999998728,True,15,1,0,11
082M23,3,201,AS,exp,48,→,right,→,0.48119480000013937,True,15,1,0,11
082M23,3,202,AS,exp,29,↓,down,↓,0.44768510000039896,True,14,1,0,11
082M23,3,203,AS,exp,49,←,left,←,0.4638116999999511,True,14,1,0,11
082M23,3,204,AS,exp,43,↓,down,↓,0.5151200000000244,True,13,1,0,11
082M23,3,205,AS,exp,44,→,right,→,0.4306888000000981,True,13,1,0,11
082M23,3,206,AS,exp,40,↓,down,↓,0.6671430999999757,True,12,1,0,11
082M23,3,207,AS,exp,30,→,right,→,0.42355810000026395,True,12,1,0,11
082M23,3,208,AS,exp,47,↑,right,→,0.7185765999997784,False,11,-1,1,12
082M23,3,209,AS,exp,32,→,right,→,0.7853841999999531,True,12,-1,0,12
082M23,3,210,AS,exp,25,↓,down,↓,0.6459509999999682,True,12,1,1,13
082M23,3,211,AS,exp,30,↑,up,↑,0.8706111999999848,True,11,1,0,13
082M23,3,212,AS,exp,44,→,right,→,0.49545119999993403,True,11,1,0,13
082M23,3,213,AS,exp,29,↑,down,↓,0.9689438000000337,False,10,-1,1,14
082M23,4,214,PS,intra_train,32,↓,down,↓,0.5841115999996873,True,16,-,-,-
082M23,4,215,PS,intra_train,28,↑,up,↑,0.5920569999998406,True,16,-,-,-
082M23,4,216,PS,intra_train,50,←,left,←,0.6067844000003788,True,16,-,-,-
082M23,4,217,PS,intra_train,46,→,right,→,1.4809497000001102,True,16,-,-,-
082M23,4,218,PS,intra_train,37,←,left,←,0.46638480000001437,True,16,-,-,-
082M23,4,219,PS,exp,41,→,right,→,0.300398899999891,True,11,0,0,0
082M23,4,220,PS,exp,35,↓,down,↓,1.056034599999748,True,11,1,0,0
082M23,4,221,PS,exp,41,→,down,↓,0.8581581000003098,False,10,-1,1,1
082M23,4,222,PS,exp,42,↑,right,→,0.819049200000336,False,11,-1,0,1
082M23,4,223,PS,exp,30,↓,down,↓,0.44701130000021294,True,12,-1,0,1
082M23,4,224,PS,exp,27,→,right,→,0.5430004999998346,True,12,1,1,2
082M23,4,225,PS,exp,42,←,left,←,0.48174850000032166,True,11,1,0,2
082M23,4,226,PS,exp,36,↓,right,→,0.7989130999999361,False,11,-1,1,3
082M23,4,227,PS,exp,35,←,left,←,0.4191428000003725,True,12,-1,0,3
082M23,4,228,PS,exp,40,↑,up,↑,0.5295411999995849,True,12,1,1,4
082M23,4,229,PS,exp,47,↓,down,↓,0.4713105999999243,True,11,1,0,4
082M23,4,230,PS,exp,38,↑,right,→,0.774053499999809,False,11,-1,1,5
082M23,4,231,PS,exp,30,←,left,←,1.300762400000167,True,12,-1,0,5
082M23,4,232,PS,exp,32,↓,down,↓,0.4648863000002166,True,12,1,1,6
082M23,4,233,PS,exp,42,←,left,←,0.7105645999999979,True,11,1,0,6
082M23,4,234,PS,exp,29,→,right,→,0.5040254000000459,True,11,1,0,6
082M23,4,235,PS,exp,29,←,left,←,0.515036499999951,True,10,1,0,6
082M23,4,236,PS,exp,36,↓,down,↓,0.5410256000000118,True,10,1,0,6
082M23,4,237,PS,exp,40,↑,down,↓,0.6815074999999524,False,9,-1,1,7
082M23,4,238,PS,exp,41,↓,down,↓,0.6207524999999805,True,10,-1,0,7
082M23,4,239,PS,exp,33,→,right,→,0.5091388000000734,True,10,1,1,8
082M23,4,240,PS,exp,40,←,left,←,0.4033706999998685,True,9,1,0,8
082M23,4,241,PS,exp,26,→,right,→,0.4605099999998856,True,9,1,0,8
082M23,4,242,PS,exp,45,↑,right,→,0.6115345999996862,False,8,-1,1,9
082M23,4,243,PS,exp,47,↓,down,↓,0.5416137000001982,True,9,-1,0,9
082M23,4,244,PS,exp,49,↑,up,↑,0.502814799999669,True,9,1,1,10
082M23,4,245,PS,exp,45,↓,down,↓,0.4438406999997824,True,8,1,0,10
082M23,4,246,PS,exp,28,→,right,→,0.6504437000003236,True,8,1,0,10
082M23,4,247,PS,exp,44,↑,up,↑,0.4741060999999718,True,7,1,0,10
082M23,4,248,PS,exp,45,←,left,←,0.4450189999997747,True,7,1,0,10
082M23,4,249,PS,exp,38,→,down,↓,0.6562898000001951,False,6,-1,1,11
082M23,4,250,PS,exp,41,↑,up,↑,0.5535135000000082,True,7,-1,0,11
082M23,4,251,PS,exp,35,←,left,←,1.0431022000002486,True,7,1,1,12
082M23,4,252,PS,exp,45,↓,up,↑,0.5907324999998309,False,6,-1,1,13
082M23,4,253,PS,exp,36,↑,up,↑,0.5314729000001535,True,7,-1,0,13
082M23,4,254,PS,exp,26,→,right,→,0.8458873999998104,True,7,1,1,14
082M23,5,255,PS,intra_train,34,↑,up,↑,0.5142994000002545,True,16,-,-,-
082M23,5,256,PS,intra_train,27,←,left,←,0.400390299999799,True,16,-,-,-
082M23,5,257,PS,intra_train,40,↑,up,↑,0.6485864999999649,True,16,-,-,-
082M23,5,258,PS,intra_train,31,←,left,←,0.4824812000001657,True,16,-,-,-
082M23,5,259,PS,intra_train,31,↑,up,↑,0.3838079000001926,True,16,-,-,-
082M23,5,260,PS,exp,47,↓,down,↓,0.6828206999998656,True,11,0,0,0
082M23,5,261,PS,exp,28,↑,up,↑,0.48548110000001543,True,11,1,0,0
082M23,5,262,PS,exp,28,→,left,←,0.8376413000000866,False,10,-1,1,1
082M23,5,263,PS,exp,42,←,left,←,0.39656719999993584,True,11,-1,0,1
082M23,5,264,PS,exp,28,↓,down,↓,0.5030611000001954,True,11,1,1,2
082M23,5,265,PS,exp,32,←,left,←,0.5109910999999556,True,10,1,0,2
082M23,5,266,PS,exp,41,↓,down,↓,0.5237354999999297,True,10,1,0,2
082M23,5,267,PS,exp,40,←,left,←,0.6013090000001284,True,9,1,0,2
082M23,5,268,PS,exp,33,↓,down,↓,0.47288839999964694,True,9,1,0,2
082M23,5,269,PS,exp,43,→,left,←,0.647547399999894,False,8,-1,1,3
082M23,5,270,PS,exp,41,↑,right,→,1.0669597999999496,False,9,-1,0,3
082M23,5,271,PS,exp,48,↓,up,↑,1.7282979999999952,False,10,-1,0,3
082M23,5,272,PS,exp,42,←,left,←,0.6320636999998896,True,11,-1,0,3
082M23,5,273,PS,exp,41,→,right,→,0.44229829999994763,True,11,1,1,4
082M23,5,274,PS,exp,37,↓,right,→,0.30019510000010996,False,10,-1,1,5
082M23,5,275,PS,exp,33,↑,up,↑,0.516215099999954,True,11,-1,0,5
082M23,5,276,PS,exp,33,→,right,→,0.5598367000002327,True,11,1,1,6
082M23,5,277,PS,exp,40,↓,up,↑,0.34357779999982085,False,10,-1,1,7
082M23,5,278,PS,exp,43,←,down,↓,0.6359689000000799,False,11,-1,0,7
082M23,5,279,PS,exp,46,↑,up,↑,0.6289646999998695,True,12,-1,0,7
082M23,5,280,PS,exp,49,↓,down,↓,0.4408864000001813,True,12,1,1,8
082M23,5,281,PS,exp,31,←,right,→,0.5356255000001511,False,11,-1,1,9
082M23,5,282,PS,exp,29,→,right,→,0.5439534000001913,True,12,-1,0,9
082M23,5,283,PS,exp,38,↑,left,←,0.8585363000001962,False,12,-1,0,9
082M23,5,284,PS,exp,45,→,right,→,0.7098301999999421,True,13,-1,0,9
082M23,5,285,PS,exp,34,↑,right,→,0.9352180000000772,False,13,-1,0,9
082M23,5,286,PS,exp,38,→,right,→,1.0059157999999115,True,14,-1,0,9
082M23,5,287,PS,exp,42,↑,up,↑,0.6711340000001655,True,14,1,1,10
082M23,5,288,PS,exp,26,←,left,←,0.47561799999994037,True,13,1,0,10
082M23,5,289,PS,exp,46,↑,up,↑,0.6684865000001992,True,13,1,0,10
082M23,5,290,PS,exp,34,↓,down,↓,0.41780329999983223,True,12,1,0,10
082M23,5,291,PS,exp,32,←,left,←,0.5136880000000019,True,12,1,0,10
082M23,5,292,PS,exp,28,↓,down,↓,0.4795080999997481,True,11,1,0,10
082M23,5,293,PS,exp,40,↑,up,↑,0.4333214000002954,True,11,1,0,10
082M23,5,294,PS,exp,29,←,up,↑,0.6214939000001323,False,10,-1,1,11
082M23,5,295,PS,exp,41,↓,up,↑,0.6931842999997571,False,11,-1,0,11
082M23,5,296,PS,exp,34,←,left,←,0.4169357000000673,True,12,-1,0,11
082M23,5,297,PS,exp,49,→,right,→,0.39466340000035416,True,12,1,1,12
082M23,5,298,PS,exp,44,←,left,←,0.4445433000000776,True,11,1,0,12
082M23,5,299,PS,exp,29,↑,up,↑,0.43523110000023735,True,11,1,0,12
082M23,5,300,PS,exp,37,↓,up,↑,0.5885381999996753,False,10,-1,1,13
082M23,5,301,PS,exp,41,←,left,←,0.6703907999999501,True,11,-1,0,13
082M23,5,302,PS,exp,29,↑,up,↑,0.38990119999971284,True,11,1,1,14
082M23,6,303,AS,intra_train,36,→,right,→,0.6810386000001927,True,28,-,-,-
082M23,6,304,AS,intra_train,35,↑,up,↑,0.6432867000003171,True,28,-,-,-
082M23,6,305,AS,intra_train,36,→,right,→,0.7735121000000618,True,28,-,-,-
082M23,6,306,AS,intra_train,39,↑,up,↑,0.799351900000147,True,28,-,-,-
082M23,6,307,AS,intra_train,38,←,right,→,0.583797499999946,False,28,-,-,-
082M23,6,308,AS,exp,29,↑,up,↑,0.6086694000000534,True,19,0,0,0
082M23,6,309,AS,exp,34,↓,up,↑,0.6732022999999572,False,19,-1,0,0
082M23,6,310,AS,exp,34,←,left,←,0.5971199999999044,True,20,-1,0,0
082M23,6,311,AS,exp,44,↑,up,↑,0.4504202999996778,True,20,1,1,1
082M23,6,312,AS,exp,41,→,right,→,0.4504818000000341,True,19,1,0,1
082M23,6,313,AS,exp,44,↑,up,↑,0.7101536999998643,True,19,1,0,1
082M23,6,314,AS,exp,40,→,right,→,0.6106292999998004,True,18,1,0,1
082M23,6,315,AS,exp,47,↓,up,↑,0.5375724000000446,False,18,-1,1,2
082M23,6,316,AS,exp,50,↑,down,↓,0.9697133999998186,False,19,-1,0,2
082M23,6,317,AS,exp,30,→,right,→,0.5467830999996295,True,20,-1,0,2
082M23,6,318,AS,exp,43,←,left,←,0.568195299999843,True,20,1,1,3
082M23,6,319,AS,exp,35,↓,up,↑,0.4504182000000583,False,19,-1,1,4
082M23,6,320,AS,exp,46,←,right,→,0.5466668999997637,False,20,-1,0,4
082M23,6,321,AS,exp,45,↓,down,↓,0.6339169000002585,True,21,-1,0,4
082M23,6,322,AS,exp,45,→,right,→,0.5352580999997372,True,21,1,1,5
082M23,6,323,AS,exp,31,↑,up,↑,0.9813555000000633,True,20,1,0,5
082M23,6,324,AS,exp,26,↓,down,↓,0.6007847999999285,True,20,1,0,5
082M23,6,325,AS,exp,28,↑,up,↑,0.7572291999999834,True,19,1,0,5
082M23,6,326,AS,exp,32,→,right,→,0.43372779999981503,True,19,1,0,5
082M23,6,327,AS,exp,32,↑,up,↑,0.5530164000001605,True,18,1,0,5
082M23,6,328,AS,exp,42,↓,down,↓,0.7274588000000222,True,18,1,0,5
082M23,6,329,AS,exp,40,↑,no_key,no_letter,-1.0,False,17,-1,1,6
082M23,6,330,AS,exp,42,↓,down,↓,0.8628100999999333,True,18,-1,0,6
082M23,6,331,AS,exp,29,←,up,↑,0.6173080999997183,False,18,-1,0,6
082M23,6,332,AS,exp,42,↓,down,↓,0.48746399999981804,True,19,-1,0,6
082M23,6,333,AS,exp,28,←,no_key,no_letter,-1.0,False,19,-1,0,6
082M23,6,334,AS,exp,42,↓,down,↓,0.5426518999997825,True,20,-1,0,6
082M23,6,335,AS,exp,45,↑,down,↓,0.4670823000001292,False,20,-1,0,6
082M23,6,336,AS,exp,37,↓,left,←,0.6737520000001496,False,21,-1,0,6
082M23,6,337,AS,exp,38,←,left,←,0.6551042000000962,True,22,-1,0,6
082M23,6,338,AS,exp,50,↓,down,↓,0.6366938000001028,True,22,1,1,7
082M23,6,339,AS,exp,25,↑,up,↑,0.654562100000021,True,21,1,0,7
082M23,6,340,AS,exp,31,↓,down,↓,0.6677927999999156,True,21,1,0,7
082M23,6,341,AS,exp,42,→,left,←,0.7751525999997284,False,20,-1,1,8
082M23,6,342,AS,exp,28,←,right,→,0.4003810999997768,False,21,-1,0,8
082M23,6,343,AS,exp,32,↑,up,↑,0.7390197000004264,True,22,-1,0,8
082M23,6,344,AS,exp,25,←,left,←,0.5003289999999652,True,22,1,1,9
082M23,6,345,AS,exp,37,→,no_key,no_letter,-1.0,False,21,-1,1,10
082M23,6,346,AS,exp,25,←,left,←,0.5534868999998253,True,22,-1,0,10
082M23,6,347,AS,exp,39,↑,up,↑,0.5689360999999735,True,22,1,1,11
082M23,6,348,AS,exp,25,←,right,→,0.5207617999999457,False,21,-1,1,12
082M23,6,349,AS,exp,35,→,left,←,0.5003829999996015,False,22,-1,0,12
082M23,6,350,AS,exp,28,↓,down,↓,1.217764999999872,True,23,-1,0,12
082M23,6,351,AS,exp,28,←,left,←,0.48377110000001267,True,23,1,1,13
082M23,6,352,AS,exp,34,↓,down,↓,0.6961225999998533,True,22,1,0,13
082M23,6,353,AS,exp,49,→,right,→,0.48383400000011534,True,22,1,0,13
082M23,6,354,AS,exp,32,←,left,←,0.4671536999999262,True,21,1,0,13
082M23,6,355,AS,exp,28,→,right,→,0.9036949999999706,True,21,1,0,13
082M23,6,356,AS,exp,37,←,right,→,0.46692699999994147,False,20,-1,1,14
082M23,7,357,AS,intra_train,38,→,right,→,1.654707099999996,True,28,-,-,-
082M23,7,358,AS,intra_train,48,↓,down,↓,0.6835808999999244,True,28,-,-,-
082M23,7,359,AS,intra_train,40,←,left,←,1.4552867000002152,True,28,-,-,-
082M23,7,360,AS,intra_train,48,↓,down,↓,0.6384313999997175,True,28,-,-,-
082M23,7,361,AS,intra_train,39,→,left,←,0.5669864999999845,False,28,-,-,-
082M23,7,362,AS,exp,26,↑,up,↑,1.0571552999999767,True,19,0,0,0
082M23,7,363,AS,exp,45,→,right,→,0.4505057000001216,True,19,1,0,0
082M23,7,364,AS,exp,48,←,left,←,0.5758527999996659,True,18,1,0,0
082M23,7,365,AS,exp,31,↓,up,↑,0.7944735000000946,False,18,-1,1,1
082M23,7,366,AS,exp,34,←,left,←,0.6530365000003258,True,19,-1,0,1
082M23,7,367,AS,exp,41,↓,down,↓,0.529504299999644,True,19,1,1,2
082M23,7,368,AS,exp,44,←,left,←,0.7251651999999922,True,18,1,0,2
082M23,7,369,AS,exp,37,↑,down,↓,0.6646648999999343,False,18,-1,1,3
082M23,7,370,AS,exp,48,→,right,→,0.4336787000002005,True,19,-1,0,3
082M23,7,371,AS,exp,28,↑,up,↑,1.015994700000192,True,19,1,1,4
082M23,7,372,AS,exp,27,←,left,←,0.6802622999998675,True,18,1,0,4
082M23,7,373,AS,exp,49,↑,up,↑,0.5472231999997348,True,18,1,0,4
082M23,7,374,AS,exp,39,↓,down,↓,0.5527364999998099,True,17,1,0,4
082M23,7,375,AS,exp,32,←,left,←,0.5876146000000517,True,17,1,0,4
082M23,7,376,AS,exp,27,↑,up,↑,0.49346319999995103,True,16,1,0,4
082M23,7,377,AS,exp,33,→,right,→,1.1333339999996497,True,16,1,0,4
082M23,7,378,AS,exp,33,←,right,→,0.8224414999999681,False,15,-1,1,5
082M23,7,379,AS,exp,26,↓,down,↓,0.666114799999832,True,16,-1,0,5
082M23,7,380,AS,exp,27,→,down,↓,1.199403600000096,False,16,-1,0,5
082M23,7,381,AS,exp,40,←,right,→,0.9365886000000501,False,17,-1,0,5
082M23,7,382,AS,exp,47,↓,down,↓,0.5948746999997638,True,18,-1,0,5
082M23,7,383,AS,exp,28,←,left,←,0.5646767999996882,True,18,1,1,6
082M23,7,384,AS,exp,35,→,right,→,0.656050999999934,True,17,1,0,6
082M23,7,385,AS,exp,29,↑,down,↓,0.6753185000002304,False,17,-1,1,7
082M23,7,386,AS,exp,33,↓,down,↓,0.8693316999997478,True,18,-1,0,7
082M23,7,387,AS,exp,36,←,left,←,0.5228800999998384,True,18,1,1,8
082M23,7,388,AS,exp,46,→,right,→,0.48815960000001724,True,17,1,0,8
082M23,7,389,AS,exp,41,↑,up,↑,0.5342288000001645,True,17,1,0,8
082M23,7,390,AS,exp,26,←,left,←,0.6136117999999442,True,16,1,0,8
082M23,7,391,AS,exp,42,↑,down,↓,0.7495860000003631,False,16,-1,1,9
082M23,7,392,AS,exp,35,→,right,→,0.471048399999745,True,17,-1,0,9
082M23,7,393,AS,exp,39,↓,down,↓,0.7032142999996722,True,17,1,1,10
082M23,7,394,AS,exp,40,←,left,←,0.7453958000000966,True,16,1,0,10
082M23,7,395,AS,exp,27,↑,down,↓,0.6671323000000484,False,16,-1,1,11
082M23,7,396,AS,exp,33,←,left,←,0.7531911999999465,True,17,-1,0,11
082M23,7,397,AS,exp,27,→,no_key,no_letter,-1.0,False,17,-1,0,11
082M23,7,398,AS,exp,40,↓,up,↑,0.7257381000003988,False,18,-1,0,11
082M23,7,399,AS,exp,34,↑,down,↓,0.5182932000002438,False,19,-1,0,11
082M23,7,400,AS,exp,35,←,left,←,0.612556599999607,True,20,-1,0,11
082M23,7,401,AS,exp,33,→,left,←,0.5409754000002067,False,20,-1,0,11
082M23,7,402,AS,exp,34,←,left,←,1.3164692000000286,True,21,-1,0,11
082M23,7,403,AS,exp,35,↓,down,↓,0.6568695999999363,True,21,1,1,12
082M23,7,404,AS,exp,32,→,right,→,0.7426692999997613,True,20,1,0,12
082M23,7,405,AS,exp,44,↑,up,↑,0.7346802999995816,True,20,1,0,12
082M23,7,406,AS,exp,40,←,left,←,0.7369588999999905,True,19,1,0,12
082M23,7,407,AS,exp,39,→,left,←,0.8142186999998557,False,19,-1,1,13
082M23,7,408,AS,exp,29,↓,down,↓,0.6128536999999596,True,20,-1,0,13
082M23,7,409,AS,exp,33,↑,up,↑,0.6920040999998491,True,20,1,1,14
082M23,8,410,PS,intra_train,36,←,left,←,0.4505801000000247,True,16,-,-,-
082M23,8,411,PS,intra_train,30,→,right,→,0.6292710999996416,True,16,-,-,-
082M23,8,412,PS,intra_train,41,←,left,←,0.4542473000001337,True,16,-,-,-
082M23,8,413,PS,intra_train,35,↑,left,←,1.0663049999998293,False,16,-,-,-
082M23,8,414,PS,intra_train,47,↓,down,↓,0.5533921000001101,True,16,-,-,-
082M23,8,415,PS,exp,49,→,right,→,0.4988202999998066,True,11,0,0,0
082M23,8,416,PS,exp,29,↓,down,↓,0.5897138999998788,True,11,1,0,0
082M23,8,417,PS,exp,32,→,right,→,0.41682200000013836,True,10,1,0,0
082M23,8,418,PS,exp,47,←,left,←,0.45727990000023055,True,10,1,0,0
082M23,8,419,PS,exp,41,↓,down,↓,0.5298447000000124,True,9,1,0,0
082M23,8,420,PS,exp,48,→,right,→,0.380557299999964,True,9,1,0,0
082M23,8,421,PS,exp,41,↓,down,↓,0.5612946999999622,True,8,1,0,0
082M23,8,422,PS,exp,46,→,right,→,0.3993023000002722,True,8,1,0,0
082M23,8,423,PS,exp,40,↓,down,↓,0.49151220000021567,True,7,1,0,0
082M23,8,424,PS,exp,42,←,right,→,0.6181706000002123,False,7,-1,1,1
082M23,8,425,PS,exp,29,↑,up,↑,0.6050492000003942,True,8,-1,0,1
082M23,8,426,PS,exp,25,↓,down,↓,0.5031960000001163,True,8,1,1,2
082M23,8,427,PS,exp,48,↑,up,↑,0.5108488000000762,True,7,1,0,2
082M23,8,428,PS,exp,46,←,up,↑,0.4730909999998403,False,7,-1,1,3
082M23,8,429,PS,exp,43,→,right,→,0.4375441000001956,True,8,-1,0,3
082M23,8,430,PS,exp,29,↓,down,↓,0.7571993999999904,True,8,1,1,4
082M23,8,431,PS,exp,38,→,right,→,0.5965562000001228,True,7,1,0,4
082M23,8,432,PS,exp,41,↑,up,↑,0.4882286000001841,True,7,1,0,4
082M23,8,433,PS,exp,37,↓,down,↓,0.609148400000322,True,6,1,0,4
082M23,8,434,PS,exp,49,←,right,→,0.4862900999996782,False,6,-1,1,5
082M23,8,435,PS,exp,33,↓,down,↓,0.5452980000000025,True,7,-1,0,5
082M23,8,436,PS,exp,49,→,down,↓,0.4749212999995507,False,7,-1,0,5
082M23,8,437,PS,exp,30,↓,down,↓,0.7090355000000272,True,8,-1,0,5
082M23,8,438,PS,exp,50,↑,up,↑,0.6463134000000537,True,8,1,1,6
082M23,8,439,PS,exp,28,↓,down,↓,0.8637131000000409,True,7,1,0,6
082M23,8,440,PS,exp,48,←,left,←,0.5285562999997637,True,7,1,0,6
082M23,8,441,PS,exp,41,↓,down,↓,0.5630421000000752,True,6,1,0,6
082M23,8,442,PS,exp,45,←,left,←,0.5554535000001124,True,6,1,0,6
082M23,8,443,PS,exp,46,→,left,←,0.6944766999999956,False,5,-1,1,7
082M23,8,444,PS,exp,28,↑,left,←,0.5651929000000564,False,6,-1,0,7
082M23,8,445,PS,exp,46,↓,right,→,0.7232091999999284,False,7,-1,0,7
082M23,8,446,PS,exp,50,←,left,←,0.5750606000001426,True,8,-1,0,7
082M23,8,447,PS,exp,45,↓,right,→,0.6005067999999483,False,8,-1,0,7
082M23,8,448,PS,exp,35,←,left,←,0.46262620000015886,True,9,-1,0,7
082M23,8,449,PS,exp,26,↓,down,↓,0.5288249000000178,True,9,1,1,8
082M23,8,450,PS,exp,46,↑,up,↑,0.4568395999999666,True,8,1,0,8
082M23,8,451,PS,exp,25,↓,up,↑,0.5718416999998226,False,8,-1,1,9
082M23,8,452,PS,exp,41,→,left,←,0.5025436000000809,False,9,-1,0,9
082M23,8,453,PS,exp,43,←,left,←,0.5007252999998855,True,10,-1,0,9
082M23,8,454,PS,exp,49,↑,left,←,0.4466449999999895,False,10,-1,0,9
082M23,8,455,PS,exp,44,↓,down,↓,0.48715290000018285,True,11,-1,0,9
082M23,8,456,PS,exp,34,←,up,↑,0.7537810999997419,False,11,-1,0,9
082M23,8,457,PS,exp,47,↑,no_key,no_letter,-1.0,False,12,-1,0,9
082M23,8,458,PS,exp,33,↓,down,↓,0.49800749999985783,True,13,-1,0,9
082M23,8,459,PS,exp,36,↑,up,↑,0.5007183000002442,True,13,1,1,10
082M23,8,460,PS,exp,26,←,left,←,0.5570772999999463,True,12,1,0,10
082M23,8,461,PS,exp,34,↓,no_key,no_letter,-1.0,False,12,-1,1,11
082M23,8,462,PS,exp,40,←,down,↓,0.8617621999997027,False,13,-1,0,11
082M23,8,463,PS,exp,49,→,down,↓,0.588749099999859,False,14,-1,0,11
082M23,8,464,PS,exp,25,↓,up,↑,0.6488131000000976,False,15,-1,0,11
082M23,8,465,PS,exp,42,←,left,←,0.4584805999998025,True,16,-1,0,11
082M23,8,466,PS,exp,41,→,right,→,0.36719780000021274,True,16,1,1,12
082M23,8,467,PS,exp,25,←,right,→,0.5719871999999668,False,15,-1,1,13
082M23,8,468,PS,exp,41,↓,left,←,0.66554270000006,False,16,-1,0,13
082M23,8,469,PS,exp,44,↑,up,↑,0.6652288000000226,True,17,-1,0,13
082M23,8,470,PS,exp,28,↓,down,↓,0.5468393000001015,True,17,1,1,14
