PART_ID,Block_no,Trial_no,Block_type,Trial_type,CSI,Stim_letter,Key_pressed,letter_choose,Rt,Corr,Stimulus Time,Level,Reversal,Revs_count
097M26,1,1,PS,train,49,→,right,→,0.8151085000026796,True,30,-,-,-
097M26,1,2,PS,train,47,←,left,←,1.9171270999977423,True,30,-,-,-
097M26,1,3,PS,train,30,↑,up,↑,0.9981941000005463,True,30,-,-,-
097M26,1,4,PS,train,27,→,right,→,0.8947326000015892,True,30,-,-,-
097M26,1,5,PS,train,49,↓,down,↓,0.9448346999997739,True,30,-,-,-
097M26,1,6,PS,train,47,←,left,←,0.7112950999980967,True,30,-,-,-
097M26,1,7,PS,train,39,→,right,→,0.7862015000027895,True,30,-,-,-
097M26,1,8,PS,train,41,←,left,←,0.5504475999987335,True,30,-,-,-
097M26,1,9,PS,train,43,↑,up,↑,0.6673392000011518,True,30,-,-,-
097M26,1,10,PS,train,25,←,left,←,0.5170615999995789,True,30,-,-,-
097M26,2,11,AS,train,38,↑,up,↑,0.6678023000022222,True,45,-,-,-
097M26,2,12,AS,train,25,←,left,←,0.6010567000012088,True,45,-,-,-
097M26,2,13,AS,train,39,→,right,→,0.6345609999989392,True,45,-,-,-
097M26,2,14,AS,train,34,↑,up,↑,0.833752700000332,True,45,-,-,-
097M26,2,15,AS,train,41,↓,down,↓,0.7837175999993633,True,45,-,-,-
097M26,2,16,AS,train,38,←,left,←,0.5511636000010185,True,45,-,-,-
097M26,2,17,AS,train,25,→,right,→,0.6677990999996837,True,45,-,-,-
097M26,2,18,AS,train,48,↓,left,←,0.6010853999978281,False,45,-,-,-
097M26,2,19,AS,train,44,←,left,←,0.567791399997077,True,45,-,-,-
097M26,2,20,AS,train,40,↓,down,↓,0.701233300002059,True,45,-,-,-
097M26,-,21,PS,adaptive,47,←,left,←,0.580980399998225,True,10,0,0,0
097M26,-,22,PS,adaptive,47,→,right,→,0.5340603000004194,True,10,1,0,0
097M26,-,23,PS,adaptive,33,↑,up,↑,0.7431521999969846,True,9,1,0,0
097M26,-,24,PS,adaptive,46,→,right,→,0.5995775000010326,True,9,1,0,0
097M26,-,25,PS,adaptive,38,↓,down,↓,0.6086532000008447,True,8,1,0,0
097M26,-,26,PS,adaptive,30,←,left,←,0.47304710000025807,True,8,1,0,0
097M26,-,27,PS,adaptive,45,↓,left,←,0.794227200000023,False,7,-1,1,1
097M26,-,28,PS,adaptive,50,↑,up,↑,0.6181450999974913,True,8,-1,0,1
097M26,-,29,PS,adaptive,45,→,right,→,0.3955605999981344,True,8,1,1,2
097M26,-,30,PS,adaptive,37,↑,up,↑,0.9510717000011937,True,7,1,0,2
097M26,-,31,PS,adaptive,31,↓,down,↓,0.8842482999971253,True,7,1,0,2
097M26,-,32,PS,adaptive,44,→,right,→,1.2809911999975157,True,6,1,0,2
097M26,-,33,PS,adaptive,49,←,left,←,1.185635399997409,True,6,1,0,2
097M26,-,34,PS,adaptive,32,↓,down,↓,0.5644863999987138,True,5,1,0,2
097M26,-,35,PS,adaptive,40,↑,down,↓,0.7083975999994436,False,5,-1,1,3
097M26,-,36,PS,adaptive,32,↓,down,↓,0.8858892999996897,True,6,-1,0,3
097M26,-,37,PS,adaptive,40,←,left,←,0.9285501999984263,True,6,1,1,4
097M26,-,38,AS,adaptive,47,↑,up,↑,1.1383400000013353,True,20,0,0,0
097M26,-,39,AS,adaptive,49,→,right,→,0.5074411999994481,True,20,1,0,0
097M26,-,40,AS,adaptive,28,←,left,←,0.6454654999979539,True,19,1,0,0
097M26,-,41,AS,adaptive,33,↓,down,↓,0.7430822999995144,True,19,1,0,0
097M26,-,42,AS,adaptive,37,↑,up,↑,0.6521904999972321,True,18,1,0,0
097M26,-,43,AS,adaptive,38,→,right,→,0.5321528999993461,True,18,1,0,0
097M26,-,44,AS,adaptive,34,↓,down,↓,0.6530412999964028,True,17,1,0,0
097M26,-,45,AS,adaptive,27,↑,up,↑,0.49228690000018105,True,17,1,0,0
097M26,-,46,AS,adaptive,42,↓,up,↑,0.8431633000000147,False,16,-1,1,1
097M26,-,47,AS,adaptive,42,↑,up,↑,0.5883353000026545,True,17,-1,0,1
097M26,-,48,AS,adaptive,33,↓,up,↑,0.7473501999993459,False,17,-1,0,1
097M26,-,49,AS,adaptive,48,↑,up,↑,0.5943550000010873,True,18,-1,0,1
097M26,-,50,AS,adaptive,39,→,right,→,0.5023514999993495,True,18,1,1,2
097M26,-,51,AS,adaptive,26,↑,up,↑,0.5896530999998504,True,17,1,0,2
097M26,-,52,AS,adaptive,37,↓,down,↓,0.5748569000024872,True,17,1,0,2
097M26,-,53,AS,adaptive,34,←,left,←,0.543398800000432,True,16,1,0,2
097M26,-,54,AS,adaptive,28,↓,down,↓,0.5696237000011024,True,16,1,0,2
097M26,-,55,AS,adaptive,36,→,right,→,1.1583228000017698,True,15,1,0,2
097M26,-,56,AS,adaptive,41,↓,down,↓,0.6884112000007008,True,15,1,0,2
097M26,-,57,AS,adaptive,39,←,left,←,0.5589072000002488,True,14,1,0,2
097M26,-,58,AS,adaptive,47,→,right,→,0.5913884000001417,True,14,1,0,2
097M26,-,59,AS,adaptive,48,↓,up,↑,1.015328400000726,False,13,-1,1,3
097M26,-,60,AS,adaptive,46,→,right,→,0.6650097999990976,True,14,-1,0,3
097M26,-,61,AS,adaptive,26,↑,up,↑,0.5706481999986863,True,14,1,1,4
097M26,1,62,PS,intra_train,25,←,left,←,0.8361659000001964,True,7,-,-,-
097M26,1,63,PS,intra_train,41,↑,up,↑,0.5971287999964261,True,7,-,-,-
097M26,1,64,PS,intra_train,33,←,left,←,0.6202533999967272,True,7,-,-,-
097M26,1,65,PS,intra_train,37,→,right,→,0.6075746999995317,True,7,-,-,-
097M26,1,66,PS,intra_train,39,←,left,←,0.7910988999974506,True,7,-,-,-
097M26,1,67,PS,exp,48,↓,down,↓,0.4099457000011171,True,5,0,0,0
097M26,1,68,PS,exp,40,↑,left,←,0.6135322999980417,False,5,-1,0,0
097M26,1,69,PS,exp,26,↓,left,←,0.7222239000002446,False,6,-1,0,0
097M26,1,70,PS,exp,31,↑,left,←,0.707098800001404,False,7,-1,0,0
097M26,1,71,PS,exp,38,←,right,→,1.006630400002905,False,8,-1,0,0
097M26,1,72,PS,exp,38,→,down,↓,0.9855466000008164,False,9,-1,0,0
097M26,1,73,PS,exp,42,↓,down,↓,0.5331998000001477,True,10,-1,0,0
097M26,1,74,PS,exp,49,↑,up,↑,0.5522070000006352,True,10,1,1,1
097M26,1,75,PS,exp,47,←,left,←,0.5210144999982731,True,9,1,0,1
097M26,1,76,PS,exp,28,↑,up,↑,0.44789049999963026,True,9,1,0,1
097M26,1,77,PS,exp,44,↓,down,↓,0.6058860000011919,True,8,1,0,1
097M26,1,78,PS,exp,30,→,right,→,0.7352174000006926,True,8,1,0,1
097M26,1,79,PS,exp,46,↑,left,←,0.5844242999992275,False,7,-1,1,2
097M26,1,80,PS,exp,45,←,left,←,0.6027055999984441,True,8,-1,0,2
097M26,1,81,PS,exp,31,→,right,→,0.7397122000002128,True,8,1,1,3
097M26,1,82,PS,exp,45,←,left,←,0.609028800001397,True,7,1,0,3
097M26,1,83,PS,exp,38,↑,up,↑,0.5584324000010383,True,7,1,0,3
097M26,1,84,PS,exp,48,↓,down,↓,0.5056293000016012,True,6,1,0,3
097M26,1,85,PS,exp,35,←,left,←,0.4907753999978013,True,6,1,0,3
097M26,1,86,PS,exp,25,↓,right,→,0.6559201999989455,False,5,-1,1,4
097M26,1,87,PS,exp,32,←,left,←,0.4625034999990021,True,6,-1,0,4
097M26,1,88,PS,exp,50,→,right,→,0.5213422000015271,True,6,1,1,5
097M26,1,89,PS,exp,46,←,right,→,0.6400199999989127,False,5,-1,1,6
097M26,1,90,PS,exp,28,→,right,→,0.5697771000013745,True,6,-1,0,6
097M26,1,91,PS,exp,50,←,left,←,0.4745833999986644,True,6,1,1,7
097M26,1,92,PS,exp,41,↓,left,←,1.0416269000015745,False,5,-1,1,8
097M26,1,93,PS,exp,39,←,up,↑,0.7645148000010522,False,6,-1,0,8
097M26,1,94,PS,exp,43,→,right,→,0.45083900000099675,True,7,-1,0,8
097M26,1,95,PS,exp,25,↓,right,→,0.927249500000471,False,7,-1,0,8
097M26,1,96,PS,exp,34,→,right,→,0.6111913999993703,True,8,-1,0,8
097M26,1,97,PS,exp,32,↑,up,↑,0.48042379999969853,True,8,1,1,9
097M26,1,98,PS,exp,33,→,right,→,0.6734590000014578,True,7,1,0,9
097M26,1,99,PS,exp,45,←,left,←,0.7836620999987645,True,7,1,0,9
097M26,1,100,PS,exp,33,→,right,→,0.5804085999989184,True,6,1,0,9
097M26,1,101,PS,exp,40,↓,right,→,0.6864733999973396,False,6,-1,1,10
097M26,1,102,PS,exp,42,→,right,→,0.5888231999997515,True,7,-1,0,10
097M26,1,103,PS,exp,42,←,left,←,0.7923291000006429,True,7,1,1,11
097M26,1,104,PS,exp,33,→,right,→,1.2205538000016531,True,6,1,0,11
097M26,1,105,PS,exp,47,↑,up,↑,0.59383859999798,True,6,1,0,11
097M26,1,106,PS,exp,27,→,right,→,1.1644611000010627,True,5,1,0,11
097M26,1,107,PS,exp,44,↑,left,←,1.274933400000009,False,5,-1,1,12
097M26,1,108,PS,exp,30,→,right,→,0.7692499000004318,True,6,-1,0,12
097M26,1,109,PS,exp,38,↑,up,↑,0.5657498999971722,True,6,1,1,13
097M26,1,110,PS,exp,47,←,right,→,1.0234605000005104,False,5,-1,1,14
097M26,2,111,AS,intra_train,30,↑,up,↑,0.7911840000015218,True,19,-,-,-
097M26,2,112,AS,intra_train,47,↓,down,↓,0.6276126999982807,True,19,-,-,-
097M26,2,113,AS,intra_train,43,↑,up,↑,0.7485030999996525,True,19,-,-,-
097M26,2,114,AS,intra_train,50,←,left,←,0.5390326000015193,True,19,-,-,-
097M26,2,115,AS,intra_train,34,→,right,→,1.2640141999982006,True,19,-,-,-
097M26,2,116,AS,exp,31,↓,down,↓,0.5020261999998183,True,13,0,0,0
097M26,2,117,AS,exp,50,→,no_key,no_letter,-1.0,False,13,-1,0,0
097M26,2,118,AS,exp,30,↓,down,↓,0.5557841000008921,True,14,-1,0,0
097M26,2,119,AS,exp,33,→,left,←,0.4873324000000139,False,14,-1,0,0
097M26,2,120,AS,exp,44,↓,up,↑,0.849552899999253,False,15,-1,0,0
097M26,2,121,AS,exp,34,↑,up,↑,0.7605077000007441,True,16,-1,0,0
097M26,2,122,AS,exp,34,→,right,→,0.5125121000019135,True,16,1,1,1
097M26,2,123,AS,exp,25,↓,down,↓,0.62765859999854,True,15,1,0,1
097M26,2,124,AS,exp,38,←,left,←,0.580780300002516,True,15,1,0,1
097M26,2,125,AS,exp,48,→,down,↓,0.9637874000000011,False,14,-1,1,2
097M26,2,126,AS,exp,35,↑,up,↑,0.537398900003609,True,15,-1,0,2
097M26,2,127,AS,exp,32,↓,down,↓,0.6518455000004906,True,15,1,1,3
097M26,2,128,AS,exp,26,←,left,←,0.5822057999976096,True,14,1,0,3
097M26,2,129,AS,exp,47,↓,down,↓,0.5037522000020545,True,14,1,0,3
097M26,2,130,AS,exp,39,←,up,↑,1.3929146000009496,False,13,-1,1,4
097M26,2,131,AS,exp,37,↓,down,↓,0.5105017999994743,True,14,-1,0,4
097M26,2,132,AS,exp,32,↑,up,↑,0.46362719999888213,True,14,1,1,5
097M26,2,133,AS,exp,32,↓,down,↓,0.6731808000004094,True,13,1,0,5
097M26,2,134,AS,exp,42,←,left,←,0.47402179999699,True,13,1,0,5
097M26,2,135,AS,exp,45,↑,up,↑,0.5465952000013203,True,12,1,0,5
097M26,2,136,AS,exp,28,↓,down,↓,0.5243948999996064,True,12,1,0,5
097M26,2,137,AS,exp,34,→,right,→,0.6222842000024684,True,11,1,0,5
097M26,2,138,AS,exp,31,←,left,←,0.9818343999977515,True,11,1,0,5
097M26,2,139,AS,exp,50,↓,down,↓,0.6239798999995401,True,10,1,0,5
097M26,2,140,AS,exp,43,→,right,→,0.7510390000024927,True,10,1,0,5
097M26,2,141,AS,exp,50,←,up,↑,1.2667173000008916,False,9,-1,1,6
097M26,2,142,AS,exp,48,↓,down,↓,0.610147200000938,True,10,-1,0,6
097M26,2,143,AS,exp,35,↑,up,↑,1.421872999999323,True,10,1,1,7
097M26,2,144,AS,exp,47,←,right,→,0.7947413999972923,False,9,-1,1,8
097M26,2,145,AS,exp,40,→,right,→,0.6471562999977323,True,10,-1,0,8
097M26,2,146,AS,exp,31,↓,down,↓,0.5953541999988374,True,10,1,1,9
097M26,2,147,AS,exp,40,↑,up,↑,0.6243797999995877,True,9,1,0,9
097M26,2,148,AS,exp,33,↓,up,↑,1.0873086999999941,False,9,-1,1,10
097M26,2,149,AS,exp,35,→,right,→,0.5578984000021592,True,10,-1,0,10
097M26,2,150,AS,exp,30,↑,left,←,0.8585869000016828,False,10,-1,0,10
097M26,2,151,AS,exp,28,↓,down,↓,0.5466312999997172,True,11,-1,0,10
097M26,2,152,AS,exp,41,→,right,→,0.5309410000008938,True,11,1,1,11
097M26,2,153,AS,exp,40,↑,up,↑,0.5929662999988068,True,10,1,0,11
097M26,2,154,AS,exp,28,→,right,→,0.5664475000012317,True,10,1,0,11
097M26,2,155,AS,exp,26,↑,up,↑,0.6177104000016698,True,9,1,0,11
097M26,2,156,AS,exp,25,←,left,←,0.748346299998957,True,9,1,0,11
097M26,2,157,AS,exp,29,↓,down,↓,0.8700772000011057,True,8,1,0,11
097M26,2,158,AS,exp,31,↑,up,↑,0.5975737000007939,True,8,1,0,11
097M26,2,159,AS,exp,36,→,left,←,0.7078645000001416,False,7,-1,1,12
097M26,2,160,AS,exp,46,↑,up,↑,0.6275969999987865,True,8,-1,0,12
097M26,2,161,AS,exp,26,←,right,→,0.6359996999999566,False,8,-1,0,12
097M26,2,162,AS,exp,41,↑,up,↑,0.6050247000021045,True,9,-1,0,12
097M26,2,163,AS,exp,32,←,left,←,0.5475002999992284,True,9,1,1,13
097M26,2,164,AS,exp,47,↑,up,↑,0.5184501000003365,True,8,1,0,13
097M26,2,165,AS,exp,48,→,right,→,0.5302330999984406,True,8,1,0,13
097M26,2,166,AS,exp,41,↓,left,←,0.658048699999199,False,7,-1,1,14
097M26,3,167,AS,intra_train,49,→,right,→,1.0076721999976144,True,19,-,-,-
097M26,3,168,AS,intra_train,43,←,left,←,0.8716711000015493,True,19,-,-,-
097M26,3,169,AS,intra_train,33,→,right,→,0.4506144000006316,True,19,-,-,-
097M26,3,170,AS,intra_train,31,←,left,←,0.5903892000023916,True,19,-,-,-
097M26,3,171,AS,intra_train,48,↓,down,↓,0.49482829999760725,True,19,-,-,-
097M26,3,172,AS,exp,46,→,left,←,0.6295370999978331,False,13,-1,0,0
097M26,3,173,AS,exp,50,↓,up,↑,0.7435397999979614,False,14,-1,0,0
097M26,3,174,AS,exp,48,↑,up,↑,0.6101263999989897,True,15,-1,0,0
097M26,3,175,AS,exp,26,←,left,←,0.5537354000007326,True,15,1,1,1
097M26,3,176,AS,exp,34,↓,down,↓,0.49852110000210814,True,14,1,0,1
097M26,3,177,AS,exp,27,↑,left,←,0.7584810000007565,False,14,-1,1,2
097M26,3,178,AS,exp,50,↓,down,↓,0.6371321000005992,True,15,-1,0,2
097M26,3,179,AS,exp,28,↑,up,↑,0.5020815999996557,True,15,1,1,3
097M26,3,180,AS,exp,27,←,left,←,0.5308657999994466,True,14,1,0,3
097M26,3,181,AS,exp,31,→,left,←,1.449512399998639,False,14,-1,1,4
097M26,3,182,AS,exp,43,↓,down,↓,0.5266865000012331,True,15,-1,0,4
097M26,3,183,AS,exp,49,→,right,→,0.49851090000083786,True,15,1,1,5
097M26,3,184,AS,exp,33,↓,down,↓,0.5662397000014607,True,14,1,0,5
097M26,3,185,AS,exp,43,←,left,←,0.5355765000022075,True,14,1,0,5
097M26,3,186,AS,exp,25,↓,right,→,0.9853853999993589,False,13,-1,1,6
097M26,3,187,AS,exp,34,↑,up,↑,0.5621968000014022,True,14,-1,0,6
097M26,3,188,AS,exp,30,↓,left,←,0.7647429999997257,False,14,-1,0,6
097M26,3,189,AS,exp,46,→,right,→,0.5374942999987979,True,15,-1,0,6
097M26,3,190,AS,exp,33,←,left,←,0.6984712000012223,True,15,1,1,7
097M26,3,191,AS,exp,26,↓,down,↓,0.475350000000617,True,14,1,0,7
097M26,3,192,AS,exp,45,←,left,←,0.5570121999990079,True,14,1,0,7
097M26,3,193,AS,exp,33,↑,up,↑,0.5335881999999401,True,13,1,0,7
097M26,3,194,AS,exp,37,↓,down,↓,0.5165315000012924,True,13,1,0,7
097M26,3,195,AS,exp,46,←,left,←,0.5439202999987174,True,12,1,0,7
097M26,3,196,AS,exp,42,↑,up,↑,0.7599743999999191,True,12,1,0,7
097M26,3,197,AS,exp,25,←,left,←,0.6183428000003914,True,11,1,0,7
097M26,3,198,AS,exp,33,↓,down,↓,0.5463982999972359,True,11,1,0,7
097M26,3,199,AS,exp,42,↑,up,↑,0.697538500000519,True,10,1,0,7
097M26,3,200,AS,exp,36,→,right,→,0.5452609999993001,True,10,1,0,7
097M26,3,201,AS,exp,44,←,left,←,0.578438600001391,True,9,1,0,7
097M26,3,202,AS,exp,32,↑,up,↑,0.5796823999990011,True,9,1,0,7
097M26,3,203,AS,exp,26,↓,down,↓,0.518243700000312,True,8,1,0,7
097M26,3,204,AS,exp,32,←,left,←,0.9800168999972811,True,8,1,0,7
097M26,3,205,AS,exp,32,↑,up,↑,0.6342016000016883,True,7,1,0,7
097M26,3,206,AS,exp,42,↓,down,↓,0.6034166999997979,True,7,1,0,7
097M26,3,207,AS,exp,50,→,right,→,0.5515482000009797,True,6,1,0,7
097M26,3,208,AS,exp,37,↓,left,←,0.9263513999976567,False,6,-1,1,8
097M26,3,209,AS,exp,27,↑,up,↑,0.5633722000020498,True,7,-1,0,8
097M26,3,210,AS,exp,50,→,right,→,0.5462904000014532,True,7,1,1,9
097M26,3,211,AS,exp,34,↑,up,↑,0.8886562999978196,True,6,1,0,9
097M26,3,212,AS,exp,32,→,left,←,0.6473312999987684,False,6,-1,1,10
097M26,3,213,AS,exp,43,←,left,←,0.6168432000013127,True,7,-1,0,10
097M26,3,214,AS,exp,49,↑,right,→,0.9104592000003322,False,7,-1,0,10
097M26,3,215,AS,exp,43,→,right,→,0.5993861999995715,True,8,-1,0,10
097M26,3,216,AS,exp,50,↓,up,↑,0.5847086000030686,False,8,-1,0,10
097M26,3,217,AS,exp,28,→,up,↑,0.793082799998956,False,9,-1,0,10
097M26,3,218,AS,exp,30,↓,down,↓,1.103758099998231,True,10,-1,0,10
097M26,3,219,AS,exp,49,↑,up,↑,0.5385323000009521,True,10,1,1,11
097M26,3,220,AS,exp,33,↓,right,→,0.9095411999987846,False,9,-1,1,12
097M26,3,221,AS,exp,26,→,right,→,1.0584086000017123,True,10,-1,0,12
097M26,3,222,AS,exp,25,↑,up,↑,0.6467864000005648,True,10,1,1,13
097M26,3,223,AS,exp,36,←,left,←,0.6327194000004965,True,9,1,0,13
097M26,3,224,AS,exp,25,↑,up,↑,0.6499769000001834,True,9,1,0,13
097M26,3,225,AS,exp,28,↓,up,↑,0.8808567000014591,False,8,-1,1,14
097M26,4,226,PS,intra_train,26,←,left,←,0.5023346000016318,True,7,-,-,-
097M26,4,227,PS,intra_train,45,↑,right,→,0.7948286999999254,False,7,-,-,-
097M26,4,228,PS,intra_train,34,→,right,→,0.6523944000000483,True,7,-,-,-
097M26,4,229,PS,intra_train,32,↓,up,↑,0.6823183999986213,False,7,-,-,-
097M26,4,230,PS,intra_train,45,←,left,←,1.265254100002494,True,7,-,-,-
097M26,4,231,PS,exp,41,↓,right,→,0.717645699998684,False,5,-1,0,0
097M26,4,232,PS,exp,48,↑,right,→,0.742206899998564,False,6,-1,0,0
097M26,4,233,PS,exp,37,→,right,→,0.6346374999993714,True,7,-1,0,0
097M26,4,234,PS,exp,46,←,left,←,0.8276788000002853,True,7,1,1,1
097M26,4,235,PS,exp,40,→,right,→,0.5383044000009249,True,6,1,0,1
097M26,4,236,PS,exp,36,↑,right,→,0.6379904999994324,False,6,-1,1,2
097M26,4,237,PS,exp,42,→,right,→,0.5165693999988434,True,7,-1,0,2
097M26,4,238,PS,exp,50,↑,up,↑,0.6637482999976783,True,7,1,1,3
097M26,4,239,PS,exp,39,→,right,→,0.542905399997835,True,6,1,0,3
097M26,4,240,PS,exp,47,←,left,←,0.7085365999992064,True,6,1,0,3
097M26,4,241,PS,exp,42,↑,up,↑,0.5570998000002874,True,5,1,0,3
097M26,4,242,PS,exp,28,→,right,→,0.7144275999999081,True,5,1,0,3
097M26,4,243,PS,exp,34,←,left,←,0.4158829000007245,True,4,1,0,3
097M26,4,244,PS,exp,29,→,right,→,0.45119939999858616,True,4,1,0,3
097M26,4,245,PS,exp,47,↓,up,↑,0.932458700001007,False,3,-1,1,4
097M26,4,246,PS,exp,30,↑,down,↓,0.738389999998617,False,4,-1,0,4
097M26,4,247,PS,exp,25,↓,left,←,0.6716534000006504,False,5,-1,0,4
097M26,4,248,PS,exp,28,↑,left,←,0.8757652999993297,False,6,-1,0,4
097M26,4,249,PS,exp,48,↓,down,↓,0.5497108999988995,True,7,-1,0,4
097M26,4,250,PS,exp,42,←,left,←,0.4834469000015815,True,7,1,1,5
097M26,4,251,PS,exp,26,→,right,→,0.6254518999994616,True,6,1,0,5
097M26,4,252,PS,exp,49,↓,up,↑,0.7118043000009493,False,6,-1,1,6
097M26,4,253,PS,exp,41,↑,up,↑,1.4784125999976823,True,7,-1,0,6
097M26,4,254,PS,exp,43,←,no_key,no_letter,-1.0,False,7,-1,0,6
097M26,4,255,PS,exp,44,↑,up,↑,0.5955160999983491,True,8,-1,0,6
097M26,4,256,PS,exp,37,↓,right,→,0.7037618000031216,False,8,-1,0,6
097M26,4,257,PS,exp,48,↑,left,←,1.5681140000015148,False,9,-1,0,6
097M26,4,258,PS,exp,41,←,left,←,0.5366686000015761,True,10,-1,0,6
097M26,4,259,PS,exp,46,→,right,→,0.5372430999996141,True,10,1,1,7
097M26,4,260,PS,exp,48,←,left,←,0.4381193000008352,True,9,1,0,7
097M26,4,261,PS,exp,49,→,right,→,0.5301337000018975,True,9,1,0,7
097M26,4,262,PS,exp,29,←,left,←,0.5862355999997817,True,8,1,0,7
097M26,4,263,PS,exp,45,↑,up,↑,0.5136760999994294,True,8,1,0,7
097M26,4,264,PS,exp,45,←,left,←,0.5728103999972518,True,7,1,0,7
097M26,4,265,PS,exp,49,→,left,←,0.7426993999979459,False,7,-1,1,8
097M26,4,266,PS,exp,33,↓,down,↓,0.49671809999927063,True,8,-1,0,8
097M26,4,267,PS,exp,49,→,right,→,0.5811297000000195,True,8,1,1,9
097M26,4,268,PS,exp,26,↑,up,↑,0.5524947999983851,True,7,1,0,9
097M26,4,269,PS,exp,39,→,right,→,0.5239586999996391,True,7,1,0,9
097M26,4,270,PS,exp,46,←,right,→,0.5934426000021631,False,6,-1,1,10
097M26,4,271,PS,exp,36,↓,no_key,no_letter,-1.0,False,7,-1,0,10
097M26,4,272,PS,exp,27,↑,up,↑,0.6714793999999529,True,8,-1,0,10
097M26,4,273,PS,exp,36,←,right,→,0.6419805000004999,False,8,-1,0,10
097M26,4,274,PS,exp,36,↓,down,↓,0.485127800002374,True,9,-1,0,10
097M26,4,275,PS,exp,28,↑,up,↑,0.49397289999978966,True,9,1,1,11
097M26,4,276,PS,exp,44,←,left,←,0.4406492000016442,True,8,1,0,11
097M26,4,277,PS,exp,44,→,right,→,0.3537551000008534,True,8,1,0,11
097M26,4,278,PS,exp,33,↑,up,↑,0.5552698999999848,True,7,1,0,11
097M26,4,279,PS,exp,39,←,left,←,0.441568999998708,True,7,1,0,11
097M26,4,280,PS,exp,31,↓,right,→,0.5317885000004026,False,6,-1,1,12
097M26,4,281,PS,exp,49,↑,right,→,0.5803956000017934,False,7,-1,0,12
097M26,4,282,PS,exp,28,↓,down,↓,0.5958773999991536,True,8,-1,0,12
097M26,4,283,PS,exp,26,↑,up,↑,0.5378916999979992,True,8,1,1,13
097M26,4,284,PS,exp,40,↓,down,↓,0.9513987000027555,True,7,1,0,13
097M26,4,285,PS,exp,50,↑,up,↑,0.624388899999758,True,7,1,0,13
097M26,4,286,PS,exp,49,↓,left,←,0.6553688000021793,False,6,-1,1,14
097M26,5,287,PS,intra_train,37,→,right,→,0.6617145999989589,True,7,-,-,-
097M26,5,288,PS,intra_train,35,←,left,←,0.42567810000036843,True,7,-,-,-
097M26,5,289,PS,intra_train,34,↑,right,→,0.6308865999999398,False,7,-,-,-
097M26,5,290,PS,intra_train,29,→,right,→,0.4728224999998929,True,7,-,-,-
097M26,5,291,PS,intra_train,38,↓,right,→,0.7661369999987073,False,7,-,-,-
097M26,5,292,PS,exp,26,↑,up,↑,0.6244107999991684,True,5,0,0,0
097M26,5,293,PS,exp,39,←,right,→,0.6281245999998646,False,5,-1,0,0
097M26,5,294,PS,exp,33,↓,down,↓,0.6720220999995945,True,6,-1,0,0
097M26,5,295,PS,exp,49,↑,up,↑,0.4603790000001027,True,6,1,1,1
097M26,5,296,PS,exp,42,←,left,←,0.5788858999985678,True,5,1,0,1
097M26,5,297,PS,exp,28,↑,up,↑,0.5672257999976864,True,5,1,0,1
097M26,5,298,PS,exp,39,→,right,→,0.4724884999995993,True,4,1,0,1
097M26,5,299,PS,exp,31,↑,left,←,0.5199689000000944,False,4,-1,1,2
097M26,5,300,PS,exp,44,↓,right,→,0.5034713999993983,False,5,-1,0,2
097M26,5,301,PS,exp,42,←,left,←,0.42051299999729963,True,6,-1,0,2
097M26,5,302,PS,exp,32,→,right,→,0.37234770000213757,True,6,1,1,3
097M26,5,303,PS,exp,32,↓,down,↓,0.5332503999998153,True,5,1,0,3
097M26,5,304,PS,exp,43,↑,up,↑,0.749749199996586,True,5,1,0,3
097M26,5,305,PS,exp,37,→,left,←,0.5244276999983413,False,4,-1,1,4
097M26,5,306,PS,exp,36,↓,up,↑,0.8897700999987137,False,5,-1,0,4
097M26,5,307,PS,exp,27,↑,no_key,no_letter,-1.0,False,6,-1,0,4
097M26,5,308,PS,exp,47,←,left,←,0.47658720000254107,True,7,-1,0,4
097M26,5,309,PS,exp,35,↑,up,↑,0.6764987000024121,True,7,1,1,5
097M26,5,310,PS,exp,33,→,up,↑,0.8741926000002422,False,6,-1,1,6
097M26,5,311,PS,exp,33,↑,right,→,0.43479389999993145,False,7,-1,0,6
097M26,5,312,PS,exp,50,↓,down,↓,0.5428596999990987,True,8,-1,0,6
097M26,5,313,PS,exp,29,→,right,→,0.45059679999758373,True,8,1,1,7
097M26,5,314,PS,exp,48,←,left,←,0.4139462999992247,True,7,1,0,7
097M26,5,315,PS,exp,44,↑,up,↑,0.4860655999982555,True,7,1,0,7
097M26,5,316,PS,exp,49,→,right,→,0.5507496999998693,True,6,1,0,7
097M26,5,317,PS,exp,39,↑,right,→,0.635263500000292,False,6,-1,1,8
097M26,5,318,PS,exp,48,←,left,←,0.4043134000021382,True,7,-1,0,8
097M26,5,319,PS,exp,44,→,right,→,0.40802670000266517,True,7,1,1,9
097M26,5,320,PS,exp,28,←,left,←,0.3474284000003536,True,6,1,0,9
097M26,5,321,PS,exp,47,↑,up,↑,0.47808449999865843,True,6,1,0,9
097M26,5,322,PS,exp,35,→,right,→,0.5230580999996164,True,5,1,0,9
097M26,5,323,PS,exp,39,←,left,←,0.3617553999974916,True,5,1,0,9
097M26,5,324,PS,exp,41,↓,right,→,0.40813020000132383,False,4,-1,1,10
097M26,5,325,PS,exp,40,↑,up,↑,0.42020340000090073,True,5,-1,0,10
097M26,5,326,PS,exp,42,←,right,→,1.0326279000000795,False,5,-1,0,10
097M26,5,327,PS,exp,40,→,left,←,0.4454130999984045,False,6,-1,0,10
097M26,5,328,PS,exp,49,↑,up,↑,0.5016722999971535,True,7,-1,0,10
097M26,5,329,PS,exp,39,↓,up,↑,0.9522649999998976,False,7,-1,0,10
097M26,5,330,PS,exp,46,←,right,→,0.9677369999990333,False,8,-1,0,10
097M26,5,331,PS,exp,39,↓,down,↓,0.7601154000003589,True,9,-1,0,10
097M26,5,332,PS,exp,31,↑,up,↑,0.49334430000089924,True,9,1,1,11
097M26,5,333,PS,exp,40,↓,down,↓,0.520254400002159,True,8,1,0,11
097M26,5,334,PS,exp,37,←,left,←,0.8757468000003428,True,8,1,0,11
097M26,5,335,PS,exp,46,→,right,→,0.49902429999929154,True,7,1,0,11
097M26,5,336,PS,exp,49,←,right,→,0.5557090999973298,False,7,-1,1,12
097M26,5,337,PS,exp,29,↑,up,↑,0.4469451000004483,True,8,-1,0,12
097M26,5,338,PS,exp,41,↓,down,↓,0.7689760000030219,True,8,1,1,13
097M26,5,339,PS,exp,48,←,left,←,0.5302878000002238,True,7,1,0,13
097M26,5,340,PS,exp,42,→,right,→,0.432703099999344,True,7,1,0,13
097M26,5,341,PS,exp,28,←,left,←,0.5028020999998262,True,6,1,0,13
097M26,5,342,PS,exp,34,↓,down,↓,0.6498785999974643,True,6,1,0,13
097M26,5,343,PS,exp,50,↑,left,←,0.9172670999978436,False,5,-1,1,14
097M26,6,344,AS,intra_train,36,←,left,←,0.5731188999998267,True,19,-,-,-
097M26,6,345,AS,intra_train,40,→,right,→,0.518220999998448,True,19,-,-,-
097M26,6,346,AS,intra_train,27,↑,left,←,0.5875687999978254,False,19,-,-,-
097M26,6,347,AS,intra_train,30,↓,down,↓,1.118129799997405,True,19,-,-,-
097M26,6,348,AS,intra_train,40,→,right,→,0.41719219999868074,True,19,-,-,-
097M26,6,349,AS,exp,35,↑,up,↑,0.4234988999996858,True,13,0,0,0
097M26,6,350,AS,exp,32,←,left,←,0.5177309999999125,True,13,1,0,0
097M26,6,351,AS,exp,40,→,right,→,0.4115750000019034,True,12,1,0,0
097M26,6,352,AS,exp,31,↑,up,↑,0.533217500000319,True,12,1,0,0
097M26,6,353,AS,exp,45,←,left,←,0.48944610000035027,True,11,1,0,0
097M26,6,354,AS,exp,49,↑,up,↑,0.5746261000022059,True,11,1,0,0
097M26,6,355,AS,exp,50,↓,down,↓,0.5434591000012006,True,10,1,0,0
097M26,6,356,AS,exp,50,→,left,←,0.4677842999990389,False,10,-1,1,1
097M26,6,357,AS,exp,47,↑,up,↑,0.6456419999994978,True,11,-1,0,1
097M26,6,358,AS,exp,48,↓,down,↓,0.5448202000006859,True,11,1,1,2
097M26,6,359,AS,exp,36,→,left,←,0.5253702000009071,False,10,-1,1,3
097M26,6,360,AS,exp,38,↑,up,↑,0.5053499000023294,True,11,-1,0,3
097M26,6,361,AS,exp,38,←,up,↑,0.7147361999996065,False,11,-1,0,3
097M26,6,362,AS,exp,36,↑,up,↑,0.4892686999992293,True,12,-1,0,3
097M26,6,363,AS,exp,42,←,left,←,0.5446936000007554,True,12,1,1,4
097M26,6,364,AS,exp,40,↓,down,↓,0.5187296000003698,True,11,1,0,4
097M26,6,365,AS,exp,34,↑,up,↑,0.4245252000000619,True,11,1,0,4
097M26,6,366,AS,exp,41,↓,down,↓,0.5784463999989384,True,10,1,0,4
097M26,6,367,AS,exp,39,→,right,→,0.7936719999997877,True,10,1,0,4
097M26,6,368,AS,exp,30,↓,up,↑,0.43399110000245855,False,9,-1,1,5
097M26,6,369,AS,exp,25,←,up,↑,0.5468107999986387,False,10,-1,0,5
097M26,6,370,AS,exp,37,↑,up,↑,0.5224266999975953,True,11,-1,0,5
097M26,6,371,AS,exp,41,←,up,↑,0.45450789999813423,False,11,-1,0,5
097M26,6,372,AS,exp,37,↓,down,↓,0.5565134999997099,True,12,-1,0,5
097M26,6,373,AS,exp,39,←,left,←,0.44151570000030915,True,12,1,1,6
097M26,6,374,AS,exp,31,↑,right,→,0.9794785999984015,False,11,-1,1,7
097M26,6,375,AS,exp,36,→,right,→,0.6280367999970622,True,12,-1,0,7
097M26,6,376,AS,exp,50,↓,down,↓,0.5946518999990076,True,12,1,1,8
097M26,6,377,AS,exp,39,→,right,→,0.5175050999969244,True,11,1,0,8
097M26,6,378,AS,exp,26,↑,up,↑,0.5595625999994809,True,11,1,0,8
097M26,6,379,AS,exp,31,←,right,→,0.634110500002862,False,10,-1,1,9
097M26,6,380,AS,exp,37,→,right,→,0.6154083000001265,True,11,-1,0,9
097M26,6,381,AS,exp,49,↓,left,←,1.0956374000015785,False,11,-1,0,9
097M26,6,382,AS,exp,43,→,right,→,0.547751199999766,True,12,-1,0,9
097M26,6,383,AS,exp,46,←,right,→,0.6512361999994027,False,12,-1,0,9
097M26,6,384,AS,exp,27,↓,down,↓,0.81398949999857,True,13,-1,0,9
097M26,6,385,AS,exp,28,←,up,↑,0.7245022000024619,False,13,-1,0,9
097M26,6,386,AS,exp,30,→,right,→,0.49656600000162143,True,14,-1,0,9
097M26,6,387,AS,exp,45,←,left,←,0.5416479000014078,True,14,1,1,10
097M26,6,388,AS,exp,35,↓,down,↓,0.4252130999993824,True,13,1,0,10
097M26,6,389,AS,exp,42,↑,up,↑,0.45205949999945005,True,13,1,0,10
097M26,6,390,AS,exp,36,→,right,→,0.5633223000004364,True,12,1,0,10
097M26,6,391,AS,exp,40,←,down,↓,0.45877480000126525,False,12,-1,1,11
097M26,6,392,AS,exp,35,→,right,→,0.3502956999982416,True,13,-1,0,11
097M26,6,393,AS,exp,38,↑,up,↑,0.5216862000015681,True,13,1,1,12
097M26,6,394,AS,exp,48,→,down,↓,0.4259680000031949,False,12,-1,1,13
097M26,6,395,AS,exp,30,←,right,→,0.7835209000004397,False,13,-1,0,13
097M26,6,396,AS,exp,27,→,right,→,0.4224986999979592,True,14,-1,0,13
097M26,6,397,AS,exp,48,↑,up,↑,0.460903999999573,True,14,1,1,14
097M26,7,398,AS,intra_train,26,↓,down,↓,0.8505932000007306,True,19,-,-,-
097M26,7,399,AS,intra_train,30,→,right,→,0.5723547999987204,True,19,-,-,-
097M26,7,400,AS,intra_train,25,↑,up,↑,1.160152599997673,True,19,-,-,-
097M26,7,401,AS,intra_train,25,→,right,→,0.41708419999849866,True,19,-,-,-
097M26,7,402,AS,intra_train,30,↓,down,↓,0.5376821000027121,True,19,-,-,-
097M26,7,403,AS,exp,33,↑,up,↑,0.6813858000023174,True,13,0,0,0
097M26,7,404,AS,exp,31,→,right,→,0.4731935000017984,True,13,1,0,0
097M26,7,405,AS,exp,43,↑,up,↑,0.49562730000252486,True,12,1,0,0
097M26,7,406,AS,exp,43,↓,down,↓,0.5728070000004664,True,12,1,0,0
097M26,7,407,AS,exp,31,↑,right,→,0.8042999999997846,False,11,-1,1,1
097M26,7,408,AS,exp,26,←,left,←,0.4883789000014076,True,12,-1,0,1
097M26,7,409,AS,exp,35,→,right,→,0.5059832000006281,True,12,1,1,2
097M26,7,410,AS,exp,27,←,left,←,0.5253606000005675,True,11,1,0,2
097M26,7,411,AS,exp,31,↓,up,↑,0.5716514000014286,False,11,-1,1,3
097M26,7,412,AS,exp,38,→,left,←,0.5779451000016707,False,12,-1,0,3
097M26,7,413,AS,exp,36,↓,down,↓,0.5897120999979961,True,13,-1,0,3
097M26,7,414,AS,exp,28,←,left,←,0.4851644000009401,True,13,1,1,4
097M26,7,415,AS,exp,30,↑,up,↑,0.6255883000012545,True,12,1,0,4
097M26,7,416,AS,exp,40,↓,down,↓,0.6195145000019693,True,12,1,0,4
097M26,7,417,AS,exp,39,←,right,→,0.9369002000021283,False,11,-1,1,5
097M26,7,418,AS,exp,28,↓,down,↓,0.5782007000016165,True,12,-1,0,5
097M26,7,419,AS,exp,45,→,left,←,0.5664359999973385,False,12,-1,0,5
097M26,7,420,AS,exp,27,↓,down,↓,0.5780833999997412,True,13,-1,0,5
097M26,7,421,AS,exp,48,↑,up,↑,0.5687404999989667,True,13,1,1,6
097M26,7,422,AS,exp,41,←,left,←,0.5348980999988271,True,12,1,0,6
097M26,7,423,AS,exp,25,↓,down,↓,0.5316367000013997,True,12,1,0,6
097M26,7,424,AS,exp,39,→,right,→,0.5620135999997729,True,11,1,0,6
097M26,7,425,AS,exp,33,↑,up,↑,0.7270657000008214,True,11,1,0,6
097M26,7,426,AS,exp,34,←,right,→,0.5918941999989329,False,10,-1,1,7
097M26,7,427,AS,exp,40,↓,down,↓,0.5403260000020964,True,11,-1,0,7
097M26,7,428,AS,exp,47,↑,up,↑,0.5571061000009649,True,11,1,1,8
097M26,7,429,AS,exp,39,↓,down,↓,0.5908724999972037,True,10,1,0,8
097M26,7,430,AS,exp,42,←,left,←,1.2451301000000967,True,10,1,0,8
097M26,7,431,AS,exp,28,↓,down,↓,0.5335307000023022,True,9,1,0,8
097M26,7,432,AS,exp,25,→,right,→,0.49793940000017756,True,9,1,0,8
097M26,7,433,AS,exp,50,↑,up,↑,0.5522821999984444,True,8,1,0,8
097M26,7,434,AS,exp,46,←,right,→,0.4779441999999108,False,8,-1,1,9
097M26,7,435,AS,exp,32,↓,up,↑,0.5425395999991451,False,9,-1,0,9
097M26,7,436,AS,exp,30,↑,up,↑,0.5209103999986837,True,10,-1,0,9
097M26,7,437,AS,exp,26,↓,down,↓,0.5573807999971905,True,10,1,1,10
097M26,7,438,AS,exp,33,→,right,→,0.5481306000001496,True,9,1,0,10
097M26,7,439,AS,exp,39,↑,up,↑,0.8547247999995307,True,9,1,0,10
097M26,7,440,AS,exp,31,←,right,→,0.46856339999794727,False,8,-1,1,11
097M26,7,441,AS,exp,46,↓,down,↓,0.5907957999988867,True,9,-1,0,11
097M26,7,442,AS,exp,50,↑,up,↑,0.4894185999983165,True,9,1,1,12
097M26,7,443,AS,exp,34,←,right,→,0.8227456999993592,False,8,-1,1,13
097M26,7,444,AS,exp,28,↓,down,↓,0.6128606999991462,True,9,-1,0,13
097M26,7,445,AS,exp,25,←,left,←,0.5737461999997322,True,9,1,1,14
097M26,8,446,PS,intra_train,33,↑,left,←,0.870936499999516,False,7,-,-,-
097M26,8,447,PS,intra_train,39,↓,down,↓,0.6075157999985095,True,7,-,-,-
097M26,8,448,PS,intra_train,26,↑,up,↑,0.5670258999998623,True,7,-,-,-
097M26,8,449,PS,intra_train,38,→,right,→,0.48819799999910174,True,7,-,-,-
097M26,8,450,PS,intra_train,35,←,right,→,0.5887426000008418,False,7,-,-,-
097M26,8,451,PS,exp,49,→,right,→,0.512174600000435,True,5,0,0,0
097M26,8,452,PS,exp,34,←,right,→,0.5568509000004269,False,5,-1,0,0
097M26,8,453,PS,exp,31,→,right,→,0.5796026999996684,True,6,-1,0,0
097M26,8,454,PS,exp,25,↑,right,→,0.6628955000014685,False,6,-1,0,0
097M26,8,455,PS,exp,45,←,right,→,0.594049699997413,False,7,-1,0,0
097M26,8,456,PS,exp,28,↑,up,↑,0.5180622000007133,True,8,-1,0,0
097M26,8,457,PS,exp,30,←,right,→,0.42842640000162646,False,8,-1,0,0
097M26,8,458,PS,exp,27,↓,left,←,0.746039000001474,False,9,-1,0,0
097M26,8,459,PS,exp,27,←,left,←,0.5111257999997179,True,10,-1,0,0
097M26,8,460,PS,exp,26,↓,down,↓,0.8226247999991756,True,10,1,1,1
097M26,8,461,PS,exp,44,→,right,→,0.3839296000005561,True,9,1,0,1
097M26,8,462,PS,exp,32,↑,left,←,0.6235551000027044,False,9,-1,1,2
097M26,8,463,PS,exp,50,←,left,←,1.201284200000373,True,10,-1,0,2
097M26,8,464,PS,exp,38,↑,up,↑,0.46167049999712617,True,10,1,1,3
097M26,8,465,PS,exp,49,→,right,→,0.7874626999982866,True,9,1,0,3
097M26,8,466,PS,exp,31,↓,down,↓,0.5655010000009497,True,9,1,0,3
097M26,8,467,PS,exp,48,→,right,→,0.538942399998632,True,8,1,0,3
097M26,8,468,PS,exp,27,↑,up,↑,0.43448110000099405,True,8,1,0,3
097M26,8,469,PS,exp,37,→,right,→,0.4661966999992728,True,7,1,0,3
097M26,8,470,PS,exp,36,↓,up,↑,0.9654809000021487,False,7,-1,1,4
097M26,8,471,PS,exp,37,↑,left,←,0.6166765000016312,False,8,-1,0,4
097M26,8,472,PS,exp,33,←,left,←,0.5400244000011298,True,9,-1,0,4
097M26,8,473,PS,exp,28,↓,down,↓,0.48842899999726797,True,9,1,1,5
097M26,8,474,PS,exp,45,←,left,←,0.4094014000002062,True,8,1,0,5
097M26,8,475,PS,exp,34,↑,up,↑,0.41705500000171014,True,8,1,0,5
097M26,8,476,PS,exp,27,↓,down,↓,0.4205476999995881,True,7,1,0,5
097M26,8,477,PS,exp,36,↑,up,↑,0.457324899998639,True,7,1,0,5
097M26,8,478,PS,exp,33,↓,down,↓,0.4604535000034957,True,6,1,0,5
097M26,8,479,PS,exp,40,→,left,←,0.6277263000010862,False,6,-1,1,6
097M26,8,480,PS,exp,28,←,left,←,0.4358989999964251,True,7,-1,0,6
097M26,8,481,PS,exp,41,→,right,→,0.5592159000007086,True,7,1,1,7
097M26,8,482,PS,exp,38,↑,left,←,1.1520130000026256,False,6,-1,1,8
097M26,8,483,PS,exp,49,→,right,→,0.5102299000027415,True,7,-1,0,8
097M26,8,484,PS,exp,28,↑,up,↑,0.48158459999831393,True,7,1,1,9
097M26,8,485,PS,exp,37,→,left,←,0.8333523000001151,False,6,-1,1,10
097M26,8,486,PS,exp,32,←,right,→,0.5714379999990342,False,7,-1,0,10
097M26,8,487,PS,exp,39,→,right,→,0.6133698000012373,True,8,-1,0,10
097M26,8,488,PS,exp,42,←,up,↑,1.5735439999989467,False,8,-1,0,10
097M26,8,489,PS,exp,44,→,right,→,0.60325080000257,True,9,-1,0,10
097M26,8,490,PS,exp,35,↓,right,→,0.9446849000014481,False,9,-1,0,10
097M26,8,491,PS,exp,45,→,right,→,0.785622899998998,True,10,-1,0,10
097M26,8,492,PS,exp,48,↑,up,↑,0.6902655000012601,True,10,1,1,11
097M26,8,493,PS,exp,44,→,right,→,0.6425452000003133,True,9,1,0,11
097M26,8,494,PS,exp,26,←,right,→,0.42474850000144215,False,9,-1,1,12
097M26,8,495,PS,exp,32,↓,down,↓,0.6288466999976663,True,10,-1,0,12
097M26,8,496,PS,exp,29,→,right,→,0.532745900000009,True,10,1,1,13
097M26,8,497,PS,exp,35,←,left,←,0.5607386999981827,True,9,1,0,13
097M26,8,498,PS,exp,45,↓,down,↓,0.5813989000016591,True,9,1,0,13
097M26,8,499,PS,exp,46,→,right,→,0.6176817000014125,True,8,1,0,13
097M26,8,500,PS,exp,31,↓,down,↓,0.5576284999988275,True,8,1,0,13
097M26,8,501,PS,exp,36,←,down,↓,1.089666699997906,False,7,-1,1,14
