PART_ID,Block_no,Trial_no,Block_type,Trial_type,CSI,Stim_letter,Key_pressed,letter_choose,Rt,Corr,Stimulus Time,Level,Reversal,Revs_count
208K23,1,1,PS,train,35,↑,up,↑,1.5524079999886453,True,30,-,-,-
208K23,1,2,PS,train,35,↓,down,↓,1.2859141000080854,True,30,-,-,-
208K23,1,3,PS,train,41,→,right,→,0.9578753001987934,True,30,-,-,-
208K23,1,4,PS,train,31,←,left,←,0.9691732998471707,True,30,-,-,-
208K23,1,5,PS,train,31,↑,up,↑,0.8397770000156015,True,30,-,-,-
208K23,1,6,PS,train,27,←,left,←,0.819300499977544,True,30,-,-,-
208K23,1,7,PS,train,46,↑,up,↑,0.8063413000199944,True,30,-,-,-
208K23,1,8,PS,train,37,↓,down,↓,0.9306725000496954,True,30,-,-,-
208K23,1,9,PS,train,31,↑,up,↑,0.7809176000300795,True,30,-,-,-
208K23,1,10,PS,train,48,←,left,←,0.8491978000383824,True,30,-,-,-
208K23,2,11,AS,train,48,↑,up,↑,0.7505753000732511,True,45,-,-,-
208K23,2,12,AS,train,41,↓,down,↓,0.7178944000042975,True,45,-,-,-
208K23,2,13,AS,train,42,→,right,→,0.617904300102964,True,45,-,-,-
208K23,2,14,AS,train,39,↑,up,↑,0.7501105999108404,True,45,-,-,-
208K23,2,15,AS,train,29,←,left,←,0.5511992000974715,True,45,-,-,-
208K23,2,16,AS,train,32,→,right,→,0.7179455999284983,True,45,-,-,-
208K23,2,17,AS,train,32,↓,down,↓,0.8171510000247508,True,45,-,-,-
208K23,2,18,AS,train,40,→,right,→,1.0012911001686007,True,45,-,-,-
208K23,2,19,AS,train,49,↑,up,↑,0.6011833001393825,True,45,-,-,-
208K23,2,20,AS,train,45,→,right,→,0.6343469000421464,True,45,-,-,-
208K23,-,21,PS,adaptive,29,↑,up,↑,0.7365015000104904,True,10,0,0,0
208K23,-,22,PS,adaptive,25,←,right,→,0.9724761999677867,False,10,-1,0,0
208K23,-,23,PS,adaptive,44,↓,down,↓,0.8036545999348164,True,11,-1,0,0
208K23,-,24,PS,adaptive,37,←,left,←,0.8773477000650018,True,11,1,1,1
208K23,-,25,PS,adaptive,30,↓,down,↓,0.6334233998786658,True,10,1,0,1
208K23,-,26,PS,adaptive,28,→,right,→,0.5691408000420779,True,10,1,0,1
208K23,-,27,PS,adaptive,48,↓,down,↓,0.7426527999341488,True,9,1,0,1
208K23,-,28,PS,adaptive,27,↑,down,↓,0.7957497001625597,False,9,-1,1,2
208K23,-,29,PS,adaptive,46,→,left,←,0.8185388999991119,False,10,-1,0,2
208K23,-,30,PS,adaptive,49,←,right,→,0.7332957999315113,False,11,-1,0,2
208K23,-,31,PS,adaptive,44,↑,up,↑,0.623644300037995,True,12,-1,0,2
208K23,-,32,PS,adaptive,49,→,right,→,0.70005810004659,True,12,1,1,3
208K23,-,33,PS,adaptive,37,↑,up,↑,0.6850878999102861,True,11,1,0,3
208K23,-,34,PS,adaptive,29,↓,down,↓,0.6509413998574018,True,11,1,0,3
208K23,-,35,PS,adaptive,46,←,left,←,0.5947108000982553,True,10,1,0,3
208K23,-,36,PS,adaptive,33,↑,left,←,0.7543603000231087,False,10,-1,1,4
208K23,-,37,AS,adaptive,31,←,left,←,0.5508359998930246,True,20,0,0,0
208K23,-,38,AS,adaptive,43,→,right,→,0.5700630000792444,True,20,1,0,0
208K23,-,39,AS,adaptive,37,↓,down,↓,1.0994160999543965,True,19,1,0,0
208K23,-,40,AS,adaptive,48,→,right,→,0.5955701998900622,True,19,1,0,0
208K23,-,41,AS,adaptive,36,↑,up,↑,0.6681943999137729,True,18,1,0,0
208K23,-,42,AS,adaptive,32,↓,down,↓,0.657288399990648,True,18,1,0,0
208K23,-,43,AS,adaptive,32,←,left,←,0.7071299001108855,True,17,1,0,0
208K23,-,44,AS,adaptive,34,→,right,→,0.7505097999237478,True,17,1,0,0
208K23,-,45,AS,adaptive,50,←,left,←,0.6108705999795347,True,16,1,0,0
208K23,-,46,AS,adaptive,44,→,left,←,1.1275587000418454,False,16,-1,1,1
208K23,-,47,AS,adaptive,36,↑,up,↑,0.8192501999437809,True,17,-1,0,1
208K23,-,48,AS,adaptive,42,←,left,←,0.6267222999595106,True,17,1,1,2
208K23,-,49,AS,adaptive,28,→,left,←,0.9785581000614911,False,16,-1,1,3
208K23,-,50,AS,adaptive,41,←,left,←,0.6369698001071811,True,17,-1,0,3
208K23,-,51,AS,adaptive,29,↑,up,↑,0.7883359999395907,True,17,1,1,4
208K23,1,52,AS,intra_train,46,→,right,→,0.6617629998363554,True,24,-,-,-
208K23,1,53,AS,intra_train,44,←,left,←,0.6802351002115756,True,24,-,-,-
208K23,1,54,AS,intra_train,42,→,right,→,0.6711303000338376,True,24,-,-,-
208K23,1,55,AS,intra_train,41,←,left,←,0.822177000110969,True,24,-,-,-
208K23,1,56,AS,intra_train,40,↑,up,↑,0.8490488999523222,True,24,-,-,-
208K23,1,57,AS,exp,49,←,left,←,0.6259127999655902,True,16,0,0,0
208K23,1,58,AS,exp,26,↑,up,↑,0.7861411001067609,True,16,1,0,0
208K23,1,59,AS,exp,47,→,right,→,0.6747664001304656,True,15,1,0,0
208K23,1,60,AS,exp,38,←,left,←,0.6944707001093775,True,15,1,0,0
208K23,1,61,AS,exp,39,↓,down,↓,0.7476590999867767,True,14,1,0,0
208K23,1,62,AS,exp,49,←,left,←,0.5841630999930203,True,14,1,0,0
208K23,1,63,AS,exp,37,→,right,→,0.8213490999769419,True,13,1,0,0
208K23,1,64,AS,exp,28,←,left,←,0.6154765000101179,True,13,1,0,0
208K23,1,65,AS,exp,30,→,right,→,0.6696945999283344,True,12,1,0,0
208K23,1,66,AS,exp,27,←,left,←,0.6259846000466496,True,12,1,0,0
208K23,1,67,AS,exp,36,↓,down,↓,0.6882331999950111,True,11,1,0,0
208K23,1,68,AS,exp,38,→,right,→,0.7792211999185383,True,11,1,0,0
208K23,1,69,AS,exp,33,↑,up,↑,0.6432811000850052,True,10,1,0,0
208K23,1,70,AS,exp,48,←,left,←,0.5643507000058889,True,10,1,0,0
208K23,1,71,AS,exp,35,→,right,→,0.7180679999291897,True,9,1,0,0
208K23,1,72,AS,exp,36,↓,up,↑,0.9083779999054968,False,9,-1,1,1
208K23,1,73,AS,exp,44,→,right,→,0.56090970011428,True,10,-1,0,1
208K23,1,74,AS,exp,31,←,right,→,0.6910141000989825,False,10,-1,0,1
208K23,1,75,AS,exp,32,→,right,→,0.6187847999390215,True,11,-1,0,1
208K23,1,76,AS,exp,46,←,left,←,0.5569296998437494,True,11,1,1,2
208K23,1,77,AS,exp,49,→,right,→,0.5178523999638855,True,10,1,0,2
208K23,1,78,AS,exp,39,↑,up,↑,0.6732118001673371,True,10,1,0,2
208K23,1,79,AS,exp,34,←,left,←,0.5809766999445856,True,9,1,0,2
208K23,1,80,AS,exp,48,↓,right,→,0.6010595001280308,False,9,-1,1,3
208K23,1,81,AS,exp,30,↑,up,↑,0.5164070997852832,True,10,-1,0,3
208K23,1,82,AS,exp,26,↓,up,↑,0.5915264000650495,False,10,-1,0,3
208K23,1,83,AS,exp,41,→,right,→,0.5606780000962317,True,11,-1,0,3
208K23,1,84,AS,exp,34,←,left,←,0.5957494999747723,True,11,1,1,4
208K23,1,85,AS,exp,33,↑,right,→,0.7980623999610543,False,10,-1,1,5
208K23,1,86,AS,exp,35,←,left,←,0.585103000048548,True,11,-1,0,5
208K23,1,87,AS,exp,39,↓,right,→,0.7836732000578195,False,11,-1,0,5
208K23,1,88,AS,exp,34,↑,up,↑,0.745648599928245,True,12,-1,0,5
208K23,1,89,AS,exp,27,→,right,→,0.5963155999779701,True,12,1,1,6
208K23,1,90,AS,exp,45,↑,up,↑,0.5582840000279248,True,11,1,0,6
208K23,1,91,AS,exp,48,←,left,←,0.43825970008037984,True,11,1,0,6
208K23,1,92,AS,exp,32,↓,down,↓,0.6200667999219149,True,10,1,0,6
208K23,1,93,AS,exp,32,→,right,→,0.6398070000577718,True,10,1,0,6
208K23,1,94,AS,exp,48,←,left,←,0.8634305000305176,True,9,1,0,6
208K23,1,95,AS,exp,50,→,right,→,0.5677885999903083,True,9,1,0,6
208K23,1,96,AS,exp,47,←,left,←,0.42677629995159805,True,8,1,0,6
208K23,1,97,AS,exp,30,→,left,←,0.6910648001357913,False,8,-1,1,7
208K23,1,98,AS,exp,26,↓,up,↑,0.9549259999766946,False,9,-1,0,7
208K23,1,99,AS,exp,39,→,right,→,0.6142209998797625,True,10,-1,0,7
208K23,1,100,AS,exp,50,←,left,←,0.5009202000219375,True,10,1,1,8
208K23,1,101,AS,exp,36,↓,up,↑,0.7216570000164211,False,9,-1,1,9
208K23,1,102,AS,exp,39,↑,up,↑,0.6854964001104236,True,10,-1,0,9
208K23,1,103,AS,exp,39,↓,down,↓,0.6485333000309765,True,10,1,1,10
208K23,1,104,AS,exp,26,←,left,←,0.5843956000171602,True,9,1,0,10
208K23,1,105,AS,exp,44,→,right,→,0.7166082998737693,True,9,1,0,10
208K23,1,106,AS,exp,43,↑,left,←,0.5635911000426859,False,8,-1,1,11
208K23,1,107,AS,exp,27,↓,up,↑,0.7355023000854999,False,9,-1,0,11
208K23,1,108,AS,exp,31,→,right,→,0.4995448999106884,True,10,-1,0,11
208K23,1,109,AS,exp,44,←,left,←,0.6016162000596523,True,10,1,1,12
208K23,1,110,AS,exp,47,→,right,→,0.7767191999591887,True,9,1,0,12
208K23,1,111,AS,exp,31,↓,left,←,0.6229433999396861,False,9,-1,1,13
208K23,1,112,AS,exp,36,←,right,→,0.6201061999890953,False,10,-1,0,13
208K23,1,113,AS,exp,35,↑,left,←,0.28396259993314743,False,11,-1,0,13
208K23,1,114,AS,exp,39,→,right,→,0.6115670001599938,True,12,-1,0,13
208K23,1,115,AS,exp,49,↑,up,↑,0.651157199870795,True,12,1,1,14
208K23,2,116,PS,intra_train,44,↓,down,↓,0.5850416999310255,True,16,-,-,-
208K23,2,117,PS,intra_train,25,→,right,→,0.578802399802953,True,16,-,-,-
208K23,2,118,PS,intra_train,28,↑,up,↑,0.6029649002011865,True,16,-,-,-
208K23,2,119,PS,intra_train,33,←,left,←,0.7040019000414759,True,16,-,-,-
208K23,2,120,PS,intra_train,43,→,right,→,0.4790400001220405,True,16,-,-,-
208K23,2,121,PS,exp,28,↓,down,↓,0.6773150998633355,True,11,0,0,0
208K23,2,122,PS,exp,30,→,right,→,0.7856383000034839,True,11,1,0,0
208K23,2,123,PS,exp,35,←,left,←,0.5310300998389721,True,10,1,0,0
208K23,2,124,PS,exp,38,↑,up,↑,0.5309107000939548,True,10,1,0,0
208K23,2,125,PS,exp,41,↓,down,↓,0.7900006999261677,True,9,1,0,0
208K23,2,126,PS,exp,38,↑,left,←,0.783326999982819,False,9,-1,1,1
208K23,2,127,PS,exp,29,↓,down,↓,0.7007003000471741,True,10,-1,0,1
208K23,2,128,PS,exp,36,←,left,←,0.6791093999054283,True,10,1,1,2
208K23,2,129,PS,exp,40,→,right,→,0.567950600059703,True,9,1,0,2
208K23,2,130,PS,exp,34,↑,up,↑,0.7562599999364465,True,9,1,0,2
208K23,2,131,PS,exp,38,↓,down,↓,0.6644246999640018,True,8,1,0,2
208K23,2,132,PS,exp,34,↑,up,↑,0.6728108001407236,True,8,1,0,2
208K23,2,133,PS,exp,47,↓,down,↓,0.520471700001508,True,7,1,0,2
208K23,2,134,PS,exp,48,←,left,←,0.5812350001651794,True,7,1,0,2
208K23,2,135,PS,exp,34,→,right,→,0.715689699864015,True,6,1,0,2
208K23,2,136,PS,exp,41,↑,left,←,0.6227295999415219,False,6,-1,1,3
208K23,2,137,PS,exp,32,←,left,←,0.6821480998769403,True,7,-1,0,3
208K23,2,138,PS,exp,44,↓,down,↓,0.468525999924168,True,7,1,1,4
208K23,2,139,PS,exp,37,←,left,←,0.7199775001499802,True,6,1,0,4
208K23,2,140,PS,exp,47,↓,down,↓,0.6145898001268506,True,6,1,0,4
208K23,2,141,PS,exp,49,←,left,←,0.5928850998170674,True,5,1,0,4
208K23,2,142,PS,exp,27,→,left,←,0.9534758001100272,False,5,-1,1,5
208K23,2,143,PS,exp,44,←,left,←,0.648714899783954,True,6,-1,0,5
208K23,2,144,PS,exp,31,↑,down,↓,0.6632816002238542,False,6,-1,0,5
208K23,2,145,PS,exp,31,↓,left,←,0.4871769000310451,False,7,-1,0,5
208K23,2,146,PS,exp,26,→,right,→,0.5627318001352251,True,8,-1,0,5
208K23,2,147,PS,exp,35,↓,left,←,0.649627799866721,False,8,-1,0,5
208K23,2,148,PS,exp,26,→,right,→,0.623466799966991,True,9,-1,0,5
208K23,2,149,PS,exp,32,←,left,←,0.5255146999843419,True,9,1,1,6
208K23,2,150,PS,exp,50,↓,down,↓,0.7879274999722838,True,8,1,0,6
208K23,2,151,PS,exp,31,←,left,←,0.5565343999769539,True,8,1,0,6
208K23,2,152,PS,exp,45,↓,left,←,0.4145422000437975,False,7,-1,1,7
208K23,2,153,PS,exp,35,→,right,→,0.42773170000873506,True,8,-1,0,7
208K23,2,154,PS,exp,45,←,left,←,0.4985134000889957,True,8,1,1,8
208K23,2,155,PS,exp,35,↓,left,←,0.348524599801749,False,7,-1,1,9
208K23,2,156,PS,exp,35,→,right,→,0.6179093001410365,True,8,-1,0,9
208K23,2,157,PS,exp,33,↓,down,↓,0.638329700101167,True,8,1,1,10
208K23,2,158,PS,exp,45,↑,left,←,0.6576816998422146,False,7,-1,1,11
208K23,2,159,PS,exp,28,↓,down,↓,0.4848927001003176,True,8,-1,0,11
208K23,2,160,PS,exp,29,↑,up,↑,0.8116866000927985,True,8,1,1,12
208K23,2,161,PS,exp,27,←,right,→,1.20821229997091,False,7,-1,1,13
208K23,2,162,PS,exp,46,↓,up,↑,0.7386386001016945,False,8,-1,0,13
208K23,2,163,PS,exp,41,←,left,←,0.5305545998271555,True,9,-1,0,13
208K23,2,164,PS,exp,45,→,right,→,0.4966961001046002,True,9,1,1,14
208K23,3,165,PS,intra_train,30,↑,up,↑,0.47892870008945465,True,16,-,-,-
208K23,3,166,PS,intra_train,48,↓,down,↓,0.586198000004515,True,16,-,-,-
208K23,3,167,PS,intra_train,25,↑,up,↑,0.5585417000111192,True,16,-,-,-
208K23,3,168,PS,intra_train,25,→,right,→,0.4389806999824941,True,16,-,-,-
208K23,3,169,PS,intra_train,26,↓,down,↓,0.589406100101769,True,16,-,-,-
208K23,3,170,PS,exp,42,←,left,←,0.5683090998791158,True,11,0,0,0
208K23,3,171,PS,exp,40,→,right,→,0.5810464001260698,True,11,1,0,0
208K23,3,172,PS,exp,27,↑,up,↑,0.5698891000356525,True,10,1,0,0
208K23,3,173,PS,exp,38,→,right,→,0.536814299877733,True,10,1,0,0
208K23,3,174,PS,exp,35,↓,down,↓,0.6634750999510288,True,9,1,0,0
208K23,3,175,PS,exp,44,↑,up,↑,0.562924699857831,True,9,1,0,0
208K23,3,176,PS,exp,30,↓,down,↓,0.7473339000716805,True,8,1,0,0
208K23,3,177,PS,exp,32,←,left,←,0.46829920005984604,True,8,1,0,0
208K23,3,178,PS,exp,35,↑,up,↑,0.5218885999638587,True,7,1,0,0
208K23,3,179,PS,exp,27,←,up,↑,0.6325904000550508,False,7,-1,1,1
208K23,3,180,PS,exp,45,→,right,→,0.5535395001061261,True,8,-1,0,1
208K23,3,181,PS,exp,25,↑,left,←,0.593432999914512,False,8,-1,0,1
208K23,3,182,PS,exp,32,↓,down,↓,0.6619355001021177,True,9,-1,0,1
208K23,3,183,PS,exp,28,←,left,←,0.45338080008514225,True,9,1,1,2
208K23,3,184,PS,exp,49,↓,left,←,0.7070869000162929,False,8,-1,1,3
208K23,3,185,PS,exp,41,←,left,←,0.6975665001664311,True,9,-1,0,3
208K23,3,186,PS,exp,25,→,left,←,0.7291637000162154,False,9,-1,0,3
208K23,3,187,PS,exp,39,↓,down,↓,0.727233599871397,True,10,-1,0,3
208K23,3,188,PS,exp,42,←,left,←,0.562453499995172,True,10,1,1,4
208K23,3,189,PS,exp,32,→,right,→,0.5237451000139117,True,9,1,0,4
208K23,3,190,PS,exp,40,↑,up,↑,0.5893677000422031,True,9,1,0,4
208K23,3,191,PS,exp,27,↓,up,↑,0.5511411000043154,False,8,-1,1,5
208K23,3,192,PS,exp,47,→,right,→,0.5042399000376463,True,9,-1,0,5
208K23,3,193,PS,exp,47,↑,left,←,0.5767222000285983,False,9,-1,0,5
208K23,3,194,PS,exp,30,←,left,←,0.40458520012907684,True,10,-1,0,5
208K23,3,195,PS,exp,39,↓,down,↓,0.5935329999774694,True,10,1,1,6
208K23,3,196,PS,exp,39,→,right,→,0.6405112000647932,True,9,1,0,6
208K23,3,197,PS,exp,37,↓,down,↓,0.5576396000105888,True,9,1,0,6
208K23,3,198,PS,exp,38,←,left,←,0.49254169990308583,True,8,1,0,6
208K23,3,199,PS,exp,30,↑,up,↑,0.5763660001102835,True,8,1,0,6
208K23,3,200,PS,exp,48,↓,up,↑,0.954809800023213,False,7,-1,1,7
208K23,3,201,PS,exp,27,↑,up,↑,0.8507240999024361,True,8,-1,0,7
208K23,3,202,PS,exp,48,←,left,←,0.5231375999283046,True,8,1,1,8
208K23,3,203,PS,exp,38,↓,down,↓,0.6452184000518173,True,7,1,0,8
208K23,3,204,PS,exp,26,←,right,→,0.5686321998946369,False,7,-1,1,9
208K23,3,205,PS,exp,30,↑,up,↑,0.5759485999587923,True,8,-1,0,9
208K23,3,206,PS,exp,28,←,left,←,0.5709362998604774,True,8,1,1,10
208K23,3,207,PS,exp,46,→,right,→,0.5518994999583811,True,7,1,0,10
208K23,3,208,PS,exp,36,←,left,←,0.8901871000416577,True,7,1,0,10
208K23,3,209,PS,exp,43,↑,left,←,0.5626140001695603,False,6,-1,1,11
208K23,3,210,PS,exp,25,←,left,←,0.5906231000553817,True,7,-1,0,11
208K23,3,211,PS,exp,30,↑,right,→,0.4142328000161797,False,7,-1,0,11
208K23,3,212,PS,exp,39,↓,right,→,0.35102900001220405,False,8,-1,0,11
208K23,3,213,PS,exp,44,→,right,→,0.4641815999057144,True,9,-1,0,11
208K23,3,214,PS,exp,30,←,left,←,0.8585641998797655,True,9,1,1,12
208K23,3,215,PS,exp,36,↓,left,←,0.6698038000613451,False,8,-1,1,13
208K23,3,216,PS,exp,30,←,left,←,0.5836221999488771,True,9,-1,0,13
208K23,3,217,PS,exp,39,↑,up,↑,0.653059400152415,True,9,1,1,14
208K23,4,218,AS,intra_train,40,↓,down,↓,0.6347884999122471,True,24,-,-,-
208K23,4,219,AS,intra_train,42,↑,up,↑,0.8165570998098701,True,24,-,-,-
208K23,4,220,AS,intra_train,39,↓,down,↓,0.7762951999902725,True,24,-,-,-
208K23,4,221,AS,intra_train,26,↑,up,↑,0.8698732000775635,True,24,-,-,-
208K23,4,222,AS,intra_train,44,↓,down,↓,0.6867413001600653,True,24,-,-,-
208K23,4,223,AS,exp,44,↑,up,↑,0.5958414999768138,True,16,0,0,0
208K23,4,224,AS,exp,33,→,left,←,0.6711130000185221,False,16,-1,0,0
208K23,4,225,AS,exp,39,↓,down,↓,0.7118937999475747,True,17,-1,0,0
208K23,4,226,AS,exp,50,↑,up,↑,0.549729699967429,True,17,1,1,1
208K23,4,227,AS,exp,41,↓,down,↓,0.6558956999797374,True,16,1,0,1
208K23,4,228,AS,exp,37,→,right,→,0.5238187001086771,True,16,1,0,1
208K23,4,229,AS,exp,29,↓,right,→,1.012780899880454,False,15,-1,1,2
208K23,4,230,AS,exp,34,↑,right,→,1.119514999911189,False,16,-1,0,2
208K23,4,231,AS,exp,47,↓,down,↓,0.700990199809894,True,17,-1,0,2
208K23,4,232,AS,exp,48,→,right,→,0.5469410999212414,True,17,1,1,3
208K23,4,233,AS,exp,42,←,left,←,0.6608151998370886,True,16,1,0,3
208K23,4,234,AS,exp,32,→,right,→,0.557922599837184,True,16,1,0,3
208K23,4,235,AS,exp,46,↓,down,↓,0.6899439000990242,True,15,1,0,3
208K23,4,236,AS,exp,43,←,left,←,0.6188135000411421,True,15,1,0,3
208K23,4,237,AS,exp,30,↓,down,↓,0.774033399997279,True,14,1,0,3
208K23,4,238,AS,exp,30,↑,up,↑,0.6199004999361932,True,14,1,0,3
208K23,4,239,AS,exp,35,←,left,←,0.6207885998301208,True,13,1,0,3
208K23,4,240,AS,exp,38,↓,down,↓,0.7306168000213802,True,13,1,0,3
208K23,4,241,AS,exp,46,→,right,→,0.5393423000350595,True,12,1,0,3
208K23,4,242,AS,exp,26,↓,down,↓,0.6831303001381457,True,12,1,0,3
208K23,4,243,AS,exp,47,↑,up,↑,0.7415529999416322,True,11,1,0,3
208K23,4,244,AS,exp,48,↓,down,↓,0.5644716999959201,True,11,1,0,3
208K23,4,245,AS,exp,38,↑,up,↑,0.5651680000592023,True,10,1,0,3
208K23,4,246,AS,exp,46,→,right,→,0.5287590001244098,True,10,1,0,3
208K23,4,247,AS,exp,47,↑,up,↑,0.5570539999753237,True,9,1,0,3
208K23,4,248,AS,exp,36,↓,down,↓,0.628596399910748,True,9,1,0,3
208K23,4,249,AS,exp,44,→,right,→,0.5594299000222236,True,8,1,0,3
208K23,4,250,AS,exp,48,↑,down,↓,0.6313950999174267,False,8,-1,1,4
208K23,4,251,AS,exp,48,←,right,→,0.4771076999604702,False,9,-1,0,4
208K23,4,252,AS,exp,43,→,right,→,0.6090355000924319,True,10,-1,0,4
208K23,4,253,AS,exp,48,←,left,←,0.5444484001491219,True,10,1,1,5
208K23,4,254,AS,exp,32,↓,down,↓,0.6044576000422239,True,9,1,0,5
208K23,4,255,AS,exp,37,←,left,←,0.4841125998646021,True,9,1,0,5
208K23,4,256,AS,exp,35,→,right,→,0.4487737000454217,True,8,1,0,5
208K23,4,257,AS,exp,25,↓,up,↑,0.6407097999472171,False,8,-1,1,6
208K23,4,258,AS,exp,25,←,right,→,0.44469919987022877,False,9,-1,0,6
208K23,4,259,AS,exp,33,→,right,→,0.522582900011912,True,10,-1,0,6
208K23,4,260,AS,exp,34,↑,up,↑,0.644210500176996,True,10,1,1,7
208K23,4,261,AS,exp,34,←,left,←,0.5482579998206347,True,9,1,0,7
208K23,4,262,AS,exp,50,→,left,←,0.6385512999258935,False,9,-1,1,8
208K23,4,263,AS,exp,46,↓,down,↓,0.6946156998164952,True,10,-1,0,8
208K23,4,264,AS,exp,32,→,left,←,0.5916984998621047,False,10,-1,0,8
208K23,4,265,AS,exp,48,↑,right,→,0.6232104999944568,False,11,-1,0,8
208K23,4,266,AS,exp,33,→,right,→,0.5620432000141591,True,12,-1,0,8
208K23,4,267,AS,exp,40,↓,down,↓,0.659213799983263,True,12,1,1,9
208K23,4,268,AS,exp,50,←,left,←,0.630034799920395,True,11,1,0,9
208K23,4,269,AS,exp,41,↑,up,↑,0.6208854999858886,True,11,1,0,9
208K23,4,270,AS,exp,36,→,right,→,0.551656500203535,True,10,1,0,9
208K23,4,271,AS,exp,40,↑,up,↑,0.4563841999042779,True,10,1,0,9
208K23,4,272,AS,exp,32,→,right,→,0.35116860014386475,True,9,1,0,9
208K23,4,273,AS,exp,35,↑,up,↑,0.5011201000306755,True,9,1,0,9
208K23,4,274,AS,exp,32,←,right,→,0.5207848001737148,False,8,-1,1,10
208K23,4,275,AS,exp,48,↑,up,↑,0.4726713001728058,True,9,-1,0,10
208K23,4,276,AS,exp,26,←,right,→,0.47098069987259805,False,9,-1,0,10
208K23,4,277,AS,exp,42,↑,up,↑,0.42238999996334314,True,10,-1,0,10
208K23,4,278,AS,exp,25,→,right,→,0.5011652000248432,True,10,1,1,11
208K23,4,279,AS,exp,31,↑,up,↑,0.4759919000789523,True,9,1,0,11
208K23,4,280,AS,exp,47,←,left,←,0.5545924000907689,True,9,1,0,11
208K23,4,281,AS,exp,39,→,right,→,0.5290437000803649,True,8,1,0,11
208K23,4,282,AS,exp,33,←,left,←,0.4670321000739932,True,8,1,0,11
208K23,4,283,AS,exp,41,↑,up,↑,0.49650259991176426,True,7,1,0,11
208K23,4,284,AS,exp,43,→,right,→,0.4738747999072075,True,7,1,0,11
208K23,4,285,AS,exp,36,↓,up,↑,0.53564010001719,False,6,-1,1,12
208K23,4,286,AS,exp,35,→,right,→,0.5734618999995291,True,7,-1,0,12
208K23,4,287,AS,exp,38,↑,up,↑,0.5994031999725848,True,7,1,1,13
208K23,4,288,AS,exp,42,←,right,→,0.8121700999327004,False,6,-1,1,14
208K23,5,289,AS,intra_train,31,↑,up,↑,0.7430324000306427,True,24,-,-,-
208K23,5,290,AS,intra_train,42,↓,down,↓,0.6343053998425603,True,24,-,-,-
208K23,5,291,AS,intra_train,41,←,left,←,0.6928709000349045,True,24,-,-,-
208K23,5,292,AS,intra_train,25,→,right,→,0.45047900010831654,True,24,-,-,-
208K23,5,293,AS,intra_train,28,←,left,←,1.434562599984929,True,24,-,-,-
208K23,5,294,AS,exp,28,↓,left,←,0.8613360000308603,False,16,-1,0,0
208K23,5,295,AS,exp,34,←,left,←,0.5525525000412017,True,17,-1,0,0
208K23,5,296,AS,exp,48,↑,up,↑,0.5342208000365645,True,17,1,1,1
208K23,5,297,AS,exp,50,←,left,←,0.5358776999637485,True,16,1,0,1
208K23,5,298,AS,exp,26,↓,up,↑,0.809687800006941,False,16,-1,1,2
208K23,5,299,AS,exp,29,↑,up,↑,0.5249836000148207,True,17,-1,0,2
208K23,5,300,AS,exp,41,←,left,←,0.5291345999576151,True,17,1,1,3
208K23,5,301,AS,exp,36,↓,down,↓,0.6599598000757396,True,16,1,0,3
208K23,5,302,AS,exp,48,↑,up,↑,0.48418159992434084,True,16,1,0,3
208K23,5,303,AS,exp,48,↓,up,↑,0.7107114000245929,False,15,-1,1,4
208K23,5,304,AS,exp,43,←,left,←,0.7814106999430805,True,16,-1,0,4
208K23,5,305,AS,exp,27,↓,down,↓,0.6720704000908881,True,16,1,1,5
208K23,5,306,AS,exp,25,↑,up,↑,0.6309996999334544,True,15,1,0,5
208K23,5,307,AS,exp,38,↓,down,↓,0.5670628000516444,True,15,1,0,5
208K23,5,308,AS,exp,36,→,right,→,0.6617758001666516,True,14,1,0,5
208K23,5,309,AS,exp,45,←,left,←,0.525235400069505,True,14,1,0,5
208K23,5,310,AS,exp,48,↑,right,→,0.5284949000924826,False,13,-1,1,6
208K23,5,311,AS,exp,33,→,left,←,0.5161498000379652,False,14,-1,0,6
208K23,5,312,AS,exp,42,←,left,←,0.54342220001854,True,15,-1,0,6
208K23,5,313,AS,exp,32,↓,down,↓,0.6581498999148607,True,15,1,1,7
208K23,5,314,AS,exp,34,↑,up,↑,0.677133799996227,True,14,1,0,7
208K23,5,315,AS,exp,48,→,right,→,0.5399195998907089,True,14,1,0,7
208K23,5,316,AS,exp,34,↑,up,↑,0.49963549990206957,True,13,1,0,7
208K23,5,317,AS,exp,45,↓,down,↓,0.6585570999886841,True,13,1,0,7
208K23,5,318,AS,exp,38,↑,up,↑,0.49039570009335876,True,12,1,0,7
208K23,5,319,AS,exp,31,↓,up,↑,0.4813860999420285,False,12,-1,1,8
208K23,5,320,AS,exp,30,←,left,←,0.5864101001061499,True,13,-1,0,8
208K23,5,321,AS,exp,27,↓,down,↓,0.6569933998398483,True,13,1,1,9
208K23,5,322,AS,exp,31,↑,up,↑,0.5274149999022484,True,12,1,0,9
208K23,5,323,AS,exp,33,↓,down,↓,0.7070629000663757,True,12,1,0,9
208K23,5,324,AS,exp,49,←,left,←,0.5838940998073667,True,11,1,0,9
208K23,5,325,AS,exp,29,↑,up,↑,0.6121949998196214,True,11,1,0,9
208K23,5,326,AS,exp,44,↓,down,↓,0.6528494998347014,True,10,1,0,9
208K23,5,327,AS,exp,25,→,right,→,0.6958824000321329,True,10,1,0,9
208K23,5,328,AS,exp,38,↓,up,↑,0.6411586999893188,False,9,-1,1,10
208K23,5,329,AS,exp,46,↑,up,↑,0.7545326000545174,True,10,-1,0,10
208K23,5,330,AS,exp,40,→,right,→,0.7044894001446664,True,10,1,1,11
208K23,5,331,AS,exp,32,↓,left,←,0.6693252001423389,False,9,-1,1,12
208K23,5,332,AS,exp,33,↑,up,↑,0.538115399889648,True,10,-1,0,12
208K23,5,333,AS,exp,48,↓,down,↓,0.6475587000604719,True,10,1,1,13
208K23,5,334,AS,exp,27,↑,down,↓,0.6570512999314815,False,9,-1,1,14
208K23,6,335,PS,intra_train,37,←,left,←,0.5885369998868555,True,16,-,-,-
208K23,6,336,PS,intra_train,29,↑,up,↑,0.5821157998871058,True,16,-,-,-
208K23,6,337,PS,intra_train,32,↓,down,↓,0.4788968001957983,True,16,-,-,-
208K23,6,338,PS,intra_train,27,←,left,←,0.4699432000052184,True,16,-,-,-
208K23,6,339,PS,intra_train,45,↓,down,↓,0.5481459000147879,True,16,-,-,-
208K23,6,340,PS,exp,37,→,left,←,0.5587800999637693,False,11,-1,0,0
208K23,6,341,PS,exp,32,↑,up,↑,0.5291719997767359,True,12,-1,0,0
208K23,6,342,PS,exp,40,→,right,→,0.4506341000087559,True,12,1,1,1
208K23,6,343,PS,exp,39,↓,down,↓,0.6404399999883026,True,11,1,0,1
208K23,6,344,PS,exp,49,←,left,←,0.5259129998739809,True,11,1,0,1
208K23,6,345,PS,exp,35,→,right,→,0.5694339000619948,True,10,1,0,1
208K23,6,346,PS,exp,26,↑,up,↑,0.5020657000131905,True,10,1,0,1
208K23,6,347,PS,exp,39,→,right,→,0.5116397000383586,True,9,1,0,1
208K23,6,348,PS,exp,35,←,left,←,0.5776733001694083,True,9,1,0,1
208K23,6,349,PS,exp,49,→,right,→,0.4155933998990804,True,8,1,0,1
208K23,6,350,PS,exp,49,↑,up,↑,0.5071719000115991,True,8,1,0,1
208K23,6,351,PS,exp,38,←,right,→,0.4020332999061793,False,7,-1,1,2
208K23,6,352,PS,exp,40,↓,down,↓,0.6068863000255078,True,8,-1,0,2
208K23,6,353,PS,exp,48,→,right,→,0.4395252000540495,True,8,1,1,3
208K23,6,354,PS,exp,25,↓,right,→,0.7666557999327779,False,7,-1,1,4
208K23,6,355,PS,exp,35,↑,up,↑,0.5913527999073267,True,8,-1,0,4
208K23,6,356,PS,exp,43,→,right,→,0.5226473000366241,True,8,1,1,5
208K23,6,357,PS,exp,29,↓,down,↓,0.582198099931702,True,7,1,0,5
208K23,6,358,PS,exp,47,←,left,←,0.4876590999774635,True,7,1,0,5
208K23,6,359,PS,exp,46,→,left,←,0.899588700151071,False,6,-1,1,6
208K23,6,360,PS,exp,26,←,left,←,0.4856318000238389,True,7,-1,0,6
208K23,6,361,PS,exp,35,↓,down,↓,0.5948189999908209,True,7,1,1,7
208K23,6,362,PS,exp,50,→,right,→,0.5962062000762671,True,6,1,0,7
208K23,6,363,PS,exp,25,↑,right,→,0.7778052999638021,False,6,-1,1,8
208K23,6,364,PS,exp,30,→,right,→,0.539747399976477,True,7,-1,0,8
208K23,6,365,PS,exp,39,↑,right,→,0.5674396001268178,False,7,-1,0,8
208K23,6,366,PS,exp,42,→,right,→,0.5002164000179619,True,8,-1,0,8
208K23,6,367,PS,exp,40,↑,up,↑,0.6074530000332743,True,8,1,1,9
208K23,6,368,PS,exp,46,←,left,←,0.6161795000080019,True,7,1,0,9
208K23,6,369,PS,exp,50,→,right,→,0.41448660008609295,True,7,1,0,9
208K23,6,370,PS,exp,26,←,right,→,0.6032036999240518,False,6,-1,1,10
208K23,6,371,PS,exp,28,→,right,→,0.4722418000455946,True,7,-1,0,10
208K23,6,372,PS,exp,42,←,right,→,0.4936518999747932,False,7,-1,0,10
208K23,6,373,PS,exp,46,→,right,→,0.46291060000658035,True,8,-1,0,10
208K23,6,374,PS,exp,38,↑,left,←,0.5000991001725197,False,8,-1,0,10
208K23,6,375,PS,exp,47,↓,down,↓,0.6329516000114381,True,9,-1,0,10
208K23,6,376,PS,exp,30,←,right,→,0.5704987999051809,False,9,-1,0,10
208K23,6,377,PS,exp,26,→,right,→,0.42762580001726747,True,10,-1,0,10
208K23,6,378,PS,exp,29,↓,left,←,0.6459266999736428,False,10,-1,0,10
208K23,6,379,PS,exp,37,↑,up,↑,0.860684199957177,True,11,-1,0,10
208K23,6,380,PS,exp,39,→,right,→,0.5589555001351982,True,11,1,1,11
208K23,6,381,PS,exp,43,←,left,←,0.8082324999850243,True,10,1,0,11
208K23,6,382,PS,exp,42,↑,up,↑,0.4766452999319881,True,10,1,0,11
208K23,6,383,PS,exp,33,←,left,←,0.48356690001673996,True,9,1,0,11
208K23,6,384,PS,exp,43,→,right,→,0.5254754999186844,True,9,1,0,11
208K23,6,385,PS,exp,42,↑,left,←,0.5447704000398517,False,8,-1,1,12
208K23,6,386,PS,exp,42,↓,down,↓,0.6159314000979066,True,9,-1,0,12
208K23,6,387,PS,exp,31,↑,up,↑,0.5603638000320643,True,9,1,1,13
208K23,6,388,PS,exp,37,→,left,←,0.4154827001038939,False,8,-1,1,14
208K23,7,389,PS,intra_train,48,←,left,←,0.4699436000082642,True,16,-,-,-
208K23,7,390,PS,intra_train,35,→,right,→,0.43873440008610487,True,16,-,-,-
208K23,7,391,PS,intra_train,43,↓,down,↓,0.9411522999871522,True,16,-,-,-
208K23,7,392,PS,intra_train,32,←,left,←,0.46145899989642203,True,16,-,-,-
208K23,7,393,PS,intra_train,34,↑,up,↑,0.5933018000796437,True,16,-,-,-
208K23,7,394,PS,exp,30,←,left,←,0.49693790008313954,True,11,0,0,0
208K23,7,395,PS,exp,42,↑,up,↑,0.6812311999965459,True,11,1,0,0
208K23,7,396,PS,exp,34,←,left,←,0.46339439996518195,True,10,1,0,0
208K23,7,397,PS,exp,27,→,right,→,0.6219810000620782,True,10,1,0,0
208K23,7,398,PS,exp,44,←,left,←,0.5916997001040727,True,9,1,0,0
208K23,7,399,PS,exp,42,↑,up,↑,0.5049132001586258,True,9,1,0,0
208K23,7,400,PS,exp,47,↓,down,↓,0.5410579999443144,True,8,1,0,0
208K23,7,401,PS,exp,31,→,right,→,0.4471096999477595,True,8,1,0,0
208K23,7,402,PS,exp,28,←,left,←,0.5864826000761241,True,7,1,0,0
208K23,7,403,PS,exp,50,→,right,→,0.40166909992694855,True,7,1,0,0
208K23,7,404,PS,exp,26,←,right,→,0.9334395998157561,False,6,-1,1,1
208K23,7,405,PS,exp,28,→,left,←,0.5382670999970287,False,7,-1,0,1
208K23,7,406,PS,exp,45,←,left,←,0.45139520009979606,True,8,-1,0,1
208K23,7,407,PS,exp,41,→,right,→,0.7914159998763353,True,8,1,1,2
208K23,7,408,PS,exp,43,↑,left,←,0.5168133999686688,False,7,-1,1,3
208K23,7,409,PS,exp,50,→,right,→,0.44005839992314577,True,8,-1,0,3
208K23,7,410,PS,exp,34,↑,right,→,0.5145969998557121,False,8,-1,0,3
208K23,7,411,PS,exp,39,→,right,→,0.4866905000526458,True,9,-1,0,3
208K23,7,412,PS,exp,27,↑,right,→,0.5263719998765737,False,9,-1,0,3
208K23,7,413,PS,exp,30,→,right,→,0.4642807999625802,True,10,-1,0,3
208K23,7,414,PS,exp,31,←,left,←,0.5213316001463681,True,10,1,1,4
208K23,7,415,PS,exp,45,↓,down,↓,0.671048300107941,True,9,1,0,4
208K23,7,416,PS,exp,37,↑,up,↑,0.551814700011164,True,9,1,0,4
208K23,7,417,PS,exp,42,↓,down,↓,0.5663978999946266,True,8,1,0,4
208K23,7,418,PS,exp,33,←,left,←,0.497899399837479,True,8,1,0,4
208K23,7,419,PS,exp,31,→,right,→,0.5143766000401229,True,7,1,0,4
208K23,7,420,PS,exp,49,↑,left,←,0.6390174999833107,False,7,-1,1,5
208K23,7,421,PS,exp,47,↓,down,↓,0.6199313001707196,True,8,-1,0,5
208K23,7,422,PS,exp,41,←,left,←,0.527312999824062,True,8,1,1,6
208K23,7,423,PS,exp,42,↓,down,↓,0.653766900068149,True,7,1,0,6
208K23,7,424,PS,exp,31,↑,up,↑,0.44792980002239347,True,7,1,0,6
208K23,7,425,PS,exp,37,→,left,←,0.4275269000791013,False,6,-1,1,7
208K23,7,426,PS,exp,45,↓,up,↑,0.4094611001200974,False,7,-1,0,7
208K23,7,427,PS,exp,36,←,left,←,0.46702630002982914,True,8,-1,0,7
208K23,7,428,PS,exp,42,→,left,←,0.3836729999165982,False,8,-1,0,7
208K23,7,429,PS,exp,49,↑,up,↑,0.4216145998798311,True,9,-1,0,7
208K23,7,430,PS,exp,37,←,left,←,0.5035051999147981,True,9,1,1,8
208K23,7,431,PS,exp,37,↓,down,↓,0.5800744998268783,True,8,1,0,8
208K23,7,432,PS,exp,50,→,right,→,0.4581579000223428,True,8,1,0,8
208K23,7,433,PS,exp,27,↑,up,↑,0.7488668998703361,True,7,1,0,8
208K23,7,434,PS,exp,36,←,left,←,0.4721119999885559,True,7,1,0,8
208K23,7,435,PS,exp,41,↑,up,↑,0.590071199927479,True,6,1,0,8
208K23,7,436,PS,exp,46,→,left,←,0.3574373999144882,False,6,-1,1,9
208K23,7,437,PS,exp,48,←,left,←,0.44354610005393624,True,7,-1,0,9
208K23,7,438,PS,exp,47,↓,left,←,0.4882791999261826,False,7,-1,0,9
208K23,7,439,PS,exp,42,↑,up,↑,0.45150419999845326,True,8,-1,0,9
208K23,7,440,PS,exp,34,→,right,→,0.5352957001887262,True,8,1,1,10
208K23,7,441,PS,exp,32,←,left,←,0.40680749993771315,True,7,1,0,10
208K23,7,442,PS,exp,33,→,right,→,0.5574216998647898,True,7,1,0,10
208K23,7,443,PS,exp,41,↑,left,←,0.42592339986003935,False,6,-1,1,11
208K23,7,444,PS,exp,40,→,right,→,0.46252069994807243,True,7,-1,0,11
208K23,7,445,PS,exp,29,↓,left,←,0.6851194999180734,False,7,-1,0,11
208K23,7,446,PS,exp,26,←,left,←,0.4185821998398751,True,8,-1,0,11
208K23,7,447,PS,exp,46,↑,left,←,0.6001639999449253,False,8,-1,0,11
208K23,7,448,PS,exp,49,↓,down,↓,0.670032599940896,True,9,-1,0,11
208K23,7,449,PS,exp,31,→,right,→,0.5394701000768691,True,9,1,1,12
208K23,7,450,PS,exp,46,←,left,←,0.387366299983114,True,8,1,0,12
208K23,7,451,PS,exp,44,→,left,←,0.5020037998910993,False,8,-1,1,13
208K23,7,452,PS,exp,27,↓,left,←,0.5477832998149097,False,9,-1,0,13
208K23,7,453,PS,exp,39,↑,up,↑,0.4818759001791477,True,10,-1,0,13
208K23,7,454,PS,exp,35,←,left,←,0.4750826999079436,True,10,1,1,14
208K23,8,455,AS,intra_train,28,↑,up,↑,0.5337872998788953,True,24,-,-,-
208K23,8,456,AS,intra_train,47,←,left,←,0.577381300041452,True,24,-,-,-
208K23,8,457,AS,intra_train,50,↓,down,↓,0.7525667001027614,True,24,-,-,-
208K23,8,458,AS,intra_train,50,←,left,←,0.6995459999889135,True,24,-,-,-
208K23,8,459,AS,intra_train,25,→,right,→,1.831238599959761,True,24,-,-,-
208K23,8,460,AS,exp,35,↑,down,↓,0.879016499966383,False,16,-1,0,0
208K23,8,461,AS,exp,38,↓,down,↓,0.8484954000450671,True,17,-1,0,0
208K23,8,462,AS,exp,38,←,left,←,0.45384819991886616,True,17,1,1,1
208K23,8,463,AS,exp,49,↓,down,↓,0.535918700043112,True,16,1,0,1
208K23,8,464,AS,exp,33,→,right,→,0.5135868000797927,True,16,1,0,1
208K23,8,465,AS,exp,49,↓,down,↓,0.6241197001654655,True,15,1,0,1
208K23,8,466,AS,exp,44,→,right,→,0.5407424001023173,True,15,1,0,1
208K23,8,467,AS,exp,41,↓,up,↑,0.6568523999303579,False,14,-1,1,2
208K23,8,468,AS,exp,30,→,right,→,0.383881299989298,True,15,-1,0,2
208K23,8,469,AS,exp,39,↑,up,↑,0.53910499997437,True,15,1,1,3
208K23,8,470,AS,exp,47,→,left,←,0.6563099999912083,False,14,-1,1,4
208K23,8,471,AS,exp,44,↑,up,↑,0.534233900019899,True,15,-1,0,4
208K23,8,472,AS,exp,44,↓,down,↓,0.6204207001719624,True,15,1,1,5
208K23,8,473,AS,exp,48,↑,down,↓,0.7003212000709027,False,14,-1,1,6
208K23,8,474,AS,exp,39,←,left,←,0.4755468999501318,True,15,-1,0,6
208K23,8,475,AS,exp,29,↓,down,↓,0.5827918997965753,True,15,1,1,7
208K23,8,476,AS,exp,28,←,left,←,0.5106622001621872,True,14,1,0,7
208K23,8,477,AS,exp,26,→,right,→,0.4908080999739468,True,14,1,0,7
208K23,8,478,AS,exp,26,↑,up,↑,0.5113830999471247,True,13,1,0,7
208K23,8,479,AS,exp,39,→,right,→,0.4805523999966681,True,13,1,0,7
208K23,8,480,AS,exp,42,↑,left,←,0.6797331999987364,False,12,-1,1,8
208K23,8,481,AS,exp,33,→,right,→,0.5644889001268893,True,13,-1,0,8
208K23,8,482,AS,exp,43,↓,down,↓,0.6256945000495762,True,13,1,1,9
208K23,8,483,AS,exp,30,↑,up,↑,0.49735480011440814,True,12,1,0,9
208K23,8,484,AS,exp,28,↓,down,↓,0.6042528999969363,True,12,1,0,9
208K23,8,485,AS,exp,43,↑,up,↑,0.5046413999516517,True,11,1,0,9
208K23,8,486,AS,exp,26,←,left,←,0.6128561000805348,True,11,1,0,9
208K23,8,487,AS,exp,44,↓,down,↓,0.6332193999551237,True,10,1,0,9
208K23,8,488,AS,exp,36,↑,right,→,0.4279328000266105,False,10,-1,1,10
208K23,8,489,AS,exp,33,↓,down,↓,0.6825667000375688,True,11,-1,0,10
208K23,8,490,AS,exp,28,↑,up,↑,0.4944613999687135,True,11,1,1,11
208K23,8,491,AS,exp,47,←,left,←,0.5421531000174582,True,10,1,0,11
208K23,8,492,AS,exp,41,↓,down,↓,0.6443833000957966,True,10,1,0,11
208K23,8,493,AS,exp,44,→,right,→,0.5336414999328554,True,9,1,0,11
208K23,8,494,AS,exp,49,↑,up,↑,0.5686935998965055,True,9,1,0,11
208K23,8,495,AS,exp,30,←,left,←,0.450375699903816,True,8,1,0,11
208K23,8,496,AS,exp,45,↑,down,↓,0.5429888002108783,False,8,-1,1,12
208K23,8,497,AS,exp,45,→,right,→,0.45344899990595877,True,9,-1,0,12
208K23,8,498,AS,exp,39,←,left,←,0.5501355000305921,True,9,1,1,13
208K23,8,499,AS,exp,45,→,left,←,0.5121641999576241,False,8,-1,1,14
