PART_ID,Block_no,Trial_no,Block_type,Trial_type,CSI,Stim_letter,Key_pressed,letter_choose,Rt,Corr,Stimulus Time,Level,Reversal,Revs_count
PBB003K21,1,1,PS,train,50,↑,up,↑,1.4852074999944307,True,30,-,-,-
PBB003K21,1,2,PS,train,38,←,left,←,1.5834991000010632,True,30,-,-,-
PBB003K21,1,3,PS,train,39,↓,down,↓,1.5183173999976134,True,30,-,-,-
PBB003K21,1,4,PS,train,50,↑,up,↑,1.020959400004358,True,30,-,-,-
PBB003K21,1,5,PS,train,38,↓,down,↓,1.1004027000017231,True,30,-,-,-
PBB003K21,1,6,PS,train,50,→,right,→,1.2681699999957345,True,30,-,-,-
PBB003K21,1,7,PS,train,35,↑,up,↑,0.8533989999996265,True,30,-,-,-
PBB003K21,1,8,PS,train,43,↓,down,↓,0.9716176999936579,True,30,-,-,-
PBB003K21,1,9,PS,train,39,↑,up,↑,0.7696327000012388,True,30,-,-,-
PBB003K21,1,10,PS,train,33,←,left,←,1.0516141000116477,True,30,-,-,-
PBB003K21,2,11,AS,train,45,↑,up,↑,1.922350799999549,True,45,-,-,-
PBB003K21,2,12,AS,train,45,↓,no_key,no_letter,-1.0,False,45,-,-,-
PBB003K21,2,13,AS,train,34,←,left,←,0.9373809000098845,True,45,-,-,-
PBB003K21,2,14,AS,train,41,↑,up,↑,1.1194364999973914,True,45,-,-,-
PBB003K21,2,15,AS,train,41,→,right,→,1.543569400004344,True,45,-,-,-
PBB003K21,2,16,AS,train,32,↓,no_key,no_letter,-1.0,False,45,-,-,-
PBB003K21,2,17,AS,train,41,→,right,→,1.0254811000049813,True,45,-,-,-
PBB003K21,2,18,AS,train,49,←,left,←,0.668152199999895,True,45,-,-,-
PBB003K21,2,19,AS,train,33,↓,no_key,no_letter,-1.0,False,45,-,-,-
PBB003K21,2,20,AS,train,47,↑,up,↑,1.0693981999938842,True,45,-,-,-
PBB003K21,-,21,PS,adaptive,26,←,left,←,1.312821100000292,True,10,0,0,0
PBB003K21,-,22,PS,adaptive,26,↑,up,↑,0.6817141999927117,True,10,1,0,0
PBB003K21,-,23,PS,adaptive,38,←,left,←,0.9306654999963939,True,9,1,0,0
PBB003K21,-,24,PS,adaptive,41,→,right,→,0.5822585000132676,True,9,1,0,0
PBB003K21,-,25,PS,adaptive,33,↓,down,↓,1.7791858999989927,True,8,1,0,0
PBB003K21,-,26,PS,adaptive,47,↑,up,↑,1.1646653000061633,True,8,1,0,0
PBB003K21,-,27,PS,adaptive,36,→,left,←,0.8408459999918705,False,7,-1,1,1
PBB003K21,-,28,PS,adaptive,35,↑,up,↑,0.9437619999953313,True,8,-1,0,1
PBB003K21,-,29,PS,adaptive,43,←,left,←,0.6326310000004014,True,8,1,1,2
PBB003K21,-,30,PS,adaptive,47,→,right,→,0.7009697000030428,True,7,1,0,2
PBB003K21,-,31,PS,adaptive,34,↑,up,↑,0.6078007000032812,True,7,1,0,2
PBB003K21,-,32,PS,adaptive,29,↓,left,←,0.6244563999935053,False,6,-1,1,3
PBB003K21,-,33,PS,adaptive,45,←,left,←,0.7555015999969328,True,7,-1,0,3
PBB003K21,-,34,PS,adaptive,29,↓,left,←,1.0273680000100285,False,7,-1,0,3
PBB003K21,-,35,PS,adaptive,38,→,right,→,0.5835240999876987,True,8,-1,0,3
PBB003K21,-,36,PS,adaptive,48,↓,down,↓,1.3586461000086274,True,8,1,1,4
PBB003K21,-,37,AS,adaptive,48,↑,no_key,no_letter,-1.0,False,20,-1,0,0
PBB003K21,-,38,AS,adaptive,25,→,right,→,0.8955129999958444,True,21,-1,0,0
PBB003K21,-,39,AS,adaptive,33,↑,up,↑,1.0378572999907192,True,21,1,1,1
PBB003K21,-,40,AS,adaptive,47,↓,up,↑,0.8441828999930294,False,20,-1,1,2
PBB003K21,-,41,AS,adaptive,26,↑,up,↑,1.0808513999945717,True,21,-1,0,2
PBB003K21,-,42,AS,adaptive,48,←,left,←,1.0296285999938846,True,21,1,1,3
PBB003K21,-,43,AS,adaptive,30,→,right,→,0.7334071999939624,True,20,1,0,3
PBB003K21,-,44,AS,adaptive,29,↑,right,→,1.2752543999959016,False,20,-1,1,4
PBB003K21,1,45,AS,intra_train,42,→,right,→,0.9349603000009665,True,31,-,-,-
PBB003K21,1,46,AS,intra_train,33,↑,up,↑,0.8747402000008151,True,31,-,-,-
PBB003K21,1,47,AS,intra_train,29,↓,down,↓,0.9441440000082366,True,31,-,-,-
PBB003K21,1,48,AS,intra_train,32,↑,up,↑,0.716782699993928,True,31,-,-,-
PBB003K21,1,49,AS,intra_train,34,↓,down,↓,0.7443913000024622,True,31,-,-,-
PBB003K21,1,50,AS,exp,31,↑,up,↑,0.722921699998551,True,21,0,0,0
PBB003K21,1,51,AS,exp,37,←,no_key,no_letter,-1.0,False,21,-1,0,0
PBB003K21,1,52,AS,exp,42,↑,up,↑,0.7635330999910366,True,22,-1,0,0
PBB003K21,1,53,AS,exp,34,↓,up,↑,1.058011200002511,False,22,-1,0,0
PBB003K21,1,54,AS,exp,38,←,left,←,1.2553966999985278,True,23,-1,0,0
PBB003K21,1,55,AS,exp,45,↓,down,↓,1.1865827000001445,True,23,1,1,1
PBB003K21,1,56,AS,exp,30,←,left,←,0.868951400014339,True,22,1,0,1
PBB003K21,1,57,AS,exp,27,↓,no_key,no_letter,-1.0,False,22,-1,1,2
PBB003K21,1,58,AS,exp,45,↑,up,↑,0.8433054000051925,True,23,-1,0,2
PBB003K21,1,59,AS,exp,33,↓,down,↓,1.1148766999976942,True,23,1,1,3
PBB003K21,1,60,AS,exp,34,←,left,←,0.817686100010178,True,22,1,0,3
PBB003K21,1,61,AS,exp,45,↓,up,↑,0.854134499997599,False,22,-1,1,4
PBB003K21,1,62,AS,exp,49,↑,right,→,1.8796159000048647,False,23,-1,0,4
PBB003K21,1,63,AS,exp,30,↓,down,↓,0.8945109000051161,True,24,-1,0,4
PBB003K21,1,64,AS,exp,28,↑,up,↑,0.7870901999995112,True,24,1,1,5
PBB003K21,1,65,AS,exp,50,←,left,←,1.088788699998986,True,23,1,0,5
PBB003K21,1,66,AS,exp,50,↓,down,↓,0.9684300999942934,True,23,1,0,5
PBB003K21,1,67,AS,exp,34,↑,up,↑,0.967487899994012,True,22,1,0,5
PBB003K21,1,68,AS,exp,39,↓,down,↓,1.4591567000024952,True,22,1,0,5
PBB003K21,1,69,AS,exp,27,↑,down,↓,1.2798065999959363,False,21,-1,1,6
PBB003K21,1,70,AS,exp,42,↓,down,↓,1.1149147999967681,True,22,-1,0,6
PBB003K21,1,71,AS,exp,45,↑,up,↑,1.046374100013054,True,22,1,1,7
PBB003K21,1,72,AS,exp,29,→,right,→,0.8552414000005228,True,21,1,0,7
PBB003K21,1,73,AS,exp,39,←,left,←,0.7907451999926707,True,21,1,0,7
PBB003K21,1,74,AS,exp,26,↓,down,↓,1.0936307999945711,True,20,1,0,7
PBB003K21,1,75,AS,exp,26,↑,up,↑,0.6561454000038793,True,20,1,0,7
PBB003K21,1,76,AS,exp,44,→,right,→,0.604612700000871,True,19,1,0,7
PBB003K21,1,77,AS,exp,46,↓,right,→,1.1094890000094892,False,19,-1,1,8
PBB003K21,1,78,AS,exp,28,←,left,←,0.8895189000031678,True,20,-1,0,8
PBB003K21,1,79,AS,exp,42,↓,down,↓,0.7110028000024613,True,20,1,1,9
PBB003K21,1,80,AS,exp,45,↑,down,↓,1.143240599994897,False,19,-1,1,10
PBB003K21,1,81,AS,exp,45,←,left,←,0.8783198000019183,True,20,-1,0,10
PBB003K21,1,82,AS,exp,38,↓,right,→,0.898261199996341,False,20,-1,0,10
PBB003K21,1,83,AS,exp,47,→,right,→,0.6761148999939905,True,21,-1,0,10
PBB003K21,1,84,AS,exp,38,↓,right,→,0.9272095000051195,False,21,-1,0,10
PBB003K21,1,85,AS,exp,49,→,left,←,0.6911322000087239,False,22,-1,0,10
PBB003K21,1,86,AS,exp,27,←,left,←,0.664826099993661,True,23,-1,0,10
PBB003K21,1,87,AS,exp,34,↑,up,↑,1.0111954000021797,True,23,1,1,11
PBB003K21,1,88,AS,exp,39,←,left,←,0.8197531000041636,True,22,1,0,11
PBB003K21,1,89,AS,exp,45,→,right,→,0.7560684000054607,True,22,1,0,11
PBB003K21,1,90,AS,exp,29,↑,up,↑,1.857374200000777,True,21,1,0,11
PBB003K21,1,91,AS,exp,49,←,left,←,0.7102583999949275,True,21,1,0,11
PBB003K21,1,92,AS,exp,32,↓,up,↑,0.9791431999910856,False,20,-1,1,12
PBB003K21,1,93,AS,exp,27,←,left,←,0.5951384999934817,True,21,-1,0,12
PBB003K21,1,94,AS,exp,46,↑,up,↑,1.1821965999988606,True,21,1,1,13
PBB003K21,1,95,AS,exp,27,→,right,→,0.8686902000044938,True,20,1,0,13
PBB003K21,1,96,AS,exp,36,↓,up,↑,1.8355614999891259,False,20,-1,1,14
PBB003K21,2,97,PS,intra_train,28,↑,left,←,1.171854499989422,False,10,-,-,-
PBB003K21,2,98,PS,intra_train,35,↓,left,←,1.700455600002897,False,10,-,-,-
PBB003K21,2,99,PS,intra_train,48,←,left,←,0.5700888999999734,True,10,-,-,-
PBB003K21,2,100,PS,intra_train,25,↓,right,→,1.0663825999945402,False,10,-,-,-
PBB003K21,2,101,PS,intra_train,34,←,left,←,0.4413475999899674,True,10,-,-,-
PBB003K21,2,102,PS,exp,34,→,right,→,0.6030866999935824,True,7,0,0,0
PBB003K21,2,103,PS,exp,40,↑,left,←,1.215891300002113,False,7,-1,0,0
PBB003K21,2,104,PS,exp,41,→,right,→,0.6300365999923088,True,8,-1,0,0
PBB003K21,2,105,PS,exp,47,←,left,←,0.6635212000110187,True,8,1,1,1
PBB003K21,2,106,PS,exp,31,↑,up,↑,0.6456784000038169,True,7,1,0,1
PBB003K21,2,107,PS,exp,49,←,right,→,1.1499431999982335,False,7,-1,1,2
PBB003K21,2,108,PS,exp,35,↑,right,→,0.8345914999954402,False,8,-1,0,2
PBB003K21,2,109,PS,exp,30,→,right,→,1.248943099999451,True,9,-1,0,2
PBB003K21,2,110,PS,exp,46,←,right,→,0.9066846000059741,False,9,-1,0,2
PBB003K21,2,111,PS,exp,33,→,right,→,0.6085452999977861,True,10,-1,0,2
PBB003K21,2,112,PS,exp,31,↑,right,→,1.5629264000017429,False,10,-1,0,2
PBB003K21,2,113,PS,exp,25,↓,up,↑,0.7751009999919916,False,11,-1,0,2
PBB003K21,2,114,PS,exp,45,←,left,←,0.5265031000017188,True,12,-1,0,2
PBB003K21,2,115,PS,exp,38,↑,up,↑,0.6095353999990039,True,12,1,1,3
PBB003K21,2,116,PS,exp,42,←,right,→,0.9856900000013411,False,11,-1,1,4
PBB003K21,2,117,PS,exp,40,↓,up,↑,0.7051299000013387,False,12,-1,0,4
PBB003K21,2,118,PS,exp,39,→,right,→,0.8035445999994408,True,13,-1,0,4
PBB003K21,2,119,PS,exp,48,←,left,←,0.6631244000018341,True,13,1,1,5
PBB003K21,2,120,PS,exp,35,→,right,→,0.5677568999963114,True,12,1,0,5
PBB003K21,2,121,PS,exp,48,↑,up,↑,0.5466457000002265,True,12,1,0,5
PBB003K21,2,122,PS,exp,35,→,right,→,0.5165580999891972,True,11,1,0,5
PBB003K21,2,123,PS,exp,40,←,right,→,0.7985499999922467,False,11,-1,1,6
PBB003K21,2,124,PS,exp,45,→,right,→,0.4217380000045523,True,12,-1,0,6
PBB003K21,2,125,PS,exp,33,↑,up,↑,0.5566899000114063,True,12,1,1,7
PBB003K21,2,126,PS,exp,30,←,left,←,0.6630903000041144,True,11,1,0,7
PBB003K21,2,127,PS,exp,44,↓,up,↑,0.8041593999951147,False,11,-1,1,8
PBB003K21,2,128,PS,exp,44,←,left,←,0.5266459999984363,True,12,-1,0,8
PBB003K21,2,129,PS,exp,39,↑,up,↑,0.5985906999994768,True,12,1,1,9
PBB003K21,2,130,PS,exp,33,→,right,→,0.509115799999563,True,11,1,0,9
PBB003K21,2,131,PS,exp,30,↓,up,↑,0.7019661999947857,False,11,-1,1,10
PBB003K21,2,132,PS,exp,44,→,left,←,0.8351958999992348,False,12,-1,0,10
PBB003K21,2,133,PS,exp,41,←,left,←,0.40148559999943245,True,13,-1,0,10
PBB003K21,2,134,PS,exp,44,↓,left,←,0.833428099998855,False,13,-1,0,10
PBB003K21,2,135,PS,exp,40,←,left,←,0.922499099993729,True,14,-1,0,10
PBB003K21,2,136,PS,exp,45,↓,down,↓,0.6999432000011439,True,14,1,1,11
PBB003K21,2,137,PS,exp,33,↑,right,→,1.0225174000079278,False,13,-1,1,12
PBB003K21,2,138,PS,exp,44,↓,no_key,no_letter,-1.0,False,14,-1,0,12
PBB003K21,2,139,PS,exp,25,↑,up,↑,0.5304732999939006,True,15,-1,0,12
PBB003K21,2,140,PS,exp,48,↓,no_key,no_letter,-1.0,False,15,-1,0,12
PBB003K21,2,141,PS,exp,47,←,left,←,0.6440662000095472,True,16,-1,0,12
PBB003K21,2,142,PS,exp,29,↑,down,↓,1.0178090000117663,False,16,-1,0,12
PBB003K21,2,143,PS,exp,27,←,left,←,0.6654072999954224,True,17,-1,0,12
PBB003K21,2,144,PS,exp,29,↓,down,↓,0.7274389000085648,True,17,1,1,13
PBB003K21,2,145,PS,exp,47,↑,up,↑,0.7788836000108859,True,16,1,0,13
PBB003K21,2,146,PS,exp,31,←,left,←,0.5624784999963595,True,16,1,0,13
PBB003K21,2,147,PS,exp,33,→,right,→,0.798630499994033,True,15,1,0,13
PBB003K21,2,148,PS,exp,35,←,right,→,0.6919957999925828,False,15,-1,1,14
PBB003K21,3,149,PS,intra_train,27,↓,up,↑,0.8273772999964422,False,10,-,-,-
PBB003K21,3,150,PS,intra_train,30,↑,up,↑,0.4791459000116447,True,10,-,-,-
PBB003K21,3,151,PS,intra_train,29,→,right,→,0.7614936000027228,True,10,-,-,-
PBB003K21,3,152,PS,intra_train,49,↑,up,↑,0.5580598999949871,True,10,-,-,-
PBB003K21,3,153,PS,intra_train,43,↓,up,↑,0.5053048999980092,False,10,-,-,-
PBB003K21,3,154,PS,exp,43,→,right,→,0.8238799999962794,True,7,0,0,0
PBB003K21,3,155,PS,exp,44,←,up,↑,0.7021374000032665,False,7,-1,0,0
PBB003K21,3,156,PS,exp,28,→,left,←,1.1726692999945953,False,8,-1,0,0
PBB003K21,3,157,PS,exp,30,↓,down,↓,1.1911898999969708,True,9,-1,0,0
PBB003K21,3,158,PS,exp,39,→,right,→,0.5560847000015201,True,9,1,1,1
PBB003K21,3,159,PS,exp,43,↑,up,↑,0.5727164999989327,True,8,1,0,1
PBB003K21,3,160,PS,exp,38,↓,down,↓,0.7189290000096662,True,8,1,0,1
PBB003K21,3,161,PS,exp,46,←,left,←,0.5191620000114199,True,7,1,0,1
PBB003K21,3,162,PS,exp,29,↑,up,↑,0.5083936000009999,True,7,1,0,1
PBB003K21,3,163,PS,exp,45,←,up,↑,1.1737311000033515,False,6,-1,1,2
PBB003K21,3,164,PS,exp,38,↓,down,↓,0.6127522000024328,True,7,-1,0,2
PBB003K21,3,165,PS,exp,45,↑,down,↓,0.9119129000027897,False,7,-1,0,2
PBB003K21,3,166,PS,exp,50,→,right,→,0.6364051999989897,True,8,-1,0,2
PBB003K21,3,167,PS,exp,47,←,left,←,0.6359004999976605,True,8,1,1,3
PBB003K21,3,168,PS,exp,34,↑,up,↑,1.6648634000011953,True,7,1,0,3
PBB003K21,3,169,PS,exp,48,↓,down,↓,0.9051252999925055,True,7,1,0,3
PBB003K21,3,170,PS,exp,37,→,left,←,0.7698389999859501,False,6,-1,1,4
PBB003K21,3,171,PS,exp,37,↑,down,↓,1.0182528000004822,False,7,-1,0,4
PBB003K21,3,172,PS,exp,40,↓,right,→,0.856028599999263,False,8,-1,0,4
PBB003K21,3,173,PS,exp,42,→,right,→,0.7806589000101667,True,9,-1,0,4
PBB003K21,3,174,PS,exp,36,←,left,←,0.6532045999920228,True,9,1,1,5
PBB003K21,3,175,PS,exp,36,→,left,←,0.6359174999961397,False,8,-1,1,6
PBB003K21,3,176,PS,exp,42,←,right,→,0.7169560999900568,False,9,-1,0,6
PBB003K21,3,177,PS,exp,26,↓,right,→,1.2201707000058377,False,10,-1,0,6
PBB003K21,3,178,PS,exp,42,↑,up,↑,0.5681188000016846,True,11,-1,0,6
PBB003K21,3,179,PS,exp,31,←,left,←,0.6343430999986595,True,11,1,1,7
PBB003K21,3,180,PS,exp,32,↓,left,←,0.5168164000060642,False,10,-1,1,8
PBB003K21,3,181,PS,exp,44,↑,left,←,0.4056970000092406,False,11,-1,0,8
PBB003K21,3,182,PS,exp,42,↓,right,→,0.4415737000090303,False,12,-1,0,8
PBB003K21,3,183,PS,exp,26,←,left,←,0.33385270000144374,True,13,-1,0,8
PBB003K21,3,184,PS,exp,49,↓,down,↓,0.7440714000113076,True,13,1,1,9
PBB003K21,3,185,PS,exp,32,→,right,→,0.5386334000068018,True,12,1,0,9
PBB003K21,3,186,PS,exp,35,↓,down,↓,0.6164136000006692,True,12,1,0,9
PBB003K21,3,187,PS,exp,39,↑,left,←,0.5763872999959858,False,11,-1,1,10
PBB003K21,3,188,PS,exp,42,↓,down,↓,0.8369901999976719,True,12,-1,0,10
PBB003K21,3,189,PS,exp,35,→,right,→,0.40872789999411907,True,12,1,1,11
PBB003K21,3,190,PS,exp,43,↑,left,←,0.6678851999895414,False,11,-1,1,12
PBB003K21,3,191,PS,exp,47,↓,down,↓,1.0280735999986064,True,12,-1,0,12
PBB003K21,3,192,PS,exp,41,→,right,→,0.5485566999996081,True,12,1,1,13
PBB003K21,3,193,PS,exp,49,↑,down,↓,1.0427969999873312,False,11,-1,1,14
PBB003K21,4,194,AS,intra_train,34,→,right,→,1.0521302999986801,True,31,-,-,-
PBB003K21,4,195,AS,intra_train,26,↑,up,↑,0.789446399998269,True,31,-,-,-
PBB003K21,4,196,AS,intra_train,34,→,left,←,0.6172021999955177,False,31,-,-,-
PBB003K21,4,197,AS,intra_train,34,↓,down,↓,2.1661661000107415,True,31,-,-,-
PBB003K21,4,198,AS,intra_train,25,↑,up,↑,0.7678844000038225,True,31,-,-,-
PBB003K21,4,199,AS,exp,33,→,up,↑,1.2233447000035085,False,21,-1,0,0
PBB003K21,4,200,AS,exp,42,↓,down,↓,0.7108639999933075,True,22,-1,0,0
PBB003K21,4,201,AS,exp,50,→,right,→,0.9878541000070982,True,22,1,1,1
PBB003K21,4,202,AS,exp,36,↑,up,↑,0.8525852000020677,True,21,1,0,1
PBB003K21,4,203,AS,exp,37,←,right,→,0.9389580999995815,False,21,-1,1,2
PBB003K21,4,204,AS,exp,47,→,right,→,0.5754722999990918,True,22,-1,0,2
PBB003K21,4,205,AS,exp,32,↑,down,↓,1.083733099992969,False,22,-1,0,2
PBB003K21,4,206,AS,exp,44,↓,no_key,no_letter,-1.0,False,23,-1,0,2
PBB003K21,4,207,AS,exp,26,↑,up,↑,0.9549586999928579,True,24,-1,0,2
PBB003K21,4,208,AS,exp,38,→,right,→,0.906959400002961,True,24,1,1,3
PBB003K21,4,209,AS,exp,42,↑,up,↑,0.825909799998044,True,23,1,0,3
PBB003K21,4,210,AS,exp,50,↓,down,↓,0.7221867999905953,True,23,1,0,3
PBB003K21,4,211,AS,exp,35,→,right,→,0.5456173999991734,True,22,1,0,3
PBB003K21,4,212,AS,exp,50,↑,up,↑,0.7988805000059074,True,22,1,0,3
PBB003K21,4,213,AS,exp,48,→,right,→,0.6207616000028793,True,21,1,0,3
PBB003K21,4,214,AS,exp,31,←,right,→,0.6637036000029184,False,21,-1,1,4
PBB003K21,4,215,AS,exp,40,↑,up,↑,0.8260385999892605,True,22,-1,0,4
PBB003K21,4,216,AS,exp,45,→,right,→,0.7404639000014868,True,22,1,1,5
PBB003K21,4,217,AS,exp,45,↓,down,↓,0.9495721999992384,True,21,1,0,5
PBB003K21,4,218,AS,exp,36,→,right,→,0.9683986000018194,True,21,1,0,5
PBB003K21,4,219,AS,exp,35,↓,down,↓,1.0604304000007687,True,20,1,0,5
PBB003K21,4,220,AS,exp,44,↑,down,↓,0.8999122999957763,False,20,-1,1,6
PBB003K21,4,221,AS,exp,47,↓,down,↓,0.8114159999968251,True,21,-1,0,6
PBB003K21,4,222,AS,exp,33,→,right,→,0.9392660000012256,True,21,1,1,7
PBB003K21,4,223,AS,exp,44,←,left,←,1.0143123999878298,True,20,1,0,7
PBB003K21,4,224,AS,exp,34,→,right,→,0.5639177999983076,True,20,1,0,7
PBB003K21,4,225,AS,exp,25,←,left,←,0.9586413000070024,True,19,1,0,7
PBB003K21,4,226,AS,exp,43,↑,no_key,no_letter,-1.0,False,19,-1,1,8
PBB003K21,4,227,AS,exp,26,←,left,←,0.5450090999947861,True,20,-1,0,8
PBB003K21,4,228,AS,exp,36,→,right,→,0.7354031999857398,True,20,1,1,9
PBB003K21,4,229,AS,exp,47,↓,down,↓,0.908208699998795,True,19,1,0,9
PBB003K21,4,230,AS,exp,38,↑,up,↑,0.6152277999935905,True,19,1,0,9
PBB003K21,4,231,AS,exp,29,→,right,→,0.4688813999964623,True,18,1,0,9
PBB003K21,4,232,AS,exp,48,←,right,→,0.5730812999972841,False,18,-1,1,10
PBB003K21,4,233,AS,exp,48,↓,down,↓,0.7742180000059307,True,19,-1,0,10
PBB003K21,4,234,AS,exp,28,→,no_key,no_letter,-1.0,False,19,-1,0,10
PBB003K21,4,235,AS,exp,37,←,left,←,0.9319591000094078,True,20,-1,0,10
PBB003K21,4,236,AS,exp,25,→,right,→,0.7143973000056576,True,20,1,1,11
PBB003K21,4,237,AS,exp,25,↓,down,↓,0.8348898999975063,True,19,1,0,11
PBB003K21,4,238,AS,exp,25,←,left,←,0.5719985999894561,True,19,1,0,11
PBB003K21,4,239,AS,exp,50,↑,up,↑,0.891907800003537,True,18,1,0,11
PBB003K21,4,240,AS,exp,31,←,right,→,0.6359442999964813,False,18,-1,1,12
PBB003K21,4,241,AS,exp,27,→,left,←,0.7125328999973135,False,19,-1,0,12
PBB003K21,4,242,AS,exp,44,↓,right,→,1.0508182999910787,False,20,-1,0,12
PBB003K21,4,243,AS,exp,43,←,left,←,0.7350244999979623,True,21,-1,0,12
PBB003K21,4,244,AS,exp,48,↑,up,↑,0.5216957000084221,True,21,1,1,13
PBB003K21,4,245,AS,exp,38,↓,down,↓,1.512876499997219,True,20,1,0,13
PBB003K21,4,246,AS,exp,49,↑,up,↑,0.6491645000060089,True,20,1,0,13
PBB003K21,4,247,AS,exp,40,↓,up,↑,0.7325875999958953,False,19,-1,1,14
PBB003K21,5,248,AS,intra_train,42,→,right,→,0.6505403999908594,True,31,-,-,-
PBB003K21,5,249,AS,intra_train,48,←,left,←,0.633950499992352,True,31,-,-,-
PBB003K21,5,250,AS,intra_train,31,↓,no_key,no_letter,-1.0,False,31,-,-,-
PBB003K21,5,251,AS,intra_train,35,←,left,←,0.7146615000092424,True,31,-,-,-
PBB003K21,5,252,AS,intra_train,26,↓,down,↓,0.8533768000052078,True,31,-,-,-
PBB003K21,5,253,AS,exp,48,↑,down,↓,1.6103740999969887,False,21,-1,0,0
PBB003K21,5,254,AS,exp,39,↓,down,↓,0.7181290000007721,True,22,-1,0,0
PBB003K21,5,255,AS,exp,44,↑,up,↑,0.5766818999982206,True,22,1,1,1
PBB003K21,5,256,AS,exp,41,←,right,→,0.78033169999253,False,21,-1,1,2
PBB003K21,5,257,AS,exp,47,↓,down,↓,1.0833144999924116,True,22,-1,0,2
PBB003K21,5,258,AS,exp,48,→,right,→,0.8326068000023952,True,22,1,1,3
PBB003K21,5,259,AS,exp,35,←,left,←,0.92667960000108,True,21,1,0,3
PBB003K21,5,260,AS,exp,44,→,right,→,0.6484283000027062,True,21,1,0,3
PBB003K21,5,261,AS,exp,43,↓,down,↓,1.1219134999992093,True,20,1,0,3
PBB003K21,5,262,AS,exp,50,←,left,←,0.8226369000039995,True,20,1,0,3
PBB003K21,5,263,AS,exp,27,↓,left,←,0.6749593999993522,False,19,-1,1,4
PBB003K21,5,264,AS,exp,47,↑,down,↓,0.9856337000092026,False,20,-1,0,4
PBB003K21,5,265,AS,exp,28,↓,down,↓,0.7863286999927368,True,21,-1,0,4
PBB003K21,5,266,AS,exp,40,→,right,→,0.5516557000082685,True,21,1,1,5
PBB003K21,5,267,AS,exp,41,↓,right,→,0.7188989999995101,False,20,-1,1,6
PBB003K21,5,268,AS,exp,46,↑,up,↑,0.7094262000027811,True,21,-1,0,6
PBB003K21,5,269,AS,exp,26,→,left,←,0.5883816999994451,False,21,-1,0,6
PBB003K21,5,270,AS,exp,27,←,right,→,0.535574399997131,False,22,-1,0,6
PBB003K21,5,271,AS,exp,25,↓,up,↑,0.631389299989678,False,23,-1,0,6
PBB003K21,5,272,AS,exp,46,←,right,→,0.7069590000028256,False,24,-1,0,6
PBB003K21,5,273,AS,exp,28,↑,up,↑,0.5505772999895271,True,25,-1,0,6
PBB003K21,5,274,AS,exp,31,↓,down,↓,1.2676656999974512,True,25,1,1,7
PBB003K21,5,275,AS,exp,46,↑,up,↑,1.023793200001819,True,24,1,0,7
PBB003K21,5,276,AS,exp,30,←,left,←,0.928474999993341,True,24,1,0,7
PBB003K21,5,277,AS,exp,37,↓,up,↑,0.9432966000022134,False,23,-1,1,8
PBB003K21,5,278,AS,exp,26,←,right,→,0.6587453000101959,False,24,-1,0,8
PBB003K21,5,279,AS,exp,43,↓,left,←,1.1256575000006706,False,25,-1,0,8
PBB003K21,5,280,AS,exp,45,←,no_key,no_letter,-1.0,False,26,-1,0,8
PBB003K21,5,281,AS,exp,50,→,left,←,0.35126679998938926,False,27,-1,0,8
PBB003K21,5,282,AS,exp,37,↑,up,↑,0.6483526000083657,True,28,-1,0,8
PBB003K21,5,283,AS,exp,49,←,no_key,no_letter,-1.0,False,28,-1,0,8
PBB003K21,5,284,AS,exp,37,→,right,→,0.6524892000015825,True,29,-1,0,8
PBB003K21,5,285,AS,exp,49,↓,up,↑,0.705578199995216,False,29,-1,0,8
PBB003K21,5,286,AS,exp,46,←,down,↓,0.6990132000064477,False,30,-1,0,8
PBB003K21,5,287,AS,exp,27,→,right,→,0.6338947999902302,True,31,-1,0,8
PBB003K21,5,288,AS,exp,25,↑,no_key,no_letter,-1.0,False,31,-1,0,8
PBB003K21,5,289,AS,exp,48,→,up,↑,1.087264400004642,False,32,-1,0,8
PBB003K21,5,290,AS,exp,37,←,left,←,0.5014087000017753,True,33,-1,0,8
PBB003K21,5,291,AS,exp,34,↓,down,↓,1.348653099994408,True,33,1,1,9
PBB003K21,5,292,AS,exp,30,↑,no_key,no_letter,-1.0,False,32,-1,1,10
PBB003K21,5,293,AS,exp,35,←,left,←,0.9354473999992479,True,33,-1,0,10
PBB003K21,5,294,AS,exp,32,↑,up,↑,0.7314528999995673,True,33,1,1,11
PBB003K21,5,295,AS,exp,43,←,left,←,0.6004890999902273,True,32,1,0,11
PBB003K21,5,296,AS,exp,37,↑,up,↑,0.617271900002379,True,32,1,0,11
PBB003K21,5,297,AS,exp,27,←,left,←,0.5505239000049187,True,31,1,0,11
PBB003K21,5,298,AS,exp,41,↓,left,←,0.6006313999969279,False,31,-1,1,12
PBB003K21,5,299,AS,exp,40,←,right,→,0.5504490000021178,False,32,-1,0,12
PBB003K21,5,300,AS,exp,30,→,left,←,0.6005896999995457,False,33,-1,0,12
PBB003K21,5,301,AS,exp,44,↑,up,↑,0.7535388999967836,True,34,-1,0,12
PBB003K21,5,302,AS,exp,36,←,right,→,0.5839068999921437,False,34,-1,0,12
PBB003K21,5,303,AS,exp,46,↓,down,↓,1.4935789000010118,True,35,-1,0,12
PBB003K21,5,304,AS,exp,38,→,right,→,0.892947100001038,True,35,1,1,13
PBB003K21,5,305,AS,exp,40,↑,up,↑,0.7546225999976741,True,34,1,0,13
PBB003K21,5,306,AS,exp,44,→,right,→,0.5179016999900341,True,34,1,0,13
PBB003K21,5,307,AS,exp,25,↓,down,↓,1.088917400003993,True,33,1,0,13
PBB003K21,5,308,AS,exp,42,←,left,←,0.5506045000074664,True,33,1,0,13
PBB003K21,5,309,AS,exp,48,↓,down,↓,0.939007799999672,True,32,1,0,13
PBB003K21,5,310,AS,exp,48,↑,up,↑,0.7647754000063287,True,32,1,0,13
PBB003K21,5,311,AS,exp,26,←,left,←,0.7456066000013379,True,31,1,0,13
PBB003K21,5,312,AS,exp,42,↑,up,↑,0.7883207999984734,True,31,1,0,13
PBB003K21,5,313,AS,exp,50,→,right,→,0.8103756000055,True,30,1,0,13
PBB003K21,5,314,AS,exp,46,←,left,←,0.7522470999974757,True,30,1,0,13
PBB003K21,5,315,AS,exp,27,→,right,→,0.8079562000057194,True,29,1,0,13
PBB003K21,5,316,AS,exp,28,↓,down,↓,0.9106973000016296,True,29,1,0,13
PBB003K21,5,317,AS,exp,49,←,left,←,0.5337869999930263,True,28,1,0,13
PBB003K21,5,318,AS,exp,46,↓,down,↓,1.095776800008025,True,28,1,0,13
PBB003K21,5,319,AS,exp,44,→,right,→,0.550471299997298,True,27,1,0,13
PBB003K21,5,320,AS,exp,43,↑,up,↑,0.8903420999995433,True,27,1,0,13
PBB003K21,5,321,AS,exp,40,→,right,→,1.0189569999929518,True,26,1,0,13
PBB003K21,5,322,AS,exp,25,↑,up,↑,0.9269256999978097,True,26,1,0,13
PBB003K21,5,323,AS,exp,27,→,right,→,0.9923473999951966,True,25,1,0,13
PBB003K21,5,324,AS,exp,37,←,left,←,0.8539649000013014,True,25,1,0,13
PBB003K21,5,325,AS,exp,33,↑,up,↑,0.7570369000022765,True,24,1,0,13
PBB003K21,5,326,AS,exp,43,←,left,←,0.735007700001006,True,24,1,0,13
PBB003K21,5,327,AS,exp,37,→,right,→,0.7540367000037804,True,23,1,0,13
PBB003K21,5,328,AS,exp,36,↓,down,↓,0.9688153000024613,True,23,1,0,13
PBB003K21,5,329,AS,exp,36,←,left,←,0.5865413999999873,True,22,1,0,13
PBB003K21,5,330,AS,exp,49,→,down,↓,1.4253032999986317,False,22,-1,1,14
PBB003K21,6,331,PS,intra_train,26,↓,left,←,0.994610299996566,False,10,-,-,-
PBB003K21,6,332,PS,intra_train,34,→,right,→,0.4742060999997193,True,10,-,-,-
PBB003K21,6,333,PS,intra_train,32,↑,left,←,0.5527733999915654,False,10,-,-,-
PBB003K21,6,334,PS,intra_train,50,→,right,→,0.6331221000000369,True,10,-,-,-
PBB003K21,6,335,PS,intra_train,39,↑,up,↑,0.5812501000036718,True,10,-,-,-
PBB003K21,6,336,PS,exp,50,→,right,→,0.5116711999871768,True,7,0,0,0
PBB003K21,6,337,PS,exp,39,↑,up,↑,0.6183186999987811,True,7,1,0,0
PBB003K21,6,338,PS,exp,35,←,right,→,0.5274392999999691,False,6,-1,1,1
PBB003K21,6,339,PS,exp,41,↑,right,→,0.7631295000028331,False,7,-1,0,1
PBB003K21,6,340,PS,exp,41,→,right,→,0.42371070000808686,True,8,-1,0,1
PBB003K21,6,341,PS,exp,30,↓,left,←,0.45140489999903366,False,8,-1,0,1
PBB003K21,6,342,PS,exp,40,←,right,→,0.4903213999932632,False,9,-1,0,1
PBB003K21,6,343,PS,exp,40,↑,right,→,0.8838099999993574,False,10,-1,0,1
PBB003K21,6,344,PS,exp,46,→,right,→,0.591505699994741,True,11,-1,0,1
PBB003K21,6,345,PS,exp,39,↑,right,→,0.8474917999992613,False,11,-1,0,1
PBB003K21,6,346,PS,exp,39,←,right,→,0.5865858000033768,False,12,-1,0,1
PBB003K21,6,347,PS,exp,26,↓,right,→,0.700656600005459,False,13,-1,0,1
PBB003K21,6,348,PS,exp,35,←,left,←,0.6421158000011928,True,14,-1,0,1
PBB003K21,6,349,PS,exp,34,↓,down,↓,1.3253414999926463,True,14,1,1,2
PBB003K21,6,350,PS,exp,27,→,right,→,0.5052886999910697,True,13,1,0,2
PBB003K21,6,351,PS,exp,41,↑,up,↑,0.5266817000083392,True,13,1,0,2
PBB003K21,6,352,PS,exp,36,→,right,→,0.5372323999908986,True,12,1,0,2
PBB003K21,6,353,PS,exp,25,←,right,→,0.7120209999993676,False,12,-1,1,3
PBB003K21,6,354,PS,exp,42,↑,up,↑,0.5463815999974031,True,13,-1,0,3
PBB003K21,6,355,PS,exp,41,↓,up,↑,0.5869074999936856,False,13,-1,0,3
PBB003K21,6,356,PS,exp,38,↑,up,↑,0.47101979999570176,True,14,-1,0,3
PBB003K21,6,357,PS,exp,34,→,up,↑,1.216915600001812,False,14,-1,0,3
PBB003K21,6,358,PS,exp,43,↑,up,↑,1.0647310999920592,True,15,-1,0,3
PBB003K21,6,359,PS,exp,44,→,right,→,0.508972099996754,True,15,1,1,4
PBB003K21,6,360,PS,exp,26,↓,right,→,0.9812061999982689,False,14,-1,1,5
PBB003K21,6,361,PS,exp,37,↑,up,↑,0.4745650000113528,True,15,-1,0,5
PBB003K21,6,362,PS,exp,46,→,right,→,0.5196807000029366,True,15,1,1,6
PBB003K21,6,363,PS,exp,34,↑,up,↑,0.6601251999964006,True,14,1,0,6
PBB003K21,6,364,PS,exp,36,→,right,→,0.3506084000109695,True,14,1,0,6
PBB003K21,6,365,PS,exp,37,↑,left,←,0.39458020000893157,False,13,-1,1,7
PBB003K21,6,366,PS,exp,49,←,left,←,0.6022337000031257,True,14,-1,0,7
PBB003K21,6,367,PS,exp,47,→,right,→,0.4944076999963727,True,14,1,1,8
PBB003K21,6,368,PS,exp,39,↑,up,↑,0.5028325000021141,True,13,1,0,8
PBB003K21,6,369,PS,exp,49,←,left,←,0.5464346999942791,True,13,1,0,8
PBB003K21,6,370,PS,exp,38,↑,up,↑,0.5802402999979677,True,12,1,0,8
PBB003K21,6,371,PS,exp,40,←,right,→,0.861936399989645,False,12,-1,1,9
PBB003K21,6,372,PS,exp,26,↓,no_key,no_letter,-1.0,False,13,-1,0,9
PBB003K21,6,373,PS,exp,37,←,left,←,0.6147842000063974,True,14,-1,0,9
PBB003K21,6,374,PS,exp,43,↑,up,↑,0.4982451999967452,True,14,1,1,10
PBB003K21,6,375,PS,exp,30,←,left,←,0.41155849999631755,True,13,1,0,10
PBB003K21,6,376,PS,exp,32,↓,right,→,0.7764299999980722,False,13,-1,1,11
PBB003K21,6,377,PS,exp,28,←,left,←,0.6232285000005504,True,14,-1,0,11
PBB003K21,6,378,PS,exp,41,↑,up,↑,0.8776423999952385,True,14,1,1,12
PBB003K21,6,379,PS,exp,46,→,right,→,0.5184812000079546,True,13,1,0,12
PBB003K21,6,380,PS,exp,45,←,left,←,0.4917069000075571,True,13,1,0,12
PBB003K21,6,381,PS,exp,30,↓,left,←,0.7292672000039602,False,12,-1,1,13
PBB003K21,6,382,PS,exp,29,→,right,→,0.6050653000129387,True,13,-1,0,13
PBB003K21,6,383,PS,exp,28,←,left,←,0.525791099993512,True,13,1,1,14
PBB003K21,7,384,PS,intra_train,33,↑,right,→,0.7687242999963928,False,10,-,-,-
PBB003K21,7,385,PS,intra_train,30,←,left,←,0.5020089000026928,True,10,-,-,-
PBB003K21,7,386,PS,intra_train,40,↓,down,↓,0.7491305000003194,True,10,-,-,-
PBB003K21,7,387,PS,intra_train,33,←,right,→,0.7706575999909546,False,10,-,-,-
PBB003K21,7,388,PS,intra_train,38,↑,up,↑,0.6384068000043044,True,10,-,-,-
PBB003K21,7,389,PS,exp,40,→,left,←,0.8379899999999907,False,7,-1,0,0
PBB003K21,7,390,PS,exp,36,↓,down,↓,0.7665283999958774,True,8,-1,0,0
PBB003K21,7,391,PS,exp,43,←,left,←,0.4824374000017997,True,8,1,1,1
PBB003K21,7,392,PS,exp,36,↓,right,→,0.8148022000095807,False,7,-1,1,2
PBB003K21,7,393,PS,exp,26,↑,up,↑,0.5096746999915922,True,8,-1,0,2
PBB003K21,7,394,PS,exp,43,←,left,←,0.43552070000441745,True,8,1,1,3
PBB003K21,7,395,PS,exp,26,→,right,→,0.5538249999954132,True,7,1,0,3
PBB003K21,7,396,PS,exp,34,↓,down,↓,0.6175879999937024,True,7,1,0,3
PBB003K21,7,397,PS,exp,31,↑,left,←,0.7829548000008799,False,6,-1,1,4
PBB003K21,7,398,PS,exp,25,→,right,→,1.0739474000001792,True,7,-1,0,4
PBB003K21,7,399,PS,exp,36,↓,down,↓,0.9444145999877946,True,7,1,1,5
PBB003K21,7,400,PS,exp,28,→,right,→,0.47647419999702834,True,6,1,0,5
PBB003K21,7,401,PS,exp,38,↑,left,←,0.5275488000042969,False,6,-1,1,6
PBB003K21,7,402,PS,exp,43,↓,right,→,0.34605500000179745,False,7,-1,0,6
PBB003K21,7,403,PS,exp,50,←,left,←,0.3877711000095587,True,8,-1,0,6
PBB003K21,7,404,PS,exp,44,↑,left,←,0.31458109999948647,False,8,-1,0,6
PBB003K21,7,405,PS,exp,37,↓,right,→,0.4556172000011429,False,9,-1,0,6
PBB003K21,7,406,PS,exp,50,→,left,←,0.36257990000012796,False,10,-1,0,6
PBB003K21,7,407,PS,exp,34,←,left,←,0.4698372999991989,True,11,-1,0,6
PBB003K21,7,408,PS,exp,50,↑,up,↑,0.5648960000107763,True,11,1,1,7
PBB003K21,7,409,PS,exp,47,→,right,→,0.45599259999289643,True,10,1,0,7
PBB003K21,7,410,PS,exp,43,↑,right,→,0.45107569999527186,False,10,-1,1,8
PBB003K21,7,411,PS,exp,28,↓,left,←,0.7007771000062348,False,11,-1,0,8
PBB003K21,7,412,PS,exp,34,→,left,←,0.3014407000009669,False,12,-1,0,8
PBB003K21,7,413,PS,exp,36,↓,down,↓,0.8021958000026643,True,13,-1,0,8
PBB003K21,7,414,PS,exp,50,→,right,→,0.557214100001147,True,13,1,1,9
PBB003K21,7,415,PS,exp,28,↓,down,↓,0.6863594999886118,True,12,1,0,9
PBB003K21,7,416,PS,exp,41,↑,up,↑,0.5133671999938088,True,12,1,0,9
PBB003K21,7,417,PS,exp,39,→,right,→,0.6019474000058835,True,11,1,0,9
PBB003K21,7,418,PS,exp,25,←,left,←,0.5559903999965172,True,11,1,0,9
PBB003K21,7,419,PS,exp,47,↑,up,↑,0.5464785999938613,True,10,1,0,9
PBB003K21,7,420,PS,exp,45,↓,down,↓,0.7187616000010166,True,10,1,0,9
PBB003K21,7,421,PS,exp,46,→,right,→,0.6343110000016168,True,9,1,0,9
PBB003K21,7,422,PS,exp,48,←,left,←,0.4928469000005862,True,9,1,0,9
PBB003K21,7,423,PS,exp,35,↓,up,↑,0.8323152000084519,False,8,-1,1,10
PBB003K21,7,424,PS,exp,46,↑,up,↑,0.6133457999967504,True,9,-1,0,10
PBB003K21,7,425,PS,exp,50,→,right,→,0.6168648000020767,True,9,1,1,11
PBB003K21,7,426,PS,exp,26,↓,up,↑,0.585597899989807,False,8,-1,1,12
PBB003K21,7,427,PS,exp,44,→,down,↓,0.45664670001133345,False,9,-1,0,12
PBB003K21,7,428,PS,exp,41,↓,down,↓,0.5697572999924887,True,10,-1,0,12
PBB003K21,7,429,PS,exp,32,→,right,→,0.5756715000024997,True,10,1,1,13
PBB003K21,7,430,PS,exp,38,←,right,→,0.535448600014206,False,9,-1,1,14
PBB003K21,8,431,AS,intra_train,29,→,right,→,0.9551410999993095,True,31,-,-,-
PBB003K21,8,432,AS,intra_train,41,↓,left,←,0.5337912999966647,False,31,-,-,-
PBB003K21,8,433,AS,intra_train,42,→,left,←,0.6007228000089526,False,31,-,-,-
PBB003K21,8,434,AS,intra_train,48,↑,up,↑,0.6981675999995787,True,31,-,-,-
PBB003K21,8,435,AS,intra_train,31,←,left,←,0.8807716999872355,True,31,-,-,-
PBB003K21,8,436,AS,exp,37,↑,left,←,0.4506376000063028,False,21,-1,0,0
PBB003K21,8,437,AS,exp,34,←,right,→,0.6830640000116546,False,22,-1,0,0
PBB003K21,8,438,AS,exp,32,↑,left,←,0.8702341000025626,False,23,-1,0,0
PBB003K21,8,439,AS,exp,27,→,no_key,no_letter,-1.0,False,24,-1,0,0
PBB003K21,8,440,AS,exp,41,←,left,←,0.7521807000011904,True,25,-1,0,0
PBB003K21,8,441,AS,exp,43,↓,down,↓,1.2065467000065837,True,25,1,1,1
PBB003K21,8,442,AS,exp,28,↑,up,↑,0.6086992999917129,True,24,1,0,1
PBB003K21,8,443,AS,exp,43,→,right,→,0.7617244000139181,True,24,1,0,1
PBB003K21,8,444,AS,exp,47,↑,no_key,no_letter,-1.0,False,23,-1,1,2
PBB003K21,8,445,AS,exp,39,→,right,→,0.9846974999964004,True,24,-1,0,2
PBB003K21,8,446,AS,exp,41,←,no_key,no_letter,-1.0,False,24,-1,0,2
PBB003K21,8,447,AS,exp,38,↑,up,↑,1.010466899999301,True,25,-1,0,2
PBB003K21,8,448,AS,exp,38,→,right,→,0.8199525999953039,True,25,1,1,3
PBB003K21,8,449,AS,exp,38,↑,up,↑,0.8171479000011459,True,24,1,0,3
PBB003K21,8,450,AS,exp,25,↓,down,↓,0.940999099999317,True,24,1,0,3
PBB003K21,8,451,AS,exp,47,→,right,→,0.9272541999962414,True,23,1,0,3
PBB003K21,8,452,AS,exp,35,←,left,←,0.7235272999969311,True,23,1,0,3
PBB003K21,8,453,AS,exp,28,→,right,→,0.7760005000018282,True,22,1,0,3
PBB003K21,8,454,AS,exp,31,←,left,←,0.4841320999985328,True,22,1,0,3
PBB003K21,8,455,AS,exp,30,↓,down,↓,1.7965325999975903,True,21,1,0,3
PBB003K21,8,456,AS,exp,49,↑,up,↑,0.6538887999922736,True,21,1,0,3
PBB003K21,8,457,AS,exp,27,→,right,→,0.8123112000030233,True,20,1,0,3
PBB003K21,8,458,AS,exp,30,←,right,→,1.0137221000040881,False,20,-1,1,4
PBB003K21,8,459,AS,exp,33,↓,down,↓,0.9323486000066623,True,21,-1,0,4
PBB003K21,8,460,AS,exp,40,→,right,→,1.1211121999949683,True,21,1,1,5
PBB003K21,8,461,AS,exp,47,↑,up,↑,0.6288803000061307,True,20,1,0,5
PBB003K21,8,462,AS,exp,37,←,left,←,0.6176578000013251,True,20,1,0,5
PBB003K21,8,463,AS,exp,27,↑,right,→,0.9835399000003235,False,19,-1,1,6
PBB003K21,8,464,AS,exp,35,←,no_key,no_letter,-1.0,False,20,-1,0,6
PBB003K21,8,465,AS,exp,34,→,right,→,1.0284263999928953,True,21,-1,0,6
PBB003K21,8,466,AS,exp,49,↑,down,↓,0.7625088000058895,False,21,-1,0,6
PBB003K21,8,467,AS,exp,49,↓,up,↑,0.7622843999997713,False,22,-1,0,6
PBB003K21,8,468,AS,exp,30,↑,up,↑,0.9221004999999423,True,23,-1,0,6
PBB003K21,8,469,AS,exp,26,←,left,←,0.6933658999914769,True,23,1,1,7
PBB003K21,8,470,AS,exp,29,↑,up,↑,1.0013407999940682,True,22,1,0,7
PBB003K21,8,471,AS,exp,41,↓,down,↓,0.9549928000051295,True,22,1,0,7
PBB003K21,8,472,AS,exp,33,↑,up,↑,0.8191477000073064,True,21,1,0,7
PBB003K21,8,473,AS,exp,43,↓,down,↓,0.7043139000015799,True,21,1,0,7
PBB003K21,8,474,AS,exp,28,↑,up,↑,0.5541824000101769,True,20,1,0,7
PBB003K21,8,475,AS,exp,25,←,left,←,0.593684999999823,True,20,1,0,7
PBB003K21,8,476,AS,exp,39,→,right,→,0.6632610999949975,True,19,1,0,7
PBB003K21,8,477,AS,exp,31,←,left,←,0.7596138999942923,True,19,1,0,7
PBB003K21,8,478,AS,exp,45,→,left,←,0.5596523999993224,False,18,-1,1,8
PBB003K21,8,479,AS,exp,37,←,left,←,0.6499947999982396,True,19,-1,0,8
PBB003K21,8,480,AS,exp,48,→,right,→,0.7365086999925552,True,19,1,1,9
PBB003K21,8,481,AS,exp,43,↓,up,↑,0.9025188000086928,False,18,-1,1,10
PBB003K21,8,482,AS,exp,36,↑,down,↓,1.4783524999947986,False,19,-1,0,10
PBB003K21,8,483,AS,exp,26,↓,down,↓,0.945364300001529,True,20,-1,0,10
PBB003K21,8,484,AS,exp,39,↑,up,↑,0.7906604000017978,True,20,1,1,11
PBB003K21,8,485,AS,exp,43,↓,down,↓,0.5877214000065578,True,19,1,0,11
PBB003K21,8,486,AS,exp,29,→,right,→,0.6840360999922268,True,19,1,0,11
PBB003K21,8,487,AS,exp,35,↑,up,↑,0.5776207000017166,True,18,1,0,11
PBB003K21,8,488,AS,exp,37,→,right,→,0.7289556000032462,True,18,1,0,11
PBB003K21,8,489,AS,exp,34,←,left,←,0.6984771999996156,True,17,1,0,11
PBB003K21,8,490,AS,exp,35,↓,up,↑,1.2146263000031468,False,17,-1,1,12
PBB003K21,8,491,AS,exp,34,→,right,→,0.5766770999907749,True,18,-1,0,12
PBB003K21,8,492,AS,exp,27,↓,down,↓,0.7468305999937002,True,18,1,1,13
PBB003K21,8,493,AS,exp,25,↑,up,↑,0.8434522999887122,True,17,1,0,13
PBB003K21,8,494,AS,exp,49,↓,down,↓,0.613613900000928,True,17,1,0,13
PBB003K21,8,495,AS,exp,36,←,left,←,0.5381081000086851,True,16,1,0,13
PBB003K21,8,496,AS,exp,50,↑,up,↑,0.9100598999939393,True,16,1,0,13
PBB003K21,8,497,AS,exp,32,↓,down,↓,0.7357782000035513,True,15,1,0,13
PBB003K21,8,498,AS,exp,29,→,right,→,0.7686990999936825,True,15,1,0,13
PBB003K21,8,499,AS,exp,43,↑,up,↑,0.6895746000081999,True,14,1,0,13
PBB003K21,8,500,AS,exp,38,→,right,→,0.6919283999886829,True,14,1,0,13
PBB003K21,8,501,AS,exp,28,↓,right,→,0.5714086999942083,False,13,-1,1,14
