PART_ID,Block_no,Trial_no,Block_type,Trial_type,CSI,Stim_letter,Key_pressed,letter_choose,Rt,Corr,Stimulus Time,Level,Reversal,Revs_count
PB019M27,1,1,PS,train,32,←,left,←,0.9492929999832995,True,30,-,-,-
PB019M27,1,2,PS,train,41,↑,up,↑,1.8214568000403233,True,30,-,-,-
PB019M27,1,3,PS,train,35,↓,down,↓,1.27905529999407,True,30,-,-,-
PB019M27,1,4,PS,train,42,←,left,←,1.6613622999866493,True,30,-,-,-
PB019M27,1,5,PS,train,50,→,right,→,0.5338697000406682,True,30,-,-,-
PB019M27,1,6,PS,train,39,↓,down,↓,1.2203258000081405,True,30,-,-,-
PB019M27,1,7,PS,train,30,←,left,←,1.7651121000526473,True,30,-,-,-
PB019M27,1,8,PS,train,36,↓,down,↓,0.6954141000169329,True,30,-,-,-
PB019M27,1,9,PS,train,47,↑,up,↑,0.7996413000510074,True,30,-,-,-
PB019M27,1,10,PS,train,28,←,left,←,0.6013063999707811,True,30,-,-,-
PB019M27,2,11,AS,train,39,↑,up,↑,0.6679020999581553,True,45,-,-,-
PB019M27,2,12,AS,train,28,↓,down,↓,0.7339643000159413,True,45,-,-,-
PB019M27,2,13,AS,train,47,←,left,←,0.6680773999541998,True,45,-,-,-
PB019M27,2,14,AS,train,28,→,right,→,0.6016633000108413,True,45,-,-,-
PB019M27,2,15,AS,train,29,↑,up,↑,0.6684720999910496,True,45,-,-,-
PB019M27,2,16,AS,train,43,↓,down,↓,0.6848242999985814,True,45,-,-,-
PB019M27,2,17,AS,train,39,←,left,←,0.6516198999597691,True,45,-,-,-
PB019M27,2,18,AS,train,33,↑,up,↑,0.6015268000192009,True,45,-,-,-
PB019M27,2,19,AS,train,42,←,left,←,0.5179835999733768,True,45,-,-,-
PB019M27,2,20,AS,train,38,↑,up,↑,0.7671525999903679,True,45,-,-,-
PB019M27,-,21,PS,adaptive,35,←,no_key,no_letter,-1.0,False,10,-1,0,0
PB019M27,-,22,PS,adaptive,28,→,right,→,0.5220335000194609,True,11,-1,0,0
PB019M27,-,23,PS,adaptive,32,↓,down,↓,1.1072329999879003,True,11,1,1,1
PB019M27,-,24,PS,adaptive,36,→,left,←,0.9655461999936961,False,10,-1,1,2
PB019M27,-,25,PS,adaptive,42,←,right,→,1.0016498999902979,False,11,-1,0,2
PB019M27,-,26,PS,adaptive,39,→,left,←,0.6963002000120468,False,12,-1,0,2
PB019M27,-,27,PS,adaptive,26,↑,right,→,1.135260599956382,False,13,-1,0,2
PB019M27,-,28,PS,adaptive,45,→,right,→,0.7429413999780081,True,14,-1,0,2
PB019M27,-,29,PS,adaptive,37,←,left,←,0.8745531000313349,True,14,1,1,3
PB019M27,-,30,PS,adaptive,25,→,right,→,1.347129399946425,True,13,1,0,3
PB019M27,-,31,PS,adaptive,38,←,left,←,0.5535649000084959,True,13,1,0,3
PB019M27,-,32,PS,adaptive,32,↑,up,↑,1.4572134999907576,True,12,1,0,3
PB019M27,-,33,PS,adaptive,31,←,left,←,0.6685117000015453,True,12,1,0,3
PB019M27,-,34,PS,adaptive,42,→,right,→,0.6287017000140622,True,11,1,0,3
PB019M27,-,35,PS,adaptive,28,←,left,←,0.564069300016854,True,11,1,0,3
PB019M27,-,36,PS,adaptive,47,↓,right,→,0.8850551000214182,False,10,-1,1,4
PB019M27,-,37,AS,adaptive,38,↑,up,↑,0.5761721000308171,True,20,0,0,0
PB019M27,-,38,AS,adaptive,40,↓,down,↓,0.7003373000188731,True,20,1,0,0
PB019M27,-,39,AS,adaptive,43,↑,up,↑,0.6177591999876313,True,19,1,0,0
PB019M27,-,40,AS,adaptive,28,←,left,←,0.5726011000224389,True,19,1,0,0
PB019M27,-,41,AS,adaptive,39,↓,down,↓,0.6698446000227705,True,18,1,0,0
PB019M27,-,42,AS,adaptive,33,↑,up,↑,0.5837986000115052,True,18,1,0,0
PB019M27,-,43,AS,adaptive,46,↓,down,↓,0.7517309000249952,True,17,1,0,0
PB019M27,-,44,AS,adaptive,50,↑,up,↑,0.6730420999811031,True,17,1,0,0
PB019M27,-,45,AS,adaptive,30,→,right,→,0.6200449999887496,True,16,1,0,0
PB019M27,-,46,AS,adaptive,37,←,left,←,0.614454599970486,True,16,1,0,0
PB019M27,-,47,AS,adaptive,34,→,down,↓,1.0932377999997698,False,15,-1,1,1
PB019M27,-,48,AS,adaptive,42,↓,down,↓,0.7520065000280738,True,16,-1,0,1
PB019M27,-,49,AS,adaptive,47,↑,down,↓,1.5195469000027515,False,16,-1,0,1
PB019M27,-,50,AS,adaptive,40,→,right,→,0.6556615000008605,True,17,-1,0,1
PB019M27,-,51,AS,adaptive,36,↓,down,↓,0.7339963000267744,True,17,1,1,2
PB019M27,-,52,AS,adaptive,47,←,down,↓,0.7941709000151604,False,16,-1,1,3
PB019M27,-,53,AS,adaptive,29,↓,down,↓,1.0858732999768108,True,17,-1,0,3
PB019M27,-,54,AS,adaptive,29,←,left,←,0.6069189999834634,True,17,1,1,4
PB019M27,1,55,AS,intra_train,48,→,right,→,0.6691938000149094,True,24,-,-,-
PB019M27,1,56,AS,intra_train,41,←,left,←,0.6114651000243612,True,24,-,-,-
PB019M27,1,57,AS,intra_train,46,↓,down,↓,0.6710269000031985,True,24,-,-,-
PB019M27,1,58,AS,intra_train,32,→,right,→,0.7336138999671675,True,24,-,-,-
PB019M27,1,59,AS,intra_train,25,←,left,←,0.6145103999879211,True,24,-,-,-
PB019M27,1,60,AS,exp,44,↓,down,↓,0.7364905999857001,True,16,0,0,0
PB019M27,1,61,AS,exp,49,→,left,←,0.916246399981901,False,16,-1,0,0
PB019M27,1,62,AS,exp,27,↑,up,↑,0.8218038000050001,True,17,-1,0,0
PB019M27,1,63,AS,exp,43,←,up,↑,1.5997291000094265,False,17,-1,0,0
PB019M27,1,64,AS,exp,33,↑,up,↑,0.6074258000007831,True,18,-1,0,0
PB019M27,1,65,AS,exp,32,→,right,→,0.6719568999833427,True,18,1,1,1
PB019M27,1,66,AS,exp,49,↑,up,↑,0.5759814999764785,True,17,1,0,1
PB019M27,1,67,AS,exp,47,→,right,→,0.6162808999652043,True,17,1,0,1
PB019M27,1,68,AS,exp,26,←,left,←,0.6750997999915853,True,16,1,0,1
PB019M27,1,69,AS,exp,34,↑,up,↑,0.5884828999987803,True,16,1,0,1
PB019M27,1,70,AS,exp,27,←,left,←,0.6796797999995761,True,15,1,0,1
PB019M27,1,71,AS,exp,38,↑,up,↑,0.6501512000104412,True,15,1,0,1
PB019M27,1,72,AS,exp,38,←,left,←,0.6563673000200652,True,14,1,0,1
PB019M27,1,73,AS,exp,49,→,right,→,0.6073925000382587,True,14,1,0,1
PB019M27,1,74,AS,exp,48,←,left,←,0.6339673000038601,True,13,1,0,1
PB019M27,1,75,AS,exp,37,↓,down,↓,0.7122220000019297,True,13,1,0,1
PB019M27,1,76,AS,exp,27,←,left,←,0.9246002999716438,True,12,1,0,1
PB019M27,1,77,AS,exp,43,→,left,←,0.8882088999962434,False,12,-1,1,2
PB019M27,1,78,AS,exp,27,↓,up,↑,0.6017346000298858,False,13,-1,0,2
PB019M27,1,79,AS,exp,46,←,down,↓,0.9195718999835663,False,14,-1,0,2
PB019M27,1,80,AS,exp,32,→,right,→,0.6139799000229686,True,15,-1,0,2
PB019M27,1,81,AS,exp,35,←,left,←,0.5699924000073224,True,15,1,1,3
PB019M27,1,82,AS,exp,33,↓,up,↑,0.6664824999752454,False,14,-1,1,4
PB019M27,1,83,AS,exp,42,→,right,→,0.6068572999793105,True,15,-1,0,4
PB019M27,1,84,AS,exp,37,↑,down,↓,0.8126933999592438,False,15,-1,0,4
PB019M27,1,85,AS,exp,33,←,left,←,0.5840010999818332,True,16,-1,0,4
PB019M27,1,86,AS,exp,30,↑,up,↑,0.6278231000178494,True,16,1,1,5
PB019M27,1,87,AS,exp,44,→,right,→,0.7442692000186071,True,15,1,0,5
PB019M27,1,88,AS,exp,32,↑,up,↑,0.5421520000090823,True,15,1,0,5
PB019M27,1,89,AS,exp,43,↓,down,↓,0.6644889999879524,True,14,1,0,5
PB019M27,1,90,AS,exp,39,↑,down,↓,0.6685459000291303,False,14,-1,1,6
PB019M27,1,91,AS,exp,46,←,right,→,0.8069352000020444,False,15,-1,0,6
PB019M27,1,92,AS,exp,32,↑,up,↑,0.6018551000161096,True,16,-1,0,6
PB019M27,1,93,AS,exp,44,←,left,←,0.5681494000018574,True,16,1,1,7
PB019M27,1,94,AS,exp,41,→,right,→,1.2962116999551654,True,15,1,0,7
PB019M27,1,95,AS,exp,45,↑,right,→,0.5363023999962024,False,15,-1,1,8
PB019M27,1,96,AS,exp,46,→,no_key,no_letter,-1.0,False,16,-1,0,8
PB019M27,1,97,AS,exp,37,↑,left,←,0.4808612000197172,False,17,-1,0,8
PB019M27,1,98,AS,exp,37,→,right,→,0.4927715999656357,True,18,-1,0,8
PB019M27,1,99,AS,exp,28,↓,down,↓,0.6420119000249542,True,18,1,1,9
PB019M27,1,100,AS,exp,27,←,left,←,0.604273600038141,True,17,1,0,9
PB019M27,1,101,AS,exp,25,→,right,→,0.5991541999974288,True,17,1,0,9
PB019M27,1,102,AS,exp,34,↑,no_key,no_letter,-1.0,False,16,-1,1,10
PB019M27,1,103,AS,exp,37,→,right,→,0.6092844999511726,True,17,-1,0,10
PB019M27,1,104,AS,exp,26,←,left,←,1.0159493000246584,True,17,1,1,11
PB019M27,1,105,AS,exp,35,↑,up,↑,0.6335007000016049,True,16,1,0,11
PB019M27,1,106,AS,exp,46,→,right,→,0.7242546000052243,True,16,1,0,11
PB019M27,1,107,AS,exp,39,↑,up,↑,0.5601221999968402,True,15,1,0,11
PB019M27,1,108,AS,exp,49,↓,down,↓,0.7869202999863774,True,15,1,0,11
PB019M27,1,109,AS,exp,30,↑,up,↑,0.6800410999567248,True,14,1,0,11
PB019M27,1,110,AS,exp,48,→,left,←,1.1093573000398465,False,14,-1,1,12
PB019M27,1,111,AS,exp,44,←,left,←,0.6426920000230893,True,15,-1,0,12
PB019M27,1,112,AS,exp,42,↑,up,↑,0.5798483000253327,True,15,1,1,13
PB019M27,1,113,AS,exp,47,→,right,→,0.6005216999910772,True,14,1,0,13
PB019M27,1,114,AS,exp,46,↓,down,↓,0.6394594999728724,True,14,1,0,13
PB019M27,1,115,AS,exp,50,←,right,→,0.7092712000012398,False,13,-1,1,14
PB019M27,2,116,PS,intra_train,44,↓,up,↑,1.4374638000153936,False,16,-,-,-
PB019M27,2,117,PS,intra_train,29,→,right,→,0.5646787000005133,True,16,-,-,-
PB019M27,2,118,PS,intra_train,48,↓,down,↓,0.6273237999994308,True,16,-,-,-
PB019M27,2,119,PS,intra_train,26,→,right,→,0.5573408000054769,True,16,-,-,-
PB019M27,2,120,PS,intra_train,32,←,left,←,0.5854089999920689,True,16,-,-,-
PB019M27,2,121,PS,exp,29,↓,right,→,0.8724529000464827,False,11,-1,0,0
PB019M27,2,122,PS,exp,45,→,right,→,0.6180621000239626,True,12,-1,0,0
PB019M27,2,123,PS,exp,40,←,left,←,0.6336730999755673,True,12,1,1,1
PB019M27,2,124,PS,exp,46,↑,up,↑,0.5982523999991827,True,11,1,0,1
PB019M27,2,125,PS,exp,35,↓,down,↓,0.7972470999811776,True,11,1,0,1
PB019M27,2,126,PS,exp,31,→,down,↓,1.6381201999611221,False,10,-1,1,2
PB019M27,2,127,PS,exp,35,↓,down,↓,0.8658922999748029,True,11,-1,0,2
PB019M27,2,128,PS,exp,46,→,right,→,0.5729822000139393,True,11,1,1,3
PB019M27,2,129,PS,exp,45,←,left,←,0.6124008999904618,True,10,1,0,3
PB019M27,2,130,PS,exp,30,→,right,→,0.43577399995410815,True,10,1,0,3
PB019M27,2,131,PS,exp,37,↑,up,↑,0.7305496000335552,True,9,1,0,3
PB019M27,2,132,PS,exp,48,→,left,←,1.305426700040698,False,9,-1,1,4
PB019M27,2,133,PS,exp,35,←,up,↑,1.7305057999910787,False,10,-1,0,4
PB019M27,2,134,PS,exp,31,↓,down,↓,0.6873195000225678,True,11,-1,0,4
PB019M27,2,135,PS,exp,43,↑,up,↑,0.6341453000204638,True,11,1,1,5
PB019M27,2,136,PS,exp,50,←,right,→,0.799720500013791,False,10,-1,1,6
PB019M27,2,137,PS,exp,25,↓,down,↓,0.8597075999714434,True,11,-1,0,6
PB019M27,2,138,PS,exp,33,↑,up,↑,0.6514134000171907,True,11,1,1,7
PB019M27,2,139,PS,exp,30,←,left,←,1.5461671999655664,True,10,1,0,7
PB019M27,2,140,PS,exp,33,→,right,→,0.6548007999663241,True,10,1,0,7
PB019M27,2,141,PS,exp,32,↓,left,←,1.330400099977851,False,9,-1,1,8
PB019M27,2,142,PS,exp,26,↑,down,↓,0.8971063999924809,False,10,-1,0,8
PB019M27,2,143,PS,exp,34,←,up,↑,1.16466779995244,False,11,-1,0,8
PB019M27,2,144,PS,exp,45,→,right,→,1.3595085000270046,True,12,-1,0,8
PB019M27,2,145,PS,exp,46,↓,down,↓,0.63435250002658,True,12,1,1,9
PB019M27,2,146,PS,exp,45,←,down,↓,0.8276355999987572,False,11,-1,1,10
PB019M27,2,147,PS,exp,36,↑,up,↑,0.5958004999556579,True,12,-1,0,10
PB019M27,2,148,PS,exp,37,→,right,→,0.5591466000187211,True,12,1,1,11
PB019M27,2,149,PS,exp,45,↑,right,→,1.0476411000126973,False,11,-1,1,12
PB019M27,2,150,PS,exp,28,→,right,→,0.6014106000075117,True,12,-1,0,12
PB019M27,2,151,PS,exp,32,←,left,←,0.5162128999945708,True,12,1,1,13
PB019M27,2,152,PS,exp,25,→,right,→,0.5401782999979332,True,11,1,0,13
PB019M27,2,153,PS,exp,28,←,left,←,0.5457110999850556,True,11,1,0,13
PB019M27,2,154,PS,exp,33,→,right,→,0.5062371999956667,True,10,1,0,13
PB019M27,2,155,PS,exp,28,↑,up,↑,0.547530000039842,True,10,1,0,13
PB019M27,2,156,PS,exp,44,←,right,→,0.7857467999565415,False,9,-1,1,14
PB019M27,3,157,PS,intra_train,25,↑,up,↑,0.6943623999832198,True,16,-,-,-
PB019M27,3,158,PS,intra_train,47,→,right,→,0.6030360000440851,True,16,-,-,-
PB019M27,3,159,PS,intra_train,37,↓,up,↑,1.083782900008373,False,16,-,-,-
PB019M27,3,160,PS,intra_train,49,←,left,←,0.5147822999861091,True,16,-,-,-
PB019M27,3,161,PS,intra_train,45,↓,down,↓,0.6975830000010319,True,16,-,-,-
PB019M27,3,162,PS,exp,35,←,right,→,1.5248214000021107,False,11,-1,0,0
PB019M27,3,163,PS,exp,31,↑,up,↑,1.1339606000110507,True,12,-1,0,0
PB019M27,3,164,PS,exp,40,↓,down,↓,0.6267169000348076,True,12,1,1,1
PB019M27,3,165,PS,exp,25,←,right,→,0.664023699995596,False,11,-1,1,2
PB019M27,3,166,PS,exp,46,↓,down,↓,0.6088217999786139,True,12,-1,0,2
PB019M27,3,167,PS,exp,44,↑,up,↑,0.6088131999713369,True,12,1,1,3
PB019M27,3,168,PS,exp,46,→,right,→,0.5487460999866016,True,11,1,0,3
PB019M27,3,169,PS,exp,40,↓,down,↓,0.5858158000046387,True,11,1,0,3
PB019M27,3,170,PS,exp,32,↑,up,↑,0.5685063999844715,True,10,1,0,3
PB019M27,3,171,PS,exp,48,←,left,←,0.5697988999891095,True,10,1,0,3
PB019M27,3,172,PS,exp,42,↑,down,↓,1.077158900036011,False,9,-1,1,4
PB019M27,3,173,PS,exp,30,→,right,→,0.5762730999849737,True,10,-1,0,4
PB019M27,3,174,PS,exp,33,↓,down,↓,0.5986130000092089,True,10,1,1,5
PB019M27,3,175,PS,exp,37,←,left,←,0.5064829000039026,True,9,1,0,5
PB019M27,3,176,PS,exp,33,→,right,→,0.7698649999802001,True,9,1,0,5
PB019M27,3,177,PS,exp,39,↓,down,↓,0.6236623000004329,True,8,1,0,5
PB019M27,3,178,PS,exp,47,←,right,→,0.646637300029397,False,8,-1,1,6
PB019M27,3,179,PS,exp,44,↓,down,↓,0.7921547999721952,True,9,-1,0,6
PB019M27,3,180,PS,exp,45,←,right,→,0.5787848000181839,False,9,-1,0,6
PB019M27,3,181,PS,exp,48,→,right,→,0.5456512999953702,True,10,-1,0,6
PB019M27,3,182,PS,exp,46,←,right,→,0.3441115999594331,False,10,-1,0,6
PB019M27,3,183,PS,exp,26,→,right,→,0.6871634999988601,True,11,-1,0,6
PB019M27,3,184,PS,exp,30,↑,right,→,0.9237534999847412,False,11,-1,0,6
PB019M27,3,185,PS,exp,44,→,right,→,0.8398959999904037,True,12,-1,0,6
PB019M27,3,186,PS,exp,28,←,right,→,0.908273899985943,False,12,-1,0,6
PB019M27,3,187,PS,exp,39,→,right,→,0.807300699991174,True,13,-1,0,6
PB019M27,3,188,PS,exp,33,↓,down,↓,0.7571252000052482,True,13,1,1,7
PB019M27,3,189,PS,exp,45,→,right,→,0.6323782000108622,True,12,1,0,7
PB019M27,3,190,PS,exp,33,↑,up,↑,1.3616499999770895,True,12,1,0,7
PB019M27,3,191,PS,exp,26,←,left,←,0.7620515000307932,True,11,1,0,7
PB019M27,3,192,PS,exp,25,↑,right,→,1.0431181999738328,False,11,-1,1,8
PB019M27,3,193,PS,exp,30,↓,down,↓,0.8101113999728113,True,12,-1,0,8
PB019M27,3,194,PS,exp,37,←,left,←,0.9322167999926023,True,12,1,1,9
PB019M27,3,195,PS,exp,48,→,right,→,0.6117177999694832,True,11,1,0,9
PB019M27,3,196,PS,exp,44,↓,down,↓,0.7428980999975465,True,11,1,0,9
PB019M27,3,197,PS,exp,42,↑,down,↓,1.2245103000313975,False,10,-1,1,10
PB019M27,3,198,PS,exp,25,→,right,→,0.6005337000242434,True,11,-1,0,10
PB019M27,3,199,PS,exp,34,↓,down,↓,0.5398203000077046,True,11,1,1,11
PB019M27,3,200,PS,exp,43,←,left,←,0.5960149000165984,True,10,1,0,11
PB019M27,3,201,PS,exp,48,↑,up,↑,0.7797290000016801,True,10,1,0,11
PB019M27,3,202,PS,exp,26,←,left,←,0.6069698999635875,True,9,1,0,11
PB019M27,3,203,PS,exp,50,↑,up,↑,0.5335032999864779,True,9,1,0,11
PB019M27,3,204,PS,exp,27,→,right,→,1.4984658000175841,True,8,1,0,11
PB019M27,3,205,PS,exp,36,↑,up,↑,0.7731895999750122,True,8,1,0,11
PB019M27,3,206,PS,exp,42,→,right,→,0.6550665999529883,True,7,1,0,11
PB019M27,3,207,PS,exp,27,↓,up,↑,0.9547512999852188,False,7,-1,1,12
PB019M27,3,208,PS,exp,41,→,right,→,0.5729366000159644,True,8,-1,0,12
PB019M27,3,209,PS,exp,41,←,left,←,0.5687884999788366,True,8,1,1,13
PB019M27,3,210,PS,exp,42,→,right,→,1.397422399953939,True,7,1,0,13
PB019M27,3,211,PS,exp,41,↑,left,←,0.8980859000002965,False,7,-1,1,14
PB019M27,4,212,AS,intra_train,25,←,left,←,1.6925015999586321,True,24,-,-,-
PB019M27,4,213,AS,intra_train,25,→,right,→,0.6528718000045046,True,24,-,-,-
PB019M27,4,214,AS,intra_train,41,↓,down,↓,0.7629829000215977,True,24,-,-,-
PB019M27,4,215,AS,intra_train,37,↑,up,↑,0.6862111000227742,True,24,-,-,-
PB019M27,4,216,AS,intra_train,42,→,right,→,0.5882471000077203,True,24,-,-,-
PB019M27,4,217,AS,exp,35,←,left,←,0.5986791000468656,True,16,0,0,0
PB019M27,4,218,AS,exp,43,→,left,←,1.1809242999879643,False,16,-1,0,0
PB019M27,4,219,AS,exp,25,↑,up,↑,0.5859807000379078,True,17,-1,0,0
PB019M27,4,220,AS,exp,39,←,left,←,0.6339812999940477,True,17,1,1,1
PB019M27,4,221,AS,exp,29,→,up,↑,0.9652596000232734,False,16,-1,1,2
PB019M27,4,222,AS,exp,28,↓,down,↓,0.6900458000018261,True,17,-1,0,2
PB019M27,4,223,AS,exp,32,→,right,→,1.2057152999914251,True,17,1,1,3
PB019M27,4,224,AS,exp,49,↑,up,↑,0.654521599994041,True,16,1,0,3
PB019M27,4,225,AS,exp,44,←,no_key,no_letter,-1.0,False,16,-1,1,4
PB019M27,4,226,AS,exp,37,↑,up,↑,0.606854600016959,True,17,-1,0,4
PB019M27,4,227,AS,exp,43,↓,down,↓,0.7179863000055775,True,17,1,1,5
PB019M27,4,228,AS,exp,38,↑,up,↑,0.6793427999946289,True,16,1,0,5
PB019M27,4,229,AS,exp,48,↓,down,↓,0.6877163999597542,True,16,1,0,5
PB019M27,4,230,AS,exp,29,←,left,←,0.6563019000459462,True,15,1,0,5
PB019M27,4,231,AS,exp,31,↑,up,↑,0.682864900038112,True,15,1,0,5
PB019M27,4,232,AS,exp,29,↓,down,↓,1.0722872000187635,True,14,1,0,5
PB019M27,4,233,AS,exp,25,↑,down,↓,1.2676440000068396,False,14,-1,1,6
PB019M27,4,234,AS,exp,26,→,right,→,0.7222199999960139,True,15,-1,0,6
PB019M27,4,235,AS,exp,50,↓,down,↓,0.653702899988275,True,15,1,1,7
PB019M27,4,236,AS,exp,43,←,left,←,0.6085024999920279,True,14,1,0,7
PB019M27,4,237,AS,exp,42,↑,up,↑,0.5223474999656901,True,14,1,0,7
PB019M27,4,238,AS,exp,44,←,right,→,0.6474911999539472,False,13,-1,1,8
PB019M27,4,239,AS,exp,26,→,left,←,0.5221142999944277,False,14,-1,0,8
PB019M27,4,240,AS,exp,43,↑,up,↑,0.7631882999558002,True,15,-1,0,8
PB019M27,4,241,AS,exp,30,←,left,←,0.6579184000147507,True,15,1,1,9
PB019M27,4,242,AS,exp,50,→,right,→,0.5385723999934271,True,14,1,0,9
PB019M27,4,243,AS,exp,36,↑,up,↑,0.6133218000177294,True,14,1,0,9
PB019M27,4,244,AS,exp,25,→,right,→,0.544136900047306,True,13,1,0,9
PB019M27,4,245,AS,exp,39,↓,up,↑,0.6569322000141256,False,13,-1,1,10
PB019M27,4,246,AS,exp,38,→,down,↓,1.3018407999770716,False,14,-1,0,10
PB019M27,4,247,AS,exp,36,↓,down,↓,1.0346157999592833,True,15,-1,0,10
PB019M27,4,248,AS,exp,35,↑,up,↑,0.9698817000025883,True,15,1,1,11
PB019M27,4,249,AS,exp,29,←,left,←,0.5811977999983355,True,14,1,0,11
PB019M27,4,250,AS,exp,50,→,right,→,0.7496878000092693,True,14,1,0,11
PB019M27,4,251,AS,exp,31,↑,down,↓,1.0307330999639817,False,13,-1,1,12
PB019M27,4,252,AS,exp,35,←,left,←,0.6808423000038601,True,14,-1,0,12
PB019M27,4,253,AS,exp,40,↓,up,↑,0.6379030999960378,False,14,-1,0,12
PB019M27,4,254,AS,exp,47,←,left,←,0.7091789999976754,True,15,-1,0,12
PB019M27,4,255,AS,exp,47,↓,down,↓,0.5390695999958552,True,15,1,1,13
PB019M27,4,256,AS,exp,33,↑,down,↓,0.8539978000335395,False,14,-1,1,14
PB019M27,5,257,AS,intra_train,37,→,right,→,0.5736643999698572,True,24,-,-,-
PB019M27,5,258,AS,intra_train,49,↑,up,↑,0.6423804999794811,True,24,-,-,-
PB019M27,5,259,AS,intra_train,30,↓,down,↓,0.8323713000281714,True,24,-,-,-
PB019M27,5,260,AS,intra_train,40,↑,up,↑,0.574579400010407,True,24,-,-,-
PB019M27,5,261,AS,intra_train,34,→,right,→,1.1772446999675594,True,24,-,-,-
PB019M27,5,262,AS,exp,32,↑,up,↑,0.517427199985832,True,16,0,0,0
PB019M27,5,263,AS,exp,35,←,right,→,0.75331840000581,False,16,-1,0,0
PB019M27,5,264,AS,exp,48,↓,down,↓,0.7830761999939568,True,17,-1,0,0
PB019M27,5,265,AS,exp,26,↑,up,↑,0.6148953000083566,True,17,1,1,1
PB019M27,5,266,AS,exp,40,←,left,←,0.5471114000538364,True,16,1,0,1
PB019M27,5,267,AS,exp,37,↓,right,→,0.8324188999831676,False,16,-1,1,2
PB019M27,5,268,AS,exp,41,→,right,→,0.6971147999865934,True,17,-1,0,2
PB019M27,5,269,AS,exp,37,↓,down,↓,0.7111819999990985,True,17,1,1,3
PB019M27,5,270,AS,exp,43,↑,up,↑,0.7415534000028856,True,16,1,0,3
PB019M27,5,271,AS,exp,25,↓,right,→,1.1633146000094712,False,16,-1,1,4
PB019M27,5,272,AS,exp,48,↑,down,↓,0.7731418999610469,False,17,-1,0,4
PB019M27,5,273,AS,exp,46,↓,down,↓,0.7275872000027448,True,18,-1,0,4
PB019M27,5,274,AS,exp,45,↑,up,↑,0.5923166999709792,True,18,1,1,5
PB019M27,5,275,AS,exp,29,↓,down,↓,0.7596007999964058,True,17,1,0,5
PB019M27,5,276,AS,exp,38,↑,up,↑,0.7661300000036135,True,17,1,0,5
PB019M27,5,277,AS,exp,28,↓,down,↓,0.7527043999871239,True,16,1,0,5
PB019M27,5,278,AS,exp,26,←,left,←,0.6017363999853842,True,16,1,0,5
PB019M27,5,279,AS,exp,29,↓,down,↓,0.9795753000071272,True,15,1,0,5
PB019M27,5,280,AS,exp,36,←,left,←,0.6619146000011824,True,15,1,0,5
PB019M27,5,281,AS,exp,47,→,left,←,0.782969799998682,False,14,-1,1,6
PB019M27,5,282,AS,exp,35,↑,up,↑,1.1267572999931872,True,15,-1,0,6
PB019M27,5,283,AS,exp,46,→,right,→,0.8337429000530392,True,15,1,1,7
PB019M27,5,284,AS,exp,28,↓,down,↓,0.7601863999734633,True,14,1,0,7
PB019M27,5,285,AS,exp,39,→,right,→,0.7150370999588631,True,14,1,0,7
PB019M27,5,286,AS,exp,37,↓,down,↓,0.8326840000227094,True,13,1,0,7
PB019M27,5,287,AS,exp,38,←,left,←,0.5785065999953076,True,13,1,0,7
PB019M27,5,288,AS,exp,42,↑,up,↑,0.5552007000078447,True,12,1,0,7
PB019M27,5,289,AS,exp,34,↓,down,↓,0.7177704999921843,True,12,1,0,7
PB019M27,5,290,AS,exp,34,↑,up,↑,0.6140665999846533,True,11,1,0,7
PB019M27,5,291,AS,exp,43,→,left,←,0.6441845000372268,False,11,-1,1,8
PB019M27,5,292,AS,exp,26,↑,up,↑,0.6014496000134386,True,12,-1,0,8
PB019M27,5,293,AS,exp,48,→,right,→,0.9053159999893978,True,12,1,1,9
PB019M27,5,294,AS,exp,49,←,left,←,0.9683020999655128,True,11,1,0,9
PB019M27,5,295,AS,exp,42,↑,down,↓,0.7355571999796666,False,11,-1,1,10
PB019M27,5,296,AS,exp,32,↓,up,↑,0.6815420999773778,False,12,-1,0,10
PB019M27,5,297,AS,exp,46,←,right,→,0.7529905999545008,False,13,-1,0,10
PB019M27,5,298,AS,exp,49,↑,up,↑,0.7547728999634273,True,14,-1,0,10
PB019M27,5,299,AS,exp,27,←,left,←,0.7673982999986038,True,14,1,1,11
PB019M27,5,300,AS,exp,45,↓,down,↓,0.646368799963966,True,13,1,0,11
PB019M27,5,301,AS,exp,36,↑,down,↓,0.6951925999601372,False,13,-1,1,12
PB019M27,5,302,AS,exp,32,←,left,←,0.5572508000186644,True,14,-1,0,12
PB019M27,5,303,AS,exp,47,↓,up,↑,1.638626900035888,False,14,-1,0,12
PB019M27,5,304,AS,exp,43,←,no_key,no_letter,-1.0,False,15,-1,0,12
PB019M27,5,305,AS,exp,46,↓,down,↓,0.654392900003586,True,16,-1,0,12
PB019M27,5,306,AS,exp,50,←,down,↓,0.7826235999818891,False,16,-1,0,12
PB019M27,5,307,AS,exp,44,↓,down,↓,0.6917891000048257,True,17,-1,0,12
PB019M27,5,308,AS,exp,46,→,right,→,0.828109800000675,True,17,1,1,13
PB019M27,5,309,AS,exp,30,↓,down,↓,0.6822855999926105,True,16,1,0,13
PB019M27,5,310,AS,exp,40,←,left,←,0.8130813000025228,True,16,1,0,13
PB019M27,5,311,AS,exp,43,↓,down,↓,0.6720142999547534,True,15,1,0,13
PB019M27,5,312,AS,exp,42,↑,down,↓,0.7493048000033014,False,15,-1,1,14
PB019M27,6,313,PS,intra_train,32,←,left,←,0.6848183000111021,True,16,-,-,-
PB019M27,6,314,PS,intra_train,31,→,right,→,0.6512143000145443,True,16,-,-,-
PB019M27,6,315,PS,intra_train,36,↓,down,↓,0.7986418000073172,True,16,-,-,-
PB019M27,6,316,PS,intra_train,31,↑,up,↑,0.7492794999852777,True,16,-,-,-
PB019M27,6,317,PS,intra_train,37,←,right,→,0.9097973000025377,False,16,-,-,-
PB019M27,6,318,PS,exp,48,↑,up,↑,0.6246354000177234,True,11,0,0,0
PB019M27,6,319,PS,exp,41,→,right,→,0.6167618000181392,True,11,1,0,0
PB019M27,6,320,PS,exp,36,←,right,→,0.7309487000457011,False,10,-1,1,1
PB019M27,6,321,PS,exp,27,→,right,→,0.6392969000153244,True,11,-1,0,1
PB019M27,6,322,PS,exp,26,↓,up,↑,0.7478501999867149,False,11,-1,0,1
PB019M27,6,323,PS,exp,42,↑,up,↑,0.6606134999892674,True,12,-1,0,1
PB019M27,6,324,PS,exp,43,←,left,←,0.5506573000457138,True,12,1,1,2
PB019M27,6,325,PS,exp,27,↓,down,↓,0.9582491999608465,True,11,1,0,2
PB019M27,6,326,PS,exp,28,←,left,←,0.5949882999993861,True,11,1,0,2
PB019M27,6,327,PS,exp,46,→,right,→,0.5796295999898575,True,10,1,0,2
PB019M27,6,328,PS,exp,25,←,right,→,0.7298422000021674,False,10,-1,1,3
PB019M27,6,329,PS,exp,39,→,right,→,0.5793135999701917,True,11,-1,0,3
PB019M27,6,330,PS,exp,30,↓,down,↓,1.0154019999899901,True,11,1,1,4
PB019M27,6,331,PS,exp,45,→,right,→,0.4793721999740228,True,10,1,0,4
PB019M27,6,332,PS,exp,33,↓,down,↓,0.7150757999625057,True,10,1,0,4
PB019M27,6,333,PS,exp,45,←,left,←,0.5457954999874346,True,9,1,0,4
PB019M27,6,334,PS,exp,45,→,right,→,0.5728514000074938,True,9,1,0,4
PB019M27,6,335,PS,exp,35,↓,down,↓,0.6759855000418611,True,8,1,0,4
PB019M27,6,336,PS,exp,33,←,left,←,0.5532956999959424,True,8,1,0,4
PB019M27,6,337,PS,exp,43,→,right,→,0.5667150000226684,True,7,1,0,4
PB019M27,6,338,PS,exp,29,↑,right,→,0.8694009000319056,False,7,-1,1,5
PB019M27,6,339,PS,exp,37,↓,down,↓,0.8016375000006519,True,8,-1,0,5
PB019M27,6,340,PS,exp,39,→,right,→,0.9483920999919064,True,8,1,1,6
PB019M27,6,341,PS,exp,40,↑,left,←,0.9137773999827914,False,7,-1,1,7
PB019M27,6,342,PS,exp,44,←,left,←,0.6066024000174366,True,8,-1,0,7
PB019M27,6,343,PS,exp,43,↓,down,↓,0.5846292999922298,True,8,1,1,8
PB019M27,6,344,PS,exp,29,↑,up,↑,0.5838940999819897,True,7,1,0,8
PB019M27,6,345,PS,exp,40,→,right,→,0.9324647000175901,True,7,1,0,8
PB019M27,6,346,PS,exp,39,↑,left,←,0.9169011000194587,False,6,-1,1,9
PB019M27,6,347,PS,exp,48,←,up,↑,0.561657499987632,False,7,-1,0,9
PB019M27,6,348,PS,exp,39,→,right,→,0.5947764000156894,True,8,-1,0,9
PB019M27,6,349,PS,exp,27,←,left,←,0.5994474999606609,True,8,1,1,10
PB019M27,6,350,PS,exp,26,↑,left,←,0.7338190000155009,False,7,-1,1,11
PB019M27,6,351,PS,exp,39,→,right,→,0.6279004999669269,True,8,-1,0,11
PB019M27,6,352,PS,exp,42,←,right,→,0.8571166000328958,False,8,-1,0,11
PB019M27,6,353,PS,exp,49,↑,up,↑,0.6202044999809004,True,9,-1,0,11
PB019M27,6,354,PS,exp,47,→,right,→,0.6390973000088707,True,9,1,1,12
PB019M27,6,355,PS,exp,44,↑,right,→,0.7505454999627545,False,8,-1,1,13
PB019M27,6,356,PS,exp,46,↓,down,↓,0.6872707000002265,True,9,-1,0,13
PB019M27,6,357,PS,exp,27,←,right,→,1.7405950000393204,False,9,-1,0,13
PB019M27,6,358,PS,exp,43,→,right,→,0.76948270003777,True,10,-1,0,13
PB019M27,6,359,PS,exp,30,↓,right,→,0.8880223000305705,False,10,-1,0,13
PB019M27,6,360,PS,exp,49,→,right,→,0.8779144000145607,True,11,-1,0,13
PB019M27,6,361,PS,exp,43,←,left,←,1.183228700014297,True,11,1,1,14
PB019M27,7,362,PS,intra_train,34,↓,down,↓,0.7418542000232264,True,16,-,-,-
PB019M27,7,363,PS,intra_train,46,→,right,→,0.5361163999768905,True,16,-,-,-
PB019M27,7,364,PS,intra_train,41,↓,down,↓,0.662437700026203,True,16,-,-,-
PB019M27,7,365,PS,intra_train,28,↑,up,↑,0.7180094999494031,True,16,-,-,-
PB019M27,7,366,PS,intra_train,26,←,left,←,0.4694993000011891,True,16,-,-,-
PB019M27,7,367,PS,exp,26,↑,up,↑,1.2093426999635994,True,11,0,0,0
PB019M27,7,368,PS,exp,35,←,left,←,0.7424471999984235,True,11,1,0,0
PB019M27,7,369,PS,exp,43,→,right,→,0.6420215999823995,True,10,1,0,0
PB019M27,7,370,PS,exp,27,↑,up,↑,0.740722700022161,True,10,1,0,0
PB019M27,7,371,PS,exp,25,←,left,←,1.362995299976319,True,9,1,0,0
PB019M27,7,372,PS,exp,38,→,right,→,0.5736455000005662,True,9,1,0,0
PB019M27,7,373,PS,exp,27,↓,right,→,0.7545741000212729,False,8,-1,1,1
PB019M27,7,374,PS,exp,29,←,right,→,0.8335420000366867,False,9,-1,0,1
PB019M27,7,375,PS,exp,32,↓,down,↓,0.744294699979946,True,10,-1,0,1
PB019M27,7,376,PS,exp,27,↑,down,↓,0.942529599997215,False,10,-1,0,1
PB019M27,7,377,PS,exp,26,←,left,←,0.6241766000166535,True,11,-1,0,1
PB019M27,7,378,PS,exp,49,↑,up,↑,0.6559276999905705,True,11,1,1,2
PB019M27,7,379,PS,exp,41,→,left,←,0.7753509000176564,False,10,-1,1,3
PB019M27,7,380,PS,exp,46,←,left,←,0.7459768000408076,True,11,-1,0,3
PB019M27,7,381,PS,exp,32,→,left,←,0.9810897999559529,False,11,-1,0,3
PB019M27,7,382,PS,exp,29,↓,down,↓,0.8844986000331119,True,12,-1,0,3
PB019M27,7,383,PS,exp,35,↑,up,↑,0.7448597000329755,True,12,1,1,4
PB019M27,7,384,PS,exp,27,→,right,→,0.6747900999616832,True,11,1,0,4
PB019M27,7,385,PS,exp,41,↓,down,↓,0.6421090000076219,True,11,1,0,4
PB019M27,7,386,PS,exp,29,↑,up,↑,0.6183439999585971,True,10,1,0,4
PB019M27,7,387,PS,exp,36,←,left,←,0.5470422999933362,True,10,1,0,4
PB019M27,7,388,PS,exp,42,↓,down,↓,0.7063188999891281,True,9,1,0,4
PB019M27,7,389,PS,exp,45,→,right,→,0.5310320000280626,True,9,1,0,4
PB019M27,7,390,PS,exp,45,↑,up,↑,0.6885559000074863,True,8,1,0,4
PB019M27,7,391,PS,exp,39,↓,down,↓,0.7207281999872066,True,8,1,0,4
PB019M27,7,392,PS,exp,28,↑,down,↓,1.5875537000247277,False,7,-1,1,5
PB019M27,7,393,PS,exp,35,←,left,←,0.600764499977231,True,8,-1,0,5
PB019M27,7,394,PS,exp,39,↓,down,↓,0.7471575000090525,True,8,1,1,6
PB019M27,7,395,PS,exp,49,→,right,→,0.6515581000130624,True,7,1,0,6
PB019M27,7,396,PS,exp,42,↓,right,→,1.0640542000182904,False,7,-1,1,7
PB019M27,7,397,PS,exp,48,↑,up,↑,0.6137787000043318,True,8,-1,0,7
PB019M27,7,398,PS,exp,28,←,left,←,0.6652624999987893,True,8,1,1,8
PB019M27,7,399,PS,exp,40,↑,down,↓,0.8975603000144474,False,7,-1,1,9
PB019M27,7,400,PS,exp,30,→,left,←,1.1165056000463665,False,8,-1,0,9
PB019M27,7,401,PS,exp,49,↓,down,↓,0.7272510000038892,True,9,-1,0,9
PB019M27,7,402,PS,exp,44,←,left,←,0.5696543999947608,True,9,1,1,10
PB019M27,7,403,PS,exp,36,↓,down,↓,0.7367437000502832,True,8,1,0,10
PB019M27,7,404,PS,exp,34,→,right,→,0.5446971000055782,True,8,1,0,10
PB019M27,7,405,PS,exp,36,↓,down,↓,0.6836229999898933,True,7,1,0,10
PB019M27,7,406,PS,exp,25,→,right,→,0.7337577000143938,True,7,1,0,10
PB019M27,7,407,PS,exp,47,↑,left,←,0.7086226000101306,False,6,-1,1,11
PB019M27,7,408,PS,exp,39,→,right,→,0.6958870000089519,True,7,-1,0,11
PB019M27,7,409,PS,exp,44,←,left,←,0.7129629999981262,True,7,1,1,12
PB019M27,7,410,PS,exp,39,→,right,→,0.6103150999988429,True,6,1,0,12
PB019M27,7,411,PS,exp,32,↓,right,→,0.7992136999964714,False,6,-1,1,13
PB019M27,7,412,PS,exp,44,↑,no_key,no_letter,-1.0,False,7,-1,0,13
PB019M27,7,413,PS,exp,30,↓,no_key,no_letter,-1.0,False,8,-1,0,13
PB019M27,7,414,PS,exp,44,↑,up,↑,0.8357810999732465,True,9,-1,0,13
PB019M27,7,415,PS,exp,50,→,right,→,0.7069458999903873,True,9,1,1,14
PB019M27,8,416,AS,intra_train,35,←,left,←,0.6652749000350013,True,24,-,-,-
PB019M27,8,417,AS,intra_train,39,↓,down,↓,0.7792404000065289,True,24,-,-,-
PB019M27,8,418,AS,intra_train,27,→,right,→,0.5340026000048965,True,24,-,-,-
PB019M27,8,419,AS,intra_train,50,←,left,←,0.5689733000472188,True,24,-,-,-
PB019M27,8,420,AS,intra_train,33,→,right,→,1.652394299977459,True,24,-,-,-
PB019M27,8,421,AS,exp,28,↓,down,↓,0.6993696999852546,True,16,0,0,0
PB019M27,8,422,AS,exp,29,→,right,→,0.7004106999957003,True,16,1,0,0
PB019M27,8,423,AS,exp,34,↑,up,↑,0.5848365999991074,True,15,1,0,0
PB019M27,8,424,AS,exp,30,→,right,→,0.6077859000070021,True,15,1,0,0
PB019M27,8,425,AS,exp,43,↓,down,↓,0.9320196000044234,True,14,1,0,0
PB019M27,8,426,AS,exp,42,→,right,→,0.6099862999981269,True,14,1,0,0
PB019M27,8,427,AS,exp,47,←,left,←,0.612799399998039,True,13,1,0,0
PB019M27,8,428,AS,exp,38,↑,up,↑,0.5628566000377759,True,13,1,0,0
PB019M27,8,429,AS,exp,39,→,left,←,0.6403912999667227,False,12,-1,1,1
PB019M27,8,430,AS,exp,33,←,left,←,0.6025700999889523,True,13,-1,0,1
PB019M27,8,431,AS,exp,38,↓,down,↓,0.7744280999759212,True,13,1,1,2
PB019M27,8,432,AS,exp,49,↑,up,↑,0.5892864999477752,True,12,1,0,2
PB019M27,8,433,AS,exp,37,↓,down,↓,0.6616266999626532,True,12,1,0,2
PB019M27,8,434,AS,exp,36,←,left,←,0.5729789000470191,True,11,1,0,2
PB019M27,8,435,AS,exp,27,→,right,→,0.5875587000045925,True,11,1,0,2
PB019M27,8,436,AS,exp,36,←,right,→,0.4476542000193149,False,10,-1,1,3
PB019M27,8,437,AS,exp,47,→,left,←,0.7954947999678552,False,11,-1,0,3
PB019M27,8,438,AS,exp,26,↑,up,↑,0.6301892999908887,True,12,-1,0,3
PB019M27,8,439,AS,exp,45,→,right,→,0.8269262000103481,True,12,1,1,4
PB019M27,8,440,AS,exp,45,←,left,←,1.3522420999943279,True,11,1,0,4
PB019M27,8,441,AS,exp,50,↑,up,↑,0.7302022000076249,True,11,1,0,4
PB019M27,8,442,AS,exp,30,↓,down,↓,1.1998560999636538,True,10,1,0,4
PB019M27,8,443,AS,exp,35,→,right,→,0.6975354999885894,True,10,1,0,4
PB019M27,8,444,AS,exp,35,↓,down,↓,1.5264123000088148,True,9,1,0,4
PB019M27,8,445,AS,exp,38,←,left,←,0.6851643000263721,True,9,1,0,4
PB019M27,8,446,AS,exp,34,→,right,→,0.6604032999603078,True,8,1,0,4
PB019M27,8,447,AS,exp,38,↑,up,↑,1.044539899972733,True,8,1,0,4
PB019M27,8,448,AS,exp,27,↓,up,↑,1.0198936000233516,False,7,-1,1,5
PB019M27,8,449,AS,exp,34,↑,up,↑,0.8045420999987982,True,8,-1,0,5
PB019M27,8,450,AS,exp,32,↓,down,↓,0.8075506000313908,True,8,1,1,6
PB019M27,8,451,AS,exp,32,↑,up,↑,0.8828677000128664,True,7,1,0,6
PB019M27,8,452,AS,exp,35,↓,down,↓,0.7482276000082493,True,7,1,0,6
PB019M27,8,453,AS,exp,36,↑,down,↓,1.0736537000047974,False,6,-1,1,7
PB019M27,8,454,AS,exp,41,←,right,→,0.7180012000026181,False,7,-1,0,7
PB019M27,8,455,AS,exp,29,↑,up,↑,0.8321582999778911,True,8,-1,0,7
PB019M27,8,456,AS,exp,32,←,right,→,0.9384565000073053,False,8,-1,0,7
PB019M27,8,457,AS,exp,27,↑,up,↑,0.5984907999518327,True,9,-1,0,7
PB019M27,8,458,AS,exp,27,↓,down,↓,0.7305492000305094,True,9,1,1,8
PB019M27,8,459,AS,exp,38,↑,up,↑,0.6013911999762058,True,8,1,0,8
PB019M27,8,460,AS,exp,49,↓,left,←,1.0069633000530303,False,8,-1,1,9
PB019M27,8,461,AS,exp,31,→,right,→,1.7800998000311665,True,9,-1,0,9
PB019M27,8,462,AS,exp,25,↑,up,↑,0.7778884000144899,True,9,1,1,10
PB019M27,8,463,AS,exp,30,→,right,→,0.7566862999810837,True,8,1,0,10
PB019M27,8,464,AS,exp,30,←,right,→,0.7487296999897808,False,8,-1,1,11
PB019M27,8,465,AS,exp,32,↑,up,↑,0.6134366000187583,True,9,-1,0,11
PB019M27,8,466,AS,exp,46,→,right,→,1.136554500029888,True,9,1,1,12
PB019M27,8,467,AS,exp,36,↑,up,↑,0.6675291999708861,True,8,1,0,12
PB019M27,8,468,AS,exp,32,←,left,←,0.7005426000105217,True,8,1,0,12
PB019M27,8,469,AS,exp,30,↑,up,↑,0.92208920000121,True,7,1,0,12
PB019M27,8,470,AS,exp,25,↓,no_key,no_letter,-1.0,False,7,-1,1,13
PB019M27,8,471,AS,exp,26,→,right,→,0.6767556000268087,True,8,-1,0,13
PB019M27,8,472,AS,exp,27,↓,up,↑,1.054514300019946,False,8,-1,0,13
PB019M27,8,473,AS,exp,50,↑,up,↑,0.7491598000051454,True,9,-1,0,13
PB019M27,8,474,AS,exp,48,←,left,←,0.7741383999818936,True,9,1,1,14
