PART_ID,Block_no,Trial_no,Block_type,Trial_type,CSI,Stim_letter,Key_pressed,letter_choose,Rt,Corr,Stimulus Time,Level,Reversal,Revs_count
PB028K19,1,1,PS,train,49,↑,no_key,no_letter,-1.0,False,30,-,-,-
PB028K19,1,2,PS,train,29,→,right,→,0.9879144999431446,True,30,-,-,-
PB028K19,1,3,PS,train,41,↑,up,↑,1.0093622999847867,True,30,-,-,-
PB028K19,1,4,PS,train,35,←,left,←,0.8916431999532506,True,30,-,-,-
PB028K19,1,5,PS,train,29,→,right,→,0.7591405999846756,True,30,-,-,-
PB028K19,1,6,PS,train,49,↑,up,↑,1.0094057000242174,True,30,-,-,-
PB028K19,1,7,PS,train,49,←,left,←,0.8874855000176467,True,30,-,-,-
PB028K19,1,8,PS,train,48,→,right,→,0.9379395000287332,True,30,-,-,-
PB028K19,1,9,PS,train,48,↓,down,↓,0.8543298000004143,True,30,-,-,-
PB028K19,1,10,PS,train,40,→,right,→,0.8742972000036389,True,30,-,-,-
PB028K19,2,11,AS,train,36,↑,up,↑,0.750348000030499,True,45,-,-,-
PB028K19,2,12,AS,train,34,↓,down,↓,1.2475062999874353,True,45,-,-,-
PB028K19,2,13,AS,train,40,↑,up,↑,0.7671369999879971,True,45,-,-,-
PB028K19,2,14,AS,train,33,→,right,→,0.7339098999509588,True,45,-,-,-
PB028K19,2,15,AS,train,30,←,no_key,no_letter,-1.0,False,45,-,-,-
PB028K19,2,16,AS,train,44,↓,down,↓,0.9441486999858171,True,45,-,-,-
PB028K19,2,17,AS,train,26,↑,up,↑,0.9851779000018723,True,45,-,-,-
PB028K19,2,18,AS,train,42,↓,down,↓,0.7504973000031896,True,45,-,-,-
PB028K19,2,19,AS,train,48,←,left,←,1.3798275000299327,True,45,-,-,-
PB028K19,2,20,AS,train,30,→,right,→,0.8671133000170812,True,45,-,-,-
PB028K19,-,21,PS,adaptive,37,↓,down,↓,0.6939858999685384,True,10,0,0,0
PB028K19,-,22,PS,adaptive,46,↑,up,↑,0.6249348999699578,True,10,1,0,0
PB028K19,-,23,PS,adaptive,38,←,no_key,no_letter,-1.0,False,9,-1,1,1
PB028K19,-,24,PS,adaptive,47,↓,down,↓,0.5726133999996819,True,10,-1,0,1
PB028K19,-,25,PS,adaptive,46,↑,up,↑,0.7625905000022613,True,10,1,1,2
PB028K19,-,26,PS,adaptive,34,↓,left,←,0.8475710000493564,False,9,-1,1,3
PB028K19,-,27,PS,adaptive,36,→,right,→,0.5659302000422031,True,10,-1,0,3
PB028K19,-,28,PS,adaptive,35,↑,up,↑,1.0379128000349738,True,10,1,1,4
PB028K19,-,29,AS,adaptive,50,↓,down,↓,0.8874518999946304,True,20,0,0,0
PB028K19,-,30,AS,adaptive,34,←,left,←,0.7224461000296287,True,20,1,0,0
PB028K19,-,31,AS,adaptive,47,↓,down,↓,0.6354777999804355,True,19,1,0,0
PB028K19,-,32,AS,adaptive,37,↑,up,↑,0.6256438000127673,True,19,1,0,0
PB028K19,-,33,AS,adaptive,45,↓,down,↓,0.673559800023213,True,18,1,0,0
PB028K19,-,34,AS,adaptive,34,↑,up,↑,0.6260970999719575,True,18,1,0,0
PB028K19,-,35,AS,adaptive,26,→,right,→,0.7707749000401236,True,17,1,0,0
PB028K19,-,36,AS,adaptive,28,↓,down,↓,0.6948710000142455,True,17,1,0,0
PB028K19,-,37,AS,adaptive,29,→,right,→,0.48753050004597753,True,16,1,0,0
PB028K19,-,38,AS,adaptive,46,↑,down,↓,0.6994555999990553,False,16,-1,1,1
PB028K19,-,39,AS,adaptive,45,→,right,→,0.7687072000117041,True,17,-1,0,1
PB028K19,-,40,AS,adaptive,41,↑,down,↓,0.6192819999996573,False,17,-1,0,1
PB028K19,-,41,AS,adaptive,31,→,right,→,0.6692753999959677,True,18,-1,0,1
PB028K19,-,42,AS,adaptive,47,↑,up,↑,0.6524082000250928,True,18,1,1,2
PB028K19,-,43,AS,adaptive,40,↓,down,↓,0.9076585000148043,True,17,1,0,2
PB028K19,-,44,AS,adaptive,49,←,left,←,0.5638043000362813,True,17,1,0,2
PB028K19,-,45,AS,adaptive,34,↓,up,↑,0.8104150000144728,False,16,-1,1,3
PB028K19,-,46,AS,adaptive,28,←,right,→,0.6655849000089802,False,17,-1,0,3
PB028K19,-,47,AS,adaptive,26,→,right,→,0.7557334000011906,True,18,-1,0,3
PB028K19,-,48,AS,adaptive,30,↑,up,↑,0.6027693000505678,True,18,1,1,4
PB028K19,1,49,AS,intra_train,32,→,right,→,1.2984714999911375,True,25,-,-,-
PB028K19,1,50,AS,intra_train,50,←,right,→,0.6104821999906562,False,25,-,-,-
PB028K19,1,51,AS,intra_train,27,→,right,→,0.8483479000278749,True,25,-,-,-
PB028K19,1,52,AS,intra_train,46,↓,down,↓,0.7714700000360608,True,25,-,-,-
PB028K19,1,53,AS,intra_train,38,↑,up,↑,0.8502832000376657,True,25,-,-,-
PB028K19,1,54,AS,exp,50,↓,down,↓,0.838555499969516,True,17,0,0,0
PB028K19,1,55,AS,exp,29,↑,up,↑,0.8458408999722451,True,17,1,0,0
PB028K19,1,56,AS,exp,46,→,right,→,0.7799383999663405,True,16,1,0,0
PB028K19,1,57,AS,exp,37,↑,up,↑,0.8717463999637403,True,16,1,0,0
PB028K19,1,58,AS,exp,44,→,right,→,0.5696381000452675,True,15,1,0,0
PB028K19,1,59,AS,exp,31,↑,up,↑,0.7981525000068359,True,15,1,0,0
PB028K19,1,60,AS,exp,33,←,right,→,0.5761583999847062,False,14,-1,1,1
PB028K19,1,61,AS,exp,35,↓,up,↑,1.5078559000394307,False,15,-1,0,1
PB028K19,1,62,AS,exp,41,↑,up,↑,0.7926093999994919,True,16,-1,0,1
PB028K19,1,63,AS,exp,38,←,left,←,0.7533622999908403,True,16,1,1,2
PB028K19,1,64,AS,exp,25,↑,up,↑,0.6713772999937646,True,15,1,0,2
PB028K19,1,65,AS,exp,29,↓,down,↓,0.5726364000001922,True,15,1,0,2
PB028K19,1,66,AS,exp,33,←,left,←,0.7159899999969639,True,14,1,0,2
PB028K19,1,67,AS,exp,34,↓,down,↓,0.5770006999955513,True,14,1,0,2
PB028K19,1,68,AS,exp,25,←,left,←,0.7767700999975204,True,13,1,0,2
PB028K19,1,69,AS,exp,39,↑,up,↑,0.5168263000086881,True,13,1,0,2
PB028K19,1,70,AS,exp,32,←,left,←,0.5117781999870203,True,12,1,0,2
PB028K19,1,71,AS,exp,32,↓,down,↓,0.5398983000195585,True,12,1,0,2
PB028K19,1,72,AS,exp,26,↑,down,↓,0.9762709999922663,False,11,-1,1,3
PB028K19,1,73,AS,exp,41,→,right,→,0.5049333000206389,True,12,-1,0,3
PB028K19,1,74,AS,exp,40,←,left,←,0.5357524999999441,True,12,1,1,4
PB028K19,1,75,AS,exp,50,→,right,→,0.6422051999834366,True,11,1,0,4
PB028K19,1,76,AS,exp,45,←,down,↓,1.457228799990844,False,11,-1,1,5
PB028K19,1,77,AS,exp,38,↓,up,↑,1.8352609000285156,False,12,-1,0,5
PB028K19,1,78,AS,exp,47,→,left,←,1.3021650000009686,False,13,-1,0,5
PB028K19,1,79,AS,exp,43,↑,up,↑,0.4763682999764569,True,14,-1,0,5
PB028K19,1,80,AS,exp,32,←,down,↓,1.1028349999687634,False,14,-1,0,5
PB028K19,1,81,AS,exp,28,→,right,→,0.5320787000237033,True,15,-1,0,5
PB028K19,1,82,AS,exp,50,↓,down,↓,0.5618377999635413,True,15,1,1,6
PB028K19,1,83,AS,exp,40,←,left,←,0.7946251000394113,True,14,1,0,6
PB028K19,1,84,AS,exp,32,↑,right,→,0.8909444999881089,False,14,-1,1,7
PB028K19,1,85,AS,exp,46,↓,down,↓,0.9995447999681346,True,15,-1,0,7
PB028K19,1,86,AS,exp,37,↑,up,↑,1.7490020000259392,True,15,1,1,8
PB028K19,1,87,AS,exp,32,→,right,→,0.6052579999668524,True,14,1,0,8
PB028K19,1,88,AS,exp,39,↓,down,↓,0.5218466999940574,True,14,1,0,8
PB028K19,1,89,AS,exp,35,→,right,→,0.5353980000363663,True,13,1,0,8
PB028K19,1,90,AS,exp,39,↓,up,↑,1.1622145000146702,False,13,-1,1,9
PB028K19,1,91,AS,exp,42,→,right,→,0.5688002000097185,True,14,-1,0,9
PB028K19,1,92,AS,exp,39,↓,down,↓,0.7186418999917805,True,14,1,1,10
PB028K19,1,93,AS,exp,31,↑,up,↑,0.48129049997078255,True,13,1,0,10
PB028K19,1,94,AS,exp,38,←,right,→,0.5777824000106193,False,13,-1,1,11
PB028K19,1,95,AS,exp,43,↑,right,→,1.2976734999683686,False,14,-1,0,11
PB028K19,1,96,AS,exp,43,↓,down,↓,0.5316454999847338,True,15,-1,0,11
PB028K19,1,97,AS,exp,38,←,left,←,0.6103965000365861,True,15,1,1,12
PB028K19,1,98,AS,exp,31,↓,up,↑,1.0030700999777764,False,14,-1,1,13
PB028K19,1,99,AS,exp,27,↑,right,→,1.2326331999502145,False,15,-1,0,13
PB028K19,1,100,AS,exp,48,↓,up,↑,0.9140824999776669,False,16,-1,0,13
PB028K19,1,101,AS,exp,27,←,left,←,0.7750434000045061,True,17,-1,0,13
PB028K19,1,102,AS,exp,31,↓,down,↓,0.594643399992492,True,17,1,1,14
PB028K19,2,103,PS,intra_train,43,→,right,→,0.8246963000274263,True,13,-,-,-
PB028K19,2,104,PS,intra_train,47,↓,down,↓,0.5442052999860607,True,13,-,-,-
PB028K19,2,105,PS,intra_train,28,→,right,→,0.5704229999682866,True,13,-,-,-
PB028K19,2,106,PS,intra_train,41,←,left,←,0.5731735999579541,True,13,-,-,-
PB028K19,2,107,PS,intra_train,37,↓,down,↓,0.4952414000290446,True,13,-,-,-
PB028K19,2,108,PS,exp,44,←,left,←,0.544736199954059,True,9,0,0,0
PB028K19,2,109,PS,exp,31,↓,down,↓,1.1801606999943033,True,9,1,0,0
PB028K19,2,110,PS,exp,25,↑,right,→,0.6545028000255115,False,8,-1,1,1
PB028K19,2,111,PS,exp,28,↓,down,↓,0.514140099985525,True,9,-1,0,1
PB028K19,2,112,PS,exp,39,←,right,→,0.8026610999950208,False,9,-1,0,1
PB028K19,2,113,PS,exp,45,↓,down,↓,0.416039300034754,True,10,-1,0,1
PB028K19,2,114,PS,exp,26,←,left,←,0.5265089999884367,True,10,1,1,2
PB028K19,2,115,PS,exp,28,↑,right,→,1.453158300020732,False,9,-1,1,3
PB028K19,2,116,PS,exp,47,→,right,→,0.5178432000102475,True,10,-1,0,3
PB028K19,2,117,PS,exp,30,←,up,↑,1.4450354999862611,False,10,-1,0,3
PB028K19,2,118,PS,exp,48,↑,left,←,0.9399928000057116,False,11,-1,0,3
PB028K19,2,119,PS,exp,42,↓,down,↓,0.46258229995146394,True,12,-1,0,3
PB028K19,2,120,PS,exp,44,↑,right,→,1.2004240999813192,False,12,-1,0,3
PB028K19,2,121,PS,exp,48,↓,up,↑,0.7827291000285186,False,13,-1,0,3
PB028K19,2,122,PS,exp,29,→,right,→,0.4879300000029616,True,14,-1,0,3
PB028K19,2,123,PS,exp,38,←,left,←,0.873337100027129,True,14,1,1,4
PB028K19,2,124,PS,exp,32,↓,down,↓,0.3864191999891773,True,13,1,0,4
PB028K19,2,125,PS,exp,29,↑,up,↑,0.47005459998035803,True,13,1,0,4
PB028K19,2,126,PS,exp,44,←,down,↓,1.1248721999581903,False,12,-1,1,5
PB028K19,2,127,PS,exp,35,↓,down,↓,0.4191183000220917,True,13,-1,0,5
PB028K19,2,128,PS,exp,42,←,left,←,0.4897880000062287,True,13,1,1,6
PB028K19,2,129,PS,exp,42,↑,right,→,1.6428948999964632,False,12,-1,1,7
PB028K19,2,130,PS,exp,34,→,right,→,0.5276896000141278,True,13,-1,0,7
PB028K19,2,131,PS,exp,47,←,left,←,1.31433730002027,True,13,1,1,8
PB028K19,2,132,PS,exp,40,↓,down,↓,0.947534800041467,True,12,1,0,8
PB028K19,2,133,PS,exp,36,→,left,←,0.4042656000237912,False,12,-1,1,9
PB028K19,2,134,PS,exp,50,↓,down,↓,0.534144000033848,True,13,-1,0,9
PB028K19,2,135,PS,exp,43,→,right,→,0.42888960003620014,True,13,1,1,10
PB028K19,2,136,PS,exp,30,↓,down,↓,0.5559014999889769,True,12,1,0,10
PB028K19,2,137,PS,exp,45,→,right,→,0.4336487999535166,True,12,1,0,10
PB028K19,2,138,PS,exp,43,↓,up,↑,1.3565334000159055,False,11,-1,1,11
PB028K19,2,139,PS,exp,39,←,left,←,0.5104258000501432,True,12,-1,0,11
PB028K19,2,140,PS,exp,25,↑,up,↑,0.5942988999886438,True,12,1,1,12
PB028K19,2,141,PS,exp,26,←,right,→,1.0904223999823444,False,11,-1,1,13
PB028K19,2,142,PS,exp,43,↑,right,→,0.6184517999645323,False,12,-1,0,13
PB028K19,2,143,PS,exp,48,→,left,←,1.0176656999974512,False,13,-1,0,13
PB028K19,2,144,PS,exp,31,↓,up,↑,0.6496518999920227,False,14,-1,0,13
PB028K19,2,145,PS,exp,29,→,right,→,0.5792428000131622,True,15,-1,0,13
PB028K19,2,146,PS,exp,45,↑,up,↑,0.48795009998138994,True,15,1,1,14
PB028K19,3,147,PS,intra_train,30,↓,down,↓,0.8587772999890149,True,13,-,-,-
PB028K19,3,148,PS,intra_train,35,↑,up,↑,0.558154700032901,True,13,-,-,-
PB028K19,3,149,PS,intra_train,45,↓,down,↓,0.5325885000056587,True,13,-,-,-
PB028K19,3,150,PS,intra_train,38,↑,up,↑,0.5695278000202961,True,13,-,-,-
PB028K19,3,151,PS,intra_train,25,←,left,←,1.0597398999962024,True,13,-,-,-
PB028K19,3,152,PS,exp,50,↓,down,↓,0.5767472000443377,True,9,0,0,0
PB028K19,3,153,PS,exp,33,←,left,←,0.5246549000148661,True,9,1,0,0
PB028K19,3,154,PS,exp,33,→,right,→,0.47628780000377446,True,8,1,0,0
PB028K19,3,155,PS,exp,28,↑,up,↑,0.48629390000132844,True,8,1,0,0
PB028K19,3,156,PS,exp,36,→,right,→,0.4642873999546282,True,7,1,0,0
PB028K19,3,157,PS,exp,43,←,right,→,0.2851410000002943,False,7,-1,1,1
PB028K19,3,158,PS,exp,48,↓,down,↓,0.8439826999674551,True,8,-1,0,1
PB028K19,3,159,PS,exp,26,↑,left,←,1.3980248000007123,False,8,-1,0,1
PB028K19,3,160,PS,exp,36,←,left,←,0.4656302999937907,True,9,-1,0,1
PB028K19,3,161,PS,exp,34,→,right,→,1.2353834999958053,True,9,1,1,2
PB028K19,3,162,PS,exp,37,↑,up,↑,0.5266193000134081,True,8,1,0,2
PB028K19,3,163,PS,exp,36,↓,left,←,1.3153257999802008,False,8,-1,1,3
PB028K19,3,164,PS,exp,38,←,left,←,0.5138137000030838,True,9,-1,0,3
PB028K19,3,165,PS,exp,45,→,right,→,0.5228655000100844,True,9,1,1,4
PB028K19,3,166,PS,exp,26,←,left,←,0.4479826000169851,True,8,1,0,4
PB028K19,3,167,PS,exp,41,↑,up,↑,0.5106342000071891,True,8,1,0,4
PB028K19,3,168,PS,exp,45,↓,down,↓,0.5211718000355177,True,7,1,0,4
PB028K19,3,169,PS,exp,25,→,right,→,1.0339735000161454,True,7,1,0,4
PB028K19,3,170,PS,exp,28,↑,up,↑,0.5002514999941923,True,6,1,0,4
PB028K19,3,171,PS,exp,48,↓,down,↓,0.5781621999922208,True,6,1,0,4
PB028K19,3,172,PS,exp,32,←,left,←,0.5997882000519894,True,5,1,0,4
PB028K19,3,173,PS,exp,49,↑,right,→,1.1708596000098623,False,5,-1,1,5
PB028K19,3,174,PS,exp,47,↓,down,↓,0.5121657000272535,True,6,-1,0,5
PB028K19,3,175,PS,exp,31,↑,up,↑,1.0673243000055663,True,6,1,1,6
PB028K19,3,176,PS,exp,27,←,down,↓,0.7081938000046648,False,5,-1,1,7
PB028K19,3,177,PS,exp,41,↑,right,→,0.6273105000145733,False,6,-1,0,7
PB028K19,3,178,PS,exp,49,←,left,←,0.40963060001377016,True,7,-1,0,7
PB028K19,3,179,PS,exp,28,↓,down,↓,0.5076365999993868,True,7,1,1,8
PB028K19,3,180,PS,exp,37,↑,right,→,0.7343476000241935,False,6,-1,1,9
PB028K19,3,181,PS,exp,25,↓,down,↓,0.5079403999843635,True,7,-1,0,9
PB028K19,3,182,PS,exp,31,←,right,→,1.3530977999907918,False,7,-1,0,9
PB028K19,3,183,PS,exp,47,→,right,→,0.568836500053294,True,8,-1,0,9
PB028K19,3,184,PS,exp,38,↓,down,↓,0.5162219000048935,True,8,1,1,10
PB028K19,3,185,PS,exp,40,→,right,→,0.5041203000000678,True,7,1,0,10
PB028K19,3,186,PS,exp,27,↓,left,←,1.146950000023935,False,7,-1,1,11
PB028K19,3,187,PS,exp,42,→,right,→,0.718774399952963,True,8,-1,0,11
PB028K19,3,188,PS,exp,35,↓,right,→,0.6494091000058688,False,8,-1,0,11
PB028K19,3,189,PS,exp,40,↑,up,↑,0.5679257999872789,True,9,-1,0,11
PB028K19,3,190,PS,exp,42,↓,left,←,0.6453252999926917,False,9,-1,0,11
PB028K19,3,191,PS,exp,31,↑,up,↑,0.4969530000234954,True,10,-1,0,11
PB028K19,3,192,PS,exp,30,←,down,↓,1.6404316000407562,False,10,-1,0,11
PB028K19,3,193,PS,exp,46,↓,down,↓,0.4739553999970667,True,11,-1,0,11
PB028K19,3,194,PS,exp,36,→,right,→,0.7230668000411242,True,11,1,1,12
PB028K19,3,195,PS,exp,47,←,right,→,0.7516414999845438,False,10,-1,1,13
PB028K19,3,196,PS,exp,26,→,left,←,0.5964583000168204,False,11,-1,0,13
PB028K19,3,197,PS,exp,43,↓,up,↑,0.623411100008525,False,12,-1,0,13
PB028K19,3,198,PS,exp,46,←,left,←,0.6280532999662682,True,13,-1,0,13
PB028K19,3,199,PS,exp,47,↓,down,↓,0.49548300000606105,True,13,1,1,14
PB028K19,4,200,AS,intra_train,40,←,left,←,0.8055582999950275,True,25,-,-,-
PB028K19,4,201,AS,intra_train,50,↑,up,↑,0.9572577999788336,True,25,-,-,-
PB028K19,4,202,AS,intra_train,39,↓,down,↓,1.9631033000187017,True,25,-,-,-
PB028K19,4,203,AS,intra_train,50,↑,up,↑,0.9944279999472201,True,25,-,-,-
PB028K19,4,204,AS,intra_train,29,↓,down,↓,0.7255500999744982,True,25,-,-,-
PB028K19,4,205,AS,exp,27,←,up,↑,0.9967347999918275,False,17,-1,0,0
PB028K19,4,206,AS,exp,44,↓,down,↓,0.6713607999845408,True,18,-1,0,0
PB028K19,4,207,AS,exp,35,↑,right,→,1.2309226000215858,False,18,-1,0,0
PB028K19,4,208,AS,exp,31,↓,down,↓,0.6584922000183724,True,19,-1,0,0
PB028K19,4,209,AS,exp,26,←,left,←,0.5734951000194997,True,19,1,1,1
PB028K19,4,210,AS,exp,33,↓,down,↓,0.7973297000280581,True,18,1,0,1
PB028K19,4,211,AS,exp,29,→,right,→,0.523353099997621,True,18,1,0,1
PB028K19,4,212,AS,exp,48,←,left,←,0.8274576999829151,True,17,1,0,1
PB028K19,4,213,AS,exp,42,→,down,↓,0.9538475000299513,False,17,-1,1,2
PB028K19,4,214,AS,exp,47,↓,up,↑,0.7576702000224032,False,18,-1,0,2
PB028K19,4,215,AS,exp,39,↑,down,↓,0.7055068000336178,False,19,-1,0,2
PB028K19,4,216,AS,exp,50,←,right,→,0.6171898999600671,False,20,-1,0,2
PB028K19,4,217,AS,exp,44,↑,up,↑,0.5936464000260457,True,21,-1,0,2
PB028K19,4,218,AS,exp,46,→,left,←,0.6871251999982633,False,21,-1,0,2
PB028K19,4,219,AS,exp,35,←,no_key,no_letter,-1.0,False,22,-1,0,2
PB028K19,4,220,AS,exp,37,→,no_key,no_letter,-1.0,False,23,-1,0,2
PB028K19,4,221,AS,exp,41,↓,down,↓,0.8491244000033475,True,24,-1,0,2
PB028K19,4,222,AS,exp,36,←,left,←,0.7908729999908246,True,24,1,1,3
PB028K19,4,223,AS,exp,49,↓,down,↓,0.6442825000267476,True,23,1,0,3
PB028K19,4,224,AS,exp,25,→,up,↑,0.7217094999505207,False,23,-1,1,4
PB028K19,4,225,AS,exp,38,↓,down,↓,0.5879698999924585,True,24,-1,0,4
PB028K19,4,226,AS,exp,39,→,right,→,0.4836661999579519,True,24,1,1,5
PB028K19,4,227,AS,exp,28,←,left,←,0.8380650000181049,True,23,1,0,5
PB028K19,4,228,AS,exp,33,→,right,→,0.6018824999919161,True,23,1,0,5
PB028K19,4,229,AS,exp,43,↓,no_key,no_letter,-1.0,False,22,-1,1,6
PB028K19,4,230,AS,exp,45,↑,up,↑,0.8942423000116833,True,23,-1,0,6
PB028K19,4,231,AS,exp,25,↓,no_key,no_letter,-1.0,False,23,-1,0,6
PB028K19,4,232,AS,exp,47,←,left,←,0.5801459000213072,True,24,-1,0,6
PB028K19,4,233,AS,exp,40,→,right,→,0.5005454999627545,True,24,1,1,7
PB028K19,4,234,AS,exp,42,↑,up,↑,0.8821642999537289,True,23,1,0,7
PB028K19,4,235,AS,exp,47,↓,down,↓,0.559297300002072,True,23,1,0,7
PB028K19,4,236,AS,exp,27,↑,up,↑,1.126298199989833,True,22,1,0,7
PB028K19,4,237,AS,exp,36,↓,down,↓,0.7099963999935426,True,22,1,0,7
PB028K19,4,238,AS,exp,37,←,left,←,0.8188162000151351,True,21,1,0,7
PB028K19,4,239,AS,exp,43,↑,down,↓,1.3710263999528252,False,21,-1,1,8
PB028K19,4,240,AS,exp,36,←,left,←,0.7214588000206277,True,22,-1,0,8
PB028K19,4,241,AS,exp,27,→,no_key,no_letter,-1.0,False,22,-1,0,8
PB028K19,4,242,AS,exp,48,↑,up,↑,0.5171656000311486,True,23,-1,0,8
PB028K19,4,243,AS,exp,32,↓,down,↓,0.8842337999958545,True,23,1,1,9
PB028K19,4,244,AS,exp,50,↑,up,↑,0.5433111999882385,True,22,1,0,9
PB028K19,4,245,AS,exp,32,→,right,→,0.5499889000202529,True,22,1,0,9
PB028K19,4,246,AS,exp,41,←,left,←,0.5859233999508433,True,21,1,0,9
PB028K19,4,247,AS,exp,28,→,right,→,0.4673095000325702,True,21,1,0,9
PB028K19,4,248,AS,exp,41,↓,down,↓,0.560322700010147,True,20,1,0,9
PB028K19,4,249,AS,exp,32,→,right,→,0.5854131999658421,True,20,1,0,9
PB028K19,4,250,AS,exp,41,↑,down,↓,0.7239233999862336,False,19,-1,1,10
PB028K19,4,251,AS,exp,28,→,right,→,0.4337934999493882,True,20,-1,0,10
PB028K19,4,252,AS,exp,37,←,right,→,0.5356824999907985,False,20,-1,0,10
PB028K19,4,253,AS,exp,42,→,right,→,0.6453447999665514,True,21,-1,0,10
PB028K19,4,254,AS,exp,43,↑,up,↑,0.8180034999968484,True,21,1,1,11
PB028K19,4,255,AS,exp,41,←,no_key,no_letter,-1.0,False,20,-1,1,12
PB028K19,4,256,AS,exp,44,→,no_key,no_letter,-1.0,False,21,-1,0,12
PB028K19,4,257,AS,exp,31,←,left,←,0.581699300033506,True,22,-1,0,12
PB028K19,4,258,AS,exp,48,↑,no_key,no_letter,-1.0,False,22,-1,0,12
PB028K19,4,259,AS,exp,31,→,no_key,no_letter,-1.0,False,23,-1,0,12
PB028K19,4,260,AS,exp,26,←,left,←,0.7688119999947958,True,24,-1,0,12
PB028K19,4,261,AS,exp,38,↓,no_key,no_letter,-1.0,False,24,-1,0,12
PB028K19,4,262,AS,exp,38,↑,no_key,no_letter,-1.0,False,25,-1,0,12
PB028K19,4,263,AS,exp,25,→,right,→,0.7875890000141226,True,26,-1,0,12
PB028K19,4,264,AS,exp,38,↑,up,↑,1.5920593000482768,True,26,1,1,13
PB028K19,4,265,AS,exp,34,→,right,→,0.48357190005481243,True,25,1,0,13
PB028K19,4,266,AS,exp,35,←,left,←,0.45042130001820624,True,25,1,0,13
PB028K19,4,267,AS,exp,25,↓,right,→,0.736215999990236,False,24,-1,1,14
PB028K19,5,268,AS,intra_train,47,↑,up,↑,0.8063941999571398,True,25,-,-,-
PB028K19,5,269,AS,intra_train,46,→,right,→,0.6395347999641672,True,25,-,-,-
PB028K19,5,270,AS,intra_train,38,↓,down,↓,0.872393400000874,True,25,-,-,-
PB028K19,5,271,AS,intra_train,27,←,left,←,0.8317882000119425,True,25,-,-,-
PB028K19,5,272,AS,intra_train,34,↑,up,↑,0.5977777999942191,True,25,-,-,-
PB028K19,5,273,AS,exp,46,↓,down,↓,0.5092956000007689,True,17,0,0,0
PB028K19,5,274,AS,exp,26,→,right,→,0.6344779000501148,True,17,1,0,0
PB028K19,5,275,AS,exp,46,↑,up,↑,0.5272764000110328,True,16,1,0,0
PB028K19,5,276,AS,exp,45,↓,down,↓,0.525670699949842,True,16,1,0,0
PB028K19,5,277,AS,exp,40,↑,up,↑,0.468188899976667,True,15,1,0,0
PB028K19,5,278,AS,exp,50,→,right,→,0.49054979998618364,True,15,1,0,0
PB028K19,5,279,AS,exp,44,←,left,←,0.6835001999861561,True,14,1,0,0
PB028K19,5,280,AS,exp,34,↑,right,→,0.7238406999967992,False,14,-1,1,1
PB028K19,5,281,AS,exp,46,←,left,←,0.5841840999783017,True,15,-1,0,1
PB028K19,5,282,AS,exp,42,↓,down,↓,0.4904721000348218,True,15,1,1,2
PB028K19,5,283,AS,exp,32,←,right,→,0.5662322000134736,False,14,-1,1,3
PB028K19,5,284,AS,exp,34,↓,down,↓,0.48948699998436496,True,15,-1,0,3
PB028K19,5,285,AS,exp,28,←,left,←,0.5771958999685012,True,15,1,1,4
PB028K19,5,286,AS,exp,47,↓,down,↓,0.4590798999997787,True,14,1,0,4
PB028K19,5,287,AS,exp,42,→,right,→,0.49049910000758246,True,14,1,0,4
PB028K19,5,288,AS,exp,29,↑,right,→,0.8144141000229865,False,13,-1,1,5
PB028K19,5,289,AS,exp,31,←,left,←,0.4323404999449849,True,14,-1,0,5
PB028K19,5,290,AS,exp,40,↑,up,↑,0.5102141999523155,True,14,1,1,6
PB028K19,5,291,AS,exp,33,↓,down,↓,0.4890982000506483,True,13,1,0,6
PB028K19,5,292,AS,exp,30,←,right,→,0.6022379000205547,False,13,-1,1,7
PB028K19,5,293,AS,exp,44,↑,down,↓,1.434048899973277,False,14,-1,0,7
PB028K19,5,294,AS,exp,39,←,left,←,0.5666629000334069,True,15,-1,0,7
PB028K19,5,295,AS,exp,46,↓,down,↓,0.7787665000068955,True,15,1,1,8
PB028K19,5,296,AS,exp,33,↑,right,→,0.6792191000422463,False,14,-1,1,9
PB028K19,5,297,AS,exp,35,→,right,→,0.5427290000370704,True,15,-1,0,9
PB028K19,5,298,AS,exp,28,↓,down,↓,0.5178602000232786,True,15,1,1,10
PB028K19,5,299,AS,exp,45,↑,down,↓,0.6332370000309311,False,14,-1,1,11
PB028K19,5,300,AS,exp,35,↓,down,↓,0.4873185000033118,True,15,-1,0,11
PB028K19,5,301,AS,exp,42,→,right,→,0.453795799985528,True,15,1,1,12
PB028K19,5,302,AS,exp,31,↓,down,↓,0.4496316000004299,True,14,1,0,12
PB028K19,5,303,AS,exp,43,←,left,←,0.5818218999775127,True,14,1,0,12
PB028K19,5,304,AS,exp,26,→,right,→,0.746389200037811,True,13,1,0,12
PB028K19,5,305,AS,exp,42,←,left,←,0.5635970000294037,True,13,1,0,12
PB028K19,5,306,AS,exp,31,↓,down,↓,0.44366420002188534,True,12,1,0,12
PB028K19,5,307,AS,exp,32,←,left,←,0.5196912999963388,True,12,1,0,12
PB028K19,5,308,AS,exp,31,↓,down,↓,0.6440998000325635,True,11,1,0,12
PB028K19,5,309,AS,exp,44,←,right,→,0.7006267000106163,False,11,-1,1,13
PB028K19,5,310,AS,exp,49,↑,up,↑,0.5559724000049755,True,12,-1,0,13
PB028K19,5,311,AS,exp,37,→,right,→,0.4995697000413202,True,12,1,1,14
PB028K19,6,312,PS,intra_train,44,←,no_key,no_letter,-1.0,False,13,-,-,-
PB028K19,6,313,PS,intra_train,33,→,right,→,1.1107988000148907,True,13,-,-,-
PB028K19,6,314,PS,intra_train,30,←,right,→,0.9594690999947488,False,13,-,-,-
PB028K19,6,315,PS,intra_train,38,→,right,→,0.5060975999804214,True,13,-,-,-
PB028K19,6,316,PS,intra_train,45,↑,up,↑,0.5469403999741189,True,13,-,-,-
PB028K19,6,317,PS,exp,30,↓,down,↓,0.5261547999689355,True,9,0,0,0
PB028K19,6,318,PS,exp,50,→,right,→,0.652901399997063,True,9,1,0,0
PB028K19,6,319,PS,exp,44,↓,down,↓,0.6239842000068165,True,8,1,0,0
PB028K19,6,320,PS,exp,44,→,right,→,0.4912180000101216,True,8,1,0,0
PB028K19,6,321,PS,exp,28,←,down,↓,0.505646399979014,False,7,-1,1,1
PB028K19,6,322,PS,exp,49,↓,no_key,no_letter,-1.0,False,8,-1,0,1
PB028K19,6,323,PS,exp,34,↑,up,↑,0.552961899957154,True,9,-1,0,1
PB028K19,6,324,PS,exp,25,→,right,→,0.5260630000266246,True,9,1,1,2
PB028K19,6,325,PS,exp,29,↓,down,↓,0.5367838000529446,True,8,1,0,2
PB028K19,6,326,PS,exp,41,↑,up,↑,0.4676086999825202,True,8,1,0,2
PB028K19,6,327,PS,exp,48,←,right,→,1.1390537000261247,False,7,-1,1,3
PB028K19,6,328,PS,exp,36,↑,up,↑,0.5072553000063635,True,8,-1,0,3
PB028K19,6,329,PS,exp,46,→,right,→,0.5942402999498881,True,8,1,1,4
PB028K19,6,330,PS,exp,45,↑,right,→,0.7311517000198364,False,7,-1,1,5
PB028K19,6,331,PS,exp,25,←,right,→,0.893930200021714,False,8,-1,0,5
PB028K19,6,332,PS,exp,49,→,right,→,0.42974240001058206,True,9,-1,0,5
PB028K19,6,333,PS,exp,48,↓,left,←,0.7219859999604523,False,9,-1,0,5
PB028K19,6,334,PS,exp,48,→,right,→,0.4490196999977343,True,10,-1,0,5
PB028K19,6,335,PS,exp,43,↑,up,↑,0.6242860999773256,True,10,1,1,6
PB028K19,6,336,PS,exp,43,←,up,↑,0.5840666000149213,False,9,-1,1,7
PB028K19,6,337,PS,exp,31,→,right,→,0.5687469000113197,True,10,-1,0,7
PB028K19,6,338,PS,exp,40,↓,up,↑,0.6059653999982402,False,10,-1,0,7
PB028K19,6,339,PS,exp,31,↑,up,↑,0.6467434000223875,True,11,-1,0,7
PB028K19,6,340,PS,exp,49,←,left,←,0.7289338000118732,True,11,1,1,8
PB028K19,6,341,PS,exp,49,↓,down,↓,0.5113779000239447,True,10,1,0,8
PB028K19,6,342,PS,exp,31,↑,up,↑,0.7377524999901652,True,10,1,0,8
PB028K19,6,343,PS,exp,40,↓,down,↓,0.7893873999710195,True,9,1,0,8
PB028K19,6,344,PS,exp,30,←,left,←,1.0995329999714158,True,9,1,0,8
PB028K19,6,345,PS,exp,36,↓,down,↓,0.6699570000055246,True,8,1,0,8
PB028K19,6,346,PS,exp,46,←,right,→,0.6782558999839239,False,8,-1,1,9
PB028K19,6,347,PS,exp,34,↓,down,↓,0.4837309999857098,True,9,-1,0,9
PB028K19,6,348,PS,exp,40,↑,up,↑,0.6453438999596983,True,9,1,1,10
PB028K19,6,349,PS,exp,28,→,right,→,0.5425243999925442,True,8,1,0,10
PB028K19,6,350,PS,exp,34,←,right,→,0.7083197999745607,False,8,-1,1,11
PB028K19,6,351,PS,exp,26,↓,down,↓,0.6511799999861978,True,9,-1,0,11
PB028K19,6,352,PS,exp,30,←,left,←,0.6283008999889717,True,9,1,1,12
PB028K19,6,353,PS,exp,45,↑,down,↓,0.9021970000467263,False,8,-1,1,13
PB028K19,6,354,PS,exp,42,↓,right,→,0.6585393999703228,False,9,-1,0,13
PB028K19,6,355,PS,exp,46,→,right,→,0.5887534000212327,True,10,-1,0,13
PB028K19,6,356,PS,exp,32,↓,down,↓,0.6771637000492774,True,10,1,1,14
PB028K19,7,357,PS,intra_train,32,↑,down,↓,0.8036270000156946,False,13,-,-,-
PB028K19,7,358,PS,intra_train,32,↓,down,↓,0.551421299984213,True,13,-,-,-
PB028K19,7,359,PS,intra_train,30,→,right,→,0.7983852999750525,True,13,-,-,-
PB028K19,7,360,PS,intra_train,46,↓,down,↓,0.7585209000390023,True,13,-,-,-
PB028K19,7,361,PS,intra_train,25,←,left,←,0.7554298000177369,True,13,-,-,-
PB028K19,7,362,PS,exp,49,↓,left,←,0.8345822000410408,False,9,-1,0,0
PB028K19,7,363,PS,exp,50,→,right,→,0.570249899988994,True,10,-1,0,0
PB028K19,7,364,PS,exp,33,↑,up,↑,0.7090449000243098,True,10,1,1,1
PB028K19,7,365,PS,exp,32,↓,down,↓,0.7151484999922104,True,9,1,0,1
PB028K19,7,366,PS,exp,48,→,down,↓,0.8191554000368342,False,9,-1,1,2
PB028K19,7,367,PS,exp,44,↓,down,↓,0.6292632999829948,True,10,-1,0,2
PB028K19,7,368,PS,exp,41,→,right,→,0.5254928999929689,True,10,1,1,3
PB028K19,7,369,PS,exp,46,↑,up,↑,0.5159221999929287,True,9,1,0,3
PB028K19,7,370,PS,exp,33,←,left,←,0.602453300030902,True,9,1,0,3
PB028K19,7,371,PS,exp,27,↑,up,↑,0.45786179997958243,True,8,1,0,3
PB028K19,7,372,PS,exp,46,←,right,→,0.8259088000049815,False,8,-1,1,4
PB028K19,7,373,PS,exp,48,→,right,→,0.5268896999768913,True,9,-1,0,4
PB028K19,7,374,PS,exp,26,↑,up,↑,0.6369756999774836,True,9,1,1,5
PB028K19,7,375,PS,exp,41,↓,down,↓,0.6083701000316069,True,8,1,0,5
PB028K19,7,376,PS,exp,46,→,right,→,0.5116234000306576,True,8,1,0,5
PB028K19,7,377,PS,exp,26,←,right,→,0.7321792999864556,False,7,-1,1,6
PB028K19,7,378,PS,exp,32,→,right,→,0.45171080000000075,True,8,-1,0,6
PB028K19,7,379,PS,exp,28,←,left,←,0.3957109999610111,True,8,1,1,7
PB028K19,7,380,PS,exp,40,↓,no_key,no_letter,-1.0,False,7,-1,1,8
PB028K19,7,381,PS,exp,25,↑,right,→,0.7416320000193082,False,8,-1,0,8
PB028K19,7,382,PS,exp,37,→,right,→,0.49653420003596693,True,9,-1,0,8
PB028K19,7,383,PS,exp,30,←,left,←,0.4685862999758683,True,9,1,1,9
PB028K19,7,384,PS,exp,38,→,right,→,0.44533010001759976,True,8,1,0,9
PB028K19,7,385,PS,exp,28,↑,up,↑,0.6432882999652065,True,8,1,0,9
PB028K19,7,386,PS,exp,28,↓,left,←,0.5109869000152685,False,7,-1,1,10
PB028K19,7,387,PS,exp,34,↑,up,↑,0.4988993000006303,True,8,-1,0,10
PB028K19,7,388,PS,exp,31,→,up,↑,0.8320662000332959,False,8,-1,0,10
PB028K19,7,389,PS,exp,35,↓,down,↓,0.6819113999954425,True,9,-1,0,10
PB028K19,7,390,PS,exp,44,↑,right,→,1.2453666999936104,False,9,-1,0,10
PB028K19,7,391,PS,exp,27,→,right,→,0.5029280000017025,True,10,-1,0,10
PB028K19,7,392,PS,exp,34,←,down,↓,0.9005678999819793,False,10,-1,0,10
PB028K19,7,393,PS,exp,47,↑,up,↑,0.8633755999617279,True,11,-1,0,10
PB028K19,7,394,PS,exp,28,→,right,→,0.4869749999488704,True,11,1,1,11
PB028K19,7,395,PS,exp,46,↓,down,↓,0.697083700040821,True,10,1,0,11
PB028K19,7,396,PS,exp,45,→,right,→,0.4698381000198424,True,10,1,0,11
PB028K19,7,397,PS,exp,48,←,right,→,0.977246800030116,False,9,-1,1,12
PB028K19,7,398,PS,exp,46,→,right,→,0.4693992000538856,True,10,-1,0,12
PB028K19,7,399,PS,exp,36,↓,down,↓,0.6542321000015363,True,10,1,1,13
PB028K19,7,400,PS,exp,30,←,left,←,0.755605399957858,True,9,1,0,13
PB028K19,7,401,PS,exp,34,→,right,→,0.5880513000302017,True,9,1,0,13
PB028K19,7,402,PS,exp,43,←,left,←,1.134258600010071,True,8,1,0,13
PB028K19,7,403,PS,exp,40,→,right,→,0.4801778999972157,True,8,1,0,13
PB028K19,7,404,PS,exp,44,↓,right,→,0.7521247999975458,False,7,-1,1,14
PB028K19,8,405,AS,intra_train,31,→,right,→,0.8174045999767259,True,25,-,-,-
PB028K19,8,406,AS,intra_train,40,↓,down,↓,0.7315413999604061,True,25,-,-,-
PB028K19,8,407,AS,intra_train,27,←,left,←,0.6549281000043266,True,25,-,-,-
PB028K19,8,408,AS,intra_train,28,→,right,→,0.6492736999643967,True,25,-,-,-
PB028K19,8,409,AS,intra_train,29,↓,down,↓,0.6272536999895237,True,25,-,-,-
PB028K19,8,410,AS,exp,45,←,right,→,0.8516673000412993,False,17,-1,0,0
PB028K19,8,411,AS,exp,47,↑,up,↑,0.48887560004368424,True,18,-1,0,0
PB028K19,8,412,AS,exp,33,↓,down,↓,0.5915649000089616,True,18,1,1,1
PB028K19,8,413,AS,exp,31,←,right,→,0.6540410000015981,False,17,-1,1,2
PB028K19,8,414,AS,exp,46,→,right,→,0.9996624999912456,True,18,-1,0,2
PB028K19,8,415,AS,exp,42,←,left,←,0.6744152000173926,True,18,1,1,3
PB028K19,8,416,AS,exp,45,↓,down,↓,1.782746999990195,True,17,1,0,3
PB028K19,8,417,AS,exp,30,↑,up,↑,0.7279082000022754,True,17,1,0,3
PB028K19,8,418,AS,exp,47,→,right,→,0.5812633999739774,True,16,1,0,3
PB028K19,8,419,AS,exp,47,↓,up,↑,0.9573363999952562,False,16,-1,1,4
PB028K19,8,420,AS,exp,38,→,right,→,0.49786040000617504,True,17,-1,0,4
PB028K19,8,421,AS,exp,29,←,right,→,0.6164938000147231,False,17,-1,0,4
PB028K19,8,422,AS,exp,46,→,right,→,0.5917526999837719,True,18,-1,0,4
PB028K19,8,423,AS,exp,28,↑,up,↑,0.5436502000084147,True,18,1,1,5
PB028K19,8,424,AS,exp,38,↓,down,↓,0.7419771999702789,True,17,1,0,5
PB028K19,8,425,AS,exp,34,↑,up,↑,0.6371302999905311,True,17,1,0,5
PB028K19,8,426,AS,exp,38,→,right,→,0.6820518000167795,True,16,1,0,5
PB028K19,8,427,AS,exp,43,↓,up,↑,0.7925239999894984,False,16,-1,1,6
PB028K19,8,428,AS,exp,45,↑,down,↓,0.7653669999563135,False,17,-1,0,6
PB028K19,8,429,AS,exp,26,←,left,←,1.015994800021872,True,18,-1,0,6
PB028K19,8,430,AS,exp,31,→,right,→,0.8113904999918304,True,18,1,1,7
PB028K19,8,431,AS,exp,49,↑,up,↑,0.953563800023403,True,17,1,0,7
PB028K19,8,432,AS,exp,46,←,right,→,0.7161463999655098,False,17,-1,1,8
PB028K19,8,433,AS,exp,29,→,right,→,0.6420238999999128,True,18,-1,0,8
PB028K19,8,434,AS,exp,33,↑,down,↓,1.188563899951987,False,18,-1,0,8
PB028K19,8,435,AS,exp,46,↓,up,↑,0.9109578999923542,False,19,-1,0,8
PB028K19,8,436,AS,exp,32,↑,up,↑,0.572319500031881,True,20,-1,0,8
PB028K19,8,437,AS,exp,32,←,left,←,0.5338986999704503,True,20,1,1,9
PB028K19,8,438,AS,exp,40,→,right,→,0.5412943999981508,True,19,1,0,9
PB028K19,8,439,AS,exp,32,↑,up,↑,0.9333727000048384,True,19,1,0,9
PB028K19,8,440,AS,exp,47,←,left,←,0.727565000008326,True,18,1,0,9
PB028K19,8,441,AS,exp,32,→,right,→,0.6789100999594666,True,18,1,0,9
PB028K19,8,442,AS,exp,32,↓,down,↓,0.6701051000272855,True,17,1,0,9
PB028K19,8,443,AS,exp,39,↑,right,→,0.7133423999766819,False,17,-1,1,10
PB028K19,8,444,AS,exp,48,↓,down,↓,0.6686502000084147,True,18,-1,0,10
PB028K19,8,445,AS,exp,37,↑,up,↑,0.60067459999118,True,18,1,1,11
PB028K19,8,446,AS,exp,33,↓,down,↓,1.2397235999815166,True,17,1,0,11
PB028K19,8,447,AS,exp,25,←,right,→,0.7192562000127509,False,17,-1,1,12
PB028K19,8,448,AS,exp,31,→,left,←,1.1642886999761686,False,18,-1,0,12
PB028K19,8,449,AS,exp,32,↑,up,↑,0.5186802999814972,True,19,-1,0,12
PB028K19,8,450,AS,exp,37,→,right,→,0.5503994000027888,True,19,1,1,13
PB028K19,8,451,AS,exp,38,←,right,→,0.5286788000375964,False,18,-1,1,14
