PART_ID,Block_no,Trial_no,Block_type,Trial_type,CSI,Stim_letter,Key_pressed,letter_choose,Rt,Corr,Stimulus Time,Level,Reversal,Revs_count
PB025M21,1,1,PS,train,46,←,left,←,1.62389789998997,True,30,-,-,-
PB025M21,1,2,PS,train,33,↑,up,↑,1.860834299994167,True,30,-,-,-
PB025M21,1,3,PS,train,45,↓,down,↓,1.4395145000016782,True,30,-,-,-
PB025M21,1,4,PS,train,40,→,right,→,1.092187100002775,True,30,-,-,-
PB025M21,1,5,PS,train,29,↓,down,↓,1.1800242000026628,True,30,-,-,-
PB025M21,1,6,PS,train,46,↑,up,↑,0.9217991000041366,True,30,-,-,-
PB025M21,1,7,PS,train,32,←,left,←,1.1798742999962997,True,30,-,-,-
PB025M21,1,8,PS,train,35,↓,down,↓,1.038005800015526,True,30,-,-,-
PB025M21,1,9,PS,train,30,←,left,←,0.9970867999945767,True,30,-,-,-
PB025M21,1,10,PS,train,43,↑,up,↑,0.9691981000069063,True,30,-,-,-
PB025M21,2,11,AS,train,39,↓,down,↓,1.212010300019756,True,45,-,-,-
PB025M21,2,12,AS,train,39,←,left,←,1.2830762999947183,True,45,-,-,-
PB025M21,2,13,AS,train,38,↓,down,↓,1.1451769999985117,True,45,-,-,-
PB025M21,2,14,AS,train,35,↑,up,↑,1.7651146999851335,True,45,-,-,-
PB025M21,2,15,AS,train,39,↓,down,↓,1.1952087999961805,True,45,-,-,-
PB025M21,2,16,AS,train,49,↑,up,↑,1.167108499997994,True,45,-,-,-
PB025M21,2,17,AS,train,30,→,right,→,1.2772134999977425,True,45,-,-,-
PB025M21,2,18,AS,train,46,↑,up,↑,0.997786099993391,True,45,-,-,-
PB025M21,2,19,AS,train,33,←,left,←,1.0522506999841426,True,45,-,-,-
PB025M21,2,20,AS,train,45,↓,down,↓,1.0686226999969222,True,45,-,-,-
PB025M21,-,21,PS,adaptive,49,↑,up,↑,1.1627384000166785,True,10,0,0,0
PB025M21,-,22,PS,adaptive,38,→,right,→,0.5956984999938868,True,10,1,0,0
PB025M21,-,23,PS,adaptive,40,↑,up,↑,0.7601020000001881,True,9,1,0,0
PB025M21,-,24,PS,adaptive,36,↓,down,↓,0.6730768000124954,True,9,1,0,0
PB025M21,-,25,PS,adaptive,32,←,left,←,0.6144083000253886,True,8,1,0,0
PB025M21,-,26,PS,adaptive,40,↑,up,↑,0.5830629999982193,True,8,1,0,0
PB025M21,-,27,PS,adaptive,44,↓,down,↓,0.5983683000085875,True,7,1,0,0
PB025M21,-,28,PS,adaptive,35,↑,left,←,0.6886470000026748,False,7,-1,1,1
PB025M21,-,29,PS,adaptive,30,→,right,→,0.4593678999808617,True,8,-1,0,1
PB025M21,-,30,PS,adaptive,33,↓,down,↓,0.533710300020175,True,8,1,1,2
PB025M21,-,31,PS,adaptive,46,←,left,←,0.6590447000053246,True,7,1,0,2
PB025M21,-,32,PS,adaptive,29,↑,up,↑,0.5359541999932844,True,7,1,0,2
PB025M21,-,33,PS,adaptive,37,→,right,→,0.6513215000159107,True,6,1,0,2
PB025M21,-,34,PS,adaptive,47,↑,up,↑,0.6524527000146918,True,6,1,0,2
PB025M21,-,35,PS,adaptive,31,→,right,→,0.5489330000127666,True,5,1,0,2
PB025M21,-,36,PS,adaptive,30,↑,left,←,0.5034144000092056,False,5,-1,1,3
PB025M21,-,37,PS,adaptive,39,↓,down,↓,0.5434295999875758,True,6,-1,0,3
PB025M21,-,38,PS,adaptive,50,↑,right,→,1.04694530001143,False,6,-1,0,3
PB025M21,-,39,PS,adaptive,44,↓,left,←,0.8309104999934789,False,7,-1,0,3
PB025M21,-,40,PS,adaptive,49,←,left,←,0.6489366999885533,True,8,-1,0,3
PB025M21,-,41,PS,adaptive,39,→,no_key,no_letter,-1.0,False,8,-1,0,3
PB025M21,-,42,PS,adaptive,49,↑,up,↑,0.5540886000089813,True,9,-1,0,3
PB025M21,-,43,PS,adaptive,47,←,left,←,0.572058299992932,True,9,1,1,4
PB025M21,-,44,AS,adaptive,35,→,right,→,0.5546477000170853,True,20,0,0,0
PB025M21,-,45,AS,adaptive,50,←,left,←,0.6726200999983121,True,20,1,0,0
PB025M21,-,46,AS,adaptive,27,↑,up,↑,0.7382956999936141,True,19,1,0,0
PB025M21,-,47,AS,adaptive,37,←,left,←,0.7283496000163723,True,19,1,0,0
PB025M21,-,48,AS,adaptive,27,↑,up,↑,0.5720337999809999,True,18,1,0,0
PB025M21,-,49,AS,adaptive,43,→,right,→,0.6244962999771815,True,18,1,0,0
PB025M21,-,50,AS,adaptive,43,↑,up,↑,0.9528554999851622,True,17,1,0,0
PB025M21,-,51,AS,adaptive,44,↓,down,↓,0.7044433999981266,True,17,1,0,0
PB025M21,-,52,AS,adaptive,39,↑,up,↑,0.7166004999889992,True,16,1,0,0
PB025M21,-,53,AS,adaptive,47,↓,up,↑,0.828962599975057,False,16,-1,1,1
PB025M21,-,54,AS,adaptive,33,→,right,→,0.5832424999971408,True,17,-1,0,1
PB025M21,-,55,AS,adaptive,49,↓,down,↓,0.47976779998862185,True,17,1,1,2
PB025M21,-,56,AS,adaptive,42,←,left,←,0.6176540000014938,True,16,1,0,2
PB025M21,-,57,AS,adaptive,27,↑,up,↑,0.6990035000198986,True,16,1,0,2
PB025M21,-,58,AS,adaptive,46,↓,down,↓,0.5035497999924701,True,15,1,0,2
PB025M21,-,59,AS,adaptive,33,↑,up,↑,0.38390469999285415,True,15,1,0,2
PB025M21,-,60,AS,adaptive,36,→,right,→,0.7070317000034265,True,14,1,0,2
PB025M21,-,61,AS,adaptive,35,↓,down,↓,0.48719359998358414,True,14,1,0,2
PB025M21,-,62,AS,adaptive,45,→,right,→,0.7340066999895498,True,13,1,0,2
PB025M21,-,63,AS,adaptive,41,←,left,←,0.84849820000818,True,13,1,0,2
PB025M21,-,64,AS,adaptive,48,→,right,→,0.6471418000000995,True,12,1,0,2
PB025M21,-,65,AS,adaptive,27,↓,down,↓,0.6162390999961644,True,12,1,0,2
PB025M21,-,66,AS,adaptive,40,←,left,←,0.6130752000026405,True,11,1,0,2
PB025M21,-,67,AS,adaptive,40,→,left,←,0.7542375999910291,False,11,-1,1,3
PB025M21,-,68,AS,adaptive,46,↓,down,↓,0.5231776000000536,True,12,-1,0,3
PB025M21,-,69,AS,adaptive,45,↑,up,↑,0.67815189997782,True,12,1,1,4
PB025M21,1,70,AS,intra_train,47,↓,down,↓,0.6249393999751192,True,16,-,-,-
PB025M21,1,71,AS,intra_train,43,↑,up,↑,0.7946257999865338,True,16,-,-,-
PB025M21,1,72,AS,intra_train,29,←,left,←,0.4851529000152368,True,16,-,-,-
PB025M21,1,73,AS,intra_train,27,↑,up,↑,0.7499329000129364,True,16,-,-,-
PB025M21,1,74,AS,intra_train,39,→,right,→,1.5923864000069443,True,16,-,-,-
PB025M21,1,75,AS,exp,27,↑,up,↑,0.7400569999881554,True,11,0,0,0
PB025M21,1,76,AS,exp,41,↓,down,↓,0.478466100001242,True,11,1,0,0
PB025M21,1,77,AS,exp,30,→,right,→,0.5716000999964308,True,10,1,0,0
PB025M21,1,78,AS,exp,27,↑,up,↑,0.7969438000000082,True,10,1,0,0
PB025M21,1,79,AS,exp,44,→,right,→,0.6736545000167098,True,9,1,0,0
PB025M21,1,80,AS,exp,35,↑,up,↑,0.5049730000027921,True,9,1,0,0
PB025M21,1,81,AS,exp,36,→,right,→,0.604226600000402,True,8,1,0,0
PB025M21,1,82,AS,exp,38,←,left,←,0.752791500010062,True,8,1,0,0
PB025M21,1,83,AS,exp,29,↑,down,↓,1.2010859999863897,False,7,-1,1,1
PB025M21,1,84,AS,exp,37,←,right,→,0.6087857999955304,False,8,-1,0,1
PB025M21,1,85,AS,exp,25,↑,up,↑,0.6363427999895066,True,9,-1,0,1
PB025M21,1,86,AS,exp,34,←,right,→,0.5700304000056349,False,9,-1,0,1
PB025M21,1,87,AS,exp,47,→,left,←,1.2456376999907661,False,10,-1,0,1
PB025M21,1,88,AS,exp,29,↑,up,↑,1.0763096000009682,True,11,-1,0,1
PB025M21,1,89,AS,exp,39,↓,down,↓,0.7872525000129826,True,11,1,1,2
PB025M21,1,90,AS,exp,40,↑,down,↓,0.7920997999899555,False,10,-1,1,3
PB025M21,1,91,AS,exp,38,→,right,→,0.7011490000004414,True,11,-1,0,3
PB025M21,1,92,AS,exp,42,←,left,←,0.6342408000200521,True,11,1,1,4
PB025M21,1,93,AS,exp,39,↓,down,↓,0.8913636000070255,True,10,1,0,4
PB025M21,1,94,AS,exp,48,→,right,→,0.45662260000244714,True,10,1,0,4
PB025M21,1,95,AS,exp,28,←,no_key,no_letter,-1.0,False,9,-1,1,5
PB025M21,1,96,AS,exp,45,↑,up,↑,0.6000901999941561,True,10,-1,0,5
PB025M21,1,97,AS,exp,27,←,left,←,0.49696489999769256,True,10,1,1,6
PB025M21,1,98,AS,exp,49,→,right,→,0.6237563000177033,True,9,1,0,6
PB025M21,1,99,AS,exp,48,↓,down,↓,0.7060124000126962,True,9,1,0,6
PB025M21,1,100,AS,exp,45,↑,up,↑,0.6824078999925405,True,8,1,0,6
PB025M21,1,101,AS,exp,41,→,left,←,0.6226955000020098,False,8,-1,1,7
PB025M21,1,102,AS,exp,37,↑,up,↑,0.6718589999945834,True,9,-1,0,7
PB025M21,1,103,AS,exp,27,↓,down,↓,0.8749374999897555,True,9,1,1,8
PB025M21,1,104,AS,exp,50,↑,up,↑,0.6346781000029296,True,8,1,0,8
PB025M21,1,105,AS,exp,49,→,right,→,0.39833190001081675,True,8,1,0,8
PB025M21,1,106,AS,exp,37,↓,down,↓,0.43300570000428706,True,7,1,0,8
PB025M21,1,107,AS,exp,39,←,left,←,0.8953269000048749,True,7,1,0,8
PB025M21,1,108,AS,exp,38,→,down,↓,0.8328330000222195,False,6,-1,1,9
PB025M21,1,109,AS,exp,35,↓,right,→,1.1704764000023715,False,7,-1,0,9
PB025M21,1,110,AS,exp,25,→,right,→,0.45538160001160577,True,8,-1,0,9
PB025M21,1,111,AS,exp,44,←,down,↓,1.37136340001598,False,8,-1,0,9
PB025M21,1,112,AS,exp,32,→,right,→,0.8354563000029884,True,9,-1,0,9
PB025M21,1,113,AS,exp,26,↓,left,←,1.3930197000154294,False,9,-1,0,9
PB025M21,1,114,AS,exp,48,←,left,←,0.4813556000008248,True,10,-1,0,9
PB025M21,1,115,AS,exp,37,↑,up,↑,0.6505894000001717,True,10,1,1,10
PB025M21,1,116,AS,exp,36,↓,down,↓,0.7365713999897707,True,9,1,0,10
PB025M21,1,117,AS,exp,38,←,left,←,0.49154089999501593,True,9,1,0,10
PB025M21,1,118,AS,exp,28,↓,no_key,no_letter,-1.0,False,8,-1,1,11
PB025M21,1,119,AS,exp,47,↑,no_key,no_letter,-1.0,False,9,-1,0,11
PB025M21,1,120,AS,exp,28,→,right,→,0.3833452000108082,True,10,-1,0,11
PB025M21,1,121,AS,exp,49,↑,up,↑,0.632657600013772,True,10,1,1,12
PB025M21,1,122,AS,exp,42,→,right,→,0.34537060000002384,True,9,1,0,12
PB025M21,1,123,AS,exp,49,↓,down,↓,0.6516505000181496,True,9,1,0,12
PB025M21,1,124,AS,exp,45,→,right,→,0.44217439999920316,True,8,1,0,12
PB025M21,1,125,AS,exp,30,←,left,←,0.42722199999843724,True,8,1,0,12
PB025M21,1,126,AS,exp,25,→,right,→,0.512733700015815,True,7,1,0,12
PB025M21,1,127,AS,exp,39,↓,down,↓,0.7416453000041656,True,7,1,0,12
PB025M21,1,128,AS,exp,31,→,right,→,0.6218325999798253,True,6,1,0,12
PB025M21,1,129,AS,exp,40,←,left,←,0.7430044999928214,True,6,1,0,12
PB025M21,1,130,AS,exp,44,↓,down,↓,0.5177436000085436,True,5,1,0,12
PB025M21,1,131,AS,exp,43,→,right,→,0.6489768000028562,True,5,1,0,12
PB025M21,1,132,AS,exp,46,↓,down,↓,0.5767904000240378,True,4,1,0,12
PB025M21,1,133,AS,exp,25,↑,right,→,0.6465344000025652,False,4,-1,1,13
PB025M21,1,134,AS,exp,30,↓,down,↓,0.6067341000016313,True,5,-1,0,13
PB025M21,1,135,AS,exp,26,→,right,→,0.7478959000145551,True,5,1,1,14
PB025M21,2,136,PS,intra_train,50,←,left,←,0.6335890000045765,True,12,-,-,-
PB025M21,2,137,PS,intra_train,32,→,right,→,0.4410708000068553,True,12,-,-,-
PB025M21,2,138,PS,intra_train,32,↑,up,↑,0.9618359000014607,True,12,-,-,-
PB025M21,2,139,PS,intra_train,48,↓,down,↓,0.786577099992428,True,12,-,-,-
PB025M21,2,140,PS,intra_train,33,↑,right,→,0.7568877000012435,False,12,-,-,-
PB025M21,2,141,PS,exp,50,↓,down,↓,0.5762153999821749,True,8,0,0,0
PB025M21,2,142,PS,exp,37,→,right,→,0.5229936999967322,True,8,1,0,0
PB025M21,2,143,PS,exp,38,↑,left,←,0.7271135000046343,False,7,-1,1,1
PB025M21,2,144,PS,exp,42,↓,down,↓,0.8046077000035439,True,8,-1,0,1
PB025M21,2,145,PS,exp,25,↑,down,↓,0.7465857000206597,False,8,-1,0,1
PB025M21,2,146,PS,exp,38,→,right,→,0.4276332999870647,True,9,-1,0,1
PB025M21,2,147,PS,exp,43,↓,down,↓,0.5776826999790501,True,9,1,1,2
PB025M21,2,148,PS,exp,34,→,left,←,0.6993722000042908,False,8,-1,1,3
PB025M21,2,149,PS,exp,27,←,left,←,0.7624815000162926,True,9,-1,0,3
PB025M21,2,150,PS,exp,47,↑,down,↓,0.7049619999888819,False,9,-1,0,3
PB025M21,2,151,PS,exp,31,→,right,→,0.40459789999295026,True,10,-1,0,3
PB025M21,2,152,PS,exp,31,←,right,→,0.685751299984986,False,10,-1,0,3
PB025M21,2,153,PS,exp,44,↓,down,↓,0.7057882999943104,True,11,-1,0,3
PB025M21,2,154,PS,exp,32,←,left,←,0.530271099996753,True,11,1,1,4
PB025M21,2,155,PS,exp,44,↓,down,↓,0.48621239999192767,True,10,1,0,4
PB025M21,2,156,PS,exp,44,↑,up,↑,0.6413019000028726,True,10,1,0,4
PB025M21,2,157,PS,exp,48,←,left,←,0.4610007000155747,True,9,1,0,4
PB025M21,2,158,PS,exp,28,↓,right,→,0.8363031999906525,False,9,-1,1,5
PB025M21,2,159,PS,exp,34,←,down,↓,0.6317700000072364,False,10,-1,0,5
PB025M21,2,160,PS,exp,26,→,right,→,0.4000018000078853,True,11,-1,0,5
PB025M21,2,161,PS,exp,36,↓,left,←,0.6822522000002209,False,11,-1,0,5
PB025M21,2,162,PS,exp,28,←,down,↓,0.8942948000039905,False,12,-1,0,5
PB025M21,2,163,PS,exp,27,↑,up,↑,0.6303887999965809,True,13,-1,0,5
PB025M21,2,164,PS,exp,41,←,left,←,0.4033320000162348,True,13,1,1,6
PB025M21,2,165,PS,exp,39,→,right,→,0.6342614000022877,True,12,1,0,6
PB025M21,2,166,PS,exp,41,↑,up,↑,0.41181520000100136,True,12,1,0,6
PB025M21,2,167,PS,exp,35,↓,down,↓,0.7062643000099342,True,11,1,0,6
PB025M21,2,168,PS,exp,38,→,right,→,0.4084809999912977,True,11,1,0,6
PB025M21,2,169,PS,exp,31,←,left,←,0.6846296000003349,True,10,1,0,6
PB025M21,2,170,PS,exp,40,↓,down,↓,0.3854544999776408,True,10,1,0,6
PB025M21,2,171,PS,exp,33,→,right,→,0.6694146000081673,True,9,1,0,6
PB025M21,2,172,PS,exp,27,↑,left,←,0.7663989999855403,False,9,-1,1,7
PB025M21,2,173,PS,exp,35,→,right,→,0.4419723999744747,True,10,-1,0,7
PB025M21,2,174,PS,exp,37,↓,down,↓,0.5713822000252549,True,10,1,1,8
PB025M21,2,175,PS,exp,44,→,right,→,0.5598210000025574,True,9,1,0,8
PB025M21,2,176,PS,exp,35,←,left,←,0.4391747000045143,True,9,1,0,8
PB025M21,2,177,PS,exp,47,↓,down,↓,0.47577459999592975,True,8,1,0,8
PB025M21,2,178,PS,exp,39,→,right,→,0.524809099995764,True,8,1,0,8
PB025M21,2,179,PS,exp,29,↑,right,→,0.7890957999916282,False,7,-1,1,9
PB025M21,2,180,PS,exp,46,←,down,↓,0.8117824000073597,False,8,-1,0,9
PB025M21,2,181,PS,exp,44,↓,down,↓,0.3284150999970734,True,9,-1,0,9
PB025M21,2,182,PS,exp,44,←,left,←,0.5191633000213187,True,9,1,1,10
PB025M21,2,183,PS,exp,36,↓,down,↓,0.6183117000036873,True,8,1,0,10
PB025M21,2,184,PS,exp,36,→,left,←,0.610831900004996,False,8,-1,1,11
PB025M21,2,185,PS,exp,40,←,left,←,0.39084330000332557,True,9,-1,0,11
PB025M21,2,186,PS,exp,26,→,right,→,0.5262377999897581,True,9,1,1,12
PB025M21,2,187,PS,exp,43,↑,down,↓,0.5901000000012573,False,8,-1,1,13
PB025M21,2,188,PS,exp,29,↓,left,←,0.6719980000052601,False,9,-1,0,13
PB025M21,2,189,PS,exp,31,↑,up,↑,0.4251615999964997,True,10,-1,0,13
PB025M21,2,190,PS,exp,47,↓,down,↓,0.3627340999955777,True,10,1,1,14
PB025M21,3,191,PS,intra_train,37,↑,up,↑,0.47745489998487756,True,12,-,-,-
PB025M21,3,192,PS,intra_train,35,←,left,←,0.49861380000947975,True,12,-,-,-
PB025M21,3,193,PS,intra_train,50,↑,up,↑,0.5649335000198334,True,12,-,-,-
PB025M21,3,194,PS,intra_train,27,←,left,←,0.3944020999770146,True,12,-,-,-
PB025M21,3,195,PS,intra_train,35,→,right,→,0.6063674000033643,True,12,-,-,-
PB025M21,3,196,PS,exp,44,↑,up,↑,0.4206871000060346,True,8,0,0,0
PB025M21,3,197,PS,exp,38,←,left,←,0.36033409999799915,True,8,1,0,0
PB025M21,3,198,PS,exp,37,→,right,→,0.5794068000104744,True,7,1,0,0
PB025M21,3,199,PS,exp,29,←,left,←,0.509121100010816,True,7,1,0,0
PB025M21,3,200,PS,exp,34,→,right,→,0.3066139000002295,True,6,1,0,0
PB025M21,3,201,PS,exp,40,←,right,→,0.5776898000040092,False,6,-1,1,1
PB025M21,3,202,PS,exp,46,→,left,←,0.6293805000022985,False,7,-1,0,1
PB025M21,3,203,PS,exp,30,↓,down,↓,0.48630689998390153,True,8,-1,0,1
PB025M21,3,204,PS,exp,48,←,right,→,0.5725306000094861,False,8,-1,0,1
PB025M21,3,205,PS,exp,32,→,right,→,0.5501716999860946,True,9,-1,0,1
PB025M21,3,206,PS,exp,26,←,down,↓,1.1755567999789491,False,9,-1,0,1
PB025M21,3,207,PS,exp,46,→,right,→,0.39767490001395345,True,10,-1,0,1
PB025M21,3,208,PS,exp,26,←,right,→,0.7283357999986038,False,10,-1,0,1
PB025M21,3,209,PS,exp,46,↑,up,↑,0.5577624999859836,True,11,-1,0,1
PB025M21,3,210,PS,exp,32,←,left,←,0.38143020001007244,True,11,1,1,2
PB025M21,3,211,PS,exp,41,↑,up,↑,0.7963393999962136,True,10,1,0,2
PB025M21,3,212,PS,exp,35,←,left,←,0.4173259999952279,True,10,1,0,2
PB025M21,3,213,PS,exp,45,→,right,→,0.4371775000181515,True,9,1,0,2
PB025M21,3,214,PS,exp,28,↑,left,←,0.5457148000132293,False,9,-1,1,3
PB025M21,3,215,PS,exp,30,↓,down,↓,0.5700854000169784,True,10,-1,0,3
PB025M21,3,216,PS,exp,25,←,left,←,0.5484913999971468,True,10,1,1,4
PB025M21,3,217,PS,exp,37,↓,right,→,0.8367717000073753,False,9,-1,1,5
PB025M21,3,218,PS,exp,28,→,down,↓,0.7228411999822129,False,10,-1,0,5
PB025M21,3,219,PS,exp,45,↓,down,↓,0.510571799997706,True,11,-1,0,5
PB025M21,3,220,PS,exp,26,→,right,→,0.48368080001091585,True,11,1,1,6
PB025M21,3,221,PS,exp,25,↓,up,↑,1.175603299983777,False,10,-1,1,7
PB025M21,3,222,PS,exp,42,←,left,←,0.7115239999839105,True,11,-1,0,7
PB025M21,3,223,PS,exp,50,↑,left,←,0.9635778999945614,False,11,-1,0,7
PB025M21,3,224,PS,exp,25,↓,down,↓,0.5664960000140127,True,12,-1,0,7
PB025M21,3,225,PS,exp,31,←,left,←,0.5065615999919828,True,12,1,1,8
PB025M21,3,226,PS,exp,34,↑,right,→,0.6779497999814339,False,11,-1,1,9
PB025M21,3,227,PS,exp,28,↓,down,↓,0.9794988000066951,True,12,-1,0,9
PB025M21,3,228,PS,exp,26,←,left,←,0.7652208000072278,True,12,1,1,10
PB025M21,3,229,PS,exp,33,↑,up,↑,0.5269977000134531,True,11,1,0,10
PB025M21,3,230,PS,exp,26,→,right,→,0.6974969000148121,True,11,1,0,10
PB025M21,3,231,PS,exp,40,↑,down,↓,0.7177311999839731,False,10,-1,1,11
PB025M21,3,232,PS,exp,37,→,right,→,0.5742191000026651,True,11,-1,0,11
PB025M21,3,233,PS,exp,47,↓,down,↓,0.8374251000059303,True,11,1,1,12
PB025M21,3,234,PS,exp,46,↑,right,→,0.668309800006682,False,10,-1,1,13
PB025M21,3,235,PS,exp,41,←,left,←,0.43103700000210665,True,11,-1,0,13
PB025M21,3,236,PS,exp,25,→,right,→,0.4581342999881599,True,11,1,1,14
PB025M21,4,237,AS,intra_train,47,←,left,←,0.47928960001445375,True,16,-,-,-
PB025M21,4,238,AS,intra_train,34,↓,down,↓,0.6079883000056725,True,16,-,-,-
PB025M21,4,239,AS,intra_train,32,→,right,→,0.5693869999959134,True,16,-,-,-
PB025M21,4,240,AS,intra_train,43,←,left,←,0.4005431999976281,True,16,-,-,-
PB025M21,4,241,AS,intra_train,42,↓,left,←,0.40051039998070337,False,16,-,-,-
PB025M21,4,242,AS,exp,39,→,right,→,0.5150737999938428,True,11,0,0,0
PB025M21,4,243,AS,exp,26,↓,down,↓,0.8591065999935381,True,11,1,0,0
PB025M21,4,244,AS,exp,49,←,right,→,0.905965699988883,False,10,-1,1,1
PB025M21,4,245,AS,exp,27,↑,down,↓,1.140110200009076,False,11,-1,0,1
PB025M21,4,246,AS,exp,37,↓,down,↓,0.4204533000010997,True,12,-1,0,1
PB025M21,4,247,AS,exp,27,→,right,→,0.5527198999770917,True,12,1,1,2
PB025M21,4,248,AS,exp,50,↑,up,↑,1.002743199991528,True,11,1,0,2
PB025M21,4,249,AS,exp,38,←,left,←,0.43158269999548793,True,11,1,0,2
PB025M21,4,250,AS,exp,47,↑,up,↑,0.8232403000001796,True,10,1,0,2
PB025M21,4,251,AS,exp,37,←,left,←,0.4402801000105683,True,10,1,0,2
PB025M21,4,252,AS,exp,35,↓,down,↓,0.9014490999979898,True,9,1,0,2
PB025M21,4,253,AS,exp,46,←,right,→,0.6069074000115506,False,9,-1,1,3
PB025M21,4,254,AS,exp,49,↑,up,↑,0.8390089999884367,True,10,-1,0,3
PB025M21,4,255,AS,exp,31,←,right,→,0.5280413000145927,False,10,-1,0,3
PB025M21,4,256,AS,exp,34,→,right,→,0.5491341000015382,True,11,-1,0,3
PB025M21,4,257,AS,exp,31,↑,down,↓,0.7401068999897689,False,11,-1,0,3
PB025M21,4,258,AS,exp,30,→,right,→,0.4959478999953717,True,12,-1,0,3
PB025M21,4,259,AS,exp,34,↑,up,↑,0.8828650999930687,True,12,1,1,4
PB025M21,4,260,AS,exp,30,↓,down,↓,0.6271948000066914,True,11,1,0,4
PB025M21,4,261,AS,exp,50,↑,up,↑,0.8733353999850806,True,11,1,0,4
PB025M21,4,262,AS,exp,31,↓,down,↓,0.9367526000132784,True,10,1,0,4
PB025M21,4,263,AS,exp,29,←,left,←,0.4130699000088498,True,10,1,0,4
PB025M21,4,264,AS,exp,50,↓,right,→,0.8880047000129707,False,9,-1,1,5
PB025M21,4,265,AS,exp,27,←,left,←,0.5777370999858249,True,10,-1,0,5
PB025M21,4,266,AS,exp,41,→,right,→,0.6668912000022829,True,10,1,1,6
PB025M21,4,267,AS,exp,36,←,down,↓,0.8828193999943323,False,9,-1,1,7
PB025M21,4,268,AS,exp,50,→,right,→,0.4396710000000894,True,10,-1,0,7
PB025M21,4,269,AS,exp,33,←,left,←,0.5235378000070341,True,10,1,1,8
PB025M21,4,270,AS,exp,46,→,right,→,0.43429579999065027,True,9,1,0,8
PB025M21,4,271,AS,exp,32,↑,down,↓,1.0513375000155065,False,9,-1,1,9
PB025M21,4,272,AS,exp,49,→,right,→,0.7495359000167809,True,10,-1,0,9
PB025M21,4,273,AS,exp,40,↑,up,↑,0.8515962999954354,True,10,1,1,10
PB025M21,4,274,AS,exp,25,↓,down,↓,1.1306778999860398,True,9,1,0,10
PB025M21,4,275,AS,exp,28,→,right,→,0.46192219998920336,True,9,1,0,10
PB025M21,4,276,AS,exp,44,←,left,←,0.5285287000006065,True,8,1,0,10
PB025M21,4,277,AS,exp,44,↑,up,↑,0.753138800006127,True,8,1,0,10
PB025M21,4,278,AS,exp,35,→,right,→,0.41533619997790083,True,7,1,0,10
PB025M21,4,279,AS,exp,39,↑,up,↑,0.5342439000087325,True,7,1,0,10
PB025M21,4,280,AS,exp,35,→,right,→,0.4189854999713134,True,6,1,0,10
PB025M21,4,281,AS,exp,32,↓,left,←,0.9004568999807816,False,6,-1,1,11
PB025M21,4,282,AS,exp,49,←,left,←,0.4297721999755595,True,7,-1,0,11
PB025M21,4,283,AS,exp,33,→,right,→,0.4114970000227913,True,7,1,1,12
PB025M21,4,284,AS,exp,49,←,left,←,0.35748759997659363,True,6,1,0,12
PB025M21,4,285,AS,exp,31,↑,down,↓,0.7489754999987781,False,6,-1,1,13
PB025M21,4,286,AS,exp,37,→,right,→,0.4741908999858424,True,7,-1,0,13
PB025M21,4,287,AS,exp,38,↑,up,↑,0.4684537000139244,True,7,1,1,14
PB025M21,5,288,AS,intra_train,41,→,right,→,0.6808927000092808,True,16,-,-,-
PB025M21,5,289,AS,intra_train,37,↑,up,↑,0.6089952999900561,True,16,-,-,-
PB025M21,5,290,AS,intra_train,28,↓,down,↓,0.780569700000342,True,16,-,-,-
PB025M21,5,291,AS,intra_train,34,←,left,←,0.38357010000618175,True,16,-,-,-
PB025M21,5,292,AS,intra_train,28,→,right,→,0.5463419000152498,True,16,-,-,-
PB025M21,5,293,AS,exp,35,←,right,→,0.6470593999838457,False,11,-1,0,0
PB025M21,5,294,AS,exp,35,→,right,→,0.4938886000018101,True,12,-1,0,0
PB025M21,5,295,AS,exp,31,↑,up,↑,0.5027106000052299,True,12,1,1,1
PB025M21,5,296,AS,exp,37,←,left,←,0.4427914999832865,True,11,1,0,1
PB025M21,5,297,AS,exp,36,→,right,→,0.31700009998166934,True,11,1,0,1
PB025M21,5,298,AS,exp,33,↓,left,←,0.33992050000233576,False,10,-1,1,2
PB025M21,5,299,AS,exp,46,→,right,→,0.39900679999846034,True,11,-1,0,2
PB025M21,5,300,AS,exp,49,↓,up,↑,0.7986741000204347,False,11,-1,0,2
PB025M21,5,301,AS,exp,37,→,right,→,0.405542599997716,True,12,-1,0,2
PB025M21,5,302,AS,exp,50,←,left,←,0.5109306999947876,True,12,1,1,3
PB025M21,5,303,AS,exp,44,→,right,→,0.3720408000226598,True,11,1,0,3
PB025M21,5,304,AS,exp,47,←,left,←,0.6364158000214957,True,11,1,0,3
PB025M21,5,305,AS,exp,31,↓,down,↓,0.47828139999182895,True,10,1,0,3
PB025M21,5,306,AS,exp,46,←,right,→,0.6281606999982614,False,10,-1,1,4
PB025M21,5,307,AS,exp,30,↑,up,↑,0.8223154000006616,True,11,-1,0,4
PB025M21,5,308,AS,exp,35,↓,down,↓,0.5057625999907032,True,11,1,1,5
PB025M21,5,309,AS,exp,32,↑,up,↑,0.6502570000011474,True,10,1,0,5
PB025M21,5,310,AS,exp,25,→,right,→,0.40509000001475215,True,10,1,0,5
PB025M21,5,311,AS,exp,30,←,right,→,0.556242899998324,False,9,-1,1,6
PB025M21,5,312,AS,exp,30,↓,down,↓,0.352843100001337,True,10,-1,0,6
PB025M21,5,313,AS,exp,37,↑,down,↓,0.6159890000126325,False,10,-1,0,6
PB025M21,5,314,AS,exp,33,→,right,→,0.4080651999975089,True,11,-1,0,6
PB025M21,5,315,AS,exp,27,↓,down,↓,0.6246059999975841,True,11,1,1,7
PB025M21,5,316,AS,exp,47,↑,down,↓,1.1143769999907818,False,10,-1,1,8
PB025M21,5,317,AS,exp,26,→,right,→,0.4221568999928422,True,11,-1,0,8
PB025M21,5,318,AS,exp,40,↑,up,↑,0.6047494999947958,True,11,1,1,9
PB025M21,5,319,AS,exp,37,→,right,→,0.4139067999785766,True,10,1,0,9
PB025M21,5,320,AS,exp,29,↓,down,↓,0.6600731000071391,True,10,1,0,9
PB025M21,5,321,AS,exp,48,←,left,←,0.41690620000008494,True,9,1,0,9
PB025M21,5,322,AS,exp,27,↑,left,←,1.527822100004414,False,9,-1,1,10
PB025M21,5,323,AS,exp,33,↓,down,↓,0.6719210000010207,True,10,-1,0,10
PB025M21,5,324,AS,exp,36,→,up,↑,0.7755659999966156,False,10,-1,0,10
PB025M21,5,325,AS,exp,40,↓,down,↓,0.5603935999970417,True,11,-1,0,10
PB025M21,5,326,AS,exp,25,→,left,←,0.8661994000140112,False,11,-1,0,10
PB025M21,5,327,AS,exp,29,←,right,→,0.6769203000003472,False,12,-1,0,10
PB025M21,5,328,AS,exp,30,↑,down,↓,1.370478600001661,False,13,-1,0,10
PB025M21,5,329,AS,exp,26,←,left,←,0.7118762999889441,True,14,-1,0,10
PB025M21,5,330,AS,exp,28,↑,down,↓,0.8473891000030562,False,14,-1,0,10
PB025M21,5,331,AS,exp,33,→,right,→,0.8097002999857068,True,15,-1,0,10
PB025M21,5,332,AS,exp,29,↓,down,↓,0.7680888999893796,True,15,1,1,11
PB025M21,5,333,AS,exp,34,→,right,→,0.459344200004125,True,14,1,0,11
PB025M21,5,334,AS,exp,45,↑,up,↑,0.769382400001632,True,14,1,0,11
PB025M21,5,335,AS,exp,25,→,right,→,0.7143417999905068,True,13,1,0,11
PB025M21,5,336,AS,exp,48,←,left,←,1.3518929999845568,True,13,1,0,11
PB025M21,5,337,AS,exp,38,↓,down,↓,0.37572449998697266,True,12,1,0,11
PB025M21,5,338,AS,exp,34,←,left,←,1.031250200001523,True,12,1,0,11
PB025M21,5,339,AS,exp,50,→,right,→,0.45567470000241883,True,11,1,0,11
PB025M21,5,340,AS,exp,42,↓,down,↓,1.3009263999992982,True,11,1,0,11
PB025M21,5,341,AS,exp,37,↑,up,↑,0.6983966999978293,True,10,1,0,11
PB025M21,5,342,AS,exp,25,→,right,→,0.6331548999878578,True,10,1,0,11
PB025M21,5,343,AS,exp,32,↓,down,↓,0.41540689999237657,True,9,1,0,11
PB025M21,5,344,AS,exp,43,→,left,←,0.3746529000054579,False,9,-1,1,12
PB025M21,5,345,AS,exp,36,↑,up,↑,0.4301768000004813,True,10,-1,0,12
PB025M21,5,346,AS,exp,45,←,left,←,0.4541390999802388,True,10,1,1,13
PB025M21,5,347,AS,exp,49,→,right,→,0.6711460999795236,True,9,1,0,13
PB025M21,5,348,AS,exp,46,←,left,←,0.4863980999798514,True,9,1,0,13
PB025M21,5,349,AS,exp,49,→,right,→,0.4537995000137016,True,8,1,0,13
PB025M21,5,350,AS,exp,43,↓,down,↓,0.5896262000023853,True,8,1,0,13
PB025M21,5,351,AS,exp,33,→,right,→,0.5685767999966629,True,7,1,0,13
PB025M21,5,352,AS,exp,27,↑,right,→,0.6627380999852903,False,7,-1,1,14
PB025M21,6,353,PS,intra_train,40,→,right,→,0.7930653000075836,True,12,-,-,-
PB025M21,6,354,PS,intra_train,38,←,left,←,0.36895730000105686,True,12,-,-,-
PB025M21,6,355,PS,intra_train,27,↓,down,↓,1.0341743000026327,True,12,-,-,-
PB025M21,6,356,PS,intra_train,46,↑,right,→,0.7883130999980494,False,12,-,-,-
PB025M21,6,357,PS,intra_train,47,→,right,→,0.67365339997923,True,12,-,-,-
PB025M21,6,358,PS,exp,46,←,left,←,0.420320899982471,True,8,0,0,0
PB025M21,6,359,PS,exp,38,↓,up,↑,0.7848518000100739,False,8,-1,0,0
PB025M21,6,360,PS,exp,42,←,right,→,0.6012389000097755,False,9,-1,0,0
PB025M21,6,361,PS,exp,38,→,right,→,0.3971142999944277,True,10,-1,0,0
PB025M21,6,362,PS,exp,50,↓,down,↓,0.4246852000069339,True,10,1,1,1
PB025M21,6,363,PS,exp,26,↑,left,←,0.7770300999982283,False,9,-1,1,2
PB025M21,6,364,PS,exp,34,←,left,←,0.4154174000141211,True,10,-1,0,2
PB025M21,6,365,PS,exp,45,→,down,↓,0.6794277000008151,False,10,-1,0,2
PB025M21,6,366,PS,exp,36,↑,right,→,0.7243090999836568,False,11,-1,0,2
PB025M21,6,367,PS,exp,25,←,left,←,0.46143840000149794,True,12,-1,0,2
PB025M21,6,368,PS,exp,43,↑,up,↑,0.4021643000014592,True,12,1,1,3
PB025M21,6,369,PS,exp,44,←,left,←,0.3170578999852296,True,11,1,0,3
PB025M21,6,370,PS,exp,44,↓,down,↓,0.46366400000988506,True,11,1,0,3
PB025M21,6,371,PS,exp,47,↑,up,↑,0.8191552999778651,True,10,1,0,3
PB025M21,6,372,PS,exp,42,↓,down,↓,0.3772622999968007,True,10,1,0,3
PB025M21,6,373,PS,exp,39,→,right,→,0.4489179000083823,True,9,1,0,3
PB025M21,6,374,PS,exp,41,↓,down,↓,0.43837380001787096,True,9,1,0,3
PB025M21,6,375,PS,exp,50,→,right,→,0.38948270000400953,True,8,1,0,3
PB025M21,6,376,PS,exp,35,↓,down,↓,0.3553263999929186,True,8,1,0,3
PB025M21,6,377,PS,exp,33,↑,up,↑,0.8064874999981839,True,7,1,0,3
PB025M21,6,378,PS,exp,31,→,left,←,0.6385185999970417,False,7,-1,1,4
PB025M21,6,379,PS,exp,31,↑,left,←,0.6032814999925904,False,8,-1,0,4
PB025M21,6,380,PS,exp,25,↓,down,↓,0.347651499992935,True,9,-1,0,4
PB025M21,6,381,PS,exp,30,↑,up,↑,0.3615227000263985,True,9,1,1,5
PB025M21,6,382,PS,exp,40,→,right,→,0.5595009000098798,True,8,1,0,5
PB025M21,6,383,PS,exp,35,↑,up,↑,0.4529511999862734,True,8,1,0,5
PB025M21,6,384,PS,exp,30,↓,down,↓,0.5312933000095654,True,7,1,0,5
PB025M21,6,385,PS,exp,43,←,right,→,0.39091929999995045,False,7,-1,1,6
PB025M21,6,386,PS,exp,33,→,down,↓,0.47926550000556745,False,8,-1,0,6
PB025M21,6,387,PS,exp,30,↓,down,↓,0.462880299979588,True,9,-1,0,6
PB025M21,6,388,PS,exp,39,→,left,←,0.7660487000248395,False,9,-1,0,6
PB025M21,6,389,PS,exp,45,←,left,←,0.39857459999620914,True,10,-1,0,6
PB025M21,6,390,PS,exp,37,→,right,→,0.3721246999921277,True,10,1,1,7
PB025M21,6,391,PS,exp,42,↑,right,→,0.5132448000076693,False,9,-1,1,8
PB025M21,6,392,PS,exp,34,→,right,→,0.43967239998164587,True,10,-1,0,8
PB025M21,6,393,PS,exp,44,↑,down,↓,0.5966817999724299,False,10,-1,0,8
PB025M21,6,394,PS,exp,47,→,right,→,0.5943406999867875,True,11,-1,0,8
PB025M21,6,395,PS,exp,26,↓,down,↓,0.43958390000625513,True,11,1,1,9
PB025M21,6,396,PS,exp,28,←,left,←,0.570184700016398,True,10,1,0,9
PB025M21,6,397,PS,exp,35,↓,down,↓,0.4219660999951884,True,10,1,0,9
PB025M21,6,398,PS,exp,28,↑,up,↑,0.6099195000133477,True,9,1,0,9
PB025M21,6,399,PS,exp,41,↓,right,→,0.6446669999859296,False,9,-1,1,10
PB025M21,6,400,PS,exp,44,←,left,←,1.3925104000081774,True,10,-1,0,10
PB025M21,6,401,PS,exp,45,→,right,→,0.48136999999405816,True,10,1,1,11
PB025M21,6,402,PS,exp,46,↑,up,↑,0.36128750001080334,True,9,1,0,11
PB025M21,6,403,PS,exp,27,→,right,→,0.42146660000435077,True,9,1,0,11
PB025M21,6,404,PS,exp,36,↑,right,→,0.681322700023884,False,8,-1,1,12
PB025M21,6,405,PS,exp,29,→,right,→,0.5359046999947168,True,9,-1,0,12
PB025M21,6,406,PS,exp,36,↓,down,↓,0.34774389999802224,True,9,1,1,13
PB025M21,6,407,PS,exp,41,←,left,←,0.5085929000051692,True,8,1,0,13
PB025M21,6,408,PS,exp,25,↓,right,→,0.5754305000009481,False,8,-1,1,14
PB025M21,7,409,PS,intra_train,41,→,right,→,0.3914507000008598,True,12,-,-,-
PB025M21,7,410,PS,intra_train,34,←,left,←,0.4758576999884099,True,12,-,-,-
PB025M21,7,411,PS,intra_train,44,→,right,→,1.024359800008824,True,12,-,-,-
PB025M21,7,412,PS,intra_train,26,↑,up,↑,0.484928799996851,True,12,-,-,-
PB025M21,7,413,PS,intra_train,42,←,left,←,0.41244230000302196,True,12,-,-,-
PB025M21,7,414,PS,exp,32,↑,up,↑,0.7498131000029389,True,8,0,0,0
PB025M21,7,415,PS,exp,41,←,left,←,0.5753960000001825,True,8,1,0,0
PB025M21,7,416,PS,exp,34,→,right,→,0.38288200000533834,True,7,1,0,0
PB025M21,7,417,PS,exp,25,↓,left,←,0.5217399000248406,False,7,-1,1,1
PB025M21,7,418,PS,exp,45,←,down,↓,0.6565211999986786,False,8,-1,0,1
PB025M21,7,419,PS,exp,30,↓,down,↓,0.5663466999831144,True,9,-1,0,1
PB025M21,7,420,PS,exp,25,→,right,→,0.5706160000117961,True,9,1,1,2
PB025M21,7,421,PS,exp,34,←,left,←,0.3805495999986306,True,8,1,0,2
PB025M21,7,422,PS,exp,43,↑,down,↓,0.6042470000102185,False,8,-1,1,3
PB025M21,7,423,PS,exp,28,→,right,→,0.33933909999905154,True,9,-1,0,3
PB025M21,7,424,PS,exp,25,←,left,←,0.44065899998531677,True,9,1,1,4
PB025M21,7,425,PS,exp,46,↑,left,←,0.5415137000090908,False,8,-1,1,5
PB025M21,7,426,PS,exp,32,↓,down,↓,0.40066340001067147,True,9,-1,0,5
PB025M21,7,427,PS,exp,28,←,right,→,0.686808900005417,False,9,-1,0,5
PB025M21,7,428,PS,exp,42,↓,left,←,0.8060250999988057,False,10,-1,0,5
PB025M21,7,429,PS,exp,48,→,right,→,0.418769500014605,True,11,-1,0,5
PB025M21,7,430,PS,exp,30,↓,down,↓,0.5809939000173472,True,11,1,1,6
PB025M21,7,431,PS,exp,43,↑,up,↑,0.5087125000136439,True,10,1,0,6
PB025M21,7,432,PS,exp,32,↓,down,↓,0.5649106000200845,True,10,1,0,6
PB025M21,7,433,PS,exp,33,→,right,→,0.32857360001071356,True,9,1,0,6
PB025M21,7,434,PS,exp,44,↓,down,↓,0.5437560999998823,True,9,1,0,6
PB025M21,7,435,PS,exp,28,←,right,→,0.5503076000022702,False,8,-1,1,7
PB025M21,7,436,PS,exp,43,→,right,→,0.3775438999873586,True,9,-1,0,7
PB025M21,7,437,PS,exp,36,↑,down,↓,0.7762959000247065,False,9,-1,0,7
PB025M21,7,438,PS,exp,49,→,right,→,0.34309310000389814,True,10,-1,0,7
PB025M21,7,439,PS,exp,47,←,down,↓,0.7454186000104528,False,10,-1,0,7
PB025M21,7,440,PS,exp,25,→,right,→,0.41894000000320375,True,11,-1,0,7
PB025M21,7,441,PS,exp,37,↓,right,→,0.6866527000092901,False,11,-1,0,7
PB025M21,7,442,PS,exp,50,↑,up,↑,0.5890421000076458,True,12,-1,0,7
PB025M21,7,443,PS,exp,37,→,right,→,0.5395936999993864,True,12,1,1,8
PB025M21,7,444,PS,exp,41,↓,down,↓,0.5561602000088897,True,11,1,0,8
PB025M21,7,445,PS,exp,26,→,right,→,0.5240999000088777,True,11,1,0,8
PB025M21,7,446,PS,exp,36,←,left,←,0.39547670001047663,True,10,1,0,8
PB025M21,7,447,PS,exp,44,↑,up,↑,0.4277505000063684,True,10,1,0,8
PB025M21,7,448,PS,exp,35,↓,down,↓,0.5298991999879945,True,9,1,0,8
PB025M21,7,449,PS,exp,32,→,right,→,0.4059680000063963,True,9,1,0,8
PB025M21,7,450,PS,exp,47,←,left,←,0.4032043000042904,True,8,1,0,8
PB025M21,7,451,PS,exp,41,→,left,←,0.7114628000126686,False,8,-1,1,9
PB025M21,7,452,PS,exp,37,←,left,←,0.5309890999924392,True,9,-1,0,9
PB025M21,7,453,PS,exp,29,→,right,→,0.5565981999970973,True,9,1,1,10
PB025M21,7,454,PS,exp,28,↓,down,↓,0.4464270000171382,True,8,1,0,10
PB025M21,7,455,PS,exp,28,→,right,→,0.5384512000018731,True,8,1,0,10
PB025M21,7,456,PS,exp,37,←,up,↑,0.7708331999892835,False,7,-1,1,11
PB025M21,7,457,PS,exp,37,→,left,←,0.6620030000049155,False,8,-1,0,11
PB025M21,7,458,PS,exp,38,↓,down,↓,0.7231799000001047,True,9,-1,0,11
PB025M21,7,459,PS,exp,47,→,right,→,0.697934299998451,True,9,1,1,12
PB025M21,7,460,PS,exp,31,↑,up,↑,0.42830589998629875,True,8,1,0,12
PB025M21,7,461,PS,exp,25,↓,down,↓,0.7177872000029311,True,8,1,0,12
PB025M21,7,462,PS,exp,35,→,right,→,0.5037581999786198,True,7,1,0,12
PB025M21,7,463,PS,exp,44,←,left,←,0.49623160000192,True,7,1,0,12
PB025M21,7,464,PS,exp,49,↑,down,↓,1.2108885000052396,False,6,-1,1,13
PB025M21,7,465,PS,exp,41,↓,down,↓,0.3946449999930337,True,7,-1,0,13
PB025M21,7,466,PS,exp,43,←,left,←,0.3730050000012852,True,7,1,1,14
PB025M21,8,467,AS,intra_train,49,↑,down,↓,0.9213869000086561,False,16,-,-,-
PB025M21,8,468,AS,intra_train,29,→,right,→,0.4599586999975145,True,16,-,-,-
PB025M21,8,469,AS,intra_train,48,↑,up,↑,0.661269700009143,True,16,-,-,-
PB025M21,8,470,AS,intra_train,34,→,right,→,0.5972881000197958,True,16,-,-,-
PB025M21,8,471,AS,intra_train,46,←,no_key,no_letter,-1.0,False,16,-,-,-
PB025M21,8,472,AS,exp,27,↑,up,↑,0.9527775000024121,True,11,0,0,0
PB025M21,8,473,AS,exp,46,↓,down,↓,0.3536069999972824,True,11,1,0,0
PB025M21,8,474,AS,exp,45,→,right,→,0.5556103000126313,True,10,1,0,0
PB025M21,8,475,AS,exp,25,↑,right,→,0.7316031999944244,False,10,-1,1,1
PB025M21,8,476,AS,exp,27,↓,down,↓,0.6584220999793615,True,11,-1,0,1
PB025M21,8,477,AS,exp,32,←,left,←,0.5966036000172608,True,11,1,1,2
PB025M21,8,478,AS,exp,25,↓,down,↓,0.5362441999895964,True,10,1,0,2
PB025M21,8,479,AS,exp,25,→,right,→,0.47550989998853765,True,10,1,0,2
PB025M21,8,480,AS,exp,43,↑,up,↑,0.5752417000185233,True,9,1,0,2
PB025M21,8,481,AS,exp,38,←,right,→,0.6581556999881286,False,9,-1,1,3
PB025M21,8,482,AS,exp,40,→,right,→,0.6421927999763284,True,10,-1,0,3
PB025M21,8,483,AS,exp,43,↑,up,↑,0.6149666999990586,True,10,1,1,4
PB025M21,8,484,AS,exp,38,↓,down,↓,0.5991234999964945,True,9,1,0,4
PB025M21,8,485,AS,exp,44,↑,up,↑,0.6264128999901004,True,9,1,0,4
PB025M21,8,486,AS,exp,46,←,right,→,0.8882050999964122,False,8,-1,1,5
PB025M21,8,487,AS,exp,38,→,left,←,1.19160049999482,False,9,-1,0,5
PB025M21,8,488,AS,exp,25,↓,down,↓,0.5588793999922927,True,10,-1,0,5
PB025M21,8,489,AS,exp,30,←,up,↑,0.5322717999806628,False,10,-1,0,5
PB025M21,8,490,AS,exp,45,↓,down,↓,0.5118229999789037,True,11,-1,0,5
PB025M21,8,491,AS,exp,39,↑,down,↓,0.7376510000030976,False,11,-1,0,5
PB025M21,8,492,AS,exp,33,→,right,→,0.4502343999920413,True,12,-1,0,5
PB025M21,8,493,AS,exp,49,↑,down,↓,0.6669991999806371,False,12,-1,0,5
PB025M21,8,494,AS,exp,30,←,left,←,0.46371010001166724,True,13,-1,0,5
PB025M21,8,495,AS,exp,47,↑,up,↑,0.5349077999999281,True,13,1,1,6
PB025M21,8,496,AS,exp,27,←,left,←,0.5372321000031661,True,12,1,0,6
PB025M21,8,497,AS,exp,29,→,right,→,0.5203408999950625,True,12,1,0,6
PB025M21,8,498,AS,exp,25,←,left,←,0.5382134999963455,True,11,1,0,6
PB025M21,8,499,AS,exp,39,↑,up,↑,0.607934200001182,True,11,1,0,6
PB025M21,8,500,AS,exp,47,↓,down,↓,0.4327632999920752,True,10,1,0,6
PB025M21,8,501,AS,exp,42,←,left,←,0.48260499999742024,True,10,1,0,6
PB025M21,8,502,AS,exp,43,→,right,→,0.6783859000133816,True,9,1,0,6
PB025M21,8,503,AS,exp,32,←,left,←,0.8616190000029746,True,9,1,0,6
PB025M21,8,504,AS,exp,35,→,right,→,0.42490060001728125,True,8,1,0,6
PB025M21,8,505,AS,exp,34,←,left,←,0.5266308999853209,True,8,1,0,6
PB025M21,8,506,AS,exp,27,→,right,→,0.3920957000227645,True,7,1,0,6
PB025M21,8,507,AS,exp,44,↓,down,↓,0.3470898999948986,True,7,1,0,6
PB025M21,8,508,AS,exp,33,↑,up,↑,0.8882218000071589,True,6,1,0,6
PB025M21,8,509,AS,exp,47,↓,down,↓,0.4333679999981541,True,6,1,0,6
PB025M21,8,510,AS,exp,50,↑,right,→,0.5861228999856394,False,5,-1,1,7
PB025M21,8,511,AS,exp,38,↓,down,↓,0.40783049998572096,True,6,-1,0,7
PB025M21,8,512,AS,exp,32,→,right,→,0.5397623000026215,True,6,1,1,8
PB025M21,8,513,AS,exp,40,←,down,↓,0.5975663999852259,False,5,-1,1,9
PB025M21,8,514,AS,exp,35,↓,right,→,0.8810104999865871,False,6,-1,0,9
PB025M21,8,515,AS,exp,36,↑,down,↓,0.6895950000034645,False,7,-1,0,9
PB025M21,8,516,AS,exp,40,→,right,→,0.5912994999962393,True,8,-1,0,9
PB025M21,8,517,AS,exp,27,←,left,←,0.9791343999968376,True,8,1,1,10
PB025M21,8,518,AS,exp,27,↑,up,↑,0.6537827999854926,True,7,1,0,10
PB025M21,8,519,AS,exp,25,↓,down,↓,0.5534294999961276,True,7,1,0,10
PB025M21,8,520,AS,exp,31,←,left,←,1.637661399989156,True,6,1,0,10
PB025M21,8,521,AS,exp,40,↓,down,↓,0.34915389999514446,True,6,1,0,10
PB025M21,8,522,AS,exp,40,↑,down,↓,0.9250954999879468,False,5,-1,1,11
PB025M21,8,523,AS,exp,50,↓,down,↓,0.4400467000086792,True,6,-1,0,11
PB025M21,8,524,AS,exp,47,→,up,↑,0.8013506999996025,False,6,-1,0,11
PB025M21,8,525,AS,exp,48,←,left,←,0.42492079999647103,True,7,-1,0,11
PB025M21,8,526,AS,exp,38,→,right,→,0.7796673999982886,True,7,1,1,12
PB025M21,8,527,AS,exp,31,↑,up,↑,0.5158528999891132,True,6,1,0,12
PB025M21,8,528,AS,exp,41,↓,up,↑,0.69124240000383,False,6,-1,1,13
PB025M21,8,529,AS,exp,29,↑,down,↓,0.7683239000034519,False,7,-1,0,13
PB025M21,8,530,AS,exp,25,→,right,→,0.3932296999846585,True,8,-1,0,13
PB025M21,8,531,AS,exp,33,←,left,←,1.5493947999784723,True,8,1,1,14
