PART_ID,Block_no,Trial_no,Block_type,Trial_type,CSI,Stim_letter,Key_pressed,letter_choose,Rt,Corr,Stimulus Time,Level,Reversal,Revs_count
PB037M21,1,1,PS,train,31,↓,right,→,0.41774420003639534,False,30,-,-,-
PB037M21,1,2,PS,train,33,↑,left,←,0.3677183000254445,False,30,-,-,-
PB037M21,1,3,PS,train,30,→,right,→,0.5670660000178032,True,30,-,-,-
PB037M21,1,4,PS,train,49,↓,left,←,1.760442900005728,False,30,-,-,-
PB037M21,1,5,PS,train,30,←,left,←,0.5670229000388645,True,30,-,-,-
PB037M21,1,6,PS,train,37,↓,down,↓,0.5836775000207126,True,30,-,-,-
PB037M21,1,7,PS,train,28,→,right,→,0.533714700024575,True,30,-,-,-
PB037M21,1,8,PS,train,45,←,left,←,0.4342935999738984,True,30,-,-,-
PB037M21,1,9,PS,train,38,↑,up,↑,0.633613999991212,True,30,-,-,-
PB037M21,1,10,PS,train,49,↓,down,↓,0.5670760000357404,True,30,-,-,-
PB037M21,2,11,AS,train,25,→,right,→,0.8677345999749377,True,45,-,-,-
PB037M21,2,12,AS,train,25,↓,down,↓,0.7179952000151388,True,45,-,-,-
PB037M21,2,13,AS,train,40,↑,up,↑,0.8505119000328705,True,45,-,-,-
PB037M21,2,14,AS,train,33,←,left,←,0.8670607000240125,True,45,-,-,-
PB037M21,2,15,AS,train,39,↓,down,↓,0.7177910000318661,True,45,-,-,-
PB037M21,2,16,AS,train,47,←,down,↓,2.386752799968235,False,45,-,-,-
PB037M21,2,17,AS,train,33,↑,up,↑,0.7336681000306271,True,45,-,-,-
PB037M21,2,18,AS,train,50,→,right,→,0.8506721999729052,True,45,-,-,-
PB037M21,2,19,AS,train,34,↓,down,↓,0.6845923999790102,True,45,-,-,-
PB037M21,2,20,AS,train,42,←,left,←,0.8837877999758348,True,45,-,-,-
PB037M21,-,21,PS,adaptive,39,↓,down,↓,0.578883100009989,True,10,0,0,0
PB037M21,-,22,PS,adaptive,41,→,right,→,0.4273453999776393,True,10,1,0,0
PB037M21,-,23,PS,adaptive,47,←,left,←,0.9979619999649003,True,9,1,0,0
PB037M21,-,24,PS,adaptive,32,↓,down,↓,0.4968868999858387,True,9,1,0,0
PB037M21,-,25,PS,adaptive,39,↑,up,↑,0.5776295000105165,True,8,1,0,0
PB037M21,-,26,PS,adaptive,33,→,right,→,0.6328894000034779,True,8,1,0,0
PB037M21,-,27,PS,adaptive,26,↑,up,↑,0.9008944999659434,True,7,1,0,0
PB037M21,-,28,PS,adaptive,32,↓,down,↓,0.5368937000166625,True,7,1,0,0
PB037M21,-,29,PS,adaptive,37,→,up,↑,0.6032581000472419,False,6,-1,1,1
PB037M21,-,30,PS,adaptive,45,←,right,→,0.5067856999812648,False,7,-1,0,1
PB037M21,-,31,PS,adaptive,32,→,right,→,0.7472035000100732,True,8,-1,0,1
PB037M21,-,32,PS,adaptive,34,↓,down,↓,0.6139032000210136,True,8,1,1,2
PB037M21,-,33,PS,adaptive,31,↑,left,←,1.1299269999726675,False,7,-1,1,3
PB037M21,-,34,PS,adaptive,26,←,left,←,0.5814268999965861,True,8,-1,0,3
PB037M21,-,35,PS,adaptive,50,↑,up,↑,0.557340600003954,True,8,1,1,4
PB037M21,-,36,AS,adaptive,49,→,right,→,0.7795856000157073,True,20,0,0,0
PB037M21,-,37,AS,adaptive,39,↓,down,↓,0.6946970999706537,True,20,1,0,0
PB037M21,-,38,AS,adaptive,30,←,left,←,0.9158042999915779,True,19,1,0,0
PB037M21,-,39,AS,adaptive,44,↑,right,→,1.2603992000222206,False,19,-1,1,1
PB037M21,-,40,AS,adaptive,48,→,left,←,0.9399841999984346,False,20,-1,0,1
PB037M21,-,41,AS,adaptive,46,↑,up,↑,0.7804934000014327,True,21,-1,0,1
PB037M21,-,42,AS,adaptive,36,↓,right,→,1.088222099991981,False,21,-1,0,1
PB037M21,-,43,AS,adaptive,42,→,left,←,1.0110345999710262,False,22,-1,0,1
PB037M21,-,44,AS,adaptive,35,←,left,←,0.7635126000386663,True,23,-1,0,1
PB037M21,-,45,AS,adaptive,31,↓,left,←,0.9771246000309475,False,23,-1,0,1
PB037M21,-,46,AS,adaptive,33,↑,right,→,0.8861982999951579,False,24,-1,0,1
PB037M21,-,47,AS,adaptive,32,→,right,→,0.7214059000252746,True,25,-1,0,1
PB037M21,-,48,AS,adaptive,41,↓,left,←,0.9380971000064164,False,25,-1,0,1
PB037M21,-,49,AS,adaptive,26,↑,right,→,0.8435150999575853,False,26,-1,0,1
PB037M21,-,50,AS,adaptive,33,→,right,→,0.8137607999960892,True,27,-1,0,1
PB037M21,-,51,AS,adaptive,29,↑,up,↑,1.7067884000134654,True,27,1,1,2
PB037M21,-,52,AS,adaptive,34,→,right,→,0.7432606000220403,True,26,1,0,2
PB037M21,-,53,AS,adaptive,34,↓,up,↑,0.8591808000346646,False,26,-1,1,3
PB037M21,-,54,AS,adaptive,26,→,right,→,0.8313616000232287,True,27,-1,0,3
PB037M21,-,55,AS,adaptive,38,←,right,→,0.7527247999678366,False,27,-1,0,3
PB037M21,-,56,AS,adaptive,49,↓,up,↑,0.8999041999923065,False,28,-1,0,3
PB037M21,-,57,AS,adaptive,32,↑,up,↑,0.9124427999486215,True,29,-1,0,3
PB037M21,-,58,AS,adaptive,39,→,no_key,no_letter,-1.0,False,29,-1,0,3
PB037M21,-,59,AS,adaptive,42,↓,right,→,0.8016547000152059,False,30,-1,0,3
PB037M21,-,60,AS,adaptive,32,→,right,→,0.7461150999879465,True,31,-1,0,3
PB037M21,-,61,AS,adaptive,28,←,left,←,0.8834899000357836,True,31,1,1,4
PB037M21,1,62,PS,intra_train,50,↓,left,←,0.7842923999996856,False,10,-,-,-
PB037M21,1,63,PS,intra_train,45,←,left,←,0.5491352999815717,True,10,-,-,-
PB037M21,1,64,PS,intra_train,39,↓,left,←,0.8430280999746174,False,10,-,-,-
PB037M21,1,65,PS,intra_train,35,←,left,←,0.546512300032191,True,10,-,-,-
PB037M21,1,66,PS,intra_train,39,→,right,→,0.619179199973587,True,10,-,-,-
PB037M21,1,67,PS,exp,30,←,left,←,0.5794925999944098,True,7,0,0,0
PB037M21,1,68,PS,exp,35,→,left,←,1.1743466999614611,False,7,-1,0,0
PB037M21,1,69,PS,exp,41,←,left,←,0.6014065999770537,True,8,-1,0,0
PB037M21,1,70,PS,exp,30,↑,left,←,0.5953317999956198,False,8,-1,0,0
PB037M21,1,71,PS,exp,33,→,right,→,0.5704163000336848,True,9,-1,0,0
PB037M21,1,72,PS,exp,27,↓,left,←,0.5962605999666266,False,9,-1,0,0
PB037M21,1,73,PS,exp,32,←,left,←,0.6495855000102893,True,10,-1,0,0
PB037M21,1,74,PS,exp,25,→,right,→,0.539218699967023,True,10,1,1,1
PB037M21,1,75,PS,exp,50,↓,right,→,0.7787932999781333,False,9,-1,1,2
PB037M21,1,76,PS,exp,39,↑,left,←,0.5850258999853395,False,10,-1,0,2
PB037M21,1,77,PS,exp,26,←,left,←,0.4760602000169456,True,11,-1,0,2
PB037M21,1,78,PS,exp,40,→,right,→,0.4225916999857873,True,11,1,1,3
PB037M21,1,79,PS,exp,29,↓,left,←,0.5380604999954812,False,10,-1,1,4
PB037M21,1,80,PS,exp,32,→,right,→,0.3786897000391036,True,11,-1,0,4
PB037M21,1,81,PS,exp,34,↑,up,↑,0.6081312000169419,True,11,1,1,5
PB037M21,1,82,PS,exp,50,←,left,←,0.4088427999522537,True,10,1,0,5
PB037M21,1,83,PS,exp,50,↓,down,↓,0.5943115999689326,True,10,1,0,5
PB037M21,1,84,PS,exp,38,→,right,→,0.6591696999967098,True,9,1,0,5
PB037M21,1,85,PS,exp,35,←,right,→,0.4874431000207551,False,9,-1,1,6
PB037M21,1,86,PS,exp,31,↑,up,↑,0.6463876999914646,True,10,-1,0,6
PB037M21,1,87,PS,exp,37,←,left,←,0.6419393999967724,True,10,1,1,7
PB037M21,1,88,PS,exp,25,→,right,→,0.45926640002289787,True,9,1,0,7
PB037M21,1,89,PS,exp,47,↓,down,↓,0.5352345000137575,True,9,1,0,7
PB037M21,1,90,PS,exp,35,←,left,←,0.548820500029251,True,8,1,0,7
PB037M21,1,91,PS,exp,49,→,right,→,0.5004185999860056,True,8,1,0,7
PB037M21,1,92,PS,exp,50,↑,up,↑,0.48987660004058853,True,7,1,0,7
PB037M21,1,93,PS,exp,36,→,right,→,0.5082606000360101,True,7,1,0,7
PB037M21,1,94,PS,exp,49,↑,up,↑,0.517077500000596,True,6,1,0,7
PB037M21,1,95,PS,exp,38,→,right,→,0.6117985000018962,True,6,1,0,7
PB037M21,1,96,PS,exp,27,↑,left,←,0.9722376999561675,False,5,-1,1,8
PB037M21,1,97,PS,exp,35,←,right,→,0.6392106999992393,False,6,-1,0,8
PB037M21,1,98,PS,exp,26,→,right,→,0.5372917000204325,True,7,-1,0,8
PB037M21,1,99,PS,exp,34,←,left,←,0.543303599988576,True,7,1,1,9
PB037M21,1,100,PS,exp,47,↑,up,↑,0.5062050000415184,True,6,1,0,9
PB037M21,1,101,PS,exp,36,↓,left,←,0.5118388999835588,False,6,-1,1,10
PB037M21,1,102,PS,exp,40,→,left,←,0.5797704000142403,False,7,-1,0,10
PB037M21,1,103,PS,exp,49,↑,up,↑,0.4714156999834813,True,8,-1,0,10
PB037M21,1,104,PS,exp,49,↓,down,↓,0.6822394999908283,True,8,1,1,11
PB037M21,1,105,PS,exp,45,←,left,←,0.40320210001664236,True,7,1,0,11
PB037M21,1,106,PS,exp,25,↑,up,↑,0.44276870001340285,True,7,1,0,11
PB037M21,1,107,PS,exp,35,↓,left,←,0.6401092000305653,False,6,-1,1,12
PB037M21,1,108,PS,exp,26,←,left,←,0.4909484999952838,True,7,-1,0,12
PB037M21,1,109,PS,exp,45,↓,left,←,1.7007180000073276,False,7,-1,0,12
PB037M21,1,110,PS,exp,36,→,left,←,0.6191004999564029,False,8,-1,0,12
PB037M21,1,111,PS,exp,37,↓,no_key,no_letter,-1.0,False,9,-1,0,12
PB037M21,1,112,PS,exp,31,→,down,↓,0.9588536000228487,False,10,-1,0,12
PB037M21,1,113,PS,exp,50,←,left,←,1.0656384999747388,True,11,-1,0,12
PB037M21,1,114,PS,exp,29,↓,left,←,0.9819511999958195,False,11,-1,0,12
PB037M21,1,115,PS,exp,27,→,right,→,0.8309633999597281,True,12,-1,0,12
PB037M21,1,116,PS,exp,42,←,left,←,0.7141529999789782,True,12,1,1,13
PB037M21,1,117,PS,exp,44,→,left,←,1.625415799964685,False,11,-1,1,14
PB037M21,2,118,AS,intra_train,44,↓,no_key,no_letter,-1.0,False,45,-,-,-
PB037M21,2,119,AS,intra_train,38,↑,right,→,0.7839553999947384,False,45,-,-,-
PB037M21,2,120,AS,intra_train,39,↓,up,↑,1.581806999980472,False,45,-,-,-
PB037M21,2,121,AS,intra_train,38,↑,right,→,1.696025000012014,False,45,-,-,-
PB037M21,2,122,AS,intra_train,30,↓,right,→,0.9368558999849483,False,45,-,-,-
PB037M21,2,123,AS,exp,27,↑,left,←,0.9957044000038877,False,30,-1,0,0
PB037M21,2,124,AS,exp,35,→,right,→,0.5838019999791868,True,31,-1,0,0
PB037M21,2,125,AS,exp,50,↑,right,→,0.7153224999783561,False,31,-1,0,0
PB037M21,2,126,AS,exp,46,↓,left,←,1.4064166000462137,False,32,-1,0,0
PB037M21,2,127,AS,exp,35,←,left,←,0.9824190000072122,True,33,-1,0,0
PB037M21,2,128,AS,exp,41,→,right,→,0.8530018000165001,True,33,1,1,1
PB037M21,2,129,AS,exp,31,↓,down,↓,0.929855199996382,True,32,1,0,1
PB037M21,2,130,AS,exp,40,↑,up,↑,0.8190074999583885,True,32,1,0,1
PB037M21,2,131,AS,exp,49,→,right,→,0.7196607000078075,True,31,1,0,1
PB037M21,2,132,AS,exp,29,←,left,←,0.743221300013829,True,31,1,0,1
PB037M21,2,133,AS,exp,46,↓,down,↓,0.7347350000054576,True,30,1,0,1
PB037M21,2,134,AS,exp,42,→,right,→,0.7935949999955483,True,30,1,0,1
PB037M21,2,135,AS,exp,30,←,left,←,0.8882272000191733,True,29,1,0,1
PB037M21,2,136,AS,exp,40,→,right,→,0.7257667999947444,True,29,1,0,1
PB037M21,2,137,AS,exp,44,←,left,←,0.7211155000259168,True,28,1,0,1
PB037M21,2,138,AS,exp,44,→,right,→,0.7155095000052825,True,28,1,0,1
PB037M21,2,139,AS,exp,38,←,left,←,0.48372050002217293,True,27,1,0,1
PB037M21,2,140,AS,exp,48,↓,down,↓,0.7541139000095427,True,27,1,0,1
PB037M21,2,141,AS,exp,28,←,left,←,0.7348857999895699,True,26,1,0,1
PB037M21,2,142,AS,exp,30,↓,down,↓,0.7189322000485845,True,26,1,0,1
PB037M21,2,143,AS,exp,39,←,left,←,0.6601537000387907,True,25,1,0,1
PB037M21,2,144,AS,exp,44,→,right,→,0.8354479999979958,True,25,1,0,1
PB037M21,2,145,AS,exp,48,↓,down,↓,0.6325487000285648,True,24,1,0,1
PB037M21,2,146,AS,exp,35,→,right,→,0.650920899992343,True,24,1,0,1
PB037M21,2,147,AS,exp,43,↑,up,↑,0.6900426000356674,True,23,1,0,1
PB037M21,2,148,AS,exp,49,→,right,→,0.6408519000397064,True,23,1,0,1
PB037M21,2,149,AS,exp,37,↓,no_key,no_letter,-1.0,False,22,-1,1,2
PB037M21,2,150,AS,exp,36,↑,up,↑,0.7528662999975495,True,23,-1,0,2
PB037M21,2,151,AS,exp,29,←,left,←,0.8462999999755993,True,23,1,1,3
PB037M21,2,152,AS,exp,42,↓,down,↓,0.8321893999818712,True,22,1,0,3
PB037M21,2,153,AS,exp,27,←,left,←,0.6447286999900825,True,22,1,0,3
PB037M21,2,154,AS,exp,26,↓,no_key,no_letter,-1.0,False,21,-1,1,4
PB037M21,2,155,AS,exp,31,↑,up,↑,0.7244116999791004,True,22,-1,0,4
PB037M21,2,156,AS,exp,45,→,right,→,0.6812735000276007,True,22,1,1,5
PB037M21,2,157,AS,exp,27,↑,up,↑,0.7440895999898203,True,21,1,0,5
PB037M21,2,158,AS,exp,32,←,left,←,0.6411386999534443,True,21,1,0,5
PB037M21,2,159,AS,exp,31,→,right,→,0.7637283999938518,True,20,1,0,5
PB037M21,2,160,AS,exp,25,↑,up,↑,0.8143530000234023,True,20,1,0,5
PB037M21,2,161,AS,exp,39,↓,down,↓,0.6077509000315331,True,19,1,0,5
PB037M21,2,162,AS,exp,50,←,left,←,0.80746659997385,True,19,1,0,5
PB037M21,2,163,AS,exp,50,↓,down,↓,0.7138025999884121,True,18,1,0,5
PB037M21,2,164,AS,exp,42,→,no_key,no_letter,-1.0,False,18,-1,1,6
PB037M21,2,165,AS,exp,31,↑,up,↑,0.8119283000123687,True,19,-1,0,6
PB037M21,2,166,AS,exp,34,→,left,←,0.6445905999862589,False,19,-1,0,6
PB037M21,2,167,AS,exp,26,↓,down,↓,0.6921458999859169,True,20,-1,0,6
PB037M21,2,168,AS,exp,39,→,right,→,0.7915448000421748,True,20,1,1,7
PB037M21,2,169,AS,exp,36,←,right,→,0.6820584000088274,False,19,-1,1,8
PB037M21,2,170,AS,exp,41,↑,up,↑,0.7250062999664806,True,20,-1,0,8
PB037M21,2,171,AS,exp,44,←,left,←,0.7264503000187688,True,20,1,1,9
PB037M21,2,172,AS,exp,39,↓,up,↑,0.7657908000401221,False,19,-1,1,10
PB037M21,2,173,AS,exp,50,→,right,→,0.6947804000228643,True,20,-1,0,10
PB037M21,2,174,AS,exp,46,←,right,→,0.5454717000247911,False,20,-1,0,10
PB037M21,2,175,AS,exp,39,↑,left,←,0.8687043999671005,False,21,-1,0,10
PB037M21,2,176,AS,exp,37,↓,down,↓,0.6157401999807917,True,22,-1,0,10
PB037M21,2,177,AS,exp,45,→,right,→,0.662196799996309,True,22,1,1,11
PB037M21,2,178,AS,exp,34,↑,right,→,0.8665053999866359,False,21,-1,1,12
PB037M21,2,179,AS,exp,25,↓,down,↓,0.6717637999681756,True,22,-1,0,12
PB037M21,2,180,AS,exp,44,←,left,←,0.7989544000010937,True,22,1,1,13
PB037M21,2,181,AS,exp,38,↓,down,↓,0.43368590000318363,True,21,1,0,13
PB037M21,2,182,AS,exp,48,↑,right,→,0.9478742000064813,False,21,-1,1,14
PB037M21,3,183,AS,intra_train,35,→,right,→,1.3289747000089847,True,45,-,-,-
PB037M21,3,184,AS,intra_train,25,←,left,←,0.7504122999962419,True,45,-,-,-
PB037M21,3,185,AS,intra_train,25,↓,right,→,0.7667779999901541,False,45,-,-,-
PB037M21,3,186,AS,intra_train,49,→,right,→,0.568378500000108,True,45,-,-,-
PB037M21,3,187,AS,intra_train,31,↓,no_key,no_letter,-1.0,False,45,-,-,-
PB037M21,3,188,AS,exp,32,←,left,←,0.6169260999886319,True,30,0,0,0
PB037M21,3,189,AS,exp,32,↑,up,↑,0.7398638000013307,True,30,1,0,0
PB037M21,3,190,AS,exp,43,→,right,→,0.6579853000002913,True,29,1,0,0
PB037M21,3,191,AS,exp,42,↓,down,↓,0.6002006000489928,True,29,1,0,0
PB037M21,3,192,AS,exp,34,→,right,→,0.8429591000312939,True,28,1,0,0
PB037M21,3,193,AS,exp,33,↓,down,↓,0.6441113000037149,True,28,1,0,0
PB037M21,3,194,AS,exp,43,←,left,←,0.7291607999941334,True,27,1,0,0
PB037M21,3,195,AS,exp,31,↓,down,↓,0.6317175000440329,True,27,1,0,0
PB037M21,3,196,AS,exp,49,←,left,←,0.6271937999990769,True,26,1,0,0
PB037M21,3,197,AS,exp,35,↓,down,↓,0.7023131999885663,True,26,1,0,0
PB037M21,3,198,AS,exp,37,←,left,←,0.8086011000559665,True,25,1,0,0
PB037M21,3,199,AS,exp,47,→,right,→,0.5956160000059754,True,25,1,0,0
PB037M21,3,200,AS,exp,27,↑,down,↓,1.0550354000297375,False,24,-1,1,1
PB037M21,3,201,AS,exp,34,→,right,→,0.6205656999954954,True,25,-1,0,1
PB037M21,3,202,AS,exp,30,←,no_key,no_letter,-1.0,False,25,-1,0,1
PB037M21,3,203,AS,exp,39,→,no_key,no_letter,-1.0,False,26,-1,0,1
PB037M21,3,204,AS,exp,48,↓,down,↓,0.6175870999577455,True,27,-1,0,1
PB037M21,3,205,AS,exp,37,↑,up,↑,0.9357936999876983,True,27,1,1,2
PB037M21,3,206,AS,exp,47,↓,down,↓,0.6709864999866113,True,26,1,0,2
PB037M21,3,207,AS,exp,49,↑,up,↑,1.0153332999907434,True,26,1,0,2
PB037M21,3,208,AS,exp,33,↓,right,→,0.8781379000283778,False,25,-1,1,3
PB037M21,3,209,AS,exp,27,→,left,←,0.938715800002683,False,26,-1,0,3
PB037M21,3,210,AS,exp,30,←,no_key,no_letter,-1.0,False,27,-1,0,3
PB037M21,3,211,AS,exp,30,→,no_key,no_letter,-1.0,False,28,-1,0,3
PB037M21,3,212,AS,exp,41,↓,left,←,0.7727047000080347,False,29,-1,0,3
PB037M21,3,213,AS,exp,47,↑,down,↓,0.6829928999650292,False,30,-1,0,3
PB037M21,3,214,AS,exp,32,↓,down,↓,0.6170735000050627,True,31,-1,0,3
PB037M21,3,215,AS,exp,46,↑,up,↑,1.1169087999733165,True,31,1,1,4
PB037M21,3,216,AS,exp,40,→,right,→,0.5837181999813765,True,30,1,0,4
PB037M21,3,217,AS,exp,47,↓,no_key,no_letter,-1.0,False,30,-1,1,5
PB037M21,3,218,AS,exp,35,↑,up,↑,0.9118251000181772,True,31,-1,0,5
PB037M21,3,219,AS,exp,36,↓,no_key,no_letter,-1.0,False,31,-1,0,5
PB037M21,3,220,AS,exp,36,→,left,←,0.6002894000266679,False,32,-1,0,5
PB037M21,3,221,AS,exp,27,↑,up,↑,0.9747735999990255,True,33,-1,0,5
PB037M21,3,222,AS,exp,33,→,right,→,0.6171689999755472,True,33,1,1,6
PB037M21,3,223,AS,exp,33,↑,up,↑,0.6669750000000931,True,32,1,0,6
PB037M21,3,224,AS,exp,37,←,left,←,0.5670112000079826,True,32,1,0,6
PB037M21,3,225,AS,exp,41,↓,no_key,no_letter,-1.0,False,31,-1,1,7
PB037M21,3,226,AS,exp,48,←,left,←,0.5506978000048548,True,32,-1,0,7
PB037M21,3,227,AS,exp,32,↓,no_key,no_letter,-1.0,False,32,-1,0,7
PB037M21,3,228,AS,exp,45,→,right,→,0.650767499988433,True,33,-1,0,7
PB037M21,3,229,AS,exp,45,↓,down,↓,0.5338678999687545,True,33,1,1,8
PB037M21,3,230,AS,exp,44,↑,up,↑,0.7157186000258662,True,32,1,0,8
PB037M21,3,231,AS,exp,33,↓,down,↓,0.7203769000479952,True,32,1,0,8
PB037M21,3,232,AS,exp,36,→,up,↑,1.344393899955321,False,31,-1,1,9
PB037M21,3,233,AS,exp,28,↓,left,←,1.411449100007303,False,32,-1,0,9
PB037M21,3,234,AS,exp,34,↑,left,←,0.9168841000064276,False,33,-1,0,9
PB037M21,3,235,AS,exp,39,→,right,→,0.8435664999997243,True,34,-1,0,9
PB037M21,3,236,AS,exp,46,↓,down,↓,0.6171464999788441,True,34,1,1,10
PB037M21,3,237,AS,exp,38,→,right,→,0.5838588000042364,True,33,1,0,10
PB037M21,3,238,AS,exp,33,↑,no_key,no_letter,-1.0,False,33,-1,1,11
PB037M21,3,239,AS,exp,27,→,right,→,0.5344181999680586,True,34,-1,0,11
PB037M21,3,240,AS,exp,33,↑,up,↑,0.5008689000387676,True,34,1,1,12
PB037M21,3,241,AS,exp,46,↓,no_key,no_letter,-1.0,False,33,-1,1,13
PB037M21,3,242,AS,exp,34,→,right,→,0.7614146000123583,True,34,-1,0,13
PB037M21,3,243,AS,exp,34,↑,right,→,0.6515698999864981,False,34,-1,0,13
PB037M21,3,244,AS,exp,28,→,right,→,0.6004720000200905,True,35,-1,0,13
PB037M21,3,245,AS,exp,25,←,left,←,0.795554100011941,True,35,1,1,14
PB037M21,4,246,PS,intra_train,36,↑,right,→,0.8405248000053689,False,10,-,-,-
PB037M21,4,247,PS,intra_train,38,←,left,←,0.5323640000424348,True,10,-,-,-
PB037M21,4,248,PS,intra_train,42,→,right,→,0.531144000007771,True,10,-,-,-
PB037M21,4,249,PS,intra_train,45,↓,down,↓,0.49051660002442077,True,10,-,-,-
PB037M21,4,250,PS,intra_train,42,→,right,→,0.6500495999935083,True,10,-,-,-
PB037M21,4,251,PS,exp,27,↓,left,←,0.5570439000148326,False,7,-1,0,0
PB037M21,4,252,PS,exp,26,↑,right,→,0.6443745999713428,False,8,-1,0,0
PB037M21,4,253,PS,exp,33,→,right,→,0.7271793999825604,True,9,-1,0,0
PB037M21,4,254,PS,exp,44,↓,down,↓,0.6224518000381067,True,9,1,1,1
PB037M21,4,255,PS,exp,45,←,right,→,0.6142002999549732,False,8,-1,1,2
PB037M21,4,256,PS,exp,46,↑,right,→,0.5002416000352241,False,9,-1,0,2
PB037M21,4,257,PS,exp,34,←,left,←,0.5177492999937385,True,10,-1,0,2
PB037M21,4,258,PS,exp,49,↓,no_key,no_letter,-1.0,False,10,-1,0,2
PB037M21,4,259,PS,exp,26,→,right,→,0.928706599981524,True,11,-1,0,2
PB037M21,4,260,PS,exp,34,↑,right,→,0.5686985999927856,False,11,-1,0,2
PB037M21,4,261,PS,exp,49,→,right,→,0.9439531000098214,True,12,-1,0,2
PB037M21,4,262,PS,exp,25,←,right,→,0.8969811999704689,False,12,-1,0,2
PB037M21,4,263,PS,exp,44,→,left,←,0.7408165999804623,False,13,-1,0,2
PB037M21,4,264,PS,exp,49,←,left,←,0.6825942000141367,True,14,-1,0,2
PB037M21,4,265,PS,exp,45,↑,left,←,0.8251163000240922,False,14,-1,0,2
PB037M21,4,266,PS,exp,32,←,right,→,0.6305906999623403,False,15,-1,0,2
PB037M21,4,267,PS,exp,29,↓,left,←,0.6214503000373952,False,16,-1,0,2
PB037M21,4,268,PS,exp,32,←,right,→,0.5272514999960549,False,17,-1,0,2
PB037M21,4,269,PS,exp,26,↑,no_key,no_letter,-1.0,False,18,-1,0,2
PB037M21,4,270,PS,exp,32,↓,left,←,0.6578953000134788,False,19,-1,0,2
PB037M21,4,271,PS,exp,40,→,right,→,0.6739983000443317,True,20,-1,0,2
PB037M21,4,272,PS,exp,28,←,no_key,no_letter,-1.0,False,20,-1,0,2
PB037M21,4,273,PS,exp,46,↑,up,↑,0.9012929999735206,True,21,-1,0,2
PB037M21,4,274,PS,exp,29,←,down,↓,0.8039622999494895,False,21,-1,0,2
PB037M21,4,275,PS,exp,46,↓,down,↓,0.46719100000336766,True,22,-1,0,2
PB037M21,4,276,PS,exp,31,↑,down,↓,0.40042130002984777,False,22,-1,0,2
PB037M21,4,277,PS,exp,31,→,left,←,0.5686143999919295,False,23,-1,0,2
PB037M21,4,278,PS,exp,48,←,right,→,1.0033832000335678,False,24,-1,0,2
PB037M21,4,279,PS,exp,25,→,up,↑,1.3100313000031747,False,25,-1,0,2
PB037M21,4,280,PS,exp,49,↑,down,↓,0.5166869999957271,False,26,-1,0,2
PB037M21,4,281,PS,exp,33,←,left,←,0.6175029000150971,True,27,-1,0,2
PB037M21,4,282,PS,exp,43,→,left,←,0.48384649999206886,False,27,-1,0,2
PB037M21,4,283,PS,exp,36,↑,right,→,0.7720545000047423,False,28,-1,0,2
PB037M21,4,284,PS,exp,35,→,right,→,0.4837576000136323,True,29,-1,0,2
PB037M21,4,285,PS,exp,37,←,left,←,0.41778869996778667,True,29,1,1,3
PB037M21,4,286,PS,exp,39,↑,left,←,0.5004214000073262,False,28,-1,1,4
PB037M21,4,287,PS,exp,43,↓,right,→,0.451141000026837,False,29,-1,0,4
PB037M21,4,288,PS,exp,37,→,down,↓,0.709789099986665,False,30,-1,0,4
PB037M21,4,289,PS,exp,43,↑,up,↑,1.6559755000052974,True,31,-1,0,4
PB037M21,4,290,PS,exp,50,→,right,→,0.7139930000412278,True,31,1,1,5
PB037M21,4,291,PS,exp,41,↓,down,↓,0.8789242000202648,True,30,1,0,5
PB037M21,4,292,PS,exp,30,↑,up,↑,1.4239264000207186,True,30,1,0,5
PB037M21,4,293,PS,exp,49,↓,down,↓,1.0722971000359394,True,29,1,0,5
PB037M21,4,294,PS,exp,40,↑,up,↑,0.6821365000214428,True,29,1,0,5
PB037M21,4,295,PS,exp,46,→,right,→,0.5671633000019938,True,28,1,0,5
PB037M21,4,296,PS,exp,32,←,left,←,0.5671893000253476,True,28,1,0,5
PB037M21,4,297,PS,exp,49,→,right,→,0.43380939995404333,True,27,1,0,5
PB037M21,4,298,PS,exp,43,↑,up,↑,0.5671956999576651,True,27,1,0,5
PB037M21,4,299,PS,exp,25,→,right,→,0.483769399987068,True,26,1,0,5
PB037M21,4,300,PS,exp,26,↑,no_key,no_letter,-1.0,False,26,-1,1,6
PB037M21,4,301,PS,exp,38,←,left,←,1.8155012999777682,True,27,-1,0,6
PB037M21,4,302,PS,exp,36,→,right,→,0.628161100030411,True,27,1,1,7
PB037M21,4,303,PS,exp,43,↓,down,↓,0.5503022000193596,True,26,1,0,7
PB037M21,4,304,PS,exp,34,↑,up,↑,0.5169806000194512,True,26,1,0,7
PB037M21,4,305,PS,exp,25,←,left,←,0.48388780001550913,True,25,1,0,7
PB037M21,4,306,PS,exp,43,↑,up,↑,0.4502830999554135,True,25,1,0,7
PB037M21,4,307,PS,exp,26,←,left,←,0.6034863999811932,True,24,1,0,7
PB037M21,4,308,PS,exp,46,↓,no_key,no_letter,-1.0,False,24,-1,1,8
PB037M21,4,309,PS,exp,37,↑,up,↑,0.5171122000319883,True,25,-1,0,8
PB037M21,4,310,PS,exp,47,←,left,←,0.5336206000065431,True,25,1,1,9
PB037M21,4,311,PS,exp,29,↑,up,↑,0.40049650002038106,True,24,1,0,9
PB037M21,4,312,PS,exp,37,↓,down,↓,0.4839620999991894,True,24,1,0,9
PB037M21,4,313,PS,exp,37,↑,up,↑,0.6405220999731682,True,23,1,0,9
PB037M21,4,314,PS,exp,25,←,left,←,0.5623881000210531,True,23,1,0,9
PB037M21,4,315,PS,exp,41,→,left,←,1.0131087999907322,False,22,-1,1,10
PB037M21,4,316,PS,exp,38,↑,up,↑,0.4838051000260748,True,23,-1,0,10
PB037M21,4,317,PS,exp,25,→,right,→,0.9745839000097476,True,23,1,1,11
PB037M21,4,318,PS,exp,39,↓,down,↓,0.5799569999799132,True,22,1,0,11
PB037M21,4,319,PS,exp,27,←,right,→,1.0518409000360407,False,22,-1,1,12
PB037M21,4,320,PS,exp,35,↓,down,↓,0.500503099989146,True,23,-1,0,12
PB037M21,4,321,PS,exp,33,←,left,←,0.5003423999878578,True,23,1,1,13
PB037M21,4,322,PS,exp,33,↑,up,↑,0.6715267000254244,True,22,1,0,13
PB037M21,4,323,PS,exp,34,→,right,→,0.5002779999631457,True,22,1,0,13
PB037M21,4,324,PS,exp,37,↓,no_key,no_letter,-1.0,False,21,-1,1,14
PB037M21,5,325,PS,intra_train,48,←,up,↑,0.8418369999853894,False,10,-,-,-
PB037M21,5,326,PS,intra_train,45,↑,up,↑,0.6294581000111066,True,10,-,-,-
PB037M21,5,327,PS,intra_train,50,↓,down,↓,0.5254304999834858,True,10,-,-,-
PB037M21,5,328,PS,intra_train,36,←,left,←,0.44871669996064156,True,10,-,-,-
PB037M21,5,329,PS,intra_train,49,↓,down,↓,0.53971719997935,True,10,-,-,-
PB037M21,5,330,PS,exp,50,↑,up,↑,0.4489907999522984,True,7,0,0,0
PB037M21,5,331,PS,exp,29,→,right,→,0.5615365000558086,True,7,1,0,0
PB037M21,5,332,PS,exp,49,↑,up,↑,0.4430188999976963,True,6,1,0,0
PB037M21,5,333,PS,exp,34,→,right,→,0.48425649997079745,True,6,1,0,0
PB037M21,5,334,PS,exp,44,↓,down,↓,0.6041849999455735,True,5,1,0,0
PB037M21,5,335,PS,exp,44,↑,up,↑,0.4853980000480078,True,5,1,0,0
PB037M21,5,336,PS,exp,33,↓,down,↓,1.1697259999928065,True,4,1,0,0
PB037M21,5,337,PS,exp,41,←,left,←,0.49384100001771003,True,4,1,0,0
PB037M21,5,338,PS,exp,47,→,left,←,0.45733050000853837,False,3,-1,1,1
PB037M21,5,339,PS,exp,28,←,right,→,0.6042009000084363,False,4,-1,0,1
PB037M21,5,340,PS,exp,32,→,left,←,0.790863599977456,False,5,-1,0,1
PB037M21,5,341,PS,exp,36,←,up,↑,1.610460800002329,False,6,-1,0,1
PB037M21,5,342,PS,exp,30,↓,right,→,0.704273600014858,False,7,-1,0,1
PB037M21,5,343,PS,exp,35,←,left,←,0.48091320000821725,True,8,-1,0,1
PB037M21,5,344,PS,exp,43,↑,up,↑,0.42931090004276484,True,8,1,1,2
PB037M21,5,345,PS,exp,41,←,left,←,0.45207870000740513,True,7,1,0,2
PB037M21,5,346,PS,exp,32,↑,up,↑,0.4521361999795772,True,7,1,0,2
PB037M21,5,347,PS,exp,32,↓,left,←,0.5819305999903008,False,6,-1,1,3
PB037M21,5,348,PS,exp,33,↑,left,←,0.6847095999983139,False,7,-1,0,3
PB037M21,5,349,PS,exp,50,→,no_key,no_letter,-1.0,False,8,-1,0,3
PB037M21,5,350,PS,exp,30,←,up,↑,1.005924800003413,False,9,-1,0,3
PB037M21,5,351,PS,exp,37,↓,down,↓,0.6025457999785431,True,10,-1,0,3
PB037M21,5,352,PS,exp,49,↑,up,↑,0.4888906000414863,True,10,1,1,4
PB037M21,5,353,PS,exp,47,→,right,→,0.5034161999938078,True,9,1,0,4
PB037M21,5,354,PS,exp,49,↑,up,↑,0.5775302000110969,True,9,1,0,4
PB037M21,5,355,PS,exp,49,→,right,→,0.3810819000354968,True,8,1,0,4
PB037M21,5,356,PS,exp,37,↑,up,↑,0.5090557999792509,True,8,1,0,4
PB037M21,5,357,PS,exp,37,←,left,←,0.4615392000414431,True,7,1,0,4
PB037M21,5,358,PS,exp,36,→,left,←,0.5141781999845989,False,7,-1,1,5
PB037M21,5,359,PS,exp,42,↓,left,←,0.47853000002214685,False,8,-1,0,5
PB037M21,5,360,PS,exp,47,←,left,←,0.5403129999758676,True,9,-1,0,5
PB037M21,5,361,PS,exp,25,↑,right,→,0.6156137000070885,False,9,-1,0,5
PB037M21,5,362,PS,exp,43,←,left,←,0.4461721000261605,True,10,-1,0,5
PB037M21,5,363,PS,exp,27,→,right,→,0.4387313000042923,True,10,1,1,6
PB037M21,5,364,PS,exp,45,↓,down,↓,0.7348818999598734,True,9,1,0,6
PB037M21,5,365,PS,exp,46,←,left,←,0.38685279997298494,True,9,1,0,6
PB037M21,5,366,PS,exp,46,↓,down,↓,0.5337609000271186,True,8,1,0,6
PB037M21,5,367,PS,exp,35,→,right,→,0.4845635999809019,True,8,1,0,6
PB037M21,5,368,PS,exp,47,↑,up,↑,0.4431596999638714,True,7,1,0,6
PB037M21,5,369,PS,exp,27,←,right,→,0.6964516000007279,False,7,-1,1,7
PB037M21,5,370,PS,exp,40,→,right,→,0.6269169999868609,True,8,-1,0,7
PB037M21,5,371,PS,exp,28,↑,left,←,0.4437905000522733,False,8,-1,0,7
PB037M21,5,372,PS,exp,47,↓,up,↑,1.314533600001596,False,9,-1,0,7
PB037M21,5,373,PS,exp,47,←,right,→,0.6717486999696121,False,10,-1,0,7
PB037M21,5,374,PS,exp,33,→,right,→,0.49533489998430014,True,11,-1,0,7
PB037M21,5,375,PS,exp,41,↑,right,→,0.5969986999989487,False,11,-1,0,7
PB037M21,5,376,PS,exp,49,←,right,→,0.6785785999963991,False,12,-1,0,7
PB037M21,5,377,PS,exp,38,→,right,→,0.5545553999836557,True,13,-1,0,7
PB037M21,5,378,PS,exp,34,←,left,←,0.4784096999792382,True,13,1,1,8
PB037M21,5,379,PS,exp,39,↑,up,↑,0.4015153999789618,True,12,1,0,8
PB037M21,5,380,PS,exp,46,↓,right,→,0.48457149998284876,False,12,-1,1,9
PB037M21,5,381,PS,exp,30,↑,left,←,0.4031970999785699,False,13,-1,0,9
PB037M21,5,382,PS,exp,26,→,right,→,0.47174419998191297,True,14,-1,0,9
PB037M21,5,383,PS,exp,37,↓,right,→,0.893962999980431,False,14,-1,0,9
PB037M21,5,384,PS,exp,36,→,right,→,0.42591460002586246,True,15,-1,0,9
PB037M21,5,385,PS,exp,35,↓,down,↓,0.6695952999871224,True,15,1,1,10
PB037M21,5,386,PS,exp,48,→,right,→,0.5016133000026457,True,14,1,0,10
PB037M21,5,387,PS,exp,50,←,left,←,0.4866528999991715,True,14,1,0,10
PB037M21,5,388,PS,exp,32,↓,left,←,1.24753580003744,False,13,-1,1,11
PB037M21,5,389,PS,exp,33,←,left,←,0.42033550003543496,True,14,-1,0,11
PB037M21,5,390,PS,exp,48,↑,up,↑,0.499044900003355,True,14,1,1,12
PB037M21,5,391,PS,exp,38,→,right,→,0.5989115000120364,True,13,1,0,12
PB037M21,5,392,PS,exp,44,←,right,→,0.6755455000093207,False,13,-1,1,13
PB037M21,5,393,PS,exp,29,↓,down,↓,0.5952372000319883,True,14,-1,0,13
PB037M21,5,394,PS,exp,30,→,right,→,0.40226939995773137,True,14,1,1,14
PB037M21,6,395,AS,intra_train,44,←,no_key,no_letter,-1.0,False,45,-,-,-
PB037M21,6,396,AS,intra_train,30,↑,up,↑,0.6842901000054553,True,45,-,-,-
PB037M21,6,397,AS,intra_train,42,←,left,←,0.46766719996230677,True,45,-,-,-
PB037M21,6,398,AS,intra_train,42,↓,down,↓,0.7179071999853477,True,45,-,-,-
PB037M21,6,399,AS,intra_train,46,↑,up,↑,0.48438729997724295,True,45,-,-,-
PB037M21,6,400,AS,exp,49,←,left,←,0.5005771000287496,True,30,0,0,0
PB037M21,6,401,AS,exp,47,↓,down,↓,0.9617903999751434,True,30,1,0,0
PB037M21,6,402,AS,exp,25,→,no_key,no_letter,-1.0,False,29,-1,1,1
PB037M21,6,403,AS,exp,38,↓,down,↓,0.9174811000120826,True,30,-1,0,1
PB037M21,6,404,AS,exp,25,←,left,←,0.8289481999818236,True,30,1,1,2
PB037M21,6,405,AS,exp,40,→,right,→,0.7512967999791726,True,29,1,0,2
PB037M21,6,406,AS,exp,37,↑,up,↑,0.500650100002531,True,29,1,0,2
PB037M21,6,407,AS,exp,44,→,right,→,0.516899700043723,True,28,1,0,2
PB037M21,6,408,AS,exp,30,↓,down,↓,0.7445765999727882,True,28,1,0,2
PB037M21,6,409,AS,exp,43,→,right,→,0.48404099995968863,True,27,1,0,2
PB037M21,6,410,AS,exp,27,↑,up,↑,0.6289719000342302,True,27,1,0,2
PB037M21,6,411,AS,exp,45,↓,down,↓,0.7983573999954388,True,26,1,0,2
PB037M21,6,412,AS,exp,35,→,right,→,0.671577500004787,True,26,1,0,2
PB037M21,6,413,AS,exp,26,↑,up,↑,0.5941473999992013,True,25,1,0,2
PB037M21,6,414,AS,exp,45,→,right,→,0.533774400013499,True,25,1,0,2
PB037M21,6,415,AS,exp,37,←,left,←,0.46707159996731207,True,24,1,0,2
PB037M21,6,416,AS,exp,48,↓,down,↓,0.7483819999615662,True,24,1,0,2
PB037M21,6,417,AS,exp,25,↑,up,↑,0.6061919000349008,True,23,1,0,2
PB037M21,6,418,AS,exp,28,→,right,→,0.6781098999781534,True,23,1,0,2
PB037M21,6,419,AS,exp,47,↓,down,↓,0.5676031000330113,True,22,1,0,2
PB037M21,6,420,AS,exp,37,→,right,→,0.5519753000116907,True,22,1,0,2
PB037M21,6,421,AS,exp,25,↓,down,↓,0.6864184000296518,True,21,1,0,2
PB037M21,6,422,AS,exp,44,←,no_key,no_letter,-1.0,False,21,-1,1,3
PB037M21,6,423,AS,exp,42,→,right,→,0.48364510003011674,True,22,-1,0,3
PB037M21,6,424,AS,exp,37,←,left,←,0.5004423999926075,True,22,1,1,4
PB037M21,6,425,AS,exp,50,↑,up,↑,0.6859505000174977,True,21,1,0,4
PB037M21,6,426,AS,exp,46,↓,down,↓,0.7323101999936625,True,21,1,0,4
PB037M21,6,427,AS,exp,32,↑,up,↑,0.6196447999682277,True,20,1,0,4
PB037M21,6,428,AS,exp,49,↓,down,↓,0.5652467999607325,True,20,1,0,4
PB037M21,6,429,AS,exp,42,→,right,→,0.5672685999888927,True,19,1,0,4
PB037M21,6,430,AS,exp,39,↑,up,↑,0.5703034000471234,True,19,1,0,4
PB037M21,6,431,AS,exp,34,→,right,→,0.6004567000200041,True,18,1,0,4
PB037M21,6,432,AS,exp,48,↑,up,↑,0.7002784999785945,True,18,1,0,4
PB037M21,6,433,AS,exp,31,↓,up,↑,0.9081724000279792,False,17,-1,1,5
PB037M21,6,434,AS,exp,49,←,left,←,0.5914881000062451,True,18,-1,0,5
PB037M21,6,435,AS,exp,50,↑,up,↑,0.41706190002150834,True,18,1,1,6
PB037M21,6,436,AS,exp,31,←,right,→,0.9443795999977738,False,17,-1,1,7
PB037M21,6,437,AS,exp,40,↓,down,↓,0.8614006999996491,True,18,-1,0,7
PB037M21,6,438,AS,exp,46,←,left,←,0.7052792999893427,True,18,1,1,8
PB037M21,6,439,AS,exp,29,→,right,→,0.7133367999922484,True,17,1,0,8
PB037M21,6,440,AS,exp,29,↑,left,←,1.0183009000029415,False,17,-1,1,9
PB037M21,6,441,AS,exp,37,↓,down,↓,0.801645900006406,True,18,-1,0,9
PB037M21,6,442,AS,exp,50,→,right,→,0.4957785000442527,True,18,1,1,10
PB037M21,6,443,AS,exp,49,↑,right,→,0.9390604000072926,False,17,-1,1,11
PB037M21,6,444,AS,exp,25,→,right,→,0.5834040999761783,True,18,-1,0,11
PB037M21,6,445,AS,exp,49,↑,up,↑,0.5234284999896772,True,18,1,1,12
PB037M21,6,446,AS,exp,34,←,right,→,0.6619551999610849,False,17,-1,1,13
PB037M21,6,447,AS,exp,42,↑,right,→,0.7630776999867521,False,18,-1,0,13
PB037M21,6,448,AS,exp,29,→,right,→,0.5882907000486739,True,19,-1,0,13
PB037M21,6,449,AS,exp,42,↑,up,↑,0.43303800001740456,True,19,1,1,14
PB037M21,7,450,AS,intra_train,39,↓,down,↓,1.1202844000072218,True,45,-,-,-
PB037M21,7,451,AS,intra_train,43,↑,up,↑,0.5010771000524983,True,45,-,-,-
PB037M21,7,452,AS,intra_train,38,←,left,←,0.634513099968899,True,45,-,-,-
PB037M21,7,453,AS,intra_train,32,↓,down,↓,0.6676547999959439,True,45,-,-,-
PB037M21,7,454,AS,intra_train,36,→,right,→,0.667680200014729,True,45,-,-,-
PB037M21,7,455,AS,exp,33,↓,down,↓,1.853043399984017,True,30,0,0,0
PB037M21,7,456,AS,exp,26,←,left,←,0.8270995000493713,True,30,1,0,0
PB037M21,7,457,AS,exp,50,→,right,→,0.7313681000377983,True,29,1,0,0
PB037M21,7,458,AS,exp,34,↑,up,↑,0.8435123999952339,True,29,1,0,0
PB037M21,7,459,AS,exp,30,→,right,→,0.7954795999685302,True,28,1,0,0
PB037M21,7,460,AS,exp,45,↓,down,↓,0.5170316000003368,True,28,1,0,0
PB037M21,7,461,AS,exp,31,←,left,←,0.6462681000120938,True,27,1,0,0
PB037M21,7,462,AS,exp,32,↓,down,↓,0.7725608000182547,True,27,1,0,0
PB037M21,7,463,AS,exp,38,→,right,→,0.9814231999916956,True,26,1,0,0
PB037M21,7,464,AS,exp,38,←,left,←,0.9099889000062831,True,26,1,0,0
PB037M21,7,465,AS,exp,29,↓,no_key,no_letter,-1.0,False,25,-1,1,1
PB037M21,7,466,AS,exp,41,→,right,→,0.9770460000145249,True,26,-1,0,1
PB037M21,7,467,AS,exp,29,↑,up,↑,0.8014759999932721,True,26,1,1,2
PB037M21,7,468,AS,exp,38,↓,no_key,no_letter,-1.0,False,25,-1,1,3
PB037M21,7,469,AS,exp,38,→,right,→,0.8628716999664903,True,26,-1,0,3
PB037M21,7,470,AS,exp,38,↓,down,↓,0.5670436999644153,True,26,1,1,4
PB037M21,7,471,AS,exp,34,↑,up,↑,0.877650199981872,True,25,1,0,4
PB037M21,7,472,AS,exp,35,→,right,→,0.6124845999875106,True,25,1,0,4
PB037M21,7,473,AS,exp,45,←,left,←,0.6364525999524631,True,24,1,0,4
PB037M21,7,474,AS,exp,49,↓,down,↓,0.6527065000263974,True,24,1,0,4
PB037M21,7,475,AS,exp,32,↑,up,↑,0.6459004000062123,True,23,1,0,4
PB037M21,7,476,AS,exp,37,←,left,←,0.927430700045079,True,23,1,0,4
PB037M21,7,477,AS,exp,44,↓,up,↑,0.9183733999961987,False,22,-1,1,5
PB037M21,7,478,AS,exp,39,←,left,←,0.6019767000107095,True,23,-1,0,5
PB037M21,7,479,AS,exp,34,→,right,→,1.0300601000199094,True,23,1,1,6
PB037M21,7,480,AS,exp,40,↑,no_key,no_letter,-1.0,False,22,-1,1,7
PB037M21,7,481,AS,exp,40,←,left,←,0.7285901000141166,True,23,-1,0,7
PB037M21,7,482,AS,exp,42,→,right,→,0.7584506000275724,True,23,1,1,8
PB037M21,7,483,AS,exp,31,↓,down,↓,0.5689540000166744,True,22,1,0,8
PB037M21,7,484,AS,exp,40,→,right,→,0.7897328000399284,True,22,1,0,8
PB037M21,7,485,AS,exp,44,↓,down,↓,0.5530807999894023,True,21,1,0,8
PB037M21,7,486,AS,exp,46,↑,up,↑,0.6429691999801435,True,21,1,0,8
PB037M21,7,487,AS,exp,50,←,right,→,0.8533778000273742,False,20,-1,1,9
PB037M21,7,488,AS,exp,39,↓,down,↓,0.5291262000100687,True,21,-1,0,9
PB037M21,7,489,AS,exp,36,↑,up,↑,0.6538591000135057,True,21,1,1,10
PB037M21,7,490,AS,exp,29,↓,down,↓,0.6036600999650545,True,20,1,0,10
PB037M21,7,491,AS,exp,43,↑,down,↓,0.7206954999710433,False,20,-1,1,11
PB037M21,7,492,AS,exp,44,↓,down,↓,0.6107085999683477,True,21,-1,0,11
PB037M21,7,493,AS,exp,27,→,right,→,0.8076507999794558,True,21,1,1,12
PB037M21,7,494,AS,exp,33,←,left,←,0.6591411999543197,True,20,1,0,12
PB037M21,7,495,AS,exp,46,↑,up,↑,0.7930995000060648,True,20,1,0,12
PB037M21,7,496,AS,exp,46,→,right,→,0.8075870999600738,True,19,1,0,12
PB037M21,7,497,AS,exp,41,↑,up,↑,0.4504355000099167,True,19,1,0,12
PB037M21,7,498,AS,exp,42,→,right,→,0.8922033000271767,True,18,1,0,12
PB037M21,7,499,AS,exp,39,←,left,←,0.48622409999370575,True,18,1,0,12
PB037M21,7,500,AS,exp,40,→,right,→,0.828962399973534,True,17,1,0,12
PB037M21,7,501,AS,exp,25,←,left,←,0.45805590000236407,True,17,1,0,12
PB037M21,7,502,AS,exp,26,↓,up,↑,0.48964290000731125,False,16,-1,1,13
PB037M21,7,503,AS,exp,42,↑,up,↑,0.6076510000275448,True,17,-1,0,13
PB037M21,7,504,AS,exp,44,↓,down,↓,0.7782337999669835,True,17,1,1,14
PB037M21,8,505,PS,intra_train,45,↑,right,→,1.2271151999593712,False,10,-,-,-
PB037M21,8,506,PS,intra_train,41,↓,right,→,1.1708464000257663,False,10,-,-,-
PB037M21,8,507,PS,intra_train,44,←,left,←,0.4905321000260301,True,10,-,-,-
PB037M21,8,508,PS,intra_train,47,→,left,←,0.7133524999953806,False,10,-,-,-
PB037M21,8,509,PS,intra_train,39,↓,down,↓,0.6917776999762282,True,10,-,-,-
PB037M21,8,510,PS,exp,40,↑,up,↑,0.5220010000048205,True,7,0,0,0
PB037M21,8,511,PS,exp,34,↓,left,←,0.99876609997591,False,7,-1,0,0
PB037M21,8,512,PS,exp,43,→,left,←,0.7991709999623708,False,8,-1,0,0
PB037M21,8,513,PS,exp,48,↓,left,←,0.7037479000282474,False,9,-1,0,0
PB037M21,8,514,PS,exp,42,↑,up,↑,0.6723972000181675,True,10,-1,0,0
PB037M21,8,515,PS,exp,25,→,right,→,0.45314189995406196,True,10,1,1,1
PB037M21,8,516,PS,exp,29,↓,right,→,0.7157332000206225,False,9,-1,1,2
PB037M21,8,517,PS,exp,42,←,right,→,0.5179242999874987,False,10,-1,0,2
PB037M21,8,518,PS,exp,26,↑,up,↑,0.6191728999838233,True,11,-1,0,2
PB037M21,8,519,PS,exp,48,↓,up,↑,0.6574188999948092,False,11,-1,0,2
PB037M21,8,520,PS,exp,25,↑,up,↑,0.5369599000550807,True,12,-1,0,2
PB037M21,8,521,PS,exp,44,↓,down,↓,0.6023676000186242,True,12,1,1,3
PB037M21,8,522,PS,exp,30,→,up,↑,0.8104087999672629,False,11,-1,1,4
PB037M21,8,523,PS,exp,43,←,left,←,0.7177771999849938,True,12,-1,0,4
PB037M21,8,524,PS,exp,26,→,right,→,0.46472290001111105,True,12,1,1,5
PB037M21,8,525,PS,exp,31,←,left,←,0.5873361999983899,True,11,1,0,5
PB037M21,8,526,PS,exp,27,↓,right,→,0.5857117000268772,False,11,-1,1,6
PB037M21,8,527,PS,exp,50,←,left,←,0.4949761999887414,True,12,-1,0,6
PB037M21,8,528,PS,exp,40,↑,up,↑,0.5161646000342444,True,12,1,1,7
PB037M21,8,529,PS,exp,45,↓,down,↓,0.4967204999993555,True,11,1,0,7
PB037M21,8,530,PS,exp,31,→,right,→,0.36015950003638864,True,11,1,0,7
PB037M21,8,531,PS,exp,27,↑,up,↑,0.684599399974104,True,10,1,0,7
PB037M21,8,532,PS,exp,31,→,right,→,0.6991931000375189,True,10,1,0,7
PB037M21,8,533,PS,exp,46,↓,down,↓,0.5550815999740735,True,9,1,0,7
PB037M21,8,534,PS,exp,41,→,right,→,0.44004359998507425,True,9,1,0,7
PB037M21,8,535,PS,exp,45,↑,right,→,0.5657935000490397,False,8,-1,1,8
PB037M21,8,536,PS,exp,28,←,left,←,0.39544049999676645,True,9,-1,0,8
PB037M21,8,537,PS,exp,49,→,right,→,0.4209215000155382,True,9,1,1,9
PB037M21,8,538,PS,exp,43,↓,right,→,0.533085500006564,False,8,-1,1,10
PB037M21,8,539,PS,exp,25,↑,right,→,0.4683554000221193,False,9,-1,0,10
PB037M21,8,540,PS,exp,44,↓,down,↓,0.6753428999800235,True,10,-1,0,10
PB037M21,8,541,PS,exp,27,→,right,→,0.4250970000284724,True,10,1,1,11
PB037M21,8,542,PS,exp,45,↑,right,→,0.6821961000096053,False,9,-1,1,12
PB037M21,8,543,PS,exp,40,↓,down,↓,0.47035380004672334,True,10,-1,0,12
PB037M21,8,544,PS,exp,34,↑,down,↓,0.40953649999573827,False,10,-1,0,12
PB037M21,8,545,PS,exp,36,←,left,←,0.5393653999781236,True,11,-1,0,12
PB037M21,8,546,PS,exp,42,→,right,→,0.4199386000400409,True,11,1,1,13
PB037M21,8,547,PS,exp,45,↓,down,↓,0.41598119999980554,True,10,1,0,13
PB037M21,8,548,PS,exp,26,←,left,←,0.5161665999912657,True,10,1,0,13
PB037M21,8,549,PS,exp,37,↑,up,↑,0.5668174000456929,True,9,1,0,13
PB037M21,8,550,PS,exp,47,→,right,→,0.5407304999534972,True,9,1,0,13
PB037M21,8,551,PS,exp,46,←,left,←,0.5733114000177011,True,8,1,0,13
PB037M21,8,552,PS,exp,27,→,right,→,0.4327530999435112,True,8,1,0,13
PB037M21,8,553,PS,exp,29,←,left,←,0.4493600000278093,True,7,1,0,13
PB037M21,8,554,PS,exp,29,↓,down,↓,0.45152219996089116,True,7,1,0,13
PB037M21,8,555,PS,exp,43,←,left,←,0.46897560002980754,True,6,1,0,13
PB037M21,8,556,PS,exp,43,↓,left,←,0.580172699992545,False,6,-1,1,14
