PART_ID,Block_no,Trial_no,Block_type,Trial_type,CSI,Stim_letter,Key_pressed,letter_choose,Rt,Corr,Stimulus Time,Level,Reversal,Revs_count
PB038K22,1,1,PS,train,49,↓,down,↓,0.9081366999307647,True,30,-,-,-
PB038K22,1,2,PS,train,41,↑,up,↑,0.8258961000246927,True,30,-,-,-
PB038K22,1,3,PS,train,30,←,left,←,1.4704605999868363,True,30,-,-,-
PB038K22,1,4,PS,train,31,→,right,→,0.9888356999726966,True,30,-,-,-
PB038K22,1,5,PS,train,43,↑,up,↑,0.7792628000024706,True,30,-,-,-
PB038K22,1,6,PS,train,30,↓,down,↓,0.679947099997662,True,30,-,-,-
PB038K22,1,7,PS,train,27,←,left,←,1.2487648000242189,True,30,-,-,-
PB038K22,1,8,PS,train,30,↓,down,↓,0.7416549000190571,True,30,-,-,-
PB038K22,1,9,PS,train,43,↑,up,↑,1.1315393999684602,True,30,-,-,-
PB038K22,1,10,PS,train,27,↓,down,↓,0.8773607999319211,True,30,-,-,-
PB038K22,2,11,AS,train,48,↑,up,↑,1.056636100052856,True,45,-,-,-
PB038K22,2,12,AS,train,47,→,right,→,0.9367411000421271,True,45,-,-,-
PB038K22,2,13,AS,train,30,↓,down,↓,0.9899963999632746,True,45,-,-,-
PB038K22,2,14,AS,train,42,↑,up,↑,1.08377060003113,True,45,-,-,-
PB038K22,2,15,AS,train,45,→,right,→,0.8169533000327647,True,45,-,-,-
PB038K22,2,16,AS,train,41,←,left,←,1.1875961000332609,True,45,-,-,-
PB038K22,2,17,AS,train,37,→,right,→,1.0205770999891683,True,45,-,-,-
PB038K22,2,18,AS,train,28,↓,down,↓,0.800378599902615,True,45,-,-,-
PB038K22,2,19,AS,train,50,→,right,→,0.8171457999851555,True,45,-,-,-
PB038K22,2,20,AS,train,27,↑,no_key,no_letter,-1.0,False,45,-,-,-
PB038K22,-,21,PS,adaptive,28,→,right,→,1.0301481999922544,True,10,0,0,0
PB038K22,-,22,PS,adaptive,39,↑,up,↑,0.9602724999422207,True,10,1,0,0
PB038K22,-,23,PS,adaptive,39,↓,down,↓,1.7807543000672013,True,9,1,0,0
PB038K22,-,24,PS,adaptive,34,↑,up,↑,1.0494348000502214,True,9,1,0,0
PB038K22,-,25,PS,adaptive,32,→,right,→,0.7527776999631897,True,8,1,0,0
PB038K22,-,26,PS,adaptive,49,↓,down,↓,0.9787378000328317,True,8,1,0,0
PB038K22,-,27,PS,adaptive,38,↑,up,↑,1.068822400062345,True,7,1,0,0
PB038K22,-,28,PS,adaptive,34,↓,down,↓,1.0098734999774024,True,7,1,0,0
PB038K22,-,29,PS,adaptive,37,↑,right,→,1.4709406000329182,False,6,-1,1,1
PB038K22,-,30,PS,adaptive,36,←,left,←,0.9598621999612078,True,7,-1,0,1
PB038K22,-,31,PS,adaptive,32,↓,down,↓,1.0150716999778524,True,7,1,1,2
PB038K22,-,32,PS,adaptive,42,←,left,←,0.9519044000189751,True,6,1,0,2
PB038K22,-,33,PS,adaptive,49,→,left,←,1.1560186999849975,False,6,-1,1,3
PB038K22,-,34,PS,adaptive,46,←,left,←,1.109010500018485,True,7,-1,0,3
PB038K22,-,35,PS,adaptive,26,→,right,→,1.066973099950701,True,7,1,1,4
PB038K22,-,36,AS,adaptive,39,↑,down,↓,0.8680419999873266,False,20,-1,0,0
PB038K22,-,37,AS,adaptive,50,→,right,→,0.9114800000097603,True,21,-1,0,0
PB038K22,-,38,AS,adaptive,29,↑,up,↑,1.062255600001663,True,21,1,1,1
PB038K22,-,39,AS,adaptive,25,↓,down,↓,0.7885060000699013,True,20,1,0,1
PB038K22,-,40,AS,adaptive,44,↑,up,↑,1.057547300006263,True,20,1,0,1
PB038K22,-,41,AS,adaptive,33,↓,down,↓,0.7417121999897063,True,19,1,0,1
PB038K22,-,42,AS,adaptive,34,←,left,←,0.9327849000692368,True,19,1,0,1
PB038K22,-,43,AS,adaptive,50,↑,up,↑,1.1562013999791816,True,18,1,0,1
PB038K22,-,44,AS,adaptive,41,→,right,→,0.9148491999367252,True,18,1,0,1
PB038K22,-,45,AS,adaptive,28,↑,up,↑,1.0525144999846816,True,17,1,0,1
PB038K22,-,46,AS,adaptive,37,←,left,←,0.9612826999509707,True,17,1,0,1
PB038K22,-,47,AS,adaptive,31,↓,down,↓,0.9569843000499532,True,16,1,0,1
PB038K22,-,48,AS,adaptive,39,↑,up,↑,0.9651461000321433,True,16,1,0,1
PB038K22,-,49,AS,adaptive,42,←,left,←,1.0995334000326693,True,15,1,0,1
PB038K22,-,50,AS,adaptive,48,↓,down,↓,0.7924432000145316,True,15,1,0,1
PB038K22,-,51,AS,adaptive,43,→,right,→,1.1463014000328258,True,14,1,0,1
PB038K22,-,52,AS,adaptive,37,↑,up,↑,1.3784120000200346,True,14,1,0,1
PB038K22,-,53,AS,adaptive,30,↓,down,↓,1.3842836000258103,True,13,1,0,1
PB038K22,-,54,AS,adaptive,31,↑,up,↑,0.9123790999874473,True,13,1,0,1
PB038K22,-,55,AS,adaptive,37,↓,down,↓,0.8994233999401331,True,12,1,0,1
PB038K22,-,56,AS,adaptive,40,↑,up,↑,0.8724390000570565,True,12,1,0,1
PB038K22,-,57,AS,adaptive,47,→,right,→,0.8496816999977455,True,11,1,0,1
PB038K22,-,58,AS,adaptive,46,←,right,→,1.145078600035049,False,11,-1,1,2
PB038K22,-,59,AS,adaptive,45,↑,down,↓,0.9621025000233203,False,12,-1,0,2
PB038K22,-,60,AS,adaptive,27,←,left,←,0.8681291999528185,True,13,-1,0,2
PB038K22,-,61,AS,adaptive,35,→,right,→,1.129728200030513,True,13,1,1,3
PB038K22,-,62,AS,adaptive,25,←,left,←,0.9185310000320897,True,12,1,0,3
PB038K22,-,63,AS,adaptive,45,↓,right,→,1.1434732999186963,False,12,-1,1,4
PB038K22,1,64,PS,intra_train,31,←,left,←,0.8618852000217885,True,9,-,-,-
PB038K22,1,65,PS,intra_train,40,↑,up,↑,1.3126380000030622,True,9,-,-,-
PB038K22,1,66,PS,intra_train,36,←,left,←,0.9910457999212667,True,9,-,-,-
PB038K22,1,67,PS,intra_train,28,↑,up,↑,0.7399147999240085,True,9,-,-,-
PB038K22,1,68,PS,intra_train,34,→,right,→,1.0005754999583587,True,9,-,-,-
PB038K22,1,69,PS,exp,34,↑,right,→,0.9871072999667376,False,6,-1,0,0
PB038K22,1,70,PS,exp,35,←,right,→,1.731437399983406,False,7,-1,0,0
PB038K22,1,71,PS,exp,38,→,right,→,0.7485525000374764,True,8,-1,0,0
PB038K22,1,72,PS,exp,42,←,left,←,1.2036704999627545,True,8,1,1,1
PB038K22,1,73,PS,exp,33,→,left,←,1.337387099978514,False,7,-1,1,2
PB038K22,1,74,PS,exp,25,↓,no_key,no_letter,-1.0,False,8,-1,0,2
PB038K22,1,75,PS,exp,27,→,right,→,1.2844619998941198,True,9,-1,0,2
PB038K22,1,76,PS,exp,45,↑,right,→,1.6545166000723839,False,9,-1,0,2
PB038K22,1,77,PS,exp,32,↓,down,↓,1.1771467999788001,True,10,-1,0,2
PB038K22,1,78,PS,exp,49,←,left,←,1.1806763000786304,True,10,1,1,3
PB038K22,1,79,PS,exp,47,↓,right,→,1.2585370000451803,False,9,-1,1,4
PB038K22,1,80,PS,exp,27,→,right,→,1.2645453000441194,True,10,-1,0,4
PB038K22,1,81,PS,exp,49,↓,down,↓,1.6075922000454739,True,10,1,1,5
PB038K22,1,82,PS,exp,29,←,no_key,no_letter,-1.0,False,9,-1,1,6
PB038K22,1,83,PS,exp,48,↓,down,↓,0.7152140999678522,True,10,-1,0,6
PB038K22,1,84,PS,exp,50,↑,up,↑,1.1677854000590742,True,10,1,1,7
PB038K22,1,85,PS,exp,41,→,no_key,no_letter,-1.0,False,9,-1,1,8
PB038K22,1,86,PS,exp,28,←,no_key,no_letter,-1.0,False,10,-1,0,8
PB038K22,1,87,PS,exp,29,↓,left,←,0.6841248000273481,False,11,-1,0,8
PB038K22,1,88,PS,exp,44,↑,no_key,no_letter,-1.0,False,12,-1,0,8
PB038K22,1,89,PS,exp,50,↓,no_key,no_letter,-1.0,False,13,-1,0,8
PB038K22,1,90,PS,exp,48,→,right,→,0.597120099933818,True,14,-1,0,8
PB038K22,1,91,PS,exp,45,↓,left,←,0.7880772999487817,False,14,-1,0,8
PB038K22,1,92,PS,exp,30,→,right,→,0.7132499000290409,True,15,-1,0,8
PB038K22,1,93,PS,exp,34,↓,no_key,no_letter,-1.0,False,15,-1,0,8
PB038K22,1,94,PS,exp,41,↑,left,←,1.8473283000057563,False,16,-1,0,8
PB038K22,1,95,PS,exp,26,→,right,→,0.8682601999025792,True,17,-1,0,8
PB038K22,1,96,PS,exp,40,↑,no_key,no_letter,-1.0,False,17,-1,0,8
PB038K22,1,97,PS,exp,49,←,left,←,1.0803537999745458,True,18,-1,0,8
PB038K22,1,98,PS,exp,37,↓,down,↓,1.1503075000364333,True,18,1,1,9
PB038K22,1,99,PS,exp,45,→,no_key,no_letter,-1.0,False,17,-1,1,10
PB038K22,1,100,PS,exp,30,←,left,←,1.3498867000453174,True,18,-1,0,10
PB038K22,1,101,PS,exp,31,→,left,←,1.6320190000114962,False,18,-1,0,10
PB038K22,1,102,PS,exp,42,↓,down,↓,0.7987473000539467,True,19,-1,0,10
PB038K22,1,103,PS,exp,29,→,right,→,1.2196626999648288,True,19,1,1,11
PB038K22,1,104,PS,exp,26,←,left,←,1.256939599988982,True,18,1,0,11
PB038K22,1,105,PS,exp,32,↑,up,↑,1.4518005000427365,True,18,1,0,11
PB038K22,1,106,PS,exp,36,↓,down,↓,1.4723030000459403,True,17,1,0,11
PB038K22,1,107,PS,exp,30,←,left,←,1.2056016999995336,True,17,1,0,11
PB038K22,1,108,PS,exp,38,↓,down,↓,0.9537084000185132,True,16,1,0,11
PB038K22,1,109,PS,exp,46,←,left,←,0.9997405000030994,True,16,1,0,11
PB038K22,1,110,PS,exp,47,↑,up,↑,1.060475999955088,True,15,1,0,11
PB038K22,1,111,PS,exp,35,→,right,→,1.3107654000632465,True,15,1,0,11
PB038K22,1,112,PS,exp,42,←,left,←,1.1381565000629053,True,14,1,0,11
PB038K22,1,113,PS,exp,29,→,right,→,1.2617230999749154,True,14,1,0,11
PB038K22,1,114,PS,exp,27,↑,up,↑,1.1814041999168694,True,13,1,0,11
PB038K22,1,115,PS,exp,45,←,left,←,0.9249291999731213,True,13,1,0,11
PB038K22,1,116,PS,exp,44,↓,down,↓,0.8211549000116065,True,12,1,0,11
PB038K22,1,117,PS,exp,26,→,right,→,1.0429069000529125,True,12,1,0,11
PB038K22,1,118,PS,exp,38,↑,up,↑,1.0699510999256745,True,11,1,0,11
PB038K22,1,119,PS,exp,29,←,left,←,1.2467337000416592,True,11,1,0,11
PB038K22,1,120,PS,exp,28,↑,up,↑,1.0364477999974042,True,10,1,0,11
PB038K22,1,121,PS,exp,49,←,left,←,0.9392249999800697,True,10,1,0,11
PB038K22,1,122,PS,exp,33,→,right,→,0.648564700037241,True,9,1,0,11
PB038K22,1,123,PS,exp,43,↑,up,↑,0.8922436999855563,True,9,1,0,11
PB038K22,1,124,PS,exp,26,←,left,←,0.8490176999475807,True,8,1,0,11
PB038K22,1,125,PS,exp,36,→,right,→,0.6783706999849528,True,8,1,0,11
PB038K22,1,126,PS,exp,29,←,left,←,0.8121298999758437,True,7,1,0,11
PB038K22,1,127,PS,exp,50,↓,up,↑,1.5884475000202656,False,7,-1,1,12
PB038K22,1,128,PS,exp,39,→,no_key,no_letter,-1.0,False,8,-1,0,12
PB038K22,1,129,PS,exp,32,↓,down,↓,0.8014816000359133,True,9,-1,0,12
PB038K22,1,130,PS,exp,47,←,left,←,1.8150341000873595,True,9,1,1,13
PB038K22,1,131,PS,exp,32,↓,down,↓,0.7733366000466049,True,8,1,0,13
PB038K22,1,132,PS,exp,34,↑,no_key,no_letter,-1.0,False,8,-1,1,14
PB038K22,2,133,AS,intra_train,42,→,right,→,1.0449928999878466,True,19,-,-,-
PB038K22,2,134,AS,intra_train,37,↑,down,↓,1.4046754000009969,False,19,-,-,-
PB038K22,2,135,AS,intra_train,32,→,right,→,0.8385704000247642,True,19,-,-,-
PB038K22,2,136,AS,intra_train,46,↓,down,↓,1.3755095000378788,True,19,-,-,-
PB038K22,2,137,AS,intra_train,39,→,left,←,1.2764045000076294,False,19,-,-,-
PB038K22,2,138,AS,exp,50,←,left,←,1.022872900008224,True,13,0,0,0
PB038K22,2,139,AS,exp,44,→,left,←,1.4500456999521703,False,13,-1,0,0
PB038K22,2,140,AS,exp,27,↑,up,↑,1.329990700003691,True,14,-1,0,0
PB038K22,2,141,AS,exp,49,←,left,←,0.7858803999843076,True,14,1,1,1
PB038K22,2,142,AS,exp,25,↑,up,↑,1.2936559000518173,True,13,1,0,1
PB038K22,2,143,AS,exp,46,→,right,→,1.2526044000405818,True,13,1,0,1
PB038K22,2,144,AS,exp,32,↓,no_key,no_letter,-1.0,False,12,-1,1,2
PB038K22,2,145,AS,exp,35,→,right,→,1.0258585999254137,True,13,-1,0,2
PB038K22,2,146,AS,exp,33,↓,down,↓,0.7956881000427529,True,13,1,1,3
PB038K22,2,147,AS,exp,47,→,right,→,1.3751147000584751,True,12,1,0,3
PB038K22,2,148,AS,exp,44,↑,no_key,no_letter,-1.0,False,12,-1,1,4
PB038K22,2,149,AS,exp,46,→,right,→,0.956742100068368,True,13,-1,0,4
PB038K22,2,150,AS,exp,45,↑,down,↓,1.1885412000119686,False,13,-1,0,4
PB038K22,2,151,AS,exp,32,←,left,←,1.100142400013283,True,14,-1,0,4
PB038K22,2,152,AS,exp,28,↓,down,↓,0.6890205000527203,True,14,1,1,5
PB038K22,2,153,AS,exp,35,←,left,←,0.8665778000140563,True,13,1,0,5
PB038K22,2,154,AS,exp,34,↑,down,↓,1.3460910000139847,False,13,-1,1,6
PB038K22,2,155,AS,exp,46,→,right,→,1.1837637999560684,True,14,-1,0,6
PB038K22,2,156,AS,exp,50,↑,up,↑,1.421405200031586,True,14,1,1,7
PB038K22,2,157,AS,exp,40,↓,down,↓,1.5551990000531077,True,13,1,0,7
PB038K22,2,158,AS,exp,25,→,right,→,0.999634200008586,True,13,1,0,7
PB038K22,2,159,AS,exp,33,←,left,←,1.549132899963297,True,12,1,0,7
PB038K22,2,160,AS,exp,39,↑,up,↑,1.1882378000300378,True,12,1,0,7
PB038K22,2,161,AS,exp,41,←,right,→,1.600187899894081,False,11,-1,1,8
PB038K22,2,162,AS,exp,44,↑,no_key,no_letter,-1.0,False,12,-1,0,8
PB038K22,2,163,AS,exp,38,→,right,→,1.0151093000313267,True,13,-1,0,8
PB038K22,2,164,AS,exp,44,↓,down,↓,1.059868699987419,True,13,1,1,9
PB038K22,2,165,AS,exp,46,→,right,→,0.9931538000237197,True,12,1,0,9
PB038K22,2,166,AS,exp,48,↓,down,↓,0.8986805999884382,True,12,1,0,9
PB038K22,2,167,AS,exp,43,↑,up,↑,1.153549899929203,True,11,1,0,9
PB038K22,2,168,AS,exp,45,↓,down,↓,0.9110773999709636,True,11,1,0,9
PB038K22,2,169,AS,exp,39,←,no_key,no_letter,-1.0,False,10,-1,1,10
PB038K22,2,170,AS,exp,30,↑,no_key,no_letter,-1.0,False,11,-1,0,10
PB038K22,2,171,AS,exp,47,←,left,←,1.0348193000536412,True,12,-1,0,10
PB038K22,2,172,AS,exp,49,→,right,→,1.0124331000261009,True,12,1,1,11
PB038K22,2,173,AS,exp,48,←,right,→,1.3112412000773475,False,11,-1,1,12
PB038K22,2,174,AS,exp,49,↓,down,↓,0.7839526999741793,True,12,-1,0,12
PB038K22,2,175,AS,exp,27,←,left,←,1.1107627999735996,True,12,1,1,13
PB038K22,2,176,AS,exp,43,↑,down,↓,1.051445799996145,False,11,-1,1,14
PB038K22,3,177,AS,intra_train,27,←,left,←,0.8405296000419185,True,19,-,-,-
PB038K22,3,178,AS,intra_train,39,→,right,→,0.8687977000372484,True,19,-,-,-
PB038K22,3,179,AS,intra_train,30,←,left,←,0.8333425000309944,True,19,-,-,-
PB038K22,3,180,AS,intra_train,41,↓,down,↓,0.9341828000033274,True,19,-,-,-
PB038K22,3,181,AS,intra_train,46,↑,up,↑,1.0649341000244021,True,19,-,-,-
PB038K22,3,182,AS,exp,42,→,right,→,0.6167443000013009,True,13,0,0,0
PB038K22,3,183,AS,exp,30,↑,up,↑,1.1773530999198556,True,13,1,0,0
PB038K22,3,184,AS,exp,27,←,left,←,0.7062593000009656,True,12,1,0,0
PB038K22,3,185,AS,exp,40,→,right,→,0.7292583000380546,True,12,1,0,0
PB038K22,3,186,AS,exp,36,↑,up,↑,0.8765815999358892,True,11,1,0,0
PB038K22,3,187,AS,exp,36,→,right,→,1.0052175999153405,True,11,1,0,0
PB038K22,3,188,AS,exp,31,↓,down,↓,1.623140300041996,True,10,1,0,0
PB038K22,3,189,AS,exp,47,↑,down,↓,1.4998250999487936,False,10,-1,1,1
PB038K22,3,190,AS,exp,29,←,down,↓,0.9743581000948325,False,11,-1,0,1
PB038K22,3,191,AS,exp,37,↓,down,↓,1.0040694000199437,True,12,-1,0,1
PB038K22,3,192,AS,exp,25,←,right,→,1.2124856999143958,False,12,-1,0,1
PB038K22,3,193,AS,exp,42,→,right,→,0.8467216999270022,True,13,-1,0,1
PB038K22,3,194,AS,exp,32,←,left,←,0.8701255000196397,True,13,1,1,2
PB038K22,3,195,AS,exp,50,↑,left,←,1.119074400048703,False,12,-1,1,3
PB038K22,3,196,AS,exp,50,↓,down,↓,0.7860177999828011,True,13,-1,0,3
PB038K22,3,197,AS,exp,32,→,right,→,0.9235530000878498,True,13,1,1,4
PB038K22,3,198,AS,exp,42,↓,down,↓,0.8920056000351906,True,12,1,0,4
PB038K22,3,199,AS,exp,45,←,left,←,0.8088652000296861,True,12,1,0,4
PB038K22,3,200,AS,exp,27,↑,up,↑,0.8386369999498129,True,11,1,0,4
PB038K22,3,201,AS,exp,40,←,right,→,0.9467999000335112,False,11,-1,1,5
PB038K22,3,202,AS,exp,42,↓,right,→,0.9428069000132382,False,12,-1,0,5
PB038K22,3,203,AS,exp,38,↑,up,↑,0.5951990000903606,True,13,-1,0,5
PB038K22,3,204,AS,exp,36,↓,right,→,0.9501998000778258,False,13,-1,0,5
PB038K22,3,205,AS,exp,37,←,left,←,0.6110498999478295,True,14,-1,0,5
PB038K22,3,206,AS,exp,47,→,right,→,0.8998546999646351,True,14,1,1,6
PB038K22,3,207,AS,exp,26,←,left,←,0.6546343999216333,True,13,1,0,6
PB038K22,3,208,AS,exp,29,↓,down,↓,0.6658114999299869,True,13,1,0,6
PB038K22,3,209,AS,exp,40,↑,up,↑,0.5468727999832481,True,12,1,0,6
PB038K22,3,210,AS,exp,27,←,left,←,0.5103879999369383,True,12,1,0,6
PB038K22,3,211,AS,exp,39,→,right,→,0.9530901000835001,True,11,1,0,6
PB038K22,3,212,AS,exp,30,←,right,→,1.2037113000405952,False,11,-1,1,7
PB038K22,3,213,AS,exp,25,↑,no_key,no_letter,-1.0,False,12,-1,0,7
PB038K22,3,214,AS,exp,35,↓,down,↓,1.1653924999991432,True,13,-1,0,7
PB038K22,3,215,AS,exp,48,↑,up,↑,1.0223862000275403,True,13,1,1,8
PB038K22,3,216,AS,exp,34,→,right,→,0.9747540999669582,True,12,1,0,8
PB038K22,3,217,AS,exp,33,↑,up,↑,0.9360746999736875,True,12,1,0,8
PB038K22,3,218,AS,exp,34,←,no_key,no_letter,-1.0,False,11,-1,1,9
PB038K22,3,219,AS,exp,50,↑,up,↑,0.9799126000143588,True,12,-1,0,9
PB038K22,3,220,AS,exp,36,←,right,→,1.1410313999513164,False,12,-1,0,9
PB038K22,3,221,AS,exp,36,→,right,→,0.8481725000310689,True,13,-1,0,9
PB038K22,3,222,AS,exp,43,↑,up,↑,1.279671399970539,True,13,1,1,10
PB038K22,3,223,AS,exp,39,↓,down,↓,1.5569274000590667,True,12,1,0,10
PB038K22,3,224,AS,exp,44,←,left,←,0.9192379999440163,True,12,1,0,10
PB038K22,3,225,AS,exp,34,↓,down,↓,1.0105438000755385,True,11,1,0,10
PB038K22,3,226,AS,exp,42,→,right,→,1.3267436999594793,True,11,1,0,10
PB038K22,3,227,AS,exp,43,↑,up,↑,1.0266621999908239,True,10,1,0,10
PB038K22,3,228,AS,exp,39,←,right,→,1.7863458999199793,False,10,-1,1,11
PB038K22,3,229,AS,exp,32,↑,up,↑,0.9232510000001639,True,11,-1,0,11
PB038K22,3,230,AS,exp,32,↓,no_key,no_letter,-1.0,False,11,-1,0,11
PB038K22,3,231,AS,exp,42,←,left,←,0.8192125998903066,True,12,-1,0,11
PB038K22,3,232,AS,exp,30,→,right,→,0.8009843000909314,True,12,1,1,12
PB038K22,3,233,AS,exp,40,↓,down,↓,1.6770756000187248,True,11,1,0,12
PB038K22,3,234,AS,exp,37,←,left,←,1.1243583000032231,True,11,1,0,12
PB038K22,3,235,AS,exp,26,→,no_key,no_letter,-1.0,False,10,-1,1,13
PB038K22,3,236,AS,exp,40,↑,up,↑,0.8875383000122383,True,11,-1,0,13
PB038K22,3,237,AS,exp,31,→,right,→,0.7646381000522524,True,11,1,1,14
PB038K22,4,238,PS,intra_train,41,←,left,←,0.9646446999395266,True,9,-,-,-
PB038K22,4,239,PS,intra_train,41,↓,left,←,1.2460587999084964,False,9,-,-,-
PB038K22,4,240,PS,intra_train,30,←,left,←,0.8587043000152335,True,9,-,-,-
PB038K22,4,241,PS,intra_train,43,→,right,→,0.820019300095737,True,9,-,-,-
PB038K22,4,242,PS,intra_train,43,←,left,←,1.209506900049746,True,9,-,-,-
PB038K22,4,243,PS,exp,30,→,right,→,0.7708169999532402,True,6,0,0,0
PB038K22,4,244,PS,exp,33,↓,down,↓,0.9851697001140565,True,6,1,0,0
PB038K22,4,245,PS,exp,27,←,down,↓,1.3950814999407157,False,5,-1,1,1
PB038K22,4,246,PS,exp,36,↓,right,→,0.8876132000004873,False,6,-1,0,1
PB038K22,4,247,PS,exp,32,↑,up,↑,0.7940106999594718,True,7,-1,0,1
PB038K22,4,248,PS,exp,35,←,left,←,0.9861708999378607,True,7,1,1,2
PB038K22,4,249,PS,exp,47,↓,down,↓,1.1799553000601009,True,6,1,0,2
PB038K22,4,250,PS,exp,43,←,left,←,1.4571411000797525,True,6,1,0,2
PB038K22,4,251,PS,exp,35,↑,up,↑,1.0266561000607908,True,5,1,0,2
PB038K22,4,252,PS,exp,43,←,left,←,0.7940647999057546,True,5,1,0,2
PB038K22,4,253,PS,exp,32,→,right,→,0.9021245000185445,True,4,1,0,2
PB038K22,4,254,PS,exp,46,↓,right,→,1.5248957000439987,False,4,-1,1,3
PB038K22,4,255,PS,exp,36,↑,up,↑,1.327285400009714,True,5,-1,0,3
PB038K22,4,256,PS,exp,36,↓,down,↓,1.0146725999657065,True,5,1,1,4
PB038K22,4,257,PS,exp,46,→,no_key,no_letter,-1.0,False,4,-1,1,5
PB038K22,4,258,PS,exp,34,↓,right,→,1.1006833999417722,False,5,-1,0,5
PB038K22,4,259,PS,exp,46,↑,up,↑,1.1264689000090584,True,6,-1,0,5
PB038K22,4,260,PS,exp,36,↓,right,→,1.315929799922742,False,6,-1,0,5
PB038K22,4,261,PS,exp,36,↑,no_key,no_letter,-1.0,False,7,-1,0,5
PB038K22,4,262,PS,exp,33,←,left,←,0.8319033000152558,True,8,-1,0,5
PB038K22,4,263,PS,exp,29,↑,up,↑,0.8655733000487089,True,8,1,1,6
PB038K22,4,264,PS,exp,50,←,left,←,0.8008368000155315,True,7,1,0,6
PB038K22,4,265,PS,exp,36,↑,right,→,1.0444649000419304,False,7,-1,1,7
PB038K22,4,266,PS,exp,34,→,right,→,0.9384078000439331,True,8,-1,0,7
PB038K22,4,267,PS,exp,46,↓,down,↓,0.9643583999713883,True,8,1,1,8
PB038K22,4,268,PS,exp,28,←,left,←,0.8599898999091238,True,7,1,0,8
PB038K22,4,269,PS,exp,38,↑,up,↑,1.0029596999520436,True,7,1,0,8
PB038K22,4,270,PS,exp,32,→,no_key,no_letter,-1.0,False,6,-1,1,9
PB038K22,4,271,PS,exp,38,↑,no_key,no_letter,-1.0,False,7,-1,0,9
PB038K22,4,272,PS,exp,45,→,right,→,0.8139085000148043,True,8,-1,0,9
PB038K22,4,273,PS,exp,31,←,left,←,0.7716904000844806,True,8,1,1,10
PB038K22,4,274,PS,exp,40,→,right,→,0.7005418000044301,True,7,1,0,10
PB038K22,4,275,PS,exp,29,↓,down,↓,0.8010557999368757,True,7,1,0,10
PB038K22,4,276,PS,exp,44,→,no_key,no_letter,-1.0,False,6,-1,1,11
PB038K22,4,277,PS,exp,42,↓,no_key,no_letter,-1.0,False,7,-1,0,11
PB038K22,4,278,PS,exp,50,→,right,→,0.8307436999166384,True,8,-1,0,11
PB038K22,4,279,PS,exp,36,↓,down,↓,0.8785481000086293,True,8,1,1,12
PB038K22,4,280,PS,exp,30,↑,up,↑,0.8387122999411076,True,7,1,0,12
PB038K22,4,281,PS,exp,40,↓,left,←,1.5855269000167027,False,7,-1,1,13
PB038K22,4,282,PS,exp,29,←,no_key,no_letter,-1.0,False,8,-1,0,13
PB038K22,4,283,PS,exp,45,↓,down,↓,0.9412496000295505,True,9,-1,0,13
PB038K22,4,284,PS,exp,33,↑,right,→,0.9013047999469563,False,9,-1,0,13
PB038K22,4,285,PS,exp,45,→,no_key,no_letter,-1.0,False,10,-1,0,13
PB038K22,4,286,PS,exp,45,↓,no_key,no_letter,-1.0,False,11,-1,0,13
PB038K22,4,287,PS,exp,26,↑,no_key,no_letter,-1.0,False,12,-1,0,13
PB038K22,4,288,PS,exp,28,←,left,←,0.7967067999998108,True,13,-1,0,13
PB038K22,4,289,PS,exp,31,→,right,→,0.5418147000018507,True,13,1,1,14
PB038K22,5,290,PS,intra_train,47,←,left,←,0.9486093999585137,True,9,-,-,-
PB038K22,5,291,PS,intra_train,35,↑,up,↑,0.6393873000051826,True,9,-,-,-
PB038K22,5,292,PS,intra_train,46,←,left,←,0.8605074000079185,True,9,-,-,-
PB038K22,5,293,PS,intra_train,39,↓,down,↓,1.1113537000492215,True,9,-,-,-
PB038K22,5,294,PS,intra_train,42,↑,up,↑,0.7390970999840647,True,9,-,-,-
PB038K22,5,295,PS,exp,43,→,left,←,0.9073038999922574,False,6,-1,0,0
PB038K22,5,296,PS,exp,40,←,left,←,0.8292920000385493,True,7,-1,0,0
PB038K22,5,297,PS,exp,34,↑,no_key,no_letter,-1.0,False,7,-1,0,0
PB038K22,5,298,PS,exp,36,→,no_key,no_letter,-1.0,False,8,-1,0,0
PB038K22,5,299,PS,exp,41,↓,down,↓,0.9137693999800831,True,9,-1,0,0
PB038K22,5,300,PS,exp,39,→,right,→,0.6680539000080898,True,9,1,1,1
PB038K22,5,301,PS,exp,46,↑,no_key,no_letter,-1.0,False,8,-1,1,2
PB038K22,5,302,PS,exp,39,↓,no_key,no_letter,-1.0,False,9,-1,0,2
PB038K22,5,303,PS,exp,50,↑,up,↑,0.7146179999690503,True,10,-1,0,2
PB038K22,5,304,PS,exp,37,→,left,←,0.7846409999765456,False,10,-1,0,2
PB038K22,5,305,PS,exp,27,↑,left,←,0.7922476000385359,False,11,-1,0,2
PB038K22,5,306,PS,exp,28,↓,no_key,no_letter,-1.0,False,12,-1,0,2
PB038K22,5,307,PS,exp,46,→,right,→,1.0649440999841318,True,13,-1,0,2
PB038K22,5,308,PS,exp,49,↑,up,↑,0.5917858999455348,True,13,1,1,3
PB038K22,5,309,PS,exp,28,→,right,→,1.0799275999888778,True,12,1,0,3
PB038K22,5,310,PS,exp,42,↓,down,↓,0.9693787000142038,True,12,1,0,3
PB038K22,5,311,PS,exp,28,→,right,→,0.6131562000373378,True,11,1,0,3
PB038K22,5,312,PS,exp,41,←,left,←,0.6788838999345899,True,11,1,0,3
PB038K22,5,313,PS,exp,48,↓,down,↓,0.8733366000233218,True,10,1,0,3
PB038K22,5,314,PS,exp,28,→,right,→,0.7095311000011861,True,10,1,0,3
PB038K22,5,315,PS,exp,34,↓,down,↓,0.8348037999821827,True,9,1,0,3
PB038K22,5,316,PS,exp,49,←,left,←,0.9141945000737906,True,9,1,0,3
PB038K22,5,317,PS,exp,44,→,right,→,0.9695821000495926,True,8,1,0,3
PB038K22,5,318,PS,exp,32,↑,up,↑,0.8869606000371277,True,8,1,0,3
PB038K22,5,319,PS,exp,43,↓,down,↓,0.8242167999269441,True,7,1,0,3
PB038K22,5,320,PS,exp,47,←,left,←,0.7838507000124082,True,7,1,0,3
PB038K22,5,321,PS,exp,30,↓,right,→,1.5554458999540657,False,6,-1,1,4
PB038K22,5,322,PS,exp,29,↑,up,↑,1.0217977999709547,True,7,-1,0,4
PB038K22,5,323,PS,exp,42,→,left,←,0.871304800035432,False,7,-1,0,4
PB038K22,5,324,PS,exp,28,↓,down,↓,0.81155059998855,True,8,-1,0,4
PB038K22,5,325,PS,exp,28,↑,up,↑,0.965946999960579,True,8,1,1,5
PB038K22,5,326,PS,exp,46,↓,down,↓,1.4973846999928355,True,7,1,0,5
PB038K22,5,327,PS,exp,39,→,right,→,0.976964799920097,True,7,1,0,5
PB038K22,5,328,PS,exp,36,↑,up,↑,1.3957457999931648,True,6,1,0,5
PB038K22,5,329,PS,exp,28,↓,down,↓,0.6757360999472439,True,6,1,0,5
PB038K22,5,330,PS,exp,40,→,right,→,0.828031999990344,True,5,1,0,5
PB038K22,5,331,PS,exp,46,↑,up,↑,0.8473870999878272,True,5,1,0,5
PB038K22,5,332,PS,exp,38,↓,left,←,0.9619549000635743,False,4,-1,1,6
PB038K22,5,333,PS,exp,30,→,right,→,0.9219044999917969,True,5,-1,0,6
PB038K22,5,334,PS,exp,49,←,left,←,0.8262147000059485,True,5,1,1,7
PB038K22,5,335,PS,exp,48,↓,down,↓,0.6519332999596372,True,4,1,0,7
PB038K22,5,336,PS,exp,45,→,right,→,0.8441121999640018,True,4,1,0,7
PB038K22,5,337,PS,exp,48,↓,left,←,1.304103899979964,False,3,-1,1,8
PB038K22,5,338,PS,exp,41,↑,up,↑,0.7867215999867767,True,4,-1,0,8
PB038K22,5,339,PS,exp,26,↓,left,←,1.1696713999845088,False,4,-1,0,8
PB038K22,5,340,PS,exp,26,→,left,←,0.8993230999913067,False,5,-1,0,8
PB038K22,5,341,PS,exp,30,←,left,←,0.875248400028795,True,6,-1,0,8
PB038K22,5,342,PS,exp,36,↑,left,←,1.0320887999841943,False,6,-1,0,8
PB038K22,5,343,PS,exp,27,↓,down,↓,0.8166614999063313,True,7,-1,0,8
PB038K22,5,344,PS,exp,49,→,right,→,0.9020719999680296,True,7,1,1,9
PB038K22,5,345,PS,exp,40,↑,up,↑,0.7287599999690428,True,6,1,0,9
PB038K22,5,346,PS,exp,43,→,right,→,0.6814485000213608,True,6,1,0,9
PB038K22,5,347,PS,exp,44,↓,left,←,0.8626081000547856,False,5,-1,1,10
PB038K22,5,348,PS,exp,46,→,right,→,0.9196826999541372,True,6,-1,0,10
PB038K22,5,349,PS,exp,45,↑,up,↑,0.7005772000411525,True,6,1,1,11
PB038K22,5,350,PS,exp,44,→,right,→,0.5910261999815702,True,5,1,0,11
PB038K22,5,351,PS,exp,39,←,left,←,0.7579312999732792,True,5,1,0,11
PB038K22,5,352,PS,exp,46,↓,down,↓,0.95127110008616,True,4,1,0,11
PB038K22,5,353,PS,exp,29,←,no_key,no_letter,-1.0,False,4,-1,1,12
PB038K22,5,354,PS,exp,39,→,right,→,0.6265418999828398,True,5,-1,0,12
PB038K22,5,355,PS,exp,32,←,left,←,0.7174761999631301,True,5,1,1,13
PB038K22,5,356,PS,exp,39,↓,down,↓,0.6180478000314906,True,4,1,0,13
PB038K22,5,357,PS,exp,30,↑,up,↑,0.9658887999830768,True,4,1,0,13
PB038K22,5,358,PS,exp,35,←,left,←,0.6891134000616148,True,3,1,0,13
PB038K22,5,359,PS,exp,39,↓,down,↓,0.6188374999910593,True,3,1,0,13
PB038K22,5,360,PS,exp,26,↑,left,←,0.8611052000196651,False,2,-1,1,14
PB038K22,6,361,AS,intra_train,43,←,left,←,0.671151400078088,True,19,-,-,-
PB038K22,6,362,AS,intra_train,32,→,right,→,0.6351085999049246,True,19,-,-,-
PB038K22,6,363,AS,intra_train,26,↑,right,→,0.8798616999993101,False,19,-,-,-
PB038K22,6,364,AS,intra_train,28,↓,down,↓,0.8739179000258446,True,19,-,-,-
PB038K22,6,365,AS,intra_train,48,→,right,→,0.849335900042206,True,19,-,-,-
PB038K22,6,366,AS,exp,49,←,left,←,1.0642054999480024,True,13,0,0,0
PB038K22,6,367,AS,exp,25,↓,down,↓,0.8456862999591976,True,13,1,0,0
PB038K22,6,368,AS,exp,36,→,right,→,0.8504077999386936,True,12,1,0,0
PB038K22,6,369,AS,exp,26,←,left,←,0.6137613999890164,True,12,1,0,0
PB038K22,6,370,AS,exp,49,↓,left,←,1.7362215999746695,False,11,-1,1,1
PB038K22,6,371,AS,exp,31,←,no_key,no_letter,-1.0,False,12,-1,0,1
PB038K22,6,372,AS,exp,34,↑,up,↑,0.5973327000392601,True,13,-1,0,1
PB038K22,6,373,AS,exp,49,←,left,←,0.7485182000091299,True,13,1,1,2
PB038K22,6,374,AS,exp,44,↓,down,↓,0.8147309999912977,True,12,1,0,2
PB038K22,6,375,AS,exp,45,↑,down,↓,0.9634554000804201,False,12,-1,1,3
PB038K22,6,376,AS,exp,33,↓,down,↓,0.8904020000481978,True,13,-1,0,3
PB038K22,6,377,AS,exp,50,↑,down,↓,0.6645189999835566,False,13,-1,0,3
PB038K22,6,378,AS,exp,38,←,down,↓,1.0488436999730766,False,14,-1,0,3
PB038K22,6,379,AS,exp,49,↑,up,↑,0.753145599970594,True,15,-1,0,3
PB038K22,6,380,AS,exp,32,←,right,→,0.8487054000142962,False,15,-1,0,3
PB038K22,6,381,AS,exp,39,→,right,→,0.5791419999441132,True,16,-1,0,3
PB038K22,6,382,AS,exp,42,↑,up,↑,0.563916900078766,True,16,1,1,4
PB038K22,6,383,AS,exp,48,←,left,←,1.1746330000460148,True,15,1,0,4
PB038K22,6,384,AS,exp,46,↑,up,↑,0.9918280999409035,True,15,1,0,4
PB038K22,6,385,AS,exp,37,↓,down,↓,0.7856147999409586,True,14,1,0,4
PB038K22,6,386,AS,exp,37,↑,down,↓,1.076078600017354,False,14,-1,1,5
PB038K22,6,387,AS,exp,35,←,left,←,0.750565700000152,True,15,-1,0,5
PB038K22,6,388,AS,exp,28,→,right,→,0.9594940999522805,True,15,1,1,6
PB038K22,6,389,AS,exp,34,↓,down,↓,1.0402915999293327,True,14,1,0,6
PB038K22,6,390,AS,exp,28,→,right,→,0.8261626000748947,True,14,1,0,6
PB038K22,6,391,AS,exp,26,←,left,←,0.5383779000258073,True,13,1,0,6
PB038K22,6,392,AS,exp,31,→,right,→,0.7169903999892995,True,13,1,0,6
PB038K22,6,393,AS,exp,33,↑,up,↑,0.662552300025709,True,12,1,0,6
PB038K22,6,394,AS,exp,50,→,right,→,0.8132303000893444,True,12,1,0,6
PB038K22,6,395,AS,exp,46,↑,up,↑,0.9834725999971852,True,11,1,0,6
PB038K22,6,396,AS,exp,48,→,right,→,0.7649833000032231,True,11,1,0,6
PB038K22,6,397,AS,exp,44,←,right,→,0.84586059988942,False,10,-1,1,7
PB038K22,6,398,AS,exp,29,↑,up,↑,0.7649449999444187,True,11,-1,0,7
PB038K22,6,399,AS,exp,32,↓,down,↓,1.1303925000829622,True,11,1,1,8
PB038K22,6,400,AS,exp,48,↑,no_key,no_letter,-1.0,False,10,-1,1,9
PB038K22,6,401,AS,exp,47,↓,down,↓,0.9459079999942333,True,11,-1,0,9
PB038K22,6,402,AS,exp,32,↑,down,↓,1.1617007999448106,False,11,-1,0,9
PB038K22,6,403,AS,exp,37,←,left,←,0.7566131000639871,True,12,-1,0,9
PB038K22,6,404,AS,exp,28,→,right,→,0.7591131000081077,True,12,1,1,10
PB038K22,6,405,AS,exp,40,←,left,←,0.8572281999513507,True,11,1,0,10
PB038K22,6,406,AS,exp,49,→,right,→,0.8949245999101549,True,11,1,0,10
PB038K22,6,407,AS,exp,33,←,left,←,0.6634314999682829,True,10,1,0,10
PB038K22,6,408,AS,exp,43,↓,no_key,no_letter,-1.0,False,10,-1,1,11
PB038K22,6,409,AS,exp,35,→,right,→,0.8476273999549448,True,11,-1,0,11
PB038K22,6,410,AS,exp,32,←,left,←,0.5838479000376537,True,11,1,1,12
PB038K22,6,411,AS,exp,44,↑,up,↑,0.6391577000031248,True,10,1,0,12
PB038K22,6,412,AS,exp,48,←,left,←,0.9876838999334723,True,10,1,0,12
PB038K22,6,413,AS,exp,42,→,right,→,0.7568554000463337,True,9,1,0,12
PB038K22,6,414,AS,exp,33,↑,up,↑,0.5561673000920564,True,9,1,0,12
PB038K22,6,415,AS,exp,29,←,right,→,1.0047044000821188,False,8,-1,1,13
PB038K22,6,416,AS,exp,29,↑,no_key,no_letter,-1.0,False,9,-1,0,13
PB038K22,6,417,AS,exp,35,↓,down,↓,0.7804300000425428,True,10,-1,0,13
PB038K22,6,418,AS,exp,37,←,left,←,0.5537863000063226,True,10,1,1,14
PB038K22,7,419,AS,intra_train,42,↑,up,↑,0.8543017999036238,True,19,-,-,-
PB038K22,7,420,AS,intra_train,26,→,right,→,0.8331014000577852,True,19,-,-,-
PB038K22,7,421,AS,intra_train,27,↑,down,↓,0.9856613000156358,False,19,-,-,-
PB038K22,7,422,AS,intra_train,25,↓,down,↓,0.9003056000219658,True,19,-,-,-
PB038K22,7,423,AS,intra_train,50,↑,up,↑,0.8462197999469936,True,19,-,-,-
PB038K22,7,424,AS,exp,39,↓,down,↓,1.24373700004071,True,13,0,0,0
PB038K22,7,425,AS,exp,39,→,down,↓,0.8838024999713525,False,13,-1,0,0
PB038K22,7,426,AS,exp,25,↓,down,↓,0.6565431000199169,True,14,-1,0,0
PB038K22,7,427,AS,exp,26,↑,up,↑,0.5818649999564514,True,14,1,1,1
PB038K22,7,428,AS,exp,46,→,right,→,0.6171618000371382,True,13,1,0,1
PB038K22,7,429,AS,exp,35,↓,down,↓,0.6971350000239909,True,13,1,0,1
PB038K22,7,430,AS,exp,46,↑,up,↑,0.5136173999635503,True,12,1,0,1
PB038K22,7,431,AS,exp,27,→,right,→,0.5788304000161588,True,12,1,0,1
PB038K22,7,432,AS,exp,25,↓,down,↓,0.8892384999198839,True,11,1,0,1
PB038K22,7,433,AS,exp,26,↑,up,↑,0.840268199914135,True,11,1,0,1
PB038K22,7,434,AS,exp,40,↓,down,↓,1.040260300040245,True,10,1,0,1
PB038K22,7,435,AS,exp,50,↑,up,↑,0.6107130999444053,True,10,1,0,1
PB038K22,7,436,AS,exp,48,↓,down,↓,0.8783492000075057,True,9,1,0,1
PB038K22,7,437,AS,exp,49,→,down,↓,0.8686215000925586,False,9,-1,1,2
PB038K22,7,438,AS,exp,34,↑,up,↑,0.4978517999406904,True,10,-1,0,2
PB038K22,7,439,AS,exp,42,→,right,→,0.6397394000086933,True,10,1,1,3
PB038K22,7,440,AS,exp,29,←,left,←,0.46919060009531677,True,9,1,0,3
PB038K22,7,441,AS,exp,46,↑,up,↑,0.5402117000194266,True,9,1,0,3
PB038K22,7,442,AS,exp,26,→,right,→,0.7291783000109717,True,8,1,0,3
PB038K22,7,443,AS,exp,41,←,no_key,no_letter,-1.0,False,8,-1,1,4
PB038K22,7,444,AS,exp,39,↓,right,→,0.8023142999736592,False,9,-1,0,4
PB038K22,7,445,AS,exp,32,→,right,→,0.5275143999606371,True,10,-1,0,4
PB038K22,7,446,AS,exp,27,←,left,←,0.5254543999908492,True,10,1,1,5
PB038K22,7,447,AS,exp,25,↑,down,↓,0.9308830000227317,False,9,-1,1,6
PB038K22,7,448,AS,exp,50,↓,down,↓,0.6124681000364944,True,10,-1,0,6
PB038K22,7,449,AS,exp,28,→,right,→,0.6969300999771804,True,10,1,1,7
PB038K22,7,450,AS,exp,43,↓,down,↓,1.0522948999423534,True,9,1,0,7
PB038K22,7,451,AS,exp,48,→,right,→,0.7409010999836028,True,9,1,0,7
PB038K22,7,452,AS,exp,36,↓,down,↓,0.8855079999193549,True,8,1,0,7
PB038K22,7,453,AS,exp,43,→,left,←,1.5896537998924032,False,8,-1,1,8
PB038K22,7,454,AS,exp,50,↑,up,↑,0.6723664000164717,True,9,-1,0,8
PB038K22,7,455,AS,exp,27,→,left,←,1.3385439000558108,False,9,-1,0,8
PB038K22,7,456,AS,exp,40,↑,no_key,no_letter,-1.0,False,10,-1,0,8
PB038K22,7,457,AS,exp,25,↓,down,↓,0.49603929999284446,True,11,-1,0,8
PB038K22,7,458,AS,exp,38,←,left,←,0.5683374999789521,True,11,1,1,9
PB038K22,7,459,AS,exp,39,↑,up,↑,0.5849296000087634,True,10,1,0,9
PB038K22,7,460,AS,exp,48,←,left,←,0.5584197000134736,True,10,1,0,9
PB038K22,7,461,AS,exp,34,↑,up,↑,0.509163299924694,True,9,1,0,9
PB038K22,7,462,AS,exp,29,→,left,←,1.383215400041081,False,9,-1,1,10
PB038K22,7,463,AS,exp,30,↑,no_key,no_letter,-1.0,False,10,-1,0,10
PB038K22,7,464,AS,exp,35,←,left,←,1.4461494999704883,True,11,-1,0,10
PB038K22,7,465,AS,exp,42,→,no_key,no_letter,-1.0,False,11,-1,0,10
PB038K22,7,466,AS,exp,38,↑,up,↑,0.7453345999820158,True,12,-1,0,10
PB038K22,7,467,AS,exp,32,→,right,→,0.6193646999308839,True,12,1,1,11
PB038K22,7,468,AS,exp,27,↑,up,↑,0.5337071999674663,True,11,1,0,11
PB038K22,7,469,AS,exp,48,→,no_key,no_letter,-1.0,False,11,-1,1,12
PB038K22,7,470,AS,exp,40,←,left,←,0.8441648000152782,True,12,-1,0,12
PB038K22,7,471,AS,exp,31,↓,up,↑,1.3635330999968573,False,12,-1,0,12
PB038K22,7,472,AS,exp,42,←,left,←,0.5238121999427676,True,13,-1,0,12
PB038K22,7,473,AS,exp,39,↓,down,↓,1.01660999993328,True,13,1,1,13
PB038K22,7,474,AS,exp,35,→,right,→,0.5420436999993399,True,12,1,0,13
PB038K22,7,475,AS,exp,27,↓,down,↓,0.7534209999721497,True,12,1,0,13
PB038K22,7,476,AS,exp,37,→,right,→,0.6596522000618279,True,11,1,0,13
PB038K22,7,477,AS,exp,26,↓,down,↓,0.8696804000064731,True,11,1,0,13
PB038K22,7,478,AS,exp,47,→,right,→,0.60857209993992,True,10,1,0,13
PB038K22,7,479,AS,exp,42,↑,up,↑,0.6914200999308378,True,10,1,0,13
PB038K22,7,480,AS,exp,33,→,right,→,1.1222279000794515,True,9,1,0,13
PB038K22,7,481,AS,exp,49,↓,down,↓,0.9852605999913067,True,9,1,0,13
PB038K22,7,482,AS,exp,31,←,right,→,1.3975731999380514,False,8,-1,1,14
PB038K22,8,483,PS,intra_train,26,→,right,→,0.8732365999603644,True,9,-,-,-
PB038K22,8,484,PS,intra_train,33,←,left,←,0.5492758000036702,True,9,-,-,-
PB038K22,8,485,PS,intra_train,36,↓,down,↓,0.8119241000385955,True,9,-,-,-
PB038K22,8,486,PS,intra_train,49,←,right,→,1.1261011000024155,False,9,-,-,-
PB038K22,8,487,PS,intra_train,44,↓,down,↓,0.6285228999331594,True,9,-,-,-
PB038K22,8,488,PS,exp,48,↑,right,→,0.9666736999060959,False,6,-1,0,0
PB038K22,8,489,PS,exp,46,←,left,←,0.7470182999968529,True,7,-1,0,0
PB038K22,8,490,PS,exp,37,↓,right,→,1.0575788000132889,False,7,-1,0,0
PB038K22,8,491,PS,exp,29,↑,no_key,no_letter,-1.0,False,8,-1,0,0
PB038K22,8,492,PS,exp,41,→,no_key,no_letter,-1.0,False,9,-1,0,0
PB038K22,8,493,PS,exp,34,↑,up,↑,0.7916158000007272,True,10,-1,0,0
PB038K22,8,494,PS,exp,47,↓,down,↓,0.7336146000307053,True,10,1,1,1
PB038K22,8,495,PS,exp,28,↑,up,↑,0.6572887999936938,True,9,1,0,1
PB038K22,8,496,PS,exp,45,→,right,→,0.6389190000481904,True,9,1,0,1
PB038K22,8,497,PS,exp,36,←,left,←,1.3258009999990463,True,8,1,0,1
PB038K22,8,498,PS,exp,43,↓,down,↓,0.6222434000810608,True,8,1,0,1
PB038K22,8,499,PS,exp,45,←,no_key,no_letter,-1.0,False,7,-1,1,2
PB038K22,8,500,PS,exp,38,↑,up,↑,0.9558366000419483,True,8,-1,0,2
PB038K22,8,501,PS,exp,41,↓,left,←,1.64932989992667,False,8,-1,0,2
PB038K22,8,502,PS,exp,35,↑,no_key,no_letter,-1.0,False,9,-1,0,2
PB038K22,8,503,PS,exp,45,←,no_key,no_letter,-1.0,False,10,-1,0,2
PB038K22,8,504,PS,exp,46,↓,down,↓,0.939421399962157,True,11,-1,0,2
PB038K22,8,505,PS,exp,50,→,right,→,0.6514282999560237,True,11,1,1,3
PB038K22,8,506,PS,exp,32,←,left,←,1.1958563999505714,True,10,1,0,3
PB038K22,8,507,PS,exp,40,↑,up,↑,0.6624939000466838,True,10,1,0,3
PB038K22,8,508,PS,exp,46,←,left,←,0.6958300000987947,True,9,1,0,3
PB038K22,8,509,PS,exp,37,↓,down,↓,0.7562182999681681,True,9,1,0,3
PB038K22,8,510,PS,exp,43,←,left,←,0.6516362000256777,True,8,1,0,3
PB038K22,8,511,PS,exp,26,↑,right,→,1.4494520999724045,False,8,-1,1,4
PB038K22,8,512,PS,exp,40,↓,no_key,no_letter,-1.0,False,9,-1,0,4
PB038K22,8,513,PS,exp,47,←,no_key,no_letter,-1.0,False,10,-1,0,4
PB038K22,8,514,PS,exp,27,↑,up,↑,0.6165295999962837,True,11,-1,0,4
PB038K22,8,515,PS,exp,45,→,right,→,0.5210510999895632,True,11,1,1,5
PB038K22,8,516,PS,exp,29,↑,up,↑,0.8178537000203505,True,10,1,0,5
PB038K22,8,517,PS,exp,33,←,left,←,0.5887928000884131,True,10,1,0,5
PB038K22,8,518,PS,exp,42,↓,down,↓,0.8034356000134721,True,9,1,0,5
PB038K22,8,519,PS,exp,46,←,left,←,1.0822515999898314,True,9,1,0,5
PB038K22,8,520,PS,exp,44,↓,down,↓,0.8901718000415713,True,8,1,0,5
PB038K22,8,521,PS,exp,50,↑,left,←,1.0486218999139965,False,8,-1,1,6
PB038K22,8,522,PS,exp,37,→,right,→,0.566743699950166,True,9,-1,0,6
PB038K22,8,523,PS,exp,27,↓,down,↓,0.546621400048025,True,9,1,1,7
PB038K22,8,524,PS,exp,37,→,right,→,0.52031429996714,True,8,1,0,7
PB038K22,8,525,PS,exp,39,←,left,←,0.6203807999845594,True,8,1,0,7
PB038K22,8,526,PS,exp,45,↑,up,↑,0.6146817998960614,True,7,1,0,7
PB038K22,8,527,PS,exp,50,→,right,→,0.5154934999300167,True,7,1,0,7
PB038K22,8,528,PS,exp,37,↑,left,←,0.82347129995469,False,6,-1,1,8
PB038K22,8,529,PS,exp,45,←,left,←,0.7850819999584928,True,7,-1,0,8
PB038K22,8,530,PS,exp,35,→,right,→,0.5045439000241458,True,7,1,1,9
PB038K22,8,531,PS,exp,29,←,left,←,0.871253399993293,True,6,1,0,9
PB038K22,8,532,PS,exp,26,↓,down,↓,0.8964952999958768,True,6,1,0,9
PB038K22,8,533,PS,exp,44,→,right,→,0.8913598000071943,True,5,1,0,9
PB038K22,8,534,PS,exp,46,↑,up,↑,0.7341883999761194,True,5,1,0,9
PB038K22,8,535,PS,exp,50,→,right,→,0.6536112000467256,True,4,1,0,9
PB038K22,8,536,PS,exp,25,↑,left,←,1.0269585000351071,False,4,-1,1,10
PB038K22,8,537,PS,exp,25,←,left,←,0.9969909000210464,True,5,-1,0,10
PB038K22,8,538,PS,exp,50,↑,left,←,1.2726282998919487,False,5,-1,0,10
PB038K22,8,539,PS,exp,44,↓,no_key,no_letter,-1.0,False,6,-1,0,10
PB038K22,8,540,PS,exp,35,←,left,←,0.8136016000062227,True,7,-1,0,10
PB038K22,8,541,PS,exp,42,→,right,→,0.6387436999939382,True,7,1,1,11
PB038K22,8,542,PS,exp,41,←,left,←,0.6934347000205889,True,6,1,0,11
PB038K22,8,543,PS,exp,45,→,left,←,0.8049184000119567,False,6,-1,1,12
PB038K22,8,544,PS,exp,42,←,right,→,1.0111890999833122,False,7,-1,0,12
PB038K22,8,545,PS,exp,41,→,right,→,0.9060553000308573,True,8,-1,0,12
PB038K22,8,546,PS,exp,39,↓,down,↓,0.6438693999079987,True,8,1,1,13
PB038K22,8,547,PS,exp,39,←,left,←,0.8193931999849156,True,7,1,0,13
PB038K22,8,548,PS,exp,44,↓,down,↓,0.7775102000450715,True,7,1,0,13
PB038K22,8,549,PS,exp,33,←,left,←,0.8315974998986349,True,6,1,0,13
PB038K22,8,550,PS,exp,29,↑,no_key,no_letter,-1.0,False,6,-1,1,14
