PART_ID,Block_no,Trial_no,Block_type,Trial_type,CSI,Stim_letter,Key_pressed,letter_choose,Rt,Corr,Stimulus Time,Level,Reversal,Revs_count
PB040M36,1,1,PS,train,39,→,right,→,0.8438623999245465,True,30,-,-,-
PB040M36,1,2,PS,train,50,↑,no_key,no_letter,-1.0,False,30,-,-,-
PB040M36,1,3,PS,train,44,↓,no_key,no_letter,-1.0,False,30,-,-,-
PB040M36,1,4,PS,train,48,→,right,→,0.7253195999655873,True,30,-,-,-
PB040M36,1,5,PS,train,39,↓,down,↓,1.273542799986899,True,30,-,-,-
PB040M36,1,6,PS,train,43,↑,up,↑,1.447419699979946,True,30,-,-,-
PB040M36,1,7,PS,train,38,↓,down,↓,1.0017868999857455,True,30,-,-,-
PB040M36,1,8,PS,train,36,→,right,→,0.8284506999189034,True,30,-,-,-
PB040M36,1,9,PS,train,36,←,left,←,0.680870599928312,True,30,-,-,-
PB040M36,1,10,PS,train,45,↑,up,↑,1.2884425000520423,True,30,-,-,-
PB040M36,2,11,AS,train,49,←,left,←,0.5845271000871435,True,45,-,-,-
PB040M36,2,12,AS,train,32,↑,up,↑,0.8005199999315664,True,45,-,-,-
PB040M36,2,13,AS,train,26,→,right,→,0.684345000074245,True,45,-,-,-
PB040M36,2,14,AS,train,30,←,left,←,0.6678771000588313,True,45,-,-,-
PB040M36,2,15,AS,train,42,↓,down,↓,1.1260418000165373,True,45,-,-,-
PB040M36,2,16,AS,train,31,←,left,←,0.7837853999808431,True,45,-,-,-
PB040M36,2,17,AS,train,50,→,right,→,0.8506193999201059,True,45,-,-,-
PB040M36,2,18,AS,train,39,↑,up,↑,1.0299730999395251,True,45,-,-,-
PB040M36,2,19,AS,train,28,→,right,→,0.5678088000277057,True,45,-,-,-
PB040M36,2,20,AS,train,31,↑,up,↑,0.8338451000163332,True,45,-,-,-
PB040M36,-,21,PS,adaptive,45,←,left,←,0.8662403000053018,True,10,0,0,0
PB040M36,-,22,PS,adaptive,37,→,right,→,0.8142995999660343,True,10,1,0,0
PB040M36,-,23,PS,adaptive,39,↓,right,→,0.976492099929601,False,9,-1,1,1
PB040M36,-,24,PS,adaptive,33,←,up,↑,1.6353209000080824,False,10,-1,0,1
PB040M36,-,25,PS,adaptive,33,↓,up,↑,1.5527696999488398,False,11,-1,0,1
PB040M36,-,26,PS,adaptive,43,→,right,→,0.7189410999417305,True,12,-1,0,1
PB040M36,-,27,PS,adaptive,36,↓,down,↓,0.9233003000263125,True,12,1,1,2
PB040M36,-,28,PS,adaptive,35,←,left,←,0.8173349000280723,True,11,1,0,2
PB040M36,-,29,PS,adaptive,45,↓,down,↓,0.6860693000489846,True,11,1,0,2
PB040M36,-,30,PS,adaptive,34,→,right,→,0.696413500001654,True,10,1,0,2
PB040M36,-,31,PS,adaptive,40,←,no_key,no_letter,-1.0,False,10,-1,1,3
PB040M36,-,32,PS,adaptive,46,↓,no_key,no_letter,-1.0,False,11,-1,0,3
PB040M36,-,33,PS,adaptive,38,←,left,←,0.7204916999908164,True,12,-1,0,3
PB040M36,-,34,PS,adaptive,35,↓,down,↓,0.5588762999977916,True,12,1,1,4
PB040M36,-,35,AS,adaptive,32,↑,up,↑,0.9789785000029951,True,20,0,0,0
PB040M36,-,36,AS,adaptive,46,←,left,←,0.6989889000542462,True,20,1,0,0
PB040M36,-,37,AS,adaptive,46,↑,up,↑,0.6877682000631467,True,19,1,0,0
PB040M36,-,38,AS,adaptive,45,↓,down,↓,1.0135188000276685,True,19,1,0,0
PB040M36,-,39,AS,adaptive,37,↑,up,↑,0.6866705000866205,True,18,1,0,0
PB040M36,-,40,AS,adaptive,33,↓,down,↓,0.7430614000186324,True,18,1,0,0
PB040M36,-,41,AS,adaptive,28,←,left,←,0.6650087999878451,True,17,1,0,0
PB040M36,-,42,AS,adaptive,27,↑,up,↑,0.820921599981375,True,17,1,0,0
PB040M36,-,43,AS,adaptive,37,↓,down,↓,0.7254670000402257,True,16,1,0,0
PB040M36,-,44,AS,adaptive,47,←,left,←,0.6897495000157505,True,16,1,0,0
PB040M36,-,45,AS,adaptive,30,↓,right,→,1.0631600000197068,False,15,-1,1,1
PB040M36,-,46,AS,adaptive,34,←,left,←,1.5034609000431374,True,16,-1,0,1
PB040M36,-,47,AS,adaptive,30,↑,left,←,1.2023917000042275,False,16,-1,0,1
PB040M36,-,48,AS,adaptive,42,↓,down,↓,0.8609103999333456,True,17,-1,0,1
PB040M36,-,49,AS,adaptive,38,←,left,←,0.6560575999319553,True,17,1,1,2
PB040M36,-,50,AS,adaptive,46,↓,down,↓,0.7340663999784738,True,16,1,0,2
PB040M36,-,51,AS,adaptive,27,↑,up,↑,0.7890501000219956,True,16,1,0,2
PB040M36,-,52,AS,adaptive,30,→,left,←,0.8618334999773651,False,15,-1,1,3
PB040M36,-,53,AS,adaptive,31,←,left,←,1.154223999939859,True,16,-1,0,3
PB040M36,-,54,AS,adaptive,47,→,right,→,0.8724240000592545,True,16,1,1,4
PB040M36,1,55,AS,intra_train,28,↑,up,↑,0.7949290999677032,True,22,-,-,-
PB040M36,1,56,AS,intra_train,30,←,left,←,0.9379178999224678,True,22,-,-,-
PB040M36,1,57,AS,intra_train,45,→,right,→,0.8914499999955297,True,22,-,-,-
PB040M36,1,58,AS,intra_train,47,↑,up,↑,0.8208208000287414,True,22,-,-,-
PB040M36,1,59,AS,intra_train,36,←,left,←,0.8146851999917999,True,22,-,-,-
PB040M36,1,60,AS,exp,49,→,up,↑,0.880716499988921,False,15,-1,0,0
PB040M36,1,61,AS,exp,45,↑,up,↑,1.257480299915187,True,16,-1,0,0
PB040M36,1,62,AS,exp,47,←,left,←,0.5099807999795303,True,16,1,1,1
PB040M36,1,63,AS,exp,25,↓,down,↓,0.7612496999790892,True,15,1,0,1
PB040M36,1,64,AS,exp,28,←,left,←,1.263607900007628,True,15,1,0,1
PB040M36,1,65,AS,exp,26,↓,down,↓,0.5544034000486135,True,14,1,0,1
PB040M36,1,66,AS,exp,50,←,left,←,0.5370623999042436,True,14,1,0,1
PB040M36,1,67,AS,exp,43,→,right,→,0.7560322000645101,True,13,1,0,1
PB040M36,1,68,AS,exp,45,↑,up,↑,0.6766294999979436,True,13,1,0,1
PB040M36,1,69,AS,exp,43,←,left,←,0.8448272000532597,True,12,1,0,1
PB040M36,1,70,AS,exp,39,↓,up,↑,1.0556031999876723,False,12,-1,1,2
PB040M36,1,71,AS,exp,42,↑,left,←,1.0562414999585599,False,13,-1,0,2
PB040M36,1,72,AS,exp,49,↓,down,↓,1.0227439000736922,True,14,-1,0,2
PB040M36,1,73,AS,exp,35,↑,up,↑,0.5676444999407977,True,14,1,1,3
PB040M36,1,74,AS,exp,39,←,left,←,0.9238370999228209,True,13,1,0,3
PB040M36,1,75,AS,exp,29,↓,up,↑,1.1017310000024736,False,13,-1,1,4
PB040M36,1,76,AS,exp,34,→,left,←,0.757088299957104,False,14,-1,0,4
PB040M36,1,77,AS,exp,39,←,no_key,no_letter,-1.0,False,15,-1,0,4
PB040M36,1,78,AS,exp,33,↑,down,↓,1.2219333000248298,False,16,-1,0,4
PB040M36,1,79,AS,exp,31,←,left,←,1.099043200025335,True,17,-1,0,4
PB040M36,1,80,AS,exp,26,→,right,→,0.5687194999773055,True,17,1,1,5
PB040M36,1,81,AS,exp,48,←,left,←,0.7238394999876618,True,16,1,0,5
PB040M36,1,82,AS,exp,39,↓,down,↓,0.7487337000202388,True,16,1,0,5
PB040M36,1,83,AS,exp,38,↑,up,↑,0.565289800055325,True,15,1,0,5
PB040M36,1,84,AS,exp,29,↓,up,↑,1.0540707999607548,False,15,-1,1,6
PB040M36,1,85,AS,exp,27,←,left,←,0.8803229999030009,True,16,-1,0,6
PB040M36,1,86,AS,exp,43,↓,down,↓,0.5421444999519736,True,16,1,1,7
PB040M36,1,87,AS,exp,41,←,left,←,0.5850832000141963,True,15,1,0,7
PB040M36,1,88,AS,exp,37,→,right,→,0.5471801999956369,True,15,1,0,7
PB040M36,1,89,AS,exp,28,↓,down,↓,0.7949388999259099,True,14,1,0,7
PB040M36,1,90,AS,exp,36,←,left,←,1.21127470000647,True,14,1,0,7
PB040M36,1,91,AS,exp,48,↑,down,↓,0.7225295000243932,False,13,-1,1,8
PB040M36,1,92,AS,exp,31,→,right,→,0.7595018999418244,True,14,-1,0,8
PB040M36,1,93,AS,exp,35,↑,up,↑,0.9386867000721395,True,14,1,1,9
PB040M36,1,94,AS,exp,46,←,left,←,1.6887136000441387,True,13,1,0,9
PB040M36,1,95,AS,exp,27,↑,no_key,no_letter,-1.0,False,13,-1,1,10
PB040M36,1,96,AS,exp,39,→,right,→,0.8335655999835581,True,14,-1,0,10
PB040M36,1,97,AS,exp,39,←,left,←,0.4921175999334082,True,14,1,1,11
PB040M36,1,98,AS,exp,38,↑,up,↑,1.0847580999834463,True,13,1,0,11
PB040M36,1,99,AS,exp,40,←,right,→,1.1316179999848828,False,13,-1,1,12
PB040M36,1,100,AS,exp,29,↓,up,↑,0.8764486000873148,False,14,-1,0,12
PB040M36,1,101,AS,exp,29,↑,down,↓,1.748619299964048,False,15,-1,0,12
PB040M36,1,102,AS,exp,36,←,left,←,0.6707448998931795,True,16,-1,0,12
PB040M36,1,103,AS,exp,34,↓,down,↓,0.7206529999384657,True,16,1,1,13
PB040M36,1,104,AS,exp,34,←,left,←,0.8337526000104845,True,15,1,0,13
PB040M36,1,105,AS,exp,42,↑,left,←,0.9323344000149518,False,15,-1,1,14
PB040M36,2,106,PS,intra_train,31,↓,down,↓,0.8431459000566974,True,16,-,-,-
PB040M36,2,107,PS,intra_train,46,↑,down,↓,0.8693428999977186,False,16,-,-,-
PB040M36,2,108,PS,intra_train,25,↓,right,→,0.8736316000577062,False,16,-,-,-
PB040M36,2,109,PS,intra_train,36,↑,up,↑,0.6796457000309601,True,16,-,-,-
PB040M36,2,110,PS,intra_train,26,→,right,→,0.5537119000218809,True,16,-,-,-
PB040M36,2,111,PS,exp,25,↓,down,↓,0.8069061000132933,True,11,0,0,0
PB040M36,2,112,PS,exp,25,←,left,←,0.8879718999378383,True,11,1,0,0
PB040M36,2,113,PS,exp,46,↓,right,→,1.062267699977383,False,10,-1,1,1
PB040M36,2,114,PS,exp,49,↑,no_key,no_letter,-1.0,False,11,-1,0,1
PB040M36,2,115,PS,exp,34,←,left,←,0.7010732999769971,True,12,-1,0,1
PB040M36,2,116,PS,exp,47,→,right,→,0.628208399983123,True,12,1,1,2
PB040M36,2,117,PS,exp,28,↓,down,↓,0.6714762999908999,True,11,1,0,2
PB040M36,2,118,PS,exp,34,→,right,→,0.5676177000859752,True,11,1,0,2
PB040M36,2,119,PS,exp,48,←,left,←,0.6364650999894366,True,10,1,0,2
PB040M36,2,120,PS,exp,37,→,right,→,0.5749782000202686,True,10,1,0,2
PB040M36,2,121,PS,exp,29,←,left,←,0.7123757000081241,True,9,1,0,2
PB040M36,2,122,PS,exp,31,↑,right,→,0.7468089000321925,False,9,-1,1,3
PB040M36,2,123,PS,exp,37,→,right,→,0.7800403999863192,True,10,-1,0,3
PB040M36,2,124,PS,exp,26,↓,down,↓,0.6664108999539167,True,10,1,1,4
PB040M36,2,125,PS,exp,43,←,left,←,0.5283204999286681,True,9,1,0,4
PB040M36,2,126,PS,exp,30,→,right,→,0.5134650999680161,True,9,1,0,4
PB040M36,2,127,PS,exp,35,↑,no_key,no_letter,-1.0,False,8,-1,1,5
PB040M36,2,128,PS,exp,35,→,right,→,0.6215752999996766,True,9,-1,0,5
PB040M36,2,129,PS,exp,37,↓,right,→,1.1377778999740258,False,9,-1,0,5
PB040M36,2,130,PS,exp,42,↑,no_key,no_letter,-1.0,False,10,-1,0,5
PB040M36,2,131,PS,exp,36,↓,right,→,1.024405299918726,False,11,-1,0,5
PB040M36,2,132,PS,exp,47,←,left,←,0.5031034999992698,True,12,-1,0,5
PB040M36,2,133,PS,exp,26,→,right,→,0.49255429999902844,True,12,1,1,6
PB040M36,2,134,PS,exp,33,↓,down,↓,0.7501303000608459,True,11,1,0,6
PB040M36,2,135,PS,exp,29,←,left,←,0.5661897000391036,True,11,1,0,6
PB040M36,2,136,PS,exp,43,→,right,→,0.5170563999563456,True,10,1,0,6
PB040M36,2,137,PS,exp,38,←,no_key,no_letter,-1.0,False,10,-1,1,7
PB040M36,2,138,PS,exp,50,→,right,→,0.5627760000061244,True,11,-1,0,7
PB040M36,2,139,PS,exp,38,↑,down,↓,1.65490329999011,False,11,-1,0,7
PB040M36,2,140,PS,exp,48,↓,no_key,no_letter,-1.0,False,12,-1,0,7
PB040M36,2,141,PS,exp,27,↑,up,↑,0.5797485000221059,True,13,-1,0,7
PB040M36,2,142,PS,exp,38,→,right,→,0.659561000065878,True,13,1,1,8
PB040M36,2,143,PS,exp,37,←,no_key,no_letter,-1.0,False,12,-1,1,9
PB040M36,2,144,PS,exp,49,↓,down,↓,0.8391504000173882,True,13,-1,0,9
PB040M36,2,145,PS,exp,30,→,right,→,0.598680799943395,True,13,1,1,10
PB040M36,2,146,PS,exp,49,↑,up,↑,1.630950600025244,True,12,1,0,10
PB040M36,2,147,PS,exp,38,↓,down,↓,0.6403128999518231,True,12,1,0,10
PB040M36,2,148,PS,exp,33,←,left,←,0.6082431999966502,True,11,1,0,10
PB040M36,2,149,PS,exp,28,↓,down,↓,0.6758338999934494,True,11,1,0,10
PB040M36,2,150,PS,exp,28,→,right,→,0.6356297000311315,True,10,1,0,10
PB040M36,2,151,PS,exp,25,↓,down,↓,0.7534392999950796,True,10,1,0,10
PB040M36,2,152,PS,exp,32,←,left,←,0.7189655000111088,True,9,1,0,10
PB040M36,2,153,PS,exp,34,↑,up,↑,1.020759200095199,True,9,1,0,10
PB040M36,2,154,PS,exp,25,↓,no_key,no_letter,-1.0,False,8,-1,1,11
PB040M36,2,155,PS,exp,39,←,left,←,0.9185385000891984,True,9,-1,0,11
PB040M36,2,156,PS,exp,27,↓,left,←,1.467463199980557,False,9,-1,0,11
PB040M36,2,157,PS,exp,39,←,left,←,0.7523255000123754,True,10,-1,0,11
PB040M36,2,158,PS,exp,39,↓,down,↓,0.68876240006648,True,10,1,1,12
PB040M36,2,159,PS,exp,44,→,right,→,1.6008594000013545,True,9,1,0,12
PB040M36,2,160,PS,exp,35,↑,no_key,no_letter,-1.0,False,9,-1,1,13
PB040M36,2,161,PS,exp,36,↓,no_key,no_letter,-1.0,False,10,-1,0,13
PB040M36,2,162,PS,exp,33,←,left,←,1.15345709992107,True,11,-1,0,13
PB040M36,2,163,PS,exp,41,↓,right,→,0.7788150000851601,False,11,-1,0,13
PB040M36,2,164,PS,exp,47,↑,up,↑,0.6502570000011474,True,12,-1,0,13
PB040M36,2,165,PS,exp,33,←,left,←,0.5893762001069263,True,12,1,1,14
PB040M36,3,166,PS,intra_train,39,→,right,→,0.6859836999792606,True,16,-,-,-
PB040M36,3,167,PS,intra_train,49,↑,up,↑,0.7004911999683827,True,16,-,-,-
PB040M36,3,168,PS,intra_train,40,↓,down,↓,0.7553513000020757,True,16,-,-,-
PB040M36,3,169,PS,intra_train,40,↑,up,↑,0.8160959999077022,True,16,-,-,-
PB040M36,3,170,PS,intra_train,39,→,right,→,0.6251893999287859,True,16,-,-,-
PB040M36,3,171,PS,exp,29,↑,up,↑,0.6183941999915987,True,11,0,0,0
PB040M36,3,172,PS,exp,29,↓,down,↓,0.598647499922663,True,11,1,0,0
PB040M36,3,173,PS,exp,38,↑,up,↑,0.5799872999778017,True,10,1,0,0
PB040M36,3,174,PS,exp,38,↓,up,↑,1.7730588000267744,False,10,-1,1,1
PB040M36,3,175,PS,exp,43,↑,no_key,no_letter,-1.0,False,11,-1,0,1
PB040M36,3,176,PS,exp,32,→,right,→,0.5041844000807032,True,12,-1,0,1
PB040M36,3,177,PS,exp,32,←,left,←,0.5876904000760987,True,12,1,1,2
PB040M36,3,178,PS,exp,45,→,right,→,0.6241083000786602,True,11,1,0,2
PB040M36,3,179,PS,exp,31,↑,up,↑,0.5537112000165507,True,11,1,0,2
PB040M36,3,180,PS,exp,39,←,down,↓,1.7644245999399573,False,10,-1,1,3
PB040M36,3,181,PS,exp,48,→,right,→,0.6979023999301717,True,11,-1,0,3
PB040M36,3,182,PS,exp,39,↓,down,↓,0.6568902999861166,True,11,1,1,4
PB040M36,3,183,PS,exp,41,→,right,→,0.6012702999869362,True,10,1,0,4
PB040M36,3,184,PS,exp,49,↑,up,↑,0.6063363999128342,True,10,1,0,4
PB040M36,3,185,PS,exp,45,←,no_key,no_letter,-1.0,False,9,-1,1,5
PB040M36,3,186,PS,exp,35,↑,up,↑,0.5464025000110269,True,10,-1,0,5
PB040M36,3,187,PS,exp,40,→,right,→,0.541666799923405,True,10,1,1,6
PB040M36,3,188,PS,exp,30,←,left,←,0.6559937000274658,True,9,1,0,6
PB040M36,3,189,PS,exp,35,↓,down,↓,0.687682600109838,True,9,1,0,6
PB040M36,3,190,PS,exp,50,↑,up,↑,0.6240739999338984,True,8,1,0,6
PB040M36,3,191,PS,exp,49,←,down,↓,0.9832329999189824,False,8,-1,1,7
PB040M36,3,192,PS,exp,40,↓,no_key,no_letter,-1.0,False,9,-1,0,7
PB040M36,3,193,PS,exp,44,↑,up,↑,0.5839501000009477,True,10,-1,0,7
PB040M36,3,194,PS,exp,43,↓,down,↓,0.7139238999225199,True,10,1,1,8
PB040M36,3,195,PS,exp,34,→,right,→,0.4625667999498546,True,9,1,0,8
PB040M36,3,196,PS,exp,28,←,right,→,0.9839283999754116,False,9,-1,1,9
PB040M36,3,197,PS,exp,28,↓,down,↓,0.7018346000695601,True,10,-1,0,9
PB040M36,3,198,PS,exp,31,←,left,←,0.7562411000253633,True,10,1,1,10
PB040M36,3,199,PS,exp,25,↑,right,→,1.1601382999215275,False,9,-1,1,11
PB040M36,3,200,PS,exp,27,↓,no_key,no_letter,-1.0,False,10,-1,0,11
PB040M36,3,201,PS,exp,36,←,left,←,0.6628081999951974,True,11,-1,0,11
PB040M36,3,202,PS,exp,35,↓,no_key,no_letter,-1.0,False,11,-1,0,11
PB040M36,3,203,PS,exp,33,←,left,←,0.6356968999607489,True,12,-1,0,11
PB040M36,3,204,PS,exp,29,↑,up,↑,0.7346593999536708,True,12,1,1,12
PB040M36,3,205,PS,exp,46,↓,down,↓,0.7627529000164941,True,11,1,0,12
PB040M36,3,206,PS,exp,44,→,right,→,0.5773819000460207,True,11,1,0,12
PB040M36,3,207,PS,exp,31,↑,up,↑,0.7490964001044631,True,10,1,0,12
PB040M36,3,208,PS,exp,47,↓,down,↓,0.8130917999660596,True,10,1,0,12
PB040M36,3,209,PS,exp,35,↑,up,↑,0.7133336000842974,True,9,1,0,12
PB040M36,3,210,PS,exp,38,←,left,←,0.5799429999897256,True,9,1,0,12
PB040M36,3,211,PS,exp,39,↑,up,↑,0.6056753000011668,True,8,1,0,12
PB040M36,3,212,PS,exp,26,←,left,←,0.5336157999699935,True,8,1,0,12
PB040M36,3,213,PS,exp,30,→,left,←,1.150311699951999,False,7,-1,1,13
PB040M36,3,214,PS,exp,40,←,left,←,0.5925017000408843,True,8,-1,0,13
PB040M36,3,215,PS,exp,46,↓,down,↓,0.7911573000019416,True,8,1,1,14
PB040M36,4,216,AS,intra_train,48,↑,up,↑,0.7628480000421405,True,22,-,-,-
PB040M36,4,217,AS,intra_train,40,→,right,→,0.7054979000240564,True,22,-,-,-
PB040M36,4,218,AS,intra_train,31,←,left,←,0.5592340000439435,True,22,-,-,-
PB040M36,4,219,AS,intra_train,48,→,right,→,0.6771825000178069,True,22,-,-,-
PB040M36,4,220,AS,intra_train,48,↓,down,↓,0.9181347000412643,True,22,-,-,-
PB040M36,4,221,AS,exp,41,↑,up,↑,0.5677433999953791,True,15,0,0,0
PB040M36,4,222,AS,exp,40,↓,down,↓,0.8133576000109315,True,15,1,0,0
PB040M36,4,223,AS,exp,40,↑,up,↑,0.6771650000009686,True,14,1,0,0
PB040M36,4,224,AS,exp,33,←,right,→,1.233816200052388,False,14,-1,1,1
PB040M36,4,225,AS,exp,35,↑,up,↑,0.9246402999851853,True,15,-1,0,1
PB040M36,4,226,AS,exp,34,←,left,←,0.6970814999658614,True,15,1,1,2
PB040M36,4,227,AS,exp,34,→,right,→,0.9229166000150144,True,14,1,0,2
PB040M36,4,228,AS,exp,36,↓,right,→,0.9766860000090674,False,14,-1,1,3
PB040M36,4,229,AS,exp,35,←,right,→,1.2806335999630392,False,15,-1,0,3
PB040M36,4,230,AS,exp,33,↓,down,↓,0.763197600026615,True,16,-1,0,3
PB040M36,4,231,AS,exp,42,→,left,←,1.5835001999512315,False,16,-1,0,3
PB040M36,4,232,AS,exp,28,←,left,←,0.9195581000531092,True,17,-1,0,3
PB040M36,4,233,AS,exp,30,↓,up,↑,0.9517667000181973,False,17,-1,0,3
PB040M36,4,234,AS,exp,35,↑,up,↑,0.9940613000653684,True,18,-1,0,3
PB040M36,4,235,AS,exp,25,←,left,←,0.9045097000198439,True,18,1,1,4
PB040M36,4,236,AS,exp,29,↑,up,↑,0.9628895999630913,True,17,1,0,4
PB040M36,4,237,AS,exp,28,↓,left,←,0.8596734999446198,False,17,-1,1,5
PB040M36,4,238,AS,exp,37,→,right,→,1.0346788000315428,True,18,-1,0,5
PB040M36,4,239,AS,exp,28,←,left,←,0.579346299986355,True,18,1,1,6
PB040M36,4,240,AS,exp,36,→,right,→,0.6503102999413386,True,17,1,0,6
PB040M36,4,241,AS,exp,35,↓,down,↓,0.6752052999800071,True,17,1,0,6
PB040M36,4,242,AS,exp,30,↑,no_key,no_letter,-1.0,False,16,-1,1,7
PB040M36,4,243,AS,exp,35,↓,right,→,1.1535466000204906,False,17,-1,0,7
PB040M36,4,244,AS,exp,44,↑,up,↑,0.7241357000311837,True,18,-1,0,7
PB040M36,4,245,AS,exp,44,→,right,→,0.6802083000075072,True,18,1,1,8
PB040M36,4,246,AS,exp,35,←,left,←,0.5005959999980405,True,17,1,0,8
PB040M36,4,247,AS,exp,50,↑,up,↑,0.6572508999379352,True,17,1,0,8
PB040M36,4,248,AS,exp,27,↓,down,↓,0.6940170999150723,True,16,1,0,8
PB040M36,4,249,AS,exp,46,←,left,←,0.7420214999001473,True,16,1,0,8
PB040M36,4,250,AS,exp,36,↓,up,↑,0.9251184000167996,False,15,-1,1,9
PB040M36,4,251,AS,exp,45,→,left,←,0.2503850000211969,False,16,-1,0,9
PB040M36,4,252,AS,exp,42,↑,down,↓,1.549674200010486,False,17,-1,0,9
PB040M36,4,253,AS,exp,47,←,left,←,0.8788919999497011,True,18,-1,0,9
PB040M36,4,254,AS,exp,40,→,right,→,0.7771304999478161,True,18,1,1,10
PB040M36,4,255,AS,exp,25,↑,no_key,no_letter,-1.0,False,17,-1,1,11
PB040M36,4,256,AS,exp,26,↓,down,↓,0.631652900017798,True,18,-1,0,11
PB040M36,4,257,AS,exp,34,↑,down,↓,1.3847532999934629,False,18,-1,0,11
PB040M36,4,258,AS,exp,30,→,right,→,0.696205300046131,True,19,-1,0,11
PB040M36,4,259,AS,exp,41,↓,down,↓,0.7777004000963643,True,19,1,1,12
PB040M36,4,260,AS,exp,35,↑,up,↑,0.80741960008163,True,18,1,0,12
PB040M36,4,261,AS,exp,37,→,right,→,0.7818750001024455,True,18,1,0,12
PB040M36,4,262,AS,exp,33,↑,up,↑,0.8017377000069246,True,17,1,0,12
PB040M36,4,263,AS,exp,29,←,left,←,0.645244300016202,True,17,1,0,12
PB040M36,4,264,AS,exp,40,↑,up,↑,0.6232225999701768,True,16,1,0,12
PB040M36,4,265,AS,exp,29,→,right,→,0.5345092000206932,True,16,1,0,12
PB040M36,4,266,AS,exp,25,↑,up,↑,0.7848231999669224,True,15,1,0,12
PB040M36,4,267,AS,exp,43,↓,no_key,no_letter,-1.0,False,15,-1,1,13
PB040M36,4,268,AS,exp,49,↑,up,↑,0.5157545999391004,True,16,-1,0,13
PB040M36,4,269,AS,exp,48,←,left,←,0.8942774999886751,True,16,1,1,14
PB040M36,5,270,AS,intra_train,50,↑,up,↑,0.988141700043343,True,22,-,-,-
PB040M36,5,271,AS,intra_train,47,↓,right,→,1.2294575000414625,False,22,-,-,-
PB040M36,5,272,AS,intra_train,34,→,right,→,0.6785322000505403,True,22,-,-,-
PB040M36,5,273,AS,intra_train,42,↑,up,↑,0.8146884000161663,True,22,-,-,-
PB040M36,5,274,AS,intra_train,47,↓,down,↓,0.6775586999719962,True,22,-,-,-
PB040M36,5,275,AS,exp,42,→,right,→,0.5857141999294981,True,15,0,0,0
PB040M36,5,276,AS,exp,42,↓,down,↓,0.6582529000006616,True,15,1,0,0
PB040M36,5,277,AS,exp,47,→,down,↓,1.2686428000451997,False,14,-1,1,1
PB040M36,5,278,AS,exp,50,↑,right,→,0.797365800011903,False,15,-1,0,1
PB040M36,5,279,AS,exp,45,←,left,←,0.7006577000720426,True,16,-1,0,1
PB040M36,5,280,AS,exp,25,→,right,→,0.7407194999977946,True,16,1,1,2
PB040M36,5,281,AS,exp,44,←,left,←,0.7661493000341579,True,15,1,0,2
PB040M36,5,282,AS,exp,34,↑,down,↓,0.8932266999036074,False,15,-1,1,3
PB040M36,5,283,AS,exp,38,→,right,→,0.5887260000454262,True,16,-1,0,3
PB040M36,5,284,AS,exp,40,↑,up,↑,0.762583400006406,True,16,1,1,4
PB040M36,5,285,AS,exp,36,←,left,←,0.6913512999890372,True,15,1,0,4
PB040M36,5,286,AS,exp,38,→,right,→,0.49782179994508624,True,15,1,0,4
PB040M36,5,287,AS,exp,37,←,left,←,0.6499909000704065,True,14,1,0,4
PB040M36,5,288,AS,exp,32,↑,up,↑,0.6304210000671446,True,14,1,0,4
PB040M36,5,289,AS,exp,45,↓,right,→,1.4223023999948055,False,13,-1,1,5
PB040M36,5,290,AS,exp,43,←,left,←,1.0594958000583574,True,14,-1,0,5
PB040M36,5,291,AS,exp,43,↑,up,↑,0.7111910000676289,True,14,1,1,6
PB040M36,5,292,AS,exp,33,→,right,→,0.7007488999515772,True,13,1,0,6
PB040M36,5,293,AS,exp,26,↓,down,↓,0.786717800074257,True,13,1,0,6
PB040M36,5,294,AS,exp,44,→,right,→,0.9397595000918955,True,12,1,0,6
PB040M36,5,295,AS,exp,40,↑,up,↑,0.9758392000803724,True,12,1,0,6
PB040M36,5,296,AS,exp,40,←,right,→,1.0139785999199376,False,11,-1,1,7
PB040M36,5,297,AS,exp,44,→,no_key,no_letter,-1.0,False,12,-1,0,7
PB040M36,5,298,AS,exp,37,←,left,←,0.6987575000384822,True,13,-1,0,7
PB040M36,5,299,AS,exp,47,↑,up,↑,1.5170770999975502,True,13,1,1,8
PB040M36,5,300,AS,exp,26,←,left,←,0.9721393999643624,True,12,1,0,8
PB040M36,5,301,AS,exp,31,↑,up,↑,0.7720442999852821,True,12,1,0,8
PB040M36,5,302,AS,exp,31,↓,no_key,no_letter,-1.0,False,11,-1,1,9
PB040M36,5,303,AS,exp,46,↑,no_key,no_letter,-1.0,False,12,-1,0,9
PB040M36,5,304,AS,exp,34,→,right,→,0.45304990001022816,True,13,-1,0,9
PB040M36,5,305,AS,exp,41,↑,up,↑,0.5340130999684334,True,13,1,1,10
PB040M36,5,306,AS,exp,33,←,left,←,0.835005100001581,True,12,1,0,10
PB040M36,5,307,AS,exp,30,↓,up,↑,1.138150000013411,False,12,-1,1,11
PB040M36,5,308,AS,exp,35,→,right,→,0.6325119000393897,True,13,-1,0,11
PB040M36,5,309,AS,exp,39,←,right,→,1.1501306000864133,False,13,-1,0,11
PB040M36,5,310,AS,exp,40,↓,up,↑,1.7431677000131458,False,14,-1,0,11
PB040M36,5,311,AS,exp,25,←,left,←,1.4930097999749705,True,15,-1,0,11
PB040M36,5,312,AS,exp,39,→,right,→,0.7504002000205219,True,15,1,1,12
PB040M36,5,313,AS,exp,26,↑,up,↑,0.9185571999987587,True,14,1,0,12
PB040M36,5,314,AS,exp,38,↓,down,↓,0.5702946999808773,True,14,1,0,12
PB040M36,5,315,AS,exp,31,↑,down,↓,0.882080200011842,False,13,-1,1,13
PB040M36,5,316,AS,exp,40,↓,down,↓,0.6146837000269443,True,14,-1,0,13
PB040M36,5,317,AS,exp,40,→,right,→,0.6880493999924511,True,14,1,1,14
PB040M36,6,318,PS,intra_train,38,↓,down,↓,0.8808616000460461,True,16,-,-,-
PB040M36,6,319,PS,intra_train,50,←,left,←,0.6547936999704689,True,16,-,-,-
PB040M36,6,320,PS,intra_train,34,→,right,→,0.5486884999554604,True,16,-,-,-
PB040M36,6,321,PS,intra_train,47,←,left,←,0.5792932999320328,True,16,-,-,-
PB040M36,6,322,PS,intra_train,29,↑,up,↑,0.6449478999711573,True,16,-,-,-
PB040M36,6,323,PS,exp,41,←,left,←,0.8018806999316439,True,11,0,0,0
PB040M36,6,324,PS,exp,30,↑,up,↑,0.8263054999988526,True,11,1,0,0
PB040M36,6,325,PS,exp,32,←,right,→,0.7528346999315545,False,10,-1,1,1
PB040M36,6,326,PS,exp,40,→,right,→,0.5683420000132173,True,11,-1,0,1
PB040M36,6,327,PS,exp,48,↓,right,→,0.8028279000427574,False,11,-1,0,1
PB040M36,6,328,PS,exp,31,←,left,←,0.7082713999552652,True,12,-1,0,1
PB040M36,6,329,PS,exp,39,↑,up,↑,0.6395060000941157,True,12,1,1,2
PB040M36,6,330,PS,exp,27,→,right,→,0.7452800000319257,True,11,1,0,2
PB040M36,6,331,PS,exp,32,↑,up,↑,0.5944005999481305,True,11,1,0,2
PB040M36,6,332,PS,exp,25,↓,down,↓,0.7136559999780729,True,10,1,0,2
PB040M36,6,333,PS,exp,34,→,right,→,0.5213389999698848,True,10,1,0,2
PB040M36,6,334,PS,exp,40,↑,no_key,no_letter,-1.0,False,9,-1,1,3
PB040M36,6,335,PS,exp,49,↓,down,↓,0.6167520000599325,True,10,-1,0,3
PB040M36,6,336,PS,exp,34,←,right,→,0.7243504000362009,False,10,-1,0,3
PB040M36,6,337,PS,exp,38,→,right,→,0.5751565000973642,True,11,-1,0,3
PB040M36,6,338,PS,exp,38,←,left,←,0.6246882999548689,True,11,1,1,4
PB040M36,6,339,PS,exp,40,↑,up,↑,0.5487638000631705,True,10,1,0,4
PB040M36,6,340,PS,exp,27,←,left,←,0.7375111000146717,True,10,1,0,4
PB040M36,6,341,PS,exp,44,↓,down,↓,0.6487662999425083,True,9,1,0,4
PB040M36,6,342,PS,exp,26,↑,up,↑,1.1408332000719383,True,9,1,0,4
PB040M36,6,343,PS,exp,28,←,down,↓,0.9413168999599293,False,8,-1,1,5
PB040M36,6,344,PS,exp,27,↑,up,↑,0.6682065000059083,True,9,-1,0,5
PB040M36,6,345,PS,exp,28,→,right,→,0.47606029990129173,True,9,1,1,6
PB040M36,6,346,PS,exp,25,↓,down,↓,0.5673223999328911,True,8,1,0,6
PB040M36,6,347,PS,exp,25,←,no_key,no_letter,-1.0,False,8,-1,1,7
PB040M36,6,348,PS,exp,44,↑,no_key,no_letter,-1.0,False,9,-1,0,7
PB040M36,6,349,PS,exp,38,←,left,←,0.506400000071153,True,10,-1,0,7
PB040M36,6,350,PS,exp,38,→,right,→,0.45854609995149076,True,10,1,1,8
PB040M36,6,351,PS,exp,31,↓,down,↓,0.6732752000680193,True,9,1,0,8
PB040M36,6,352,PS,exp,47,→,right,→,0.5555645999265835,True,9,1,0,8
PB040M36,6,353,PS,exp,49,↑,no_key,no_letter,-1.0,False,8,-1,1,9
PB040M36,6,354,PS,exp,31,←,left,←,0.5544367999536917,True,9,-1,0,9
PB040M36,6,355,PS,exp,26,↑,up,↑,1.073119700071402,True,9,1,1,10
PB040M36,6,356,PS,exp,40,←,left,←,0.592404399998486,True,8,1,0,10
PB040M36,6,357,PS,exp,50,↓,down,↓,0.6576793999411166,True,8,1,0,10
PB040M36,6,358,PS,exp,38,←,left,←,0.6572941000340506,True,7,1,0,10
PB040M36,6,359,PS,exp,41,↓,right,→,0.7045507999137044,False,7,-1,1,11
PB040M36,6,360,PS,exp,42,←,left,←,0.6061532999156043,True,8,-1,0,11
PB040M36,6,361,PS,exp,49,→,no_key,no_letter,-1.0,False,8,-1,0,11
PB040M36,6,362,PS,exp,41,←,left,←,0.7001817999407649,True,9,-1,0,11
PB040M36,6,363,PS,exp,31,↑,right,→,0.7563401999650523,False,9,-1,0,11
PB040M36,6,364,PS,exp,36,←,left,←,0.5615464000729844,True,10,-1,0,11
PB040M36,6,365,PS,exp,37,↓,down,↓,0.5785810999805108,True,10,1,1,12
PB040M36,6,366,PS,exp,43,→,right,→,0.5952646000077948,True,9,1,0,12
PB040M36,6,367,PS,exp,27,←,left,←,0.5310186999849975,True,9,1,0,12
PB040M36,6,368,PS,exp,33,↓,down,↓,0.7504721999866888,True,8,1,0,12
PB040M36,6,369,PS,exp,38,←,left,←,0.547528599970974,True,8,1,0,12
PB040M36,6,370,PS,exp,38,↑,no_key,no_letter,-1.0,False,7,-1,1,13
PB040M36,6,371,PS,exp,47,→,right,→,0.5214387000305578,True,8,-1,0,13
PB040M36,6,372,PS,exp,43,↑,up,↑,0.6073150000302121,True,8,1,1,14
PB040M36,7,373,PS,intra_train,26,←,left,←,0.5995610000099987,True,16,-,-,-
PB040M36,7,374,PS,intra_train,27,→,right,→,0.4695001000072807,True,16,-,-,-
PB040M36,7,375,PS,intra_train,40,↑,up,↑,0.5845572000835091,True,16,-,-,-
PB040M36,7,376,PS,intra_train,35,↓,down,↓,0.8512389999814332,True,16,-,-,-
PB040M36,7,377,PS,intra_train,47,→,right,→,0.5102532999590039,True,16,-,-,-
PB040M36,7,378,PS,exp,32,←,left,←,0.5732781999977306,True,11,0,0,0
PB040M36,7,379,PS,exp,32,→,right,→,0.4674577000550926,True,11,1,0,0
PB040M36,7,380,PS,exp,47,←,left,←,0.5668595000170171,True,10,1,0,0
PB040M36,7,381,PS,exp,45,↓,down,↓,0.6442843999247998,True,10,1,0,0
PB040M36,7,382,PS,exp,34,←,left,←,0.5217714000027627,True,9,1,0,0
PB040M36,7,383,PS,exp,49,↓,down,↓,0.5539928000653163,True,9,1,0,0
PB040M36,7,384,PS,exp,41,→,right,→,0.514068300020881,True,8,1,0,0
PB040M36,7,385,PS,exp,32,↓,down,↓,0.5519401000346988,True,8,1,0,0
PB040M36,7,386,PS,exp,47,→,right,→,1.1466020999941975,True,7,1,0,0
PB040M36,7,387,PS,exp,49,↑,no_key,no_letter,-1.0,False,7,-1,1,1
PB040M36,7,388,PS,exp,43,↓,down,↓,0.5040318999672309,True,8,-1,0,1
PB040M36,7,389,PS,exp,48,↑,right,→,1.246920800069347,False,8,-1,0,1
PB040M36,7,390,PS,exp,28,→,right,→,1.0201772999716923,True,9,-1,0,1
PB040M36,7,391,PS,exp,26,↑,up,↑,0.5768392999889329,True,9,1,1,2
PB040M36,7,392,PS,exp,39,←,left,←,0.5143577000126243,True,8,1,0,2
PB040M36,7,393,PS,exp,25,↓,down,↓,0.615140000008978,True,8,1,0,2
PB040M36,7,394,PS,exp,40,→,right,→,0.5252375999698415,True,7,1,0,2
PB040M36,7,395,PS,exp,44,↓,down,↓,0.5043064999626949,True,7,1,0,2
PB040M36,7,396,PS,exp,25,→,right,→,0.5271302999462932,True,6,1,0,2
PB040M36,7,397,PS,exp,28,↑,up,↑,0.5523597999708727,True,6,1,0,2
PB040M36,7,398,PS,exp,32,→,no_key,no_letter,-1.0,False,5,-1,1,3
PB040M36,7,399,PS,exp,46,↑,right,→,0.838810499990359,False,6,-1,0,3
PB040M36,7,400,PS,exp,27,←,left,←,0.5602672999957576,True,7,-1,0,3
PB040M36,7,401,PS,exp,41,→,right,→,0.6099809999577701,True,7,1,1,4
PB040M36,7,402,PS,exp,43,←,left,←,1.5017431000014767,True,6,1,0,4
PB040M36,7,403,PS,exp,45,↓,down,↓,0.6436738000484183,True,6,1,0,4
PB040M36,7,404,PS,exp,42,←,right,→,0.8638176000677049,False,5,-1,1,5
PB040M36,7,405,PS,exp,25,↓,no_key,no_letter,-1.0,False,6,-1,0,5
PB040M36,7,406,PS,exp,49,←,left,←,0.5801658000564203,True,7,-1,0,5
PB040M36,7,407,PS,exp,44,→,right,→,0.45991980005055666,True,7,1,1,6
PB040M36,7,408,PS,exp,33,↑,up,↑,0.5560271999565884,True,6,1,0,6
PB040M36,7,409,PS,exp,33,←,left,←,0.5512188000138849,True,6,1,0,6
PB040M36,7,410,PS,exp,41,↓,right,→,1.5655762000242248,False,5,-1,1,7
PB040M36,7,411,PS,exp,28,→,right,→,0.5368676000507548,True,6,-1,0,7
PB040M36,7,412,PS,exp,44,←,left,←,0.5232529999921098,True,6,1,1,8
PB040M36,7,413,PS,exp,36,↓,down,↓,0.662313700071536,True,5,1,0,8
PB040M36,7,414,PS,exp,28,→,right,→,0.4740384001052007,True,5,1,0,8
PB040M36,7,415,PS,exp,40,↑,no_key,no_letter,-1.0,False,4,-1,1,9
PB040M36,7,416,PS,exp,28,→,no_key,no_letter,-1.0,False,5,-1,0,9
PB040M36,7,417,PS,exp,48,↑,up,↑,0.5357969000469893,True,6,-1,0,9
PB040M36,7,418,PS,exp,28,↓,down,↓,0.5360153999645263,True,6,1,1,10
PB040M36,7,419,PS,exp,40,→,right,→,0.5079708000412211,True,5,1,0,10
PB040M36,7,420,PS,exp,36,←,left,←,0.7903340000193566,True,5,1,0,10
PB040M36,7,421,PS,exp,46,↓,no_key,no_letter,-1.0,False,4,-1,1,11
PB040M36,7,422,PS,exp,26,→,left,←,0.9155317998956889,False,5,-1,0,11
PB040M36,7,423,PS,exp,30,↓,down,↓,0.6327716999221593,True,6,-1,0,11
PB040M36,7,424,PS,exp,35,→,no_key,no_letter,-1.0,False,6,-1,0,11
PB040M36,7,425,PS,exp,33,↑,up,↑,0.835150400060229,True,7,-1,0,11
PB040M36,7,426,PS,exp,38,←,left,←,0.6873664999147877,True,7,1,1,12
PB040M36,7,427,PS,exp,47,↓,down,↓,0.7431300999596715,True,6,1,0,12
PB040M36,7,428,PS,exp,37,↑,left,←,0.7866422000806779,False,6,-1,1,13
PB040M36,7,429,PS,exp,26,↓,no_key,no_letter,-1.0,False,7,-1,0,13
PB040M36,7,430,PS,exp,25,→,right,→,0.6058643000433221,True,8,-1,0,13
PB040M36,7,431,PS,exp,49,↓,down,↓,0.6075971000827849,True,8,1,1,14
PB040M36,8,432,AS,intra_train,39,←,left,←,1.4104747999226674,True,22,-,-,-
PB040M36,8,433,AS,intra_train,43,→,right,→,0.7405166000826284,True,22,-,-,-
PB040M36,8,434,AS,intra_train,42,↓,down,↓,1.0455247999634594,True,22,-,-,-
PB040M36,8,435,AS,intra_train,35,←,left,←,0.665124100050889,True,22,-,-,-
PB040M36,8,436,AS,intra_train,35,→,right,→,0.5002883999841288,True,22,-,-,-
PB040M36,8,437,AS,exp,46,↓,down,↓,0.5895956999156624,True,15,0,0,0
PB040M36,8,438,AS,exp,29,←,right,→,0.7095746999839321,False,15,-1,0,0
PB040M36,8,439,AS,exp,25,↑,no_key,no_letter,-1.0,False,16,-1,0,0
PB040M36,8,440,AS,exp,25,→,left,←,0.7258614000165835,False,17,-1,0,0
PB040M36,8,441,AS,exp,25,←,left,←,0.597324899979867,True,18,-1,0,0
PB040M36,8,442,AS,exp,39,→,right,→,0.6509946000296623,True,18,1,1,1
PB040M36,8,443,AS,exp,48,↓,down,↓,0.5666350000537932,True,17,1,0,1
PB040M36,8,444,AS,exp,36,↑,up,↑,0.8502331000054255,True,17,1,0,1
PB040M36,8,445,AS,exp,35,→,right,→,1.0134725000243634,True,16,1,0,1
PB040M36,8,446,AS,exp,46,←,left,←,0.5375906999688596,True,16,1,0,1
PB040M36,8,447,AS,exp,28,→,right,→,0.6179358999943361,True,15,1,0,1
PB040M36,8,448,AS,exp,39,↑,up,↑,0.5912597998976707,True,15,1,0,1
PB040M36,8,449,AS,exp,31,↓,down,↓,0.642882699961774,True,14,1,0,1
PB040M36,8,450,AS,exp,47,↑,down,↓,1.5740961999399588,False,14,-1,1,2
PB040M36,8,451,AS,exp,44,→,left,←,1.039221000042744,False,15,-1,0,2
PB040M36,8,452,AS,exp,26,↓,right,→,1.0224856999702752,False,16,-1,0,2
PB040M36,8,453,AS,exp,45,↑,no_key,no_letter,-1.0,False,17,-1,0,2
PB040M36,8,454,AS,exp,40,→,right,→,0.6563338999403641,True,18,-1,0,2
PB040M36,8,455,AS,exp,35,←,left,←,0.7435489000054076,True,18,1,1,3
PB040M36,8,456,AS,exp,30,↓,down,↓,0.6442201000172645,True,17,1,0,3
PB040M36,8,457,AS,exp,39,↑,up,↑,0.8121821000240743,True,17,1,0,3
PB040M36,8,458,AS,exp,39,↓,down,↓,0.694598300033249,True,16,1,0,3
PB040M36,8,459,AS,exp,29,←,right,→,1.3076175999594852,False,16,-1,1,4
PB040M36,8,460,AS,exp,34,↓,down,↓,0.8100011999486014,True,17,-1,0,4
PB040M36,8,461,AS,exp,30,→,right,→,0.6887346999719739,True,17,1,1,5
PB040M36,8,462,AS,exp,26,←,down,↓,1.664321199990809,False,16,-1,1,6
PB040M36,8,463,AS,exp,36,↑,up,↑,0.716846999945119,True,17,-1,0,6
PB040M36,8,464,AS,exp,49,↓,down,↓,0.4917324000271037,True,17,1,1,7
PB040M36,8,465,AS,exp,50,↑,up,↑,0.723827900015749,True,16,1,0,7
PB040M36,8,466,AS,exp,27,↓,down,↓,0.6897056000307202,True,16,1,0,7
PB040M36,8,467,AS,exp,39,→,right,→,0.5570721999974921,True,15,1,0,7
PB040M36,8,468,AS,exp,43,←,left,←,0.573260199977085,True,15,1,0,7
PB040M36,8,469,AS,exp,38,↑,up,↑,0.5803783000446856,True,14,1,0,7
PB040M36,8,470,AS,exp,47,↓,down,↓,0.6673161999788135,True,14,1,0,7
PB040M36,8,471,AS,exp,40,→,right,→,1.0334169999696314,True,13,1,0,7
PB040M36,8,472,AS,exp,33,←,no_key,no_letter,-1.0,False,13,-1,1,8
PB040M36,8,473,AS,exp,29,→,right,→,0.7941103000193834,True,14,-1,0,8
PB040M36,8,474,AS,exp,32,←,left,←,1.2577007999643683,True,14,1,1,9
PB040M36,8,475,AS,exp,26,↓,down,↓,0.7956728999270126,True,13,1,0,9
PB040M36,8,476,AS,exp,29,←,left,←,0.5970167999621481,True,13,1,0,9
PB040M36,8,477,AS,exp,34,↓,right,→,1.028211599914357,False,12,-1,1,10
PB040M36,8,478,AS,exp,44,↑,up,↑,0.7580865999916568,True,13,-1,0,10
PB040M36,8,479,AS,exp,42,←,left,←,0.5922695999033749,True,13,1,1,11
PB040M36,8,480,AS,exp,29,↑,up,↑,0.6700983999762684,True,12,1,0,11
PB040M36,8,481,AS,exp,26,←,left,←,0.6578818999696523,True,12,1,0,11
PB040M36,8,482,AS,exp,29,↑,up,↑,0.8436743000056595,True,11,1,0,11
PB040M36,8,483,AS,exp,32,→,right,→,0.7658442999236286,True,11,1,0,11
PB040M36,8,484,AS,exp,39,←,left,←,0.8982409000163898,True,10,1,0,11
PB040M36,8,485,AS,exp,36,→,right,→,0.7938398999394849,True,10,1,0,11
PB040M36,8,486,AS,exp,40,↓,down,↓,1.49368139996659,True,9,1,0,11
PB040M36,8,487,AS,exp,26,→,right,→,0.6362573000369594,True,9,1,0,11
PB040M36,8,488,AS,exp,48,←,no_key,no_letter,-1.0,False,8,-1,1,12
PB040M36,8,489,AS,exp,33,↓,down,↓,0.660048900055699,True,9,-1,0,12
PB040M36,8,490,AS,exp,41,→,right,→,0.6971300999866799,True,9,1,1,13
PB040M36,8,491,AS,exp,48,↑,up,↑,1.3094260999932885,True,8,1,0,13
PB040M36,8,492,AS,exp,29,←,left,←,1.0033634999999776,True,8,1,0,13
PB040M36,8,493,AS,exp,41,↑,up,↑,0.6961847998900339,True,7,1,0,13
PB040M36,8,494,AS,exp,33,→,left,←,1.466344999964349,False,7,-1,1,14
