PART_ID,Block_no,Trial_no,Block_type,Trial_type,CSI,Stim_letter,Key_pressed,letter_choose,Rt,Corr,Stimulus Time,Level,Reversal,Revs_count
PB042K21,1,1,PS,train,46,↑,up,↑,1.3724227999919094,True,30,-,-,-
PB042K21,1,2,PS,train,35,↓,down,↓,1.5049838999984786,True,30,-,-,-
PB042K21,1,3,PS,train,36,←,left,←,0.8487756000249647,True,30,-,-,-
PB042K21,1,4,PS,train,37,↑,up,↑,0.7373948999447748,True,30,-,-,-
PB042K21,1,5,PS,train,47,↓,down,↓,0.7515492999809794,True,30,-,-,-
PB042K21,1,6,PS,train,40,→,right,→,0.7275525000295602,True,30,-,-,-
PB042K21,1,7,PS,train,42,←,left,←,0.5503569000284187,True,30,-,-,-
PB042K21,1,8,PS,train,28,↓,down,↓,0.6339251999743283,True,30,-,-,-
PB042K21,1,9,PS,train,40,→,right,→,0.7160471000242978,True,30,-,-,-
PB042K21,1,10,PS,train,26,←,left,←,0.7633853000006638,True,30,-,-,-
PB042K21,2,11,AS,train,50,→,right,→,0.5676429999875836,True,45,-,-,-
PB042K21,2,12,AS,train,40,↓,down,↓,0.7838140000239946,True,45,-,-,-
PB042K21,2,13,AS,train,30,←,left,←,0.4506233000429347,True,45,-,-,-
PB042K21,2,14,AS,train,48,→,left,←,0.5845956000266597,False,45,-,-,-
PB042K21,2,15,AS,train,48,↓,down,↓,0.5346427999902517,True,45,-,-,-
PB042K21,2,16,AS,train,40,↑,up,↑,0.8005548000219278,True,45,-,-,-
PB042K21,2,17,AS,train,42,←,right,→,0.6346393000567332,False,45,-,-,-
PB042K21,2,18,AS,train,36,→,right,→,0.5345446999999695,True,45,-,-,-
PB042K21,2,19,AS,train,30,←,left,←,0.8339337999932468,True,45,-,-,-
PB042K21,2,20,AS,train,47,↑,up,↑,0.6011432000086643,True,45,-,-,-
PB042K21,-,21,PS,adaptive,26,↓,no_key,no_letter,-1.0,False,10,-1,0,0
PB042K21,-,22,PS,adaptive,38,↑,no_key,no_letter,-1.0,False,11,-1,0,0
PB042K21,-,23,PS,adaptive,48,↓,down,↓,0.7525150000001304,True,12,-1,0,0
PB042K21,-,24,PS,adaptive,33,↑,up,↑,1.209834299981594,True,12,1,1,1
PB042K21,-,25,PS,adaptive,40,↓,down,↓,0.6732979000080377,True,11,1,0,1
PB042K21,-,26,PS,adaptive,34,→,right,→,0.7122062999987975,True,11,1,0,1
PB042K21,-,27,PS,adaptive,47,↑,up,↑,0.6558188999770209,True,10,1,0,1
PB042K21,-,28,PS,adaptive,46,→,right,→,0.527186100021936,True,10,1,0,1
PB042K21,-,29,PS,adaptive,44,↓,down,↓,0.6178634999669157,True,9,1,0,1
PB042K21,-,30,PS,adaptive,38,→,right,→,0.519273100013379,True,9,1,0,1
PB042K21,-,31,PS,adaptive,30,↑,up,↑,0.9687785999849439,True,8,1,0,1
PB042K21,-,32,PS,adaptive,34,←,left,←,0.6756081000203267,True,8,1,0,1
PB042K21,-,33,PS,adaptive,27,↑,right,→,0.5786155000096187,False,7,-1,1,2
PB042K21,-,34,PS,adaptive,46,←,left,←,0.8234630000079051,True,8,-1,0,2
PB042K21,-,35,PS,adaptive,40,↓,left,←,0.7086041000438854,False,8,-1,0,2
PB042K21,-,36,PS,adaptive,48,↑,up,↑,0.8506900999927893,True,9,-1,0,2
PB042K21,-,37,PS,adaptive,27,→,right,→,0.5356904999935068,True,9,1,1,3
PB042K21,-,38,PS,adaptive,28,↑,left,←,0.6257549999863841,False,8,-1,1,4
PB042K21,-,39,AS,adaptive,37,←,left,←,0.7558998000458814,True,20,0,0,0
PB042K21,-,40,AS,adaptive,42,↑,up,↑,1.1254599000094458,True,20,1,0,0
PB042K21,-,41,AS,adaptive,50,↓,down,↓,0.6953393000294454,True,19,1,0,0
PB042K21,-,42,AS,adaptive,29,↑,up,↑,0.6701462000492029,True,19,1,0,0
PB042K21,-,43,AS,adaptive,28,←,right,→,0.8730314000276849,False,18,-1,1,1
PB042K21,-,44,AS,adaptive,32,↑,up,↑,0.6424799999804236,True,19,-1,0,1
PB042K21,-,45,AS,adaptive,41,←,left,←,0.6349052000441588,True,19,1,1,2
PB042K21,-,46,AS,adaptive,28,↓,down,↓,0.7397680000285618,True,18,1,0,2
PB042K21,-,47,AS,adaptive,43,←,left,←,0.8283594999811612,True,18,1,0,2
PB042K21,-,48,AS,adaptive,41,↓,right,→,0.9359090000507422,False,17,-1,1,3
PB042K21,-,49,AS,adaptive,38,←,left,←,0.47755970002617687,True,18,-1,0,3
PB042K21,-,50,AS,adaptive,43,↓,down,↓,0.5897821999969892,True,18,1,1,4
PB042K21,1,51,PS,intra_train,33,→,right,→,0.5518092999700457,True,13,-,-,-
PB042K21,1,52,PS,intra_train,45,↓,left,←,0.8275426999898627,False,13,-,-,-
PB042K21,1,53,PS,intra_train,36,↑,up,↑,0.5565943999681622,True,13,-,-,-
PB042K21,1,54,PS,intra_train,30,←,left,←,0.5246305000036955,True,13,-,-,-
PB042K21,1,55,PS,intra_train,34,→,right,→,0.565610799996648,True,13,-,-,-
PB042K21,1,56,PS,exp,40,←,left,←,0.5528831999981776,True,9,0,0,0
PB042K21,1,57,PS,exp,33,↑,up,↑,0.6748803000082262,True,9,1,0,0
PB042K21,1,58,PS,exp,47,←,left,←,0.5592805999913253,True,8,1,0,0
PB042K21,1,59,PS,exp,48,→,right,→,0.5074568000272848,True,8,1,0,0
PB042K21,1,60,PS,exp,39,←,left,←,0.5377021000022069,True,7,1,0,0
PB042K21,1,61,PS,exp,40,↑,up,↑,0.7274083000374958,True,7,1,0,0
PB042K21,1,62,PS,exp,49,←,right,→,0.767414599948097,False,6,-1,1,1
PB042K21,1,63,PS,exp,34,↓,left,←,0.5339215000276454,False,7,-1,0,1
PB042K21,1,64,PS,exp,32,→,left,←,0.8781365000177175,False,8,-1,0,1
PB042K21,1,65,PS,exp,26,←,left,←,0.8521692999638617,True,9,-1,0,1
PB042K21,1,66,PS,exp,49,→,right,→,0.7272084000287578,True,9,1,1,2
PB042K21,1,67,PS,exp,30,↑,up,↑,0.6378503000014462,True,8,1,0,2
PB042K21,1,68,PS,exp,39,↓,left,←,0.7210012000286952,False,8,-1,1,3
PB042K21,1,69,PS,exp,26,↑,no_key,no_letter,-1.0,False,9,-1,0,3
PB042K21,1,70,PS,exp,46,→,right,→,1.1176947000203654,True,10,-1,0,3
PB042K21,1,71,PS,exp,39,↓,down,↓,0.7257481000269763,True,10,1,1,4
PB042K21,1,72,PS,exp,26,←,left,←,0.687017599993851,True,9,1,0,4
PB042K21,1,73,PS,exp,46,↑,up,↑,1.075055000022985,True,9,1,0,4
PB042K21,1,74,PS,exp,39,←,left,←,0.49588599998969585,True,8,1,0,4
PB042K21,1,75,PS,exp,43,↓,down,↓,0.6056084000156261,True,8,1,0,4
PB042K21,1,76,PS,exp,28,←,right,→,0.7436489999527112,False,7,-1,1,5
PB042K21,1,77,PS,exp,41,→,right,→,0.8333588999812491,True,8,-1,0,5
PB042K21,1,78,PS,exp,41,↓,down,↓,0.5518751000054181,True,8,1,1,6
PB042K21,1,79,PS,exp,37,←,down,↓,0.794791400025133,False,7,-1,1,7
PB042K21,1,80,PS,exp,28,→,left,←,0.5427517000352964,False,8,-1,0,7
PB042K21,1,81,PS,exp,47,↓,down,↓,0.8213402999681421,True,9,-1,0,7
PB042K21,1,82,PS,exp,37,→,right,→,0.7133617000072263,True,9,1,1,8
PB042K21,1,83,PS,exp,46,←,left,←,0.415570100012701,True,8,1,0,8
PB042K21,1,84,PS,exp,44,↓,up,↑,0.491794099973049,False,8,-1,1,9
PB042K21,1,85,PS,exp,46,↑,up,↑,0.6037851000437513,True,9,-1,0,9
PB042K21,1,86,PS,exp,31,←,right,→,0.7229032999603078,False,9,-1,0,9
PB042K21,1,87,PS,exp,37,↓,down,↓,0.6462462000199594,True,10,-1,0,9
PB042K21,1,88,PS,exp,34,←,left,←,0.41967319999821484,True,10,1,1,10
PB042K21,1,89,PS,exp,45,↓,right,→,0.8312557000317611,False,9,-1,1,11
PB042K21,1,90,PS,exp,47,→,right,→,0.6305694000329822,True,10,-1,0,11
PB042K21,1,91,PS,exp,36,↓,down,↓,0.4893502999912016,True,10,1,1,12
PB042K21,1,92,PS,exp,38,→,right,→,0.5493950000382029,True,9,1,0,12
PB042K21,1,93,PS,exp,31,←,down,↓,0.6204929000232369,False,9,-1,1,13
PB042K21,1,94,PS,exp,41,→,right,→,0.5103866999852471,True,10,-1,0,13
PB042K21,1,95,PS,exp,49,←,left,←,0.5722747000399977,True,10,1,1,14
PB042K21,2,96,AS,intra_train,28,↓,down,↓,0.7584994999924675,True,25,-,-,-
PB042K21,2,97,AS,intra_train,46,↑,up,↑,1.5417018000152893,True,25,-,-,-
PB042K21,2,98,AS,intra_train,37,→,right,→,0.6038939999998547,True,25,-,-,-
PB042K21,2,99,AS,intra_train,30,↑,up,↑,0.517213300045114,True,25,-,-,-
PB042K21,2,100,AS,intra_train,31,→,right,→,0.7083745000418276,True,25,-,-,-
PB042K21,2,101,AS,exp,27,↓,down,↓,0.7494937999872491,True,17,0,0,0
PB042K21,2,102,AS,exp,50,↑,up,↑,0.46486960002221167,True,17,1,0,0
PB042K21,2,103,AS,exp,26,→,right,→,0.48822369996923953,True,16,1,0,0
PB042K21,2,104,AS,exp,32,↓,up,↑,1.2557128999615088,False,16,-1,1,1
PB042K21,2,105,AS,exp,25,→,right,→,0.6290012000245042,True,17,-1,0,1
PB042K21,2,106,AS,exp,47,↑,up,↑,0.7171978999977,True,17,1,1,2
PB042K21,2,107,AS,exp,43,→,left,←,0.7750855999765918,False,16,-1,1,3
PB042K21,2,108,AS,exp,37,↑,up,↑,0.5330665999790654,True,17,-1,0,3
PB042K21,2,109,AS,exp,45,←,left,←,0.6633217000053264,True,17,1,1,4
PB042K21,2,110,AS,exp,31,↑,right,→,0.8325630000326782,False,16,-1,1,5
PB042K21,2,111,AS,exp,36,↓,down,↓,0.7059643999673426,True,17,-1,0,5
PB042K21,2,112,AS,exp,48,←,left,←,0.6020173000288196,True,17,1,1,6
PB042K21,2,113,AS,exp,50,↓,down,↓,0.8678494000341743,True,16,1,0,6
PB042K21,2,114,AS,exp,36,↑,up,↑,0.5062546000117436,True,16,1,0,6
PB042K21,2,115,AS,exp,41,←,right,→,0.7695712999557145,False,15,-1,1,7
PB042K21,2,116,AS,exp,45,↑,up,↑,0.8665565999690443,True,16,-1,0,7
PB042K21,2,117,AS,exp,29,→,right,→,0.780673699977342,True,16,1,1,8
PB042K21,2,118,AS,exp,25,←,left,←,1.0948914000182413,True,15,1,0,8
PB042K21,2,119,AS,exp,48,→,right,→,0.5348526000161655,True,15,1,0,8
PB042K21,2,120,AS,exp,33,↑,up,↑,0.6012811999535188,True,14,1,0,8
PB042K21,2,121,AS,exp,32,→,right,→,0.482305700017605,True,14,1,0,8
PB042K21,2,122,AS,exp,44,↑,up,↑,0.7112322000321001,True,13,1,0,8
PB042K21,2,123,AS,exp,40,→,right,→,0.7060125000425614,True,13,1,0,8
PB042K21,2,124,AS,exp,50,←,right,→,0.450172399985604,False,12,-1,1,9
PB042K21,2,125,AS,exp,30,→,left,←,0.7893194000353105,False,13,-1,0,9
PB042K21,2,126,AS,exp,34,↓,right,→,0.8127224000054412,False,14,-1,0,9
PB042K21,2,127,AS,exp,36,↑,up,↑,0.72963630000595,True,15,-1,0,9
PB042K21,2,128,AS,exp,31,↓,up,↑,0.7728463999810629,False,15,-1,0,9
PB042K21,2,129,AS,exp,41,↑,up,↑,0.7794045999762602,True,16,-1,0,9
PB042K21,2,130,AS,exp,41,←,left,←,0.5639699000166729,True,16,1,1,10
PB042K21,2,131,AS,exp,35,↑,up,↑,0.6957293999730609,True,15,1,0,10
PB042K21,2,132,AS,exp,40,←,right,→,0.7364518000395037,False,15,-1,1,11
PB042K21,2,133,AS,exp,42,↓,down,↓,0.6995077999890782,True,16,-1,0,11
PB042K21,2,134,AS,exp,30,↑,up,↑,0.714625199965667,True,16,1,1,12
PB042K21,2,135,AS,exp,50,←,right,→,0.8028207999886945,False,15,-1,1,13
PB042K21,2,136,AS,exp,42,↑,up,↑,0.7578729999950156,True,16,-1,0,13
PB042K21,2,137,AS,exp,44,←,right,→,0.4365375999477692,False,16,-1,0,13
PB042K21,2,138,AS,exp,44,↓,down,↓,0.5946373000042513,True,17,-1,0,13
PB042K21,2,139,AS,exp,36,→,right,→,0.47990789997857064,True,17,1,1,14
PB042K21,3,140,AS,intra_train,42,←,left,←,0.41699130000779405,True,25,-,-,-
PB042K21,3,141,AS,intra_train,40,↑,up,↑,0.4839471000013873,True,25,-,-,-
PB042K21,3,142,AS,intra_train,28,↓,down,↓,0.660076999978628,True,25,-,-,-
PB042K21,3,143,AS,intra_train,40,↑,up,↑,0.6653390999999829,True,25,-,-,-
PB042K21,3,144,AS,intra_train,49,→,right,→,0.5338445999659598,True,25,-,-,-
PB042K21,3,145,AS,exp,26,←,right,→,0.572405599988997,False,17,-1,0,0
PB042K21,3,146,AS,exp,38,→,right,→,0.7736752000055276,True,18,-1,0,0
PB042K21,3,147,AS,exp,46,↓,down,↓,0.7978390000062063,True,18,1,1,1
PB042K21,3,148,AS,exp,39,→,right,→,0.8136566000175662,True,17,1,0,1
PB042K21,3,149,AS,exp,46,←,right,→,0.5325090000405908,False,17,-1,1,2
PB042K21,3,150,AS,exp,25,↓,down,↓,0.5831236999947578,True,18,-1,0,2
PB042K21,3,151,AS,exp,30,→,right,→,0.6833208000170998,True,18,1,1,3
PB042K21,3,152,AS,exp,38,←,right,→,0.7528476999723352,False,17,-1,1,4
PB042K21,3,153,AS,exp,28,→,right,→,0.8068031999864615,True,18,-1,0,4
PB042K21,3,154,AS,exp,48,←,right,→,0.6662222999730147,False,18,-1,0,4
PB042K21,3,155,AS,exp,27,↑,up,↑,1.0649794999626465,True,19,-1,0,4
PB042K21,3,156,AS,exp,29,←,left,←,1.5519104999839328,True,19,1,1,5
PB042K21,3,157,AS,exp,39,↓,no_key,no_letter,-1.0,False,18,-1,1,6
PB042K21,3,158,AS,exp,47,→,right,→,0.45049590000417084,True,19,-1,0,6
PB042K21,3,159,AS,exp,35,↓,down,↓,0.5620016999891959,True,19,1,1,7
PB042K21,3,160,AS,exp,36,→,right,→,0.8233226999873295,True,18,1,0,7
PB042K21,3,161,AS,exp,39,↑,up,↑,0.7602863000356592,True,18,1,0,7
PB042K21,3,162,AS,exp,44,→,right,→,1.735591399949044,True,17,1,0,7
PB042K21,3,163,AS,exp,41,↑,up,↑,0.8279955000034533,True,17,1,0,7
PB042K21,3,164,AS,exp,43,←,left,←,0.514219900011085,True,16,1,0,7
PB042K21,3,165,AS,exp,30,↑,up,↑,0.7613312999601476,True,16,1,0,7
PB042K21,3,166,AS,exp,40,→,right,→,0.48616220004623756,True,15,1,0,7
PB042K21,3,167,AS,exp,37,←,down,↓,1.0706612999783829,False,15,-1,1,8
PB042K21,3,168,AS,exp,26,↓,down,↓,0.5368753999937326,True,16,-1,0,8
PB042K21,3,169,AS,exp,25,←,right,→,0.5615399000234902,False,16,-1,0,8
PB042K21,3,170,AS,exp,49,↓,down,↓,0.531977700011339,True,17,-1,0,8
PB042K21,3,171,AS,exp,48,↑,up,↑,0.7521468999912031,True,17,1,1,9
PB042K21,3,172,AS,exp,37,→,right,→,0.5529200999881141,True,16,1,0,9
PB042K21,3,173,AS,exp,31,↑,up,↑,0.7558185000088997,True,16,1,0,9
PB042K21,3,174,AS,exp,47,→,right,→,0.5298706000321545,True,15,1,0,9
PB042K21,3,175,AS,exp,26,↑,up,↑,0.6116418999736197,True,15,1,0,9
PB042K21,3,176,AS,exp,29,→,right,→,0.7247361000045203,True,14,1,0,9
PB042K21,3,177,AS,exp,43,↓,down,↓,0.7816938000032678,True,14,1,0,9
PB042K21,3,178,AS,exp,26,←,right,→,0.6884611999848858,False,13,-1,1,10
PB042K21,3,179,AS,exp,30,↑,up,↑,0.8203407999826595,True,14,-1,0,10
PB042K21,3,180,AS,exp,27,↓,down,↓,0.787899799994193,True,14,1,1,11
PB042K21,3,181,AS,exp,47,→,right,→,0.6450996999628842,True,13,1,0,11
PB042K21,3,182,AS,exp,32,↑,up,↑,0.5982577000395395,True,13,1,0,11
PB042K21,3,183,AS,exp,32,→,right,→,0.6065092000062577,True,12,1,0,11
PB042K21,3,184,AS,exp,32,↑,up,↑,0.8284956000279635,True,12,1,0,11
PB042K21,3,185,AS,exp,27,↓,right,→,0.8534853999735788,False,11,-1,1,12
PB042K21,3,186,AS,exp,47,←,right,→,0.6667731999768876,False,12,-1,0,12
PB042K21,3,187,AS,exp,27,↑,up,↑,0.5617894000024535,True,13,-1,0,12
PB042K21,3,188,AS,exp,37,↓,up,↑,0.5781742999679409,False,13,-1,0,12
PB042K21,3,189,AS,exp,46,↑,up,↑,0.550189399975352,True,14,-1,0,12
PB042K21,3,190,AS,exp,40,←,right,→,0.5068915000301786,False,14,-1,0,12
PB042K21,3,191,AS,exp,27,→,right,→,0.7844631000189111,True,15,-1,0,12
PB042K21,3,192,AS,exp,46,↓,down,↓,0.6155671000014991,True,15,1,1,13
PB042K21,3,193,AS,exp,33,←,right,→,0.6844097000430338,False,14,-1,1,14
PB042K21,4,194,PS,intra_train,39,↓,up,↑,1.0495116999954917,False,13,-,-,-
PB042K21,4,195,PS,intra_train,36,↑,right,→,1.1398766999482177,False,13,-,-,-
PB042K21,4,196,PS,intra_train,48,←,left,←,0.5294780000112951,True,13,-,-,-
PB042K21,4,197,PS,intra_train,46,↑,up,↑,0.5262772999703884,True,13,-,-,-
PB042K21,4,198,PS,intra_train,27,←,left,←,0.5910081000183709,True,13,-,-,-
PB042K21,4,199,PS,exp,27,→,right,→,0.7372862999909557,True,9,0,0,0
PB042K21,4,200,PS,exp,31,←,left,←,0.5438945000059903,True,9,1,0,0
PB042K21,4,201,PS,exp,41,↑,up,↑,0.5829174999962561,True,8,1,0,0
PB042K21,4,202,PS,exp,48,←,right,→,0.6487618999672122,False,8,-1,1,1
PB042K21,4,203,PS,exp,30,→,left,←,0.6068533000070602,False,9,-1,0,1
PB042K21,4,204,PS,exp,43,←,left,←,0.5181478000013158,True,10,-1,0,1
PB042K21,4,205,PS,exp,49,↓,left,←,0.6028918999945745,False,10,-1,0,1
PB042K21,4,206,PS,exp,27,→,right,→,0.5477394000045024,True,11,-1,0,1
PB042K21,4,207,PS,exp,27,↑,up,↑,0.6446525000501424,True,11,1,1,2
PB042K21,4,208,PS,exp,28,→,left,←,0.6813338000210933,False,10,-1,1,3
PB042K21,4,209,PS,exp,33,↑,up,↑,0.6255477999802679,True,11,-1,0,3
PB042K21,4,210,PS,exp,35,→,right,→,1.1718032999779098,True,11,1,1,4
PB042K21,4,211,PS,exp,37,←,left,←,1.026680499955546,True,10,1,0,4
PB042K21,4,212,PS,exp,27,→,right,→,0.5326974000199698,True,10,1,0,4
PB042K21,4,213,PS,exp,45,←,left,←,0.5631584000075236,True,9,1,0,4
PB042K21,4,214,PS,exp,41,↓,left,←,0.9987773000029847,False,9,-1,1,5
PB042K21,4,215,PS,exp,30,↑,up,↑,0.5650954999728128,True,10,-1,0,5
PB042K21,4,216,PS,exp,28,↓,down,↓,0.7455071000149474,True,10,1,1,6
PB042K21,4,217,PS,exp,31,←,left,←,0.581319999997504,True,9,1,0,6
PB042K21,4,218,PS,exp,30,→,right,→,0.5174823000561446,True,9,1,0,6
PB042K21,4,219,PS,exp,42,←,left,←,0.6307300999760628,True,8,1,0,6
PB042K21,4,220,PS,exp,27,↑,up,↑,0.6209486000007018,True,8,1,0,6
PB042K21,4,221,PS,exp,34,←,right,→,0.6708301000180654,False,7,-1,1,7
PB042K21,4,222,PS,exp,32,↑,left,←,0.5860802000388503,False,8,-1,0,7
PB042K21,4,223,PS,exp,40,←,left,←,0.5312511000083759,True,9,-1,0,7
PB042K21,4,224,PS,exp,29,→,left,←,0.9375708000152372,False,9,-1,0,7
PB042K21,4,225,PS,exp,25,←,left,←,0.879701700003352,True,10,-1,0,7
PB042K21,4,226,PS,exp,33,↑,left,←,0.6864069000002928,False,10,-1,0,7
PB042K21,4,227,PS,exp,35,→,left,←,0.7354122999822721,False,11,-1,0,7
PB042K21,4,228,PS,exp,37,←,left,←,0.4993168999790214,True,12,-1,0,7
PB042K21,4,229,PS,exp,26,↓,down,↓,0.6209260000032373,True,12,1,1,8
PB042K21,4,230,PS,exp,47,↑,up,↑,0.4150705999927595,True,11,1,0,8
PB042K21,4,231,PS,exp,27,→,right,→,0.4404474000330083,True,11,1,0,8
PB042K21,4,232,PS,exp,44,←,left,←,0.5953023000038229,True,10,1,0,8
PB042K21,4,233,PS,exp,27,↑,up,↑,0.40376880002440885,True,10,1,0,8
PB042K21,4,234,PS,exp,40,→,right,→,0.39522319997195154,True,9,1,0,8
PB042K21,4,235,PS,exp,33,↑,up,↑,0.4298079000436701,True,9,1,0,8
PB042K21,4,236,PS,exp,41,↓,down,↓,0.6539265000028536,True,8,1,0,8
PB042K21,4,237,PS,exp,38,←,left,←,0.8071340000024065,True,8,1,0,8
PB042K21,4,238,PS,exp,41,→,up,↑,0.6878486999776214,False,7,-1,1,9
PB042K21,4,239,PS,exp,36,←,right,→,0.5815198000054806,False,8,-1,0,9
PB042K21,4,240,PS,exp,36,↑,up,↑,0.5909305000095628,True,9,-1,0,9
PB042K21,4,241,PS,exp,35,→,left,←,0.5689754000050016,False,9,-1,0,9
PB042K21,4,242,PS,exp,43,←,left,←,0.4528959000017494,True,10,-1,0,9
PB042K21,4,243,PS,exp,30,↑,up,↑,0.48521110002184287,True,10,1,1,10
PB042K21,4,244,PS,exp,43,→,left,←,0.5144472999963909,False,9,-1,1,11
PB042K21,4,245,PS,exp,31,↓,left,←,0.7870034999796189,False,10,-1,0,11
PB042K21,4,246,PS,exp,35,↑,up,↑,0.6314842000138015,True,11,-1,0,11
PB042K21,4,247,PS,exp,28,←,right,→,0.7429685000097379,False,11,-1,0,11
PB042K21,4,248,PS,exp,30,↓,down,↓,0.6945516999694519,True,12,-1,0,11
PB042K21,4,249,PS,exp,44,→,right,→,0.5602686000056565,True,12,1,1,12
PB042K21,4,250,PS,exp,45,←,left,←,0.5591783999698237,True,11,1,0,12
PB042K21,4,251,PS,exp,32,↑,up,↑,0.7022455000551417,True,11,1,0,12
PB042K21,4,252,PS,exp,39,→,right,→,0.43515799997840077,True,10,1,0,12
PB042K21,4,253,PS,exp,40,↑,up,↑,0.4774403999908827,True,10,1,0,12
PB042K21,4,254,PS,exp,36,↓,up,↑,0.9782666999963112,False,9,-1,1,13
PB042K21,4,255,PS,exp,50,←,left,←,0.4422433999716304,True,10,-1,0,13
PB042K21,4,256,PS,exp,36,→,left,←,0.4960549999959767,False,10,-1,0,13
PB042K21,4,257,PS,exp,31,←,left,←,0.48088170000119135,True,11,-1,0,13
PB042K21,4,258,PS,exp,39,→,right,→,0.6276850999565795,True,11,1,1,14
PB042K21,5,259,PS,intra_train,37,↑,up,↑,0.7107827000436373,True,13,-,-,-
PB042K21,5,260,PS,intra_train,47,↓,down,↓,0.4198315999819897,True,13,-,-,-
PB042K21,5,261,PS,intra_train,27,→,right,→,0.44274219998624176,True,13,-,-,-
PB042K21,5,262,PS,intra_train,33,↓,up,↑,0.7537793999654241,False,13,-,-,-
PB042K21,5,263,PS,intra_train,38,←,left,←,0.579564500018023,True,13,-,-,-
PB042K21,5,264,PS,exp,49,↓,down,↓,0.7114062000182457,True,9,0,0,0
PB042K21,5,265,PS,exp,44,←,left,←,0.4827466999995522,True,9,1,0,0
PB042K21,5,266,PS,exp,40,↓,down,↓,0.7045376999885775,True,8,1,0,0
PB042K21,5,267,PS,exp,35,←,left,←,0.6226267999736592,True,8,1,0,0
PB042K21,5,268,PS,exp,26,→,left,←,0.6632885999861173,False,7,-1,1,1
PB042K21,5,269,PS,exp,34,←,left,←,0.39387109997915104,True,8,-1,0,1
PB042K21,5,270,PS,exp,43,↓,right,→,0.9565718999947421,False,8,-1,0,1
PB042K21,5,271,PS,exp,28,←,right,→,0.621206899988465,False,9,-1,0,1
PB042K21,5,272,PS,exp,38,→,up,↑,1.1112787000020035,False,10,-1,0,1
PB042K21,5,273,PS,exp,47,↓,left,←,0.5398975000134669,False,11,-1,0,1
PB042K21,5,274,PS,exp,36,→,right,→,0.5795762999914587,True,12,-1,0,1
PB042K21,5,275,PS,exp,26,↑,up,↑,0.5463430999661796,True,12,1,1,2
PB042K21,5,276,PS,exp,33,→,right,→,0.7335328999906778,True,11,1,0,2
PB042K21,5,277,PS,exp,40,←,left,←,0.4478813000023365,True,11,1,0,2
PB042K21,5,278,PS,exp,48,↓,down,↓,0.6314928000210784,True,10,1,0,2
PB042K21,5,279,PS,exp,42,←,right,→,0.5397249999805354,False,10,-1,1,3
PB042K21,5,280,PS,exp,49,↑,up,↑,0.45622709998860955,True,11,-1,0,3
PB042K21,5,281,PS,exp,41,↓,down,↓,0.5569966999464668,True,11,1,1,4
PB042K21,5,282,PS,exp,38,→,right,→,0.8317365999682806,True,10,1,0,4
PB042K21,5,283,PS,exp,28,←,left,←,0.4848964000120759,True,10,1,0,4
PB042K21,5,284,PS,exp,49,↓,down,↓,0.6671314000268467,True,9,1,0,4
PB042K21,5,285,PS,exp,28,→,up,↑,0.5894652000279166,False,9,-1,1,5
PB042K21,5,286,PS,exp,35,↓,left,←,0.5281637999578379,False,10,-1,0,5
PB042K21,5,287,PS,exp,43,←,right,→,0.5959486999781802,False,11,-1,0,5
PB042K21,5,288,PS,exp,26,↑,up,↑,0.6182944999891333,True,12,-1,0,5
PB042K21,5,289,PS,exp,33,→,right,→,0.4420797000057064,True,12,1,1,6
PB042K21,5,290,PS,exp,49,↓,down,↓,0.6381418000091799,True,11,1,0,6
PB042K21,5,291,PS,exp,28,→,right,→,0.7210181999835186,True,11,1,0,6
PB042K21,5,292,PS,exp,40,←,left,←,0.5434478999814019,True,10,1,0,6
PB042K21,5,293,PS,exp,49,↑,up,↑,0.5394639999722131,True,10,1,0,6
PB042K21,5,294,PS,exp,25,←,left,←,0.5396398999728262,True,9,1,0,6
PB042K21,5,295,PS,exp,49,↑,right,→,1.107575399975758,False,9,-1,1,7
PB042K21,5,296,PS,exp,28,←,left,←,0.5107256000046618,True,10,-1,0,7
PB042K21,5,297,PS,exp,31,↓,left,←,0.4820715999812819,False,10,-1,0,7
PB042K21,5,298,PS,exp,43,↑,up,↑,0.6760018999921158,True,11,-1,0,7
PB042K21,5,299,PS,exp,38,↓,up,↑,0.710179399990011,False,11,-1,0,7
PB042K21,5,300,PS,exp,34,↑,up,↑,0.48702429997501895,True,12,-1,0,7
PB042K21,5,301,PS,exp,49,→,right,→,0.4336489000124857,True,12,1,1,8
PB042K21,5,302,PS,exp,40,←,left,←,0.3629003999521956,True,11,1,0,8
PB042K21,5,303,PS,exp,36,↑,right,→,0.7132253999589011,False,11,-1,1,9
PB042K21,5,304,PS,exp,34,←,left,←,0.5433819000027142,True,12,-1,0,9
PB042K21,5,305,PS,exp,39,↑,down,↓,1.1754305000067689,False,12,-1,0,9
PB042K21,5,306,PS,exp,35,→,no_key,no_letter,-1.0,False,13,-1,0,9
PB042K21,5,307,PS,exp,43,←,left,←,0.48708669998450205,True,14,-1,0,9
PB042K21,5,308,PS,exp,47,→,right,→,0.47122860001400113,True,14,1,1,10
PB042K21,5,309,PS,exp,46,↑,up,↑,0.5645301999757066,True,13,1,0,10
PB042K21,5,310,PS,exp,34,→,right,→,0.5050406000227667,True,13,1,0,10
PB042K21,5,311,PS,exp,29,↓,left,←,0.5857292999862693,False,12,-1,1,11
PB042K21,5,312,PS,exp,30,←,left,←,0.4497315000044182,True,13,-1,0,11
PB042K21,5,313,PS,exp,41,→,right,→,0.44366900000022724,True,13,1,1,12
PB042K21,5,314,PS,exp,44,←,left,←,0.4564124000025913,True,12,1,0,12
PB042K21,5,315,PS,exp,41,→,up,↑,0.9698960999958217,False,12,-1,1,13
PB042K21,5,316,PS,exp,47,↑,right,→,0.550533700035885,False,13,-1,0,13
PB042K21,5,317,PS,exp,40,→,right,→,0.5900644999928772,True,14,-1,0,13
PB042K21,5,318,PS,exp,43,↓,down,↓,0.6551113000023179,True,14,1,1,14
PB042K21,6,319,AS,intra_train,41,←,up,↑,1.4022109999787062,False,25,-,-,-
PB042K21,6,320,AS,intra_train,27,↑,up,↑,0.5504383000079542,True,25,-,-,-
PB042K21,6,321,AS,intra_train,28,←,left,←,0.8270596999791451,True,25,-,-,-
PB042K21,6,322,AS,intra_train,30,↓,no_key,no_letter,-1.0,False,25,-,-,-
PB042K21,6,323,AS,intra_train,46,↑,up,↑,0.5003118999884464,True,25,-,-,-
PB042K21,6,324,AS,exp,47,←,left,←,0.41711759997997433,True,17,0,0,0
PB042K21,6,325,AS,exp,27,→,right,→,0.7831817999831401,True,17,1,0,0
PB042K21,6,326,AS,exp,48,←,left,←,0.4527282000053674,True,16,1,0,0
PB042K21,6,327,AS,exp,35,→,right,→,0.9964784999610856,True,16,1,0,0
PB042K21,6,328,AS,exp,49,↓,down,↓,0.8525099999969825,True,15,1,0,0
PB042K21,6,329,AS,exp,44,→,right,→,0.5885058999992907,True,15,1,0,0
PB042K21,6,330,AS,exp,40,←,left,←,0.6931136000202969,True,14,1,0,0
PB042K21,6,331,AS,exp,26,↑,right,→,0.9151316999923438,False,14,-1,1,1
PB042K21,6,332,AS,exp,28,←,left,←,0.4903602999984287,True,15,-1,0,1
PB042K21,6,333,AS,exp,40,↓,down,↓,0.43843660003039986,True,15,1,1,2
PB042K21,6,334,AS,exp,35,→,right,→,0.601627100026235,True,14,1,0,2
PB042K21,6,335,AS,exp,36,←,right,→,0.7011472000158392,False,14,-1,1,3
PB042K21,6,336,AS,exp,30,↓,down,↓,0.4756086000124924,True,15,-1,0,3
PB042K21,6,337,AS,exp,26,↑,down,↓,0.6661488999961875,False,15,-1,0,3
PB042K21,6,338,AS,exp,36,↓,down,↓,0.8171426000189967,True,16,-1,0,3
PB042K21,6,339,AS,exp,36,→,right,→,0.5028579999925569,True,16,1,1,4
PB042K21,6,340,AS,exp,44,↑,up,↑,0.5224446000065655,True,15,1,0,4
PB042K21,6,341,AS,exp,29,←,left,←,0.5639664999907836,True,15,1,0,4
PB042K21,6,342,AS,exp,34,→,right,→,1.2134419999783859,True,14,1,0,4
PB042K21,6,343,AS,exp,50,←,right,→,0.5423274000058882,False,14,-1,1,5
PB042K21,6,344,AS,exp,43,↓,down,↓,0.5753692999714985,True,15,-1,0,5
PB042K21,6,345,AS,exp,35,↑,up,↑,0.714367599983234,True,15,1,1,6
PB042K21,6,346,AS,exp,45,→,right,→,0.4808275999967009,True,14,1,0,6
PB042K21,6,347,AS,exp,26,↓,down,↓,0.8238515999983065,True,14,1,0,6
PB042K21,6,348,AS,exp,41,↑,no_key,no_letter,-1.0,False,13,-1,1,7
PB042K21,6,349,AS,exp,39,←,left,←,0.5054707999806851,True,14,-1,0,7
PB042K21,6,350,AS,exp,43,↓,right,→,0.911663300008513,False,14,-1,0,7
PB042K21,6,351,AS,exp,46,↑,down,↓,0.7175808000029065,False,15,-1,0,7
PB042K21,6,352,AS,exp,39,←,left,←,0.4578289000201039,True,16,-1,0,7
PB042K21,6,353,AS,exp,34,↑,up,↑,0.5135335000231862,True,16,1,1,8
PB042K21,6,354,AS,exp,40,→,left,←,0.5880570999579504,False,15,-1,1,9
PB042K21,6,355,AS,exp,49,↓,down,↓,0.5083677000366151,True,16,-1,0,9
PB042K21,6,356,AS,exp,32,←,left,←,0.4420390999875963,True,16,1,1,10
PB042K21,6,357,AS,exp,38,↓,down,↓,0.4305201999959536,True,15,1,0,10
PB042K21,6,358,AS,exp,37,↑,up,↑,1.0394495000364259,True,15,1,0,10
PB042K21,6,359,AS,exp,38,→,no_key,no_letter,-1.0,False,14,-1,1,11
PB042K21,6,360,AS,exp,37,↑,down,↓,0.6395479999482632,False,15,-1,0,11
PB042K21,6,361,AS,exp,46,→,left,←,0.8767257999861613,False,16,-1,0,11
PB042K21,6,362,AS,exp,39,↑,up,↑,0.7196156999561936,True,17,-1,0,11
PB042K21,6,363,AS,exp,29,↓,down,↓,0.6906515000155196,True,17,1,1,12
PB042K21,6,364,AS,exp,46,↑,up,↑,0.6446029000217095,True,16,1,0,12
PB042K21,6,365,AS,exp,40,→,right,→,0.6049851999850944,True,16,1,0,12
PB042K21,6,366,AS,exp,44,↓,down,↓,0.6767051999922842,True,15,1,0,12
PB042K21,6,367,AS,exp,36,↑,up,↑,0.6394429000210948,True,15,1,0,12
PB042K21,6,368,AS,exp,30,→,right,→,0.5329795000143349,True,14,1,0,12
PB042K21,6,369,AS,exp,37,↓,up,↑,0.609680500056129,False,14,-1,1,13
PB042K21,6,370,AS,exp,49,↑,up,↑,0.47477429994614795,True,15,-1,0,13
PB042K21,6,371,AS,exp,43,↓,down,↓,0.7316734000341967,True,15,1,1,14
PB042K21,7,372,AS,intra_train,37,→,right,→,0.5983355000498705,True,25,-,-,-
PB042K21,7,373,AS,intra_train,29,←,left,←,0.3511041000019759,True,25,-,-,-
PB042K21,7,374,AS,intra_train,44,→,right,→,0.5169834999833256,True,25,-,-,-
PB042K21,7,375,AS,intra_train,50,↑,up,↑,0.533874599961564,True,25,-,-,-
PB042K21,7,376,AS,intra_train,30,↓,up,↑,0.4837392999907024,False,25,-,-,-
PB042K21,7,377,AS,exp,28,→,right,→,0.7310277999495156,True,17,0,0,0
PB042K21,7,378,AS,exp,34,↑,up,↑,0.7760460000135936,True,17,1,0,0
PB042K21,7,379,AS,exp,46,←,left,←,0.533130900003016,True,16,1,0,0
PB042K21,7,380,AS,exp,43,↑,up,↑,0.5631351000047289,True,16,1,0,0
PB042K21,7,381,AS,exp,32,→,right,→,0.5095038000144996,True,15,1,0,0
PB042K21,7,382,AS,exp,40,↑,up,↑,0.5290949999471195,True,15,1,0,0
PB042K21,7,383,AS,exp,36,↓,down,↓,0.6977758000139147,True,14,1,0,0
PB042K21,7,384,AS,exp,26,←,right,→,0.5251398000400513,False,14,-1,1,1
PB042K21,7,385,AS,exp,45,↓,up,↑,0.6345524999778718,False,15,-1,0,1
PB042K21,7,386,AS,exp,39,←,left,←,0.4545845999964513,True,16,-1,0,1
PB042K21,7,387,AS,exp,38,→,right,→,0.48548199998913333,True,16,1,1,2
PB042K21,7,388,AS,exp,33,←,left,←,0.6645050999941304,True,15,1,0,2
PB042K21,7,389,AS,exp,44,↑,up,↑,0.6556703999522142,True,15,1,0,2
PB042K21,7,390,AS,exp,27,↓,down,↓,0.7585613999981433,True,14,1,0,2
PB042K21,7,391,AS,exp,36,←,no_key,no_letter,-1.0,False,14,-1,1,3
PB042K21,7,392,AS,exp,47,↑,up,↑,0.4882841999642551,True,15,-1,0,3
PB042K21,7,393,AS,exp,28,→,right,→,0.7044730999623425,True,15,1,1,4
PB042K21,7,394,AS,exp,25,←,left,←,0.46353690000250936,True,14,1,0,4
PB042K21,7,395,AS,exp,39,↓,down,↓,0.7621353000286035,True,14,1,0,4
PB042K21,7,396,AS,exp,46,↑,down,↓,1.044048700015992,False,13,-1,1,5
PB042K21,7,397,AS,exp,47,←,right,→,0.6444454999873415,False,14,-1,0,5
PB042K21,7,398,AS,exp,47,↑,up,↑,0.8048010999918915,True,15,-1,0,5
PB042K21,7,399,AS,exp,49,↓,down,↓,0.5939992999774404,True,15,1,1,6
PB042K21,7,400,AS,exp,28,←,right,→,0.6825839999946766,False,14,-1,1,7
PB042K21,7,401,AS,exp,25,→,right,→,0.5113785000285134,True,15,-1,0,7
PB042K21,7,402,AS,exp,47,↓,down,↓,0.6259814000222832,True,15,1,1,8
PB042K21,7,403,AS,exp,33,←,right,→,0.9222862999886274,False,14,-1,1,9
PB042K21,7,404,AS,exp,36,↑,down,↓,0.6192367000039667,False,15,-1,0,9
PB042K21,7,405,AS,exp,31,←,left,←,0.678208600031212,True,16,-1,0,9
PB042K21,7,406,AS,exp,28,↑,down,↓,0.7643949000048451,False,16,-1,0,9
PB042K21,7,407,AS,exp,28,←,right,→,0.5100695000146516,False,17,-1,0,9
PB042K21,7,408,AS,exp,26,↑,down,↓,0.6110002000350505,False,18,-1,0,9
PB042K21,7,409,AS,exp,27,→,right,→,0.5064257000340149,True,19,-1,0,9
PB042K21,7,410,AS,exp,41,↑,up,↑,0.6770537999691442,True,19,1,1,10
PB042K21,7,411,AS,exp,27,↓,down,↓,0.9939709999598563,True,18,1,0,10
PB042K21,7,412,AS,exp,28,↑,up,↑,0.4848712999955751,True,18,1,0,10
PB042K21,7,413,AS,exp,43,→,right,→,0.6475046999985352,True,17,1,0,10
PB042K21,7,414,AS,exp,37,↓,down,↓,0.4617374999797903,True,17,1,0,10
PB042K21,7,415,AS,exp,28,←,left,←,0.5183411000180058,True,16,1,0,10
PB042K21,7,416,AS,exp,45,↓,down,↓,0.6268514000112191,True,16,1,0,10
PB042K21,7,417,AS,exp,30,→,right,→,0.5676650999812409,True,15,1,0,10
PB042K21,7,418,AS,exp,47,←,left,←,0.43499820004217327,True,15,1,0,10
PB042K21,7,419,AS,exp,31,↑,down,↓,0.6826959999743849,False,14,-1,1,11
PB042K21,7,420,AS,exp,30,↓,right,→,0.9580884000170045,False,15,-1,0,11
PB042K21,7,421,AS,exp,45,←,left,←,1.2546877000131644,True,16,-1,0,11
PB042K21,7,422,AS,exp,30,→,right,→,0.46449019998544827,True,16,1,1,12
PB042K21,7,423,AS,exp,44,←,left,←,0.4564047000021674,True,15,1,0,12
PB042K21,7,424,AS,exp,39,↑,up,↑,0.6362926000147127,True,15,1,0,12
PB042K21,7,425,AS,exp,38,←,left,←,0.40904309996403754,True,14,1,0,12
PB042K21,7,426,AS,exp,33,↓,right,→,0.5759163000038825,False,14,-1,1,13
PB042K21,7,427,AS,exp,37,↑,up,↑,0.6875478999572806,True,15,-1,0,13
PB042K21,7,428,AS,exp,34,↓,up,↑,0.9162512000184506,False,15,-1,0,13
PB042K21,7,429,AS,exp,39,→,right,→,0.49540649994742125,True,16,-1,0,13
PB042K21,7,430,AS,exp,45,←,left,←,0.4522228999994695,True,16,1,1,14
PB042K21,8,431,PS,intra_train,35,↓,up,↑,1.0492999999551103,False,13,-,-,-
PB042K21,8,432,PS,intra_train,47,↑,up,↑,0.639730499999132,True,13,-,-,-
PB042K21,8,433,PS,intra_train,49,↓,down,↓,0.8057568999938667,True,13,-,-,-
PB042K21,8,434,PS,intra_train,29,→,right,→,0.4499765999498777,True,13,-,-,-
PB042K21,8,435,PS,intra_train,41,←,right,→,0.707441899983678,False,13,-,-,-
PB042K21,8,436,PS,exp,48,→,right,→,0.5014724000357091,True,9,0,0,0
PB042K21,8,437,PS,exp,46,←,left,←,0.45746110001346096,True,9,1,0,0
PB042K21,8,438,PS,exp,35,↓,down,↓,0.5186543999589048,True,8,1,0,0
PB042K21,8,439,PS,exp,38,←,right,→,0.6251729999785312,False,8,-1,1,1
PB042K21,8,440,PS,exp,46,↓,right,→,0.5715727999922819,False,9,-1,0,1
PB042K21,8,441,PS,exp,50,→,left,←,0.49243549996754155,False,10,-1,0,1
PB042K21,8,442,PS,exp,33,↓,right,→,0.742124300042633,False,11,-1,0,1
PB042K21,8,443,PS,exp,48,←,left,←,0.4482216999749653,True,12,-1,0,1
PB042K21,8,444,PS,exp,41,↓,down,↓,0.4850698999944143,True,12,1,1,2
PB042K21,8,445,PS,exp,29,→,left,←,0.5306147999945097,False,11,-1,1,3
PB042K21,8,446,PS,exp,33,←,left,←,0.37458499998319894,True,12,-1,0,3
PB042K21,8,447,PS,exp,48,↑,up,↑,0.4459663000307046,True,12,1,1,4
PB042K21,8,448,PS,exp,28,↓,down,↓,0.6341228999663144,True,11,1,0,4
PB042K21,8,449,PS,exp,27,→,right,→,0.709615700005088,True,11,1,0,4
PB042K21,8,450,PS,exp,41,↑,up,↑,0.9703002999885939,True,10,1,0,4
PB042K21,8,451,PS,exp,27,←,no_key,no_letter,-1.0,False,10,-1,1,5
PB042K21,8,452,PS,exp,27,↑,right,→,0.7030746000236832,False,11,-1,0,5
PB042K21,8,453,PS,exp,44,→,right,→,0.453540799964685,True,12,-1,0,5
PB042K21,8,454,PS,exp,38,↓,down,↓,0.5215625999844633,True,12,1,1,6
PB042K21,8,455,PS,exp,45,←,left,←,0.75262380001368,True,11,1,0,6
PB042K21,8,456,PS,exp,42,↓,down,↓,0.489594999991823,True,11,1,0,6
PB042K21,8,457,PS,exp,44,↑,right,→,0.6340260999859311,False,10,-1,1,7
PB042K21,8,458,PS,exp,27,←,left,←,0.4958868999965489,True,11,-1,0,7
PB042K21,8,459,PS,exp,27,→,right,→,0.7566391000291333,True,11,1,1,8
PB042K21,8,460,PS,exp,41,↑,up,↑,0.47942390001844615,True,10,1,0,8
PB042K21,8,461,PS,exp,48,←,left,←,0.5056616000365466,True,10,1,0,8
PB042K21,8,462,PS,exp,38,↓,down,↓,0.5742054000147618,True,9,1,0,8
PB042K21,8,463,PS,exp,26,←,left,←,0.41262750001624227,True,9,1,0,8
PB042K21,8,464,PS,exp,28,↓,right,→,0.8790344999870285,False,8,-1,1,9
PB042K21,8,465,PS,exp,25,←,left,←,0.47477049997542053,True,9,-1,0,9
PB042K21,8,466,PS,exp,41,↓,down,↓,0.5434758000192232,True,9,1,1,10
PB042K21,8,467,PS,exp,49,↑,up,↑,0.3328087999834679,True,8,1,0,10
PB042K21,8,468,PS,exp,39,↓,down,↓,0.5162579999887384,True,8,1,0,10
PB042K21,8,469,PS,exp,26,→,right,→,0.38630049995845184,True,7,1,0,10
PB042K21,8,470,PS,exp,38,←,right,→,0.6218182999873534,False,7,-1,1,11
PB042K21,8,471,PS,exp,49,→,up,↑,1.2035384000046179,False,8,-1,0,11
PB042K21,8,472,PS,exp,32,↑,right,→,0.5365418000146747,False,9,-1,0,11
PB042K21,8,473,PS,exp,42,↓,left,←,0.8834352999692783,False,10,-1,0,11
PB042K21,8,474,PS,exp,43,→,right,→,0.47827560000587255,True,11,-1,0,11
PB042K21,8,475,PS,exp,36,←,right,→,0.617180000001099,False,11,-1,0,11
PB042K21,8,476,PS,exp,31,↑,up,↑,0.5363906999700703,True,12,-1,0,11
PB042K21,8,477,PS,exp,50,→,left,←,0.7466289000003599,False,12,-1,0,11
PB042K21,8,478,PS,exp,25,↓,down,↓,0.6506798000191338,True,13,-1,0,11
PB042K21,8,479,PS,exp,25,→,right,→,0.4129506000317633,True,13,1,1,12
PB042K21,8,480,PS,exp,32,←,left,←,0.4214378999895416,True,12,1,0,12
PB042K21,8,481,PS,exp,39,↑,up,↑,0.5449363000225276,True,12,1,0,12
PB042K21,8,482,PS,exp,28,←,left,←,0.4332644999958575,True,11,1,0,12
PB042K21,8,483,PS,exp,47,↑,up,↑,0.49548619997221977,True,11,1,0,12
PB042K21,8,484,PS,exp,40,↓,up,↑,0.5749595999950543,False,10,-1,1,13
PB042K21,8,485,PS,exp,41,←,up,↑,0.37334070005454123,False,11,-1,0,13
PB042K21,8,486,PS,exp,29,→,left,←,0.7355348999844864,False,12,-1,0,13
PB042K21,8,487,PS,exp,26,↑,up,↑,0.4473138000466861,True,13,-1,0,13
PB042K21,8,488,PS,exp,26,→,right,→,0.7929251000168733,True,13,1,1,14
