PART_ID,Block_no,Trial_no,Block_type,Trial_type,CSI,Stim_letter,Key_pressed,letter_choose,Rt,Corr,Stimulus Time,Level,Reversal,Revs_count
PB050K22,1,1,PS,train,25,↑,up,↑,0.7040295000188053,True,30,-,-,-
PB050K22,1,2,PS,train,38,↓,down,↓,0.9700718000531197,True,30,-,-,-
PB050K22,1,3,PS,train,47,↑,up,↑,1.0350439000176266,True,30,-,-,-
PB050K22,1,4,PS,train,28,←,left,←,0.939708299934864,True,30,-,-,-
PB050K22,1,5,PS,train,26,↓,down,↓,0.8791943000396714,True,30,-,-,-
PB050K22,1,6,PS,train,32,↑,up,↑,1.0979246000060812,True,30,-,-,-
PB050K22,1,7,PS,train,45,→,right,→,0.9985083000501618,True,30,-,-,-
PB050K22,1,8,PS,train,32,↑,up,↑,0.9900860000634566,True,30,-,-,-
PB050K22,1,9,PS,train,46,←,left,←,0.9566583000123501,True,30,-,-,-
PB050K22,1,10,PS,train,29,→,right,→,0.80829369998537,True,30,-,-,-
PB050K22,2,11,AS,train,43,↑,up,↑,0.9723479000385851,True,45,-,-,-
PB050K22,2,12,AS,train,41,↓,down,↓,1.115838999976404,True,45,-,-,-
PB050K22,2,13,AS,train,41,←,left,←,1.2641211999580264,True,45,-,-,-
PB050K22,2,14,AS,train,39,↑,up,↑,0.9633137999335304,True,45,-,-,-
PB050K22,2,15,AS,train,39,↓,down,↓,1.1874255000147969,True,45,-,-,-
PB050K22,2,16,AS,train,38,↑,up,↑,1.3622113999444991,True,45,-,-,-
PB050K22,2,17,AS,train,34,→,right,→,1.215243799961172,True,45,-,-,-
PB050K22,2,18,AS,train,40,↑,up,↑,1.1726357999723405,True,45,-,-,-
PB050K22,2,19,AS,train,41,→,right,→,1.0200568999862298,True,45,-,-,-
PB050K22,2,20,AS,train,45,↓,down,↓,1.0667044000001624,True,45,-,-,-
PB050K22,-,21,PS,adaptive,31,↑,up,↑,0.6803276999853551,True,10,0,0,0
PB050K22,-,22,PS,adaptive,45,←,left,←,0.7048333999700844,True,10,1,0,0
PB050K22,-,23,PS,adaptive,32,↑,up,↑,0.8148257000138983,True,9,1,0,0
PB050K22,-,24,PS,adaptive,31,↓,down,↓,0.7291476000100374,True,9,1,0,0
PB050K22,-,25,PS,adaptive,44,←,left,←,0.789365699980408,True,8,1,0,0
PB050K22,-,26,PS,adaptive,41,↓,left,←,0.8452707999385893,False,8,-1,1,1
PB050K22,-,27,PS,adaptive,35,←,left,←,0.7605778999859467,True,9,-1,0,1
PB050K22,-,28,PS,adaptive,43,→,right,→,0.6241381000727415,True,9,1,1,2
PB050K22,-,29,PS,adaptive,44,←,left,←,0.6602037000702694,True,8,1,0,2
PB050K22,-,30,PS,adaptive,40,→,right,→,0.4893804000457749,True,8,1,0,2
PB050K22,-,31,PS,adaptive,28,↑,up,↑,0.5739306999603286,True,7,1,0,2
PB050K22,-,32,PS,adaptive,43,↓,down,↓,0.6135145999724045,True,7,1,0,2
PB050K22,-,33,PS,adaptive,48,←,left,←,0.5306223999941722,True,6,1,0,2
PB050K22,-,34,PS,adaptive,29,↑,right,→,0.9862013999372721,False,6,-1,1,3
PB050K22,-,35,PS,adaptive,38,→,right,→,0.6268061000155285,True,7,-1,0,3
PB050K22,-,36,PS,adaptive,35,↓,down,↓,0.6606599999358878,True,7,1,1,4
PB050K22,-,37,AS,adaptive,37,→,right,→,0.5641285000601783,True,20,0,0,0
PB050K22,-,38,AS,adaptive,47,↓,down,↓,0.803101500030607,True,20,1,0,0
PB050K22,-,39,AS,adaptive,40,←,left,←,0.7806856000097468,True,19,1,0,0
PB050K22,-,40,AS,adaptive,36,↑,up,↑,0.854894999996759,True,19,1,0,0
PB050K22,-,41,AS,adaptive,25,→,right,→,0.8520568000385538,True,18,1,0,0
PB050K22,-,42,AS,adaptive,32,←,left,←,0.8239335999824107,True,18,1,0,0
PB050K22,-,43,AS,adaptive,37,↑,up,↑,0.7968037000391632,True,17,1,0,0
PB050K22,-,44,AS,adaptive,25,↓,down,↓,0.8656876999884844,True,17,1,0,0
PB050K22,-,45,AS,adaptive,30,→,right,→,0.8458022000268102,True,16,1,0,0
PB050K22,-,46,AS,adaptive,25,←,left,←,0.8626242999453098,True,16,1,0,0
PB050K22,-,47,AS,adaptive,34,↑,up,↑,0.7379323000786826,True,15,1,0,0
PB050K22,-,48,AS,adaptive,46,↓,down,↓,0.8398182999808341,True,15,1,0,0
PB050K22,-,49,AS,adaptive,38,←,right,→,1.3225257999729365,False,14,-1,1,1
PB050K22,-,50,AS,adaptive,37,→,right,→,0.6855167999165133,True,15,-1,0,1
PB050K22,-,51,AS,adaptive,49,↓,down,↓,0.7502867999719456,True,15,1,1,2
PB050K22,-,52,AS,adaptive,43,←,left,←,0.689185299910605,True,14,1,0,2
PB050K22,-,53,AS,adaptive,28,↑,left,←,0.8060989000368863,False,14,-1,1,3
PB050K22,-,54,AS,adaptive,47,↓,down,↓,0.7860251000383869,True,15,-1,0,3
PB050K22,-,55,AS,adaptive,47,→,right,→,0.7673429999267682,True,15,1,1,4
PB050K22,1,56,AS,intra_train,37,↑,up,↑,1.1114696000004187,True,21,-,-,-
PB050K22,1,57,AS,intra_train,34,↓,down,↓,0.8385675000026822,True,21,-,-,-
PB050K22,1,58,AS,intra_train,39,→,right,→,0.7043708999408409,True,21,-,-,-
PB050K22,1,59,AS,intra_train,26,↑,up,↑,0.8109575000125915,True,21,-,-,-
PB050K22,1,60,AS,intra_train,47,↓,down,↓,0.8520873999223113,True,21,-,-,-
PB050K22,1,61,AS,exp,32,→,right,→,0.7364200000884011,True,14,0,0,0
PB050K22,1,62,AS,exp,36,←,left,←,0.8240650000516325,True,14,1,0,0
PB050K22,1,63,AS,exp,45,→,right,→,0.8362220000708476,True,13,1,0,0
PB050K22,1,64,AS,exp,49,↓,up,↑,0.8975589000619948,False,13,-1,1,1
PB050K22,1,65,AS,exp,38,→,right,→,0.8747979999752715,True,14,-1,0,1
PB050K22,1,66,AS,exp,31,↓,down,↓,0.877473899978213,True,14,1,1,2
PB050K22,1,67,AS,exp,38,←,left,←,0.8344439999200404,True,13,1,0,2
PB050K22,1,68,AS,exp,40,↑,left,←,0.9379129000008106,False,13,-1,1,3
PB050K22,1,69,AS,exp,47,←,left,←,0.9078494000714272,True,14,-1,0,3
PB050K22,1,70,AS,exp,46,↓,down,↓,1.3327484000474215,True,14,1,1,4
PB050K22,1,71,AS,exp,33,↑,right,→,1.2257631999673322,False,13,-1,1,5
PB050K22,1,72,AS,exp,25,→,left,←,0.9070789000252262,False,14,-1,0,5
PB050K22,1,73,AS,exp,28,↑,up,↑,0.894833300029859,True,15,-1,0,5
PB050K22,1,74,AS,exp,31,←,left,←,0.9486887999810278,True,15,1,1,6
PB050K22,1,75,AS,exp,33,→,right,→,0.8570093000307679,True,14,1,0,6
PB050K22,1,76,AS,exp,29,↓,left,←,1.5344487000256777,False,14,-1,1,7
PB050K22,1,77,AS,exp,36,→,right,→,0.8932454000459984,True,15,-1,0,7
PB050K22,1,78,AS,exp,25,←,left,←,0.8923449999419972,True,15,1,1,8
PB050K22,1,79,AS,exp,44,→,left,←,0.9575243999715894,False,14,-1,1,9
PB050K22,1,80,AS,exp,47,↓,down,↓,0.7015792999882251,True,15,-1,0,9
PB050K22,1,81,AS,exp,37,↑,left,←,1.6600900000194088,False,15,-1,0,9
PB050K22,1,82,AS,exp,40,→,right,→,0.9773289000149816,True,16,-1,0,9
PB050K22,1,83,AS,exp,40,↓,down,↓,0.8603928000666201,True,16,1,1,10
PB050K22,1,84,AS,exp,27,↑,up,↑,0.9877234000014141,True,15,1,0,10
PB050K22,1,85,AS,exp,36,→,right,→,0.9482657000189647,True,15,1,0,10
PB050K22,1,86,AS,exp,49,↓,down,↓,0.9385190999601036,True,14,1,0,10
PB050K22,1,87,AS,exp,33,→,left,←,0.9485983999911696,False,14,-1,1,11
PB050K22,1,88,AS,exp,26,↑,up,↑,0.8601695999968797,True,15,-1,0,11
PB050K22,1,89,AS,exp,40,→,right,→,1.3755181999877095,True,15,1,1,12
PB050K22,1,90,AS,exp,35,←,left,←,0.825118700042367,True,14,1,0,12
PB050K22,1,91,AS,exp,34,→,left,←,0.8525378999765962,False,14,-1,1,13
PB050K22,1,92,AS,exp,39,←,left,←,0.7911345000611618,True,15,-1,0,13
PB050K22,1,93,AS,exp,39,→,right,→,0.8402416999451816,True,15,1,1,14
PB050K22,2,94,PS,intra_train,47,←,left,←,0.5915371000301093,True,9,-,-,-
PB050K22,2,95,PS,intra_train,46,↑,up,↑,0.6027061000932008,True,9,-,-,-
PB050K22,2,96,PS,intra_train,34,←,left,←,0.642001900007017,True,9,-,-,-
PB050K22,2,97,PS,intra_train,47,↑,up,↑,0.6297354999696836,True,9,-,-,-
PB050K22,2,98,PS,intra_train,44,→,right,→,0.4979801999870688,True,9,-,-,-
PB050K22,2,99,PS,exp,39,←,left,←,0.5367399998940527,True,6,0,0,0
PB050K22,2,100,PS,exp,36,↓,down,↓,0.6866628000279889,True,6,1,0,0
PB050K22,2,101,PS,exp,50,→,right,→,0.6991000999696553,True,5,1,0,0
PB050K22,2,102,PS,exp,31,↓,down,↓,0.8260848999489099,True,5,1,0,0
PB050K22,2,103,PS,exp,28,←,left,←,0.7738562999293208,True,4,1,0,0
PB050K22,2,104,PS,exp,42,→,right,→,0.7536911000497639,True,4,1,0,0
PB050K22,2,105,PS,exp,32,←,right,→,0.9369951999979094,False,3,-1,1,1
PB050K22,2,106,PS,exp,40,→,left,←,0.7709551000734791,False,4,-1,0,1
PB050K22,2,107,PS,exp,41,←,left,←,0.7654135000193492,True,5,-1,0,1
PB050K22,2,108,PS,exp,46,→,right,→,0.7356834999518469,True,5,1,1,2
PB050K22,2,109,PS,exp,25,↓,down,↓,0.7491385999601334,True,4,1,0,2
PB050K22,2,110,PS,exp,29,←,left,←,0.6946655000792816,True,4,1,0,2
PB050K22,2,111,PS,exp,38,→,right,→,1.0771963999141008,True,3,1,0,2
PB050K22,2,112,PS,exp,32,↑,up,↑,0.7546726999571547,True,3,1,0,2
PB050K22,2,113,PS,exp,42,→,right,→,0.7973080000374466,True,2,1,0,2
PB050K22,2,114,PS,exp,45,↑,down,↓,1.0050766000058502,False,2,-1,1,3
PB050K22,2,115,PS,exp,31,→,right,→,0.7841232999926433,True,3,-1,0,3
PB050K22,2,116,PS,exp,48,←,right,→,1.3909786000149325,False,3,-1,0,3
PB050K22,2,117,PS,exp,30,↑,left,←,0.868542299955152,False,4,-1,0,3
PB050K22,2,118,PS,exp,46,↓,down,↓,0.7297499999403954,True,5,-1,0,3
PB050K22,2,119,PS,exp,25,→,right,→,0.9271362998988479,True,5,1,1,4
PB050K22,2,120,PS,exp,48,←,left,←,0.9239897000370547,True,4,1,0,4
PB050K22,2,121,PS,exp,41,→,right,→,0.6940054999431595,True,4,1,0,4
PB050K22,2,122,PS,exp,33,↓,right,→,0.9522910999367014,False,3,-1,1,5
PB050K22,2,123,PS,exp,33,→,left,←,0.9326041999738663,False,4,-1,0,5
PB050K22,2,124,PS,exp,45,↓,down,↓,0.7300887999590486,True,5,-1,0,5
PB050K22,2,125,PS,exp,29,→,right,→,0.68404720001854,True,5,1,1,6
PB050K22,2,126,PS,exp,34,↑,right,→,0.7291520000435412,False,4,-1,1,7
PB050K22,2,127,PS,exp,34,↓,down,↓,0.6548872999846935,True,5,-1,0,7
PB050K22,2,128,PS,exp,27,→,right,→,0.8098837999859825,True,5,1,1,8
PB050K22,2,129,PS,exp,31,↑,up,↑,0.6792201999342069,True,4,1,0,8
PB050K22,2,130,PS,exp,39,→,right,→,0.6645105999195948,True,4,1,0,8
PB050K22,2,131,PS,exp,26,↑,up,↑,0.6454452000325546,True,3,1,0,8
PB050K22,2,132,PS,exp,30,←,right,→,0.7938877999549732,False,3,-1,1,9
PB050K22,2,133,PS,exp,48,→,up,↑,0.9341995000140741,False,4,-1,0,9
PB050K22,2,134,PS,exp,38,↑,right,→,0.8638736999128014,False,5,-1,0,9
PB050K22,2,135,PS,exp,26,↓,up,↑,1.1499598999507725,False,6,-1,0,9
PB050K22,2,136,PS,exp,47,←,left,←,0.849023700109683,True,7,-1,0,9
PB050K22,2,137,PS,exp,46,↓,right,→,0.8484742000000551,False,7,-1,0,9
PB050K22,2,138,PS,exp,29,←,left,←,0.9261431000195444,True,8,-1,0,9
PB050K22,2,139,PS,exp,31,↑,right,→,0.9855932000791654,False,8,-1,0,9
PB050K22,2,140,PS,exp,35,↓,right,→,1.1143910000100732,False,9,-1,0,9
PB050K22,2,141,PS,exp,47,→,right,→,0.8340954999439418,True,10,-1,0,9
PB050K22,2,142,PS,exp,46,↓,right,→,0.7368592999409884,False,10,-1,0,9
PB050K22,2,143,PS,exp,29,→,right,→,0.6783092999830842,True,11,-1,0,9
PB050K22,2,144,PS,exp,35,↓,down,↓,1.0289607000304386,True,11,1,1,10
PB050K22,2,145,PS,exp,30,←,left,←,0.8817603000206873,True,10,1,0,10
PB050K22,2,146,PS,exp,50,→,left,←,1.4718972000991926,False,10,-1,1,11
PB050K22,2,147,PS,exp,45,↓,down,↓,0.9014092999277636,True,11,-1,0,11
PB050K22,2,148,PS,exp,34,←,left,←,0.7358889000024647,True,11,1,1,12
PB050K22,2,149,PS,exp,39,↓,down,↓,0.8154557000380009,True,10,1,0,12
PB050K22,2,150,PS,exp,26,→,right,→,0.879975900053978,True,10,1,0,12
PB050K22,2,151,PS,exp,36,←,left,←,0.7703474999871105,True,9,1,0,12
PB050K22,2,152,PS,exp,28,↑,up,↑,0.7389421999687329,True,9,1,0,12
PB050K22,2,153,PS,exp,37,→,right,→,0.7187412999337539,True,8,1,0,12
PB050K22,2,154,PS,exp,39,↓,down,↓,0.7701511000050232,True,8,1,0,12
PB050K22,2,155,PS,exp,32,←,left,←,0.7721029999665916,True,7,1,0,12
PB050K22,2,156,PS,exp,44,→,right,→,0.8355445000343025,True,7,1,0,12
PB050K22,2,157,PS,exp,27,↓,down,↓,0.7238119000103325,True,6,1,0,12
PB050K22,2,158,PS,exp,47,↑,left,←,0.73057360004168,False,6,-1,1,13
PB050K22,2,159,PS,exp,29,←,right,→,0.8682061000727117,False,7,-1,0,13
PB050K22,2,160,PS,exp,25,↓,left,←,0.8128677000058815,False,8,-1,0,13
PB050K22,2,161,PS,exp,30,↑,left,←,0.8706381999654695,False,9,-1,0,13
PB050K22,2,162,PS,exp,47,→,right,→,0.837023500003852,True,10,-1,0,13
PB050K22,2,163,PS,exp,43,↑,up,↑,0.8721489000599831,True,10,1,1,14
PB050K22,3,164,PS,intra_train,36,←,left,←,0.701727099949494,True,9,-,-,-
PB050K22,3,165,PS,intra_train,43,↓,down,↓,0.6616875000763685,True,9,-,-,-
PB050K22,3,166,PS,intra_train,34,←,left,←,0.563275899970904,True,9,-,-,-
PB050K22,3,167,PS,intra_train,46,↓,down,↓,0.5978632000042126,True,9,-,-,-
PB050K22,3,168,PS,intra_train,45,↑,up,↑,0.5477884999709204,True,9,-,-,-
PB050K22,3,169,PS,exp,26,↓,down,↓,0.5969308000057936,True,6,0,0,0
PB050K22,3,170,PS,exp,44,→,right,→,0.6653108999598771,True,6,1,0,0
PB050K22,3,171,PS,exp,34,←,left,←,0.7229846999980509,True,5,1,0,0
PB050K22,3,172,PS,exp,36,↓,right,→,0.6136870000045747,False,5,-1,1,1
PB050K22,3,173,PS,exp,37,↑,right,→,0.8031564999837428,False,6,-1,0,1
PB050K22,3,174,PS,exp,34,←,left,←,0.6870301000308245,True,7,-1,0,1
PB050K22,3,175,PS,exp,39,→,right,→,0.7570991999236867,True,7,1,1,2
PB050K22,3,176,PS,exp,27,↓,down,↓,0.7556934000458568,True,6,1,0,2
PB050K22,3,177,PS,exp,44,←,left,←,0.5592400999739766,True,6,1,0,2
PB050K22,3,178,PS,exp,32,↓,left,←,0.8298274999251589,False,5,-1,1,3
PB050K22,3,179,PS,exp,36,→,right,→,0.8799829999916255,True,6,-1,0,3
PB050K22,3,180,PS,exp,38,↓,down,↓,0.8161645999643952,True,6,1,1,4
PB050K22,3,181,PS,exp,33,↑,up,↑,0.7185649999883026,True,5,1,0,4
PB050K22,3,182,PS,exp,28,↓,down,↓,0.6900266000302508,True,5,1,0,4
PB050K22,3,183,PS,exp,28,→,right,→,0.5203441000776365,True,4,1,0,4
PB050K22,3,184,PS,exp,31,←,down,↓,0.6791678000008687,False,4,-1,1,5
PB050K22,3,185,PS,exp,30,→,right,→,0.7737215000670403,True,5,-1,0,5
PB050K22,3,186,PS,exp,33,←,left,←,0.6686190000036731,True,5,1,1,6
PB050K22,3,187,PS,exp,32,↓,right,→,0.9818418000359088,False,4,-1,1,7
PB050K22,3,188,PS,exp,38,→,right,→,0.6400916000129655,True,5,-1,0,7
PB050K22,3,189,PS,exp,27,↓,up,↑,1.405070999986492,False,5,-1,0,7
PB050K22,3,190,PS,exp,50,→,right,→,0.7771078000077978,True,6,-1,0,7
PB050K22,3,191,PS,exp,50,←,left,←,0.7813338000560179,True,6,1,1,8
PB050K22,3,192,PS,exp,39,↓,down,↓,0.8494209001073614,True,5,1,0,8
PB050K22,3,193,PS,exp,46,←,left,←,0.7088447000132874,True,5,1,0,8
PB050K22,3,194,PS,exp,28,↑,left,←,0.9052284000208601,False,4,-1,1,9
PB050K22,3,195,PS,exp,49,←,left,←,0.7070695000002161,True,5,-1,0,9
PB050K22,3,196,PS,exp,40,↓,down,↓,0.8379204999655485,True,5,1,1,10
PB050K22,3,197,PS,exp,43,←,left,←,0.941308599896729,True,4,1,0,10
PB050K22,3,198,PS,exp,47,→,left,←,0.953390600043349,False,4,-1,1,11
PB050K22,3,199,PS,exp,35,↓,right,→,0.7384431000100449,False,5,-1,0,11
PB050K22,3,200,PS,exp,49,↑,up,↑,0.6961902000475675,True,6,-1,0,11
PB050K22,3,201,PS,exp,42,←,left,←,0.6467511999653652,True,6,1,1,12
PB050K22,3,202,PS,exp,37,↑,up,↑,0.7274299000855535,True,5,1,0,12
PB050K22,3,203,PS,exp,39,→,right,→,0.7178604999789968,True,5,1,0,12
PB050K22,3,204,PS,exp,25,↓,right,→,0.8854803999420255,False,4,-1,1,13
PB050K22,3,205,PS,exp,40,←,left,←,0.6719543000217527,True,5,-1,0,13
PB050K22,3,206,PS,exp,42,↓,left,←,0.8422447999473661,False,5,-1,0,13
PB050K22,3,207,PS,exp,32,←,left,←,0.87929820001591,True,6,-1,0,13
PB050K22,3,208,PS,exp,30,↓,down,↓,0.8031237000832334,True,6,1,1,14
PB050K22,4,209,AS,intra_train,33,←,left,←,0.8089959999779239,True,21,-,-,-
PB050K22,4,210,AS,intra_train,32,↑,up,↑,0.7595918000442907,True,21,-,-,-
PB050K22,4,211,AS,intra_train,37,↓,down,↓,0.7835007000248879,True,21,-,-,-
PB050K22,4,212,AS,intra_train,27,↑,up,↑,0.8196269000181928,True,21,-,-,-
PB050K22,4,213,AS,intra_train,33,↓,down,↓,0.8487430999521166,True,21,-,-,-
PB050K22,4,214,AS,exp,43,↑,down,↓,0.7727811000077054,False,14,-1,0,0
PB050K22,4,215,AS,exp,50,→,right,→,0.7757127000950277,True,15,-1,0,0
PB050K22,4,216,AS,exp,42,↑,up,↑,0.7788359000114724,True,15,1,1,1
PB050K22,4,217,AS,exp,32,←,left,←,0.8655769999604672,True,14,1,0,1
PB050K22,4,218,AS,exp,34,↓,up,↑,0.9419073000317439,False,14,-1,1,2
PB050K22,4,219,AS,exp,26,↑,left,←,1.1447259000269696,False,15,-1,0,2
PB050K22,4,220,AS,exp,46,←,left,←,0.8726238999515772,True,16,-1,0,2
PB050K22,4,221,AS,exp,41,↑,up,↑,0.8112196000292897,True,16,1,1,3
PB050K22,4,222,AS,exp,27,→,right,→,0.9027505000121891,True,15,1,0,3
PB050K22,4,223,AS,exp,27,↑,up,↑,0.8218370999675244,True,15,1,0,3
PB050K22,4,224,AS,exp,41,→,right,→,0.8589628000045195,True,14,1,0,3
PB050K22,4,225,AS,exp,32,↓,left,←,1.008134700008668,False,14,-1,1,4
PB050K22,4,226,AS,exp,41,←,left,←,0.7807700000703335,True,15,-1,0,4
PB050K22,4,227,AS,exp,42,→,right,→,0.7693829999770969,True,15,1,1,5
PB050K22,4,228,AS,exp,39,←,left,←,0.8815301998984069,True,14,1,0,5
PB050K22,4,229,AS,exp,38,↓,down,↓,0.8044535999651998,True,14,1,0,5
PB050K22,4,230,AS,exp,45,↑,up,↑,0.6060982999624684,True,13,1,0,5
PB050K22,4,231,AS,exp,28,←,left,←,0.7948321999283507,True,13,1,0,5
PB050K22,4,232,AS,exp,25,→,right,→,0.7519018000457436,True,12,1,0,5
PB050K22,4,233,AS,exp,47,↑,up,↑,0.5931634000735357,True,12,1,0,5
PB050K22,4,234,AS,exp,37,←,left,←,1.4166471000062302,True,11,1,0,5
PB050K22,4,235,AS,exp,41,→,right,→,0.7436415000120178,True,11,1,0,5
PB050K22,4,236,AS,exp,46,↓,up,↑,0.857432599994354,False,10,-1,1,6
PB050K22,4,237,AS,exp,31,←,right,→,0.845104799955152,False,11,-1,0,6
PB050K22,4,238,AS,exp,50,→,right,→,0.8079822000581771,True,12,-1,0,6
PB050K22,4,239,AS,exp,50,↓,left,←,0.8165183999808505,False,12,-1,0,6
PB050K22,4,240,AS,exp,41,→,right,→,0.6965634999796748,True,13,-1,0,6
PB050K22,4,241,AS,exp,25,↑,left,←,1.7198294000700116,False,13,-1,0,6
PB050K22,4,242,AS,exp,40,→,right,→,0.7307559000328183,True,14,-1,0,6
PB050K22,4,243,AS,exp,48,↓,down,↓,0.8242802999448031,True,14,1,1,7
PB050K22,4,244,AS,exp,49,→,right,→,0.7007420000154525,True,13,1,0,7
PB050K22,4,245,AS,exp,49,↑,up,↑,0.726016000029631,True,13,1,0,7
PB050K22,4,246,AS,exp,47,←,left,←,0.7014821999473497,True,12,1,0,7
PB050K22,4,247,AS,exp,41,↑,up,↑,0.8523205000674352,True,12,1,0,7
PB050K22,4,248,AS,exp,37,→,up,↑,1.0540865999646485,False,11,-1,1,8
PB050K22,4,249,AS,exp,38,↑,up,↑,0.6895029000006616,True,12,-1,0,8
PB050K22,4,250,AS,exp,26,→,right,→,0.6865173999685794,True,12,1,1,9
PB050K22,4,251,AS,exp,45,↓,up,↑,0.8659540000371635,False,11,-1,1,10
PB050K22,4,252,AS,exp,26,→,right,→,0.8070670999586582,True,12,-1,0,10
PB050K22,4,253,AS,exp,33,←,left,←,1.0431240999605507,True,12,1,1,11
PB050K22,4,254,AS,exp,48,→,right,→,0.8525701999897137,True,11,1,0,11
PB050K22,4,255,AS,exp,26,↑,up,↑,0.6162123000249267,True,11,1,0,11
PB050K22,4,256,AS,exp,27,←,left,←,0.7047041999176145,True,10,1,0,11
PB050K22,4,257,AS,exp,40,↑,down,↓,1.0190116999438033,False,10,-1,1,12
PB050K22,4,258,AS,exp,27,↓,up,↑,1.1196246000472456,False,11,-1,0,12
PB050K22,4,259,AS,exp,45,←,left,←,0.7063336999854073,True,12,-1,0,12
PB050K22,4,260,AS,exp,28,↑,up,↑,0.7388806999661028,True,12,1,1,13
PB050K22,4,261,AS,exp,45,←,right,→,0.9549712999723852,False,11,-1,1,14
PB050K22,5,262,AS,intra_train,29,↑,up,↑,0.7579437999520451,True,21,-,-,-
PB050K22,5,263,AS,intra_train,40,←,left,←,0.5892093000002205,True,21,-,-,-
PB050K22,5,264,AS,intra_train,39,↑,up,↑,0.5662490999093279,True,21,-,-,-
PB050K22,5,265,AS,intra_train,37,↓,down,↓,0.7180862000677735,True,21,-,-,-
PB050K22,5,266,AS,intra_train,48,↑,up,↑,0.7180151999928057,True,21,-,-,-
PB050K22,5,267,AS,exp,42,→,right,→,0.516914900043048,True,14,0,0,0
PB050K22,5,268,AS,exp,44,↑,up,↑,0.9363627000711858,True,14,1,0,0
PB050K22,5,269,AS,exp,32,→,right,→,0.8615348000312224,True,13,1,0,0
PB050K22,5,270,AS,exp,32,↑,up,↑,1.018458200036548,True,13,1,0,0
PB050K22,5,271,AS,exp,25,→,right,→,0.7657227000454441,True,12,1,0,0
PB050K22,5,272,AS,exp,35,←,left,←,0.8585773000959307,True,12,1,0,0
PB050K22,5,273,AS,exp,42,↓,left,←,0.8549478999339044,False,11,-1,1,1
PB050K22,5,274,AS,exp,42,↑,right,→,0.9033080999506637,False,12,-1,0,1
PB050K22,5,275,AS,exp,44,→,right,→,0.7420782999834046,True,13,-1,0,1
PB050K22,5,276,AS,exp,33,↓,down,↓,0.7231674999929965,True,13,1,1,2
PB050K22,5,277,AS,exp,28,←,left,←,0.7830240000039339,True,12,1,0,2
PB050K22,5,278,AS,exp,45,↑,left,←,0.9162237000418827,False,12,-1,1,3
PB050K22,5,279,AS,exp,31,←,right,→,1.1422426999779418,False,13,-1,0,3
PB050K22,5,280,AS,exp,32,→,left,←,0.8179202999453992,False,14,-1,0,3
PB050K22,5,281,AS,exp,33,↓,down,↓,0.7269228999502957,True,15,-1,0,3
PB050K22,5,282,AS,exp,34,←,left,←,0.7691919000353664,True,15,1,1,4
PB050K22,5,283,AS,exp,42,↓,down,↓,0.8232212000293657,True,14,1,0,4
PB050K22,5,284,AS,exp,37,→,left,←,1.3919718000106514,False,14,-1,1,5
PB050K22,5,285,AS,exp,36,↓,down,↓,0.8134111000690609,True,15,-1,0,5
PB050K22,5,286,AS,exp,43,←,left,←,1.4123822000110522,True,15,1,1,6
PB050K22,5,287,AS,exp,38,→,right,→,0.7205057000974193,True,14,1,0,6
PB050K22,5,288,AS,exp,27,↑,left,←,1.0151923999655992,False,14,-1,1,7
PB050K22,5,289,AS,exp,31,→,right,→,0.7821676000021398,True,15,-1,0,7
PB050K22,5,290,AS,exp,30,←,left,←,0.7432511999504641,True,15,1,1,8
PB050K22,5,291,AS,exp,40,↑,up,↑,0.677738199941814,True,14,1,0,8
PB050K22,5,292,AS,exp,37,←,left,←,0.6941773999715224,True,14,1,0,8
PB050K22,5,293,AS,exp,29,↓,right,→,0.9483163999393582,False,13,-1,1,9
PB050K22,5,294,AS,exp,36,←,left,←,0.7609539000550285,True,14,-1,0,9
PB050K22,5,295,AS,exp,27,→,right,→,1.0248172000283375,True,14,1,1,10
PB050K22,5,296,AS,exp,48,↑,up,↑,0.7660873000277206,True,13,1,0,10
PB050K22,5,297,AS,exp,36,→,right,→,0.9246894000098109,True,13,1,0,10
PB050K22,5,298,AS,exp,44,↓,right,→,0.8048799999523908,False,12,-1,1,11
PB050K22,5,299,AS,exp,35,→,right,→,0.7804487999528646,True,13,-1,0,11
PB050K22,5,300,AS,exp,38,↑,up,↑,0.8264151000184938,True,13,1,1,12
PB050K22,5,301,AS,exp,34,↓,down,↓,0.829485599999316,True,12,1,0,12
PB050K22,5,302,AS,exp,29,↑,up,↑,0.7267410999629647,True,12,1,0,12
PB050K22,5,303,AS,exp,36,→,right,→,0.8633445999585092,True,11,1,0,12
PB050K22,5,304,AS,exp,33,←,left,←,0.6169761000201106,True,11,1,0,12
PB050K22,5,305,AS,exp,45,→,right,→,0.8827189999865368,True,10,1,0,12
PB050K22,5,306,AS,exp,35,↑,up,↑,0.6450986000709236,True,10,1,0,12
PB050K22,5,307,AS,exp,29,←,left,←,0.7900763000361621,True,9,1,0,12
PB050K22,5,308,AS,exp,30,↓,right,→,0.8749100000131875,False,9,-1,1,13
PB050K22,5,309,AS,exp,50,→,left,←,0.7195725000929087,False,10,-1,0,13
PB050K22,5,310,AS,exp,32,↓,down,↓,0.6750144000397995,True,11,-1,0,13
PB050K22,5,311,AS,exp,43,→,left,←,1.1814515000442043,False,11,-1,0,13
PB050K22,5,312,AS,exp,40,↓,down,↓,0.6820707999868318,True,12,-1,0,13
PB050K22,5,313,AS,exp,30,↑,down,↓,1.0182932000607252,False,12,-1,0,13
PB050K22,5,314,AS,exp,25,←,left,←,0.7444811000023037,True,13,-1,0,13
PB050K22,5,315,AS,exp,39,↓,down,↓,0.5966014000587165,True,13,1,1,14
PB050K22,6,316,PS,intra_train,26,→,right,→,0.6039799000136554,True,9,-,-,-
PB050K22,6,317,PS,intra_train,39,↑,up,↑,0.7279177000746131,True,9,-,-,-
PB050K22,6,318,PS,intra_train,43,→,left,←,0.9412064000498503,False,9,-,-,-
PB050K22,6,319,PS,intra_train,41,↑,up,↑,0.6617705000098795,True,9,-,-,-
PB050K22,6,320,PS,intra_train,41,←,left,←,0.6653592999791726,True,9,-,-,-
PB050K22,6,321,PS,exp,36,↑,up,↑,0.583484600065276,True,6,0,0,0
PB050K22,6,322,PS,exp,49,→,right,→,0.7539223999483511,True,6,1,0,0
PB050K22,6,323,PS,exp,41,↓,down,↓,0.72644020000007,True,5,1,0,0
PB050K22,6,324,PS,exp,42,↑,left,←,0.7162705999799073,False,5,-1,1,1
PB050K22,6,325,PS,exp,27,↓,down,↓,0.777689200011082,True,6,-1,0,1
PB050K22,6,326,PS,exp,50,←,left,←,0.6301093000220135,True,6,1,1,2
PB050K22,6,327,PS,exp,33,→,right,→,0.6549131000647321,True,5,1,0,2
PB050K22,6,328,PS,exp,49,↑,up,↑,0.5715632000938058,True,5,1,0,2
PB050K22,6,329,PS,exp,27,←,left,←,0.9981509000062943,True,4,1,0,2
PB050K22,6,330,PS,exp,29,→,right,→,0.8412523999577388,True,4,1,0,2
PB050K22,6,331,PS,exp,40,↓,right,→,0.9593421000754461,False,3,-1,1,3
PB050K22,6,332,PS,exp,40,←,left,←,0.8629467999562621,True,4,-1,0,3
PB050K22,6,333,PS,exp,36,→,left,←,1.1691704000113532,False,4,-1,0,3
PB050K22,6,334,PS,exp,36,↑,up,↑,1.2011530000017956,True,5,-1,0,3
PB050K22,6,335,PS,exp,33,←,left,←,0.9856323999119923,True,5,1,1,4
PB050K22,6,336,PS,exp,33,↓,down,↓,0.7536022000713274,True,4,1,0,4
PB050K22,6,337,PS,exp,46,←,left,←,0.9164663000265136,True,4,1,0,4
PB050K22,6,338,PS,exp,36,↑,left,←,0.9299196999054402,False,3,-1,1,5
PB050K22,6,339,PS,exp,26,→,right,→,0.6161679999204352,True,4,-1,0,5
PB050K22,6,340,PS,exp,34,↓,down,↓,0.7634120000293478,True,4,1,1,6
PB050K22,6,341,PS,exp,48,↑,right,→,0.6487255999818444,False,3,-1,1,7
PB050K22,6,342,PS,exp,38,↓,left,←,0.775608399999328,False,4,-1,0,7
PB050K22,6,343,PS,exp,48,↑,left,←,0.6924038999713957,False,5,-1,0,7
PB050K22,6,344,PS,exp,39,↓,down,↓,0.7262446000240743,True,6,-1,0,7
PB050K22,6,345,PS,exp,49,←,down,↓,1.061481500044465,False,6,-1,0,7
PB050K22,6,346,PS,exp,31,↑,up,↑,0.7250763999763876,True,7,-1,0,7
PB050K22,6,347,PS,exp,35,→,left,←,0.926850900053978,False,7,-1,0,7
PB050K22,6,348,PS,exp,31,←,left,←,0.6927086999639869,True,8,-1,0,7
PB050K22,6,349,PS,exp,38,↓,right,→,1.4188938000006601,False,8,-1,0,7
PB050K22,6,350,PS,exp,38,←,left,←,0.7353628999553621,True,9,-1,0,7
PB050K22,6,351,PS,exp,41,↑,up,↑,0.6358797999564558,True,9,1,1,8
PB050K22,6,352,PS,exp,28,↓,up,↑,0.9675327999284491,False,8,-1,1,9
PB050K22,6,353,PS,exp,27,→,right,→,0.7619529000949115,True,9,-1,0,9
PB050K22,6,354,PS,exp,44,←,left,←,0.6257477001054212,True,9,1,1,10
PB050K22,6,355,PS,exp,31,↑,up,↑,0.6693359001073986,True,8,1,0,10
PB050K22,6,356,PS,exp,35,→,right,→,0.756177100003697,True,8,1,0,10
PB050K22,6,357,PS,exp,27,←,left,←,0.5162338999798521,True,7,1,0,10
PB050K22,6,358,PS,exp,27,→,left,←,0.9416429999982938,False,7,-1,1,11
PB050K22,6,359,PS,exp,29,↑,up,↑,0.6063782999990508,True,8,-1,0,11
PB050K22,6,360,PS,exp,49,↓,down,↓,0.7361413999460638,True,8,1,1,12
PB050K22,6,361,PS,exp,48,↑,right,→,0.7146179999690503,False,7,-1,1,13
PB050K22,6,362,PS,exp,39,↓,down,↓,0.8926470000296831,True,8,-1,0,13
PB050K22,6,363,PS,exp,40,↑,up,↑,0.727458200068213,True,8,1,1,14
PB050K22,7,364,PS,intra_train,37,↓,down,↓,0.6713407000061125,True,9,-,-,-
PB050K22,7,365,PS,intra_train,41,←,left,←,0.5981183000840247,True,9,-,-,-
PB050K22,7,366,PS,intra_train,46,↓,down,↓,0.9094916000030935,True,9,-,-,-
PB050K22,7,367,PS,intra_train,45,←,left,←,0.5819378000451252,True,9,-,-,-
PB050K22,7,368,PS,intra_train,30,↓,down,↓,0.6617729000281543,True,9,-,-,-
PB050K22,7,369,PS,exp,42,→,left,←,0.7565898000029847,False,6,-1,0,0
PB050K22,7,370,PS,exp,30,←,left,←,0.6868897000094876,True,7,-1,0,0
PB050K22,7,371,PS,exp,49,→,right,→,0.7475898000411689,True,7,1,1,1
PB050K22,7,372,PS,exp,35,↑,left,←,0.778075399925001,False,6,-1,1,2
PB050K22,7,373,PS,exp,43,←,left,←,0.7430180000374094,True,7,-1,0,2
PB050K22,7,374,PS,exp,36,→,left,←,1.168772600009106,False,7,-1,0,2
PB050K22,7,375,PS,exp,30,↓,down,↓,0.925624500028789,True,8,-1,0,2
PB050K22,7,376,PS,exp,46,↑,up,↑,0.7100407999241725,True,8,1,1,3
PB050K22,7,377,PS,exp,26,←,left,←,0.6611689999699593,True,7,1,0,3
PB050K22,7,378,PS,exp,33,→,left,←,0.7384617000352591,False,7,-1,1,4
PB050K22,7,379,PS,exp,37,←,right,→,0.7243517999304458,False,8,-1,0,4
PB050K22,7,380,PS,exp,50,↓,down,↓,0.5812358999392018,True,9,-1,0,4
PB050K22,7,381,PS,exp,30,↑,left,←,0.904330899938941,False,9,-1,0,4
PB050K22,7,382,PS,exp,28,←,left,←,0.7917785999597982,True,10,-1,0,4
PB050K22,7,383,PS,exp,28,↓,right,→,0.858222599956207,False,10,-1,0,4
PB050K22,7,384,PS,exp,36,←,left,←,0.9745285999961197,True,11,-1,0,4
PB050K22,7,385,PS,exp,43,↓,left,←,0.8798039000248536,False,11,-1,0,4
PB050K22,7,386,PS,exp,50,→,right,→,0.7148134999442846,True,12,-1,0,4
PB050K22,7,387,PS,exp,33,↓,down,↓,0.6861194999655709,True,12,1,1,5
PB050K22,7,388,PS,exp,35,←,left,←,0.7476218000520021,True,11,1,0,5
PB050K22,7,389,PS,exp,50,→,right,→,0.7897536000236869,True,11,1,0,5
PB050K22,7,390,PS,exp,29,←,left,←,0.7151369999628514,True,10,1,0,5
PB050K22,7,391,PS,exp,37,→,right,→,0.7232646000338718,True,10,1,0,5
PB050K22,7,392,PS,exp,30,↓,left,←,1.0438457001000643,False,9,-1,1,6
PB050K22,7,393,PS,exp,27,→,right,→,0.820616599987261,True,10,-1,0,6
PB050K22,7,394,PS,exp,25,↑,up,↑,0.7028921999735758,True,10,1,1,7
PB050K22,7,395,PS,exp,30,←,left,←,1.050738799967803,True,9,1,0,7
PB050K22,7,396,PS,exp,34,→,right,→,0.6650313000427559,True,9,1,0,7
PB050K22,7,397,PS,exp,46,↓,up,↑,0.8717144000111148,False,8,-1,1,8
PB050K22,7,398,PS,exp,43,→,right,→,1.2275442000245675,True,9,-1,0,8
PB050K22,7,399,PS,exp,49,←,left,←,0.8788438000483438,True,9,1,1,9
PB050K22,7,400,PS,exp,33,↑,up,↑,0.6319009000435472,True,8,1,0,9
PB050K22,7,401,PS,exp,46,↓,down,↓,0.6818986999569461,True,8,1,0,9
PB050K22,7,402,PS,exp,42,→,right,→,0.6725971999112517,True,7,1,0,9
PB050K22,7,403,PS,exp,45,↑,left,←,0.7010327000170946,False,7,-1,1,10
PB050K22,7,404,PS,exp,38,↓,down,↓,0.8638406000100076,True,8,-1,0,10
PB050K22,7,405,PS,exp,45,↑,up,↑,0.5774881999241188,True,8,1,1,11
PB050K22,7,406,PS,exp,32,→,right,→,0.7170059999916703,True,7,1,0,11
PB050K22,7,407,PS,exp,28,↓,down,↓,0.7123743999982253,True,7,1,0,11
PB050K22,7,408,PS,exp,43,←,left,←,0.6369173999410123,True,6,1,0,11
PB050K22,7,409,PS,exp,31,→,right,→,0.6894487000536174,True,6,1,0,11
PB050K22,7,410,PS,exp,29,↑,up,↑,0.650043600006029,True,5,1,0,11
PB050K22,7,411,PS,exp,38,←,left,←,0.667793000000529,True,5,1,0,11
PB050K22,7,412,PS,exp,35,→,right,→,0.6353751999558881,True,4,1,0,11
PB050K22,7,413,PS,exp,37,←,left,←,0.7399944999488071,True,4,1,0,11
PB050K22,7,414,PS,exp,44,→,right,→,0.7850765000330284,True,3,1,0,11
PB050K22,7,415,PS,exp,34,↑,up,↑,0.7937057999661192,True,3,1,0,11
PB050K22,7,416,PS,exp,37,→,down,↓,1.2972161999205127,False,2,-1,1,12
PB050K22,7,417,PS,exp,36,↑,no_key,no_letter,-1.0,False,3,-1,0,12
PB050K22,7,418,PS,exp,40,←,left,←,0.7472521000308916,True,4,-1,0,12
PB050K22,7,419,PS,exp,44,↓,down,↓,0.7837654000613838,True,4,1,1,13
PB050K22,7,420,PS,exp,48,↑,right,→,0.8446170000825077,False,3,-1,1,14
PB050K22,8,421,AS,intra_train,29,↓,down,↓,0.8115401999093592,True,21,-,-,-
PB050K22,8,422,AS,intra_train,34,←,left,←,0.6868064999580383,True,21,-,-,-
PB050K22,8,423,AS,intra_train,50,↑,up,↑,0.8034053000155836,True,21,-,-,-
PB050K22,8,424,AS,intra_train,42,→,right,→,0.6387880999827757,True,21,-,-,-
PB050K22,8,425,AS,intra_train,38,↓,down,↓,0.8614814999746159,True,21,-,-,-
PB050K22,8,426,AS,exp,29,→,left,←,0.6647297000745311,False,14,-1,0,0
PB050K22,8,427,AS,exp,28,↑,up,↑,0.7303798999637365,True,15,-1,0,0
PB050K22,8,428,AS,exp,25,→,right,→,0.9559196000918746,True,15,1,1,1
PB050K22,8,429,AS,exp,44,↓,down,↓,0.7549100000178441,True,14,1,0,1
PB050K22,8,430,AS,exp,48,→,left,←,0.8875329999718815,False,14,-1,1,2
PB050K22,8,431,AS,exp,31,←,left,←,0.7779032000107691,True,15,-1,0,2
PB050K22,8,432,AS,exp,49,↓,up,↑,0.854877799982205,False,15,-1,0,2
PB050K22,8,433,AS,exp,34,←,left,←,0.7753452000906691,True,16,-1,0,2
PB050K22,8,434,AS,exp,37,↑,up,↑,0.6989107000408694,True,16,1,1,3
PB050K22,8,435,AS,exp,29,↓,down,↓,0.8531667999923229,True,15,1,0,3
PB050K22,8,436,AS,exp,35,↑,up,↑,0.818607300054282,True,15,1,0,3
PB050K22,8,437,AS,exp,33,→,right,→,0.7200808000052348,True,14,1,0,3
PB050K22,8,438,AS,exp,41,←,left,←,0.7325987999793142,True,14,1,0,3
PB050K22,8,439,AS,exp,35,↑,up,↑,0.5598448000382632,True,13,1,0,3
PB050K22,8,440,AS,exp,41,←,left,←,0.7426734000910074,True,13,1,0,3
PB050K22,8,441,AS,exp,36,→,left,←,1.0261053999420255,False,12,-1,1,4
PB050K22,8,442,AS,exp,35,↓,up,↑,0.7164471999276429,False,13,-1,0,4
PB050K22,8,443,AS,exp,28,↑,up,↑,0.7090459000319242,True,14,-1,0,4
PB050K22,8,444,AS,exp,28,↓,down,↓,0.8097850000485778,True,14,1,1,5
PB050K22,8,445,AS,exp,30,←,right,→,0.7694381000474095,False,13,-1,1,6
PB050K22,8,446,AS,exp,37,↑,up,↑,0.705544300028123,True,14,-1,0,6
PB050K22,8,447,AS,exp,44,→,left,←,0.9847834000829607,False,14,-1,0,6
PB050K22,8,448,AS,exp,44,↑,up,↑,0.7506839000852779,True,15,-1,0,6
PB050K22,8,449,AS,exp,40,→,right,→,0.6621916000731289,True,15,1,1,7
PB050K22,8,450,AS,exp,39,↓,down,↓,0.8167211000109091,True,14,1,0,7
PB050K22,8,451,AS,exp,41,→,right,→,0.7138432000065222,True,14,1,0,7
PB050K22,8,452,AS,exp,45,←,left,←,0.645316099980846,True,13,1,0,7
PB050K22,8,453,AS,exp,35,↓,down,↓,0.8892776999855414,True,13,1,0,7
PB050K22,8,454,AS,exp,46,↑,up,↑,0.6560181999811903,True,12,1,0,7
PB050K22,8,455,AS,exp,32,↓,right,→,0.7797736000502482,False,12,-1,1,8
PB050K22,8,456,AS,exp,25,↑,up,↑,0.6524163999129087,True,13,-1,0,8
PB050K22,8,457,AS,exp,29,←,left,←,0.7424215000355616,True,13,1,1,9
PB050K22,8,458,AS,exp,39,→,right,→,0.6787427999079227,True,12,1,0,9
PB050K22,8,459,AS,exp,46,←,left,←,0.5554911999497563,True,12,1,0,9
PB050K22,8,460,AS,exp,38,↑,up,↑,0.5878990000346676,True,11,1,0,9
PB050K22,8,461,AS,exp,41,←,right,→,0.775013200007379,False,11,-1,1,10
PB050K22,8,462,AS,exp,33,↓,down,↓,0.6940024000359699,True,12,-1,0,10
PB050K22,8,463,AS,exp,33,→,right,→,0.6458864000160247,True,12,1,1,11
PB050K22,8,464,AS,exp,27,↓,down,↓,0.5622731000185013,True,11,1,0,11
PB050K22,8,465,AS,exp,38,←,left,←,0.5575798000209033,True,11,1,0,11
PB050K22,8,466,AS,exp,27,↑,down,↓,0.7797182999784127,False,10,-1,1,12
PB050K22,8,467,AS,exp,34,→,right,→,0.6536718999268487,True,11,-1,0,12
PB050K22,8,468,AS,exp,49,←,left,←,0.5931419999105856,True,11,1,1,13
PB050K22,8,469,AS,exp,48,↓,down,↓,0.5106074999785051,True,10,1,0,13
PB050K22,8,470,AS,exp,28,←,left,←,0.9076969999587163,True,10,1,0,13
PB050K22,8,471,AS,exp,27,↑,up,↑,0.581525000045076,True,9,1,0,13
PB050K22,8,472,AS,exp,44,←,right,→,0.6498542999615893,False,9,-1,1,14
