PART_ID,Block_no,Trial_no,Block_type,Trial_type,CSI,Stim_letter,Key_pressed,letter_choose,Rt,Corr,Stimulus Time,Level,Reversal,Revs_count
PB060K22,1,1,PS,train,34,←,no_key,no_letter,-1.0,False,30,-,-,-
PB060K22,1,2,PS,train,41,↑,up,↑,0.8835799000225961,True,30,-,-,-
PB060K22,1,3,PS,train,26,↓,left,←,0.4839387000538409,False,30,-,-,-
PB060K22,1,4,PS,train,36,→,right,→,0.5003821999998763,True,30,-,-,-
PB060K22,1,5,PS,train,26,↑,up,↑,0.6171876000007614,True,30,-,-,-
PB060K22,1,6,PS,train,41,←,left,←,0.6763815999729559,True,30,-,-,-
PB060K22,1,7,PS,train,25,↑,up,↑,0.6955474000424147,True,30,-,-,-
PB060K22,1,8,PS,train,46,→,right,→,0.3677729000337422,True,30,-,-,-
PB060K22,1,9,PS,train,43,↓,right,→,0.4173515000147745,False,30,-,-,-
PB060K22,1,10,PS,train,36,↑,up,↑,0.4850651000160724,True,30,-,-,-
PB060K22,2,11,AS,train,28,←,left,←,1.0052070000674576,True,45,-,-,-
PB060K22,2,12,AS,train,50,↑,up,↑,1.0464032999007031,True,45,-,-,-
PB060K22,2,13,AS,train,50,←,left,←,0.6344730999553576,True,45,-,-,-
PB060K22,2,14,AS,train,25,↑,up,↑,0.6177130999276415,True,45,-,-,-
PB060K22,2,15,AS,train,43,→,right,→,0.7670438999775797,True,45,-,-,-
PB060K22,2,16,AS,train,31,←,up,↑,0.6840848000720143,False,45,-,-,-
PB060K22,2,17,AS,train,45,→,right,→,0.7010109999682754,True,45,-,-,-
PB060K22,2,18,AS,train,31,↓,right,→,0.783820700016804,False,45,-,-,-
PB060K22,2,19,AS,train,35,←,left,←,0.7181190999690443,True,45,-,-,-
PB060K22,2,20,AS,train,31,→,left,←,0.7503524000057951,False,45,-,-,-
PB060K22,-,21,PS,adaptive,28,↑,up,↑,0.9602078000316396,True,10,0,0,0
PB060K22,-,22,PS,adaptive,30,←,left,←,0.8958057999843732,True,10,1,0,0
PB060K22,-,23,PS,adaptive,39,→,up,↑,0.8025102999527007,False,9,-1,1,1
PB060K22,-,24,PS,adaptive,35,↑,up,↑,0.7882972999941558,True,10,-1,0,1
PB060K22,-,25,PS,adaptive,42,↓,up,↑,0.8641816000454128,False,10,-1,0,1
PB060K22,-,26,PS,adaptive,44,→,right,→,0.47245359991211444,True,11,-1,0,1
PB060K22,-,27,PS,adaptive,40,←,left,←,0.465323599986732,True,11,1,1,2
PB060K22,-,28,PS,adaptive,47,→,right,→,0.4677502999547869,True,10,1,0,2
PB060K22,-,29,PS,adaptive,49,↑,up,↑,0.5145415000151843,True,10,1,0,2
PB060K22,-,30,PS,adaptive,26,→,right,→,0.3693599998950958,True,9,1,0,2
PB060K22,-,31,PS,adaptive,47,↑,up,↑,0.4250575000187382,True,9,1,0,2
PB060K22,-,32,PS,adaptive,34,↓,right,→,0.32955510006286204,False,8,-1,1,3
PB060K22,-,33,PS,adaptive,31,←,up,↑,0.6550749000161886,False,9,-1,0,3
PB060K22,-,34,PS,adaptive,46,↓,down,↓,1.084142499952577,True,10,-1,0,3
PB060K22,-,35,PS,adaptive,41,→,right,→,0.5347216000081971,True,10,1,1,4
PB060K22,-,36,AS,adaptive,35,↑,no_key,no_letter,-1.0,False,20,-1,0,0
PB060K22,-,37,AS,adaptive,36,←,left,←,0.788516000029631,True,21,-1,0,0
PB060K22,-,38,AS,adaptive,33,↑,up,↑,0.5471306999679655,True,21,1,1,1
PB060K22,-,39,AS,adaptive,36,↓,down,↓,0.7831659999210387,True,20,1,0,1
PB060K22,-,40,AS,adaptive,39,↑,up,↑,0.5152751000132412,True,20,1,0,1
PB060K22,-,41,AS,adaptive,30,→,right,→,0.6203901000553742,True,19,1,0,1
PB060K22,-,42,AS,adaptive,26,←,down,↓,0.9998022000072524,False,19,-1,1,2
PB060K22,-,43,AS,adaptive,26,↓,down,↓,0.7961847999831662,True,20,-1,0,2
PB060K22,-,44,AS,adaptive,33,→,right,→,0.7185815999982879,True,20,1,1,3
PB060K22,-,45,AS,adaptive,43,←,right,→,1.1728747999295592,False,19,-1,1,4
PB060K22,1,46,PS,intra_train,43,↓,down,↓,0.6367571000009775,True,13,-,-,-
PB060K22,1,47,PS,intra_train,31,↑,up,↑,0.5549353000242263,True,13,-,-,-
PB060K22,1,48,PS,intra_train,33,←,left,←,0.5766111999982968,True,13,-,-,-
PB060K22,1,49,PS,intra_train,27,→,right,→,0.5571575999492779,True,13,-,-,-
PB060K22,1,50,PS,intra_train,35,←,left,←,0.48576790001243353,True,13,-,-,-
PB060K22,1,51,PS,exp,27,↑,up,↑,0.5216962000122294,True,9,0,0,0
PB060K22,1,52,PS,exp,25,←,up,↑,0.8619631000328809,False,9,-1,0,0
PB060K22,1,53,PS,exp,37,↑,up,↑,0.6734018999850377,True,10,-1,0,0
PB060K22,1,54,PS,exp,26,↓,down,↓,0.6693044999847189,True,10,1,1,1
PB060K22,1,55,PS,exp,33,←,left,←,0.8062646000180393,True,9,1,0,1
PB060K22,1,56,PS,exp,50,→,left,←,0.8188143000006676,False,9,-1,1,2
PB060K22,1,57,PS,exp,48,↓,down,↓,0.7089025999885052,True,10,-1,0,2
PB060K22,1,58,PS,exp,27,←,left,←,0.5620788999367505,True,10,1,1,3
PB060K22,1,59,PS,exp,39,↑,left,←,0.8137530999956653,False,9,-1,1,4
PB060K22,1,60,PS,exp,35,→,right,→,0.7006908000912517,True,10,-1,0,4
PB060K22,1,61,PS,exp,30,←,left,←,0.6053548000054434,True,10,1,1,5
PB060K22,1,62,PS,exp,27,↓,down,↓,0.7874863999895751,True,9,1,0,5
PB060K22,1,63,PS,exp,40,↑,no_key,no_letter,-1.0,False,9,-1,1,6
PB060K22,1,64,PS,exp,36,→,right,→,0.5222235999535769,True,10,-1,0,6
PB060K22,1,65,PS,exp,33,↑,up,↑,0.5100791999138892,True,10,1,1,7
PB060K22,1,66,PS,exp,47,→,left,←,0.4164702999405563,False,9,-1,1,8
PB060K22,1,67,PS,exp,48,↑,up,↑,0.5817471999907866,True,10,-1,0,8
PB060K22,1,68,PS,exp,31,→,no_key,no_letter,-1.0,False,10,-1,0,8
PB060K22,1,69,PS,exp,36,↑,up,↑,0.6130152000114322,True,11,-1,0,8
PB060K22,1,70,PS,exp,36,↓,down,↓,0.7100848000263795,True,11,1,1,9
PB060K22,1,71,PS,exp,50,↑,down,↓,0.6572343000443652,False,10,-1,1,10
PB060K22,1,72,PS,exp,28,→,right,→,0.4467364000156522,True,11,-1,0,10
PB060K22,1,73,PS,exp,28,↑,up,↑,1.3264356999425218,True,11,1,1,11
PB060K22,1,74,PS,exp,39,↓,down,↓,0.5634826000314206,True,10,1,0,11
PB060K22,1,75,PS,exp,36,←,left,←,0.47243060008622706,True,10,1,0,11
PB060K22,1,76,PS,exp,47,↑,left,←,0.6773927999893203,False,9,-1,1,12
PB060K22,1,77,PS,exp,46,↓,down,↓,0.6099393999902532,True,10,-1,0,12
PB060K22,1,78,PS,exp,25,→,right,→,0.70112290000543,True,10,1,1,13
PB060K22,1,79,PS,exp,39,↑,left,←,0.3246439000358805,False,9,-1,1,14
PB060K22,2,80,AS,intra_train,44,→,right,→,0.7525683999992907,True,30,-,-,-
PB060K22,2,81,AS,intra_train,49,←,left,←,1.4528468999778852,True,30,-,-,-
PB060K22,2,82,AS,intra_train,40,↑,up,↑,0.6003841999918222,True,30,-,-,-
PB060K22,2,83,AS,intra_train,39,↓,down,↓,0.7123298000078648,True,30,-,-,-
PB060K22,2,84,AS,intra_train,50,↑,right,→,0.7338596999179572,False,30,-,-,-
PB060K22,2,85,AS,exp,28,←,left,←,0.6770700999768451,True,20,0,0,0
PB060K22,2,86,AS,exp,38,→,left,←,1.2496387000428513,False,20,-1,0,0
PB060K22,2,87,AS,exp,27,←,up,↑,0.8070853999815881,False,21,-1,0,0
PB060K22,2,88,AS,exp,31,↑,up,↑,0.5789983000140637,True,22,-1,0,0
PB060K22,2,89,AS,exp,43,→,right,→,1.0673344999086112,True,22,1,1,1
PB060K22,2,90,AS,exp,41,↑,up,↑,0.816069999942556,True,21,1,0,1
PB060K22,2,91,AS,exp,44,←,up,↑,0.5235157000133768,False,21,-1,1,2
PB060K22,2,92,AS,exp,40,↓,up,↑,0.08436750003602356,False,22,-1,0,2
PB060K22,2,93,AS,exp,40,↑,down,↓,0.8208496000152081,False,23,-1,0,2
PB060K22,2,94,AS,exp,50,→,right,→,0.334408099995926,True,24,-1,0,2
PB060K22,2,95,AS,exp,29,↑,up,↑,1.0731577000115067,True,24,1,1,3
PB060K22,2,96,AS,exp,29,→,left,←,0.5010290000354871,False,23,-1,1,4
PB060K22,2,97,AS,exp,45,↑,no_key,no_letter,-1.0,False,24,-1,0,4
PB060K22,2,98,AS,exp,29,←,up,↑,0.9780832999385893,False,25,-1,0,4
PB060K22,2,99,AS,exp,45,↓,no_key,no_letter,-1.0,False,26,-1,0,4
PB060K22,2,100,AS,exp,30,←,left,←,0.7549903999315575,True,27,-1,0,4
PB060K22,2,101,AS,exp,42,↓,left,←,0.6874331999570131,False,27,-1,0,4
PB060K22,2,102,AS,exp,48,↑,no_key,no_letter,-1.0,False,28,-1,0,4
PB060K22,2,103,AS,exp,40,↓,down,↓,0.8687332000117749,True,29,-1,0,4
PB060K22,2,104,AS,exp,36,→,right,→,0.6004692999413237,True,29,1,1,5
PB060K22,2,105,AS,exp,44,←,left,←,0.45042270002886653,True,28,1,0,5
PB060K22,2,106,AS,exp,44,↑,up,↑,0.5336469999747351,True,28,1,0,5
PB060K22,2,107,AS,exp,33,←,up,↑,0.5836734999902546,False,27,-1,1,6
PB060K22,2,108,AS,exp,48,↑,left,←,1.3718413999304175,False,28,-1,0,6
PB060K22,2,109,AS,exp,37,→,right,→,0.6170775000937283,True,29,-1,0,6
PB060K22,2,110,AS,exp,25,←,right,→,0.5838338999310508,False,29,-1,0,6
PB060K22,2,111,AS,exp,43,↑,up,↑,0.7160231999587268,True,30,-1,0,6
PB060K22,2,112,AS,exp,50,→,left,←,0.5004998000804335,False,30,-1,0,6
PB060K22,2,113,AS,exp,35,↑,up,↑,0.6337541999528185,True,31,-1,0,6
PB060K22,2,114,AS,exp,35,↓,left,←,0.5339033999480307,False,31,-1,0,6
PB060K22,2,115,AS,exp,39,↑,up,↑,0.5010999999940395,True,32,-1,0,6
PB060K22,2,116,AS,exp,36,←,left,←,0.8535546000348404,True,32,1,1,7
PB060K22,2,117,AS,exp,46,↓,up,↑,0.5171880000270903,False,31,-1,1,8
PB060K22,2,118,AS,exp,27,→,right,→,0.5836546999635175,True,32,-1,0,8
PB060K22,2,119,AS,exp,39,←,left,←,0.6336288000456989,True,32,1,1,9
PB060K22,2,120,AS,exp,39,→,left,←,0.5838643000461161,False,31,-1,1,10
PB060K22,2,121,AS,exp,43,↑,up,↑,0.5836573999840766,True,32,-1,0,10
PB060K22,2,122,AS,exp,48,↓,down,↓,0.7164301000302657,True,32,1,1,11
PB060K22,2,123,AS,exp,28,↑,left,←,1.2790020999964327,False,31,-1,1,12
PB060K22,2,124,AS,exp,44,→,right,→,0.8644074999028817,True,32,-1,0,12
PB060K22,2,125,AS,exp,37,←,right,→,0.533744299900718,False,32,-1,0,12
PB060K22,2,126,AS,exp,25,↓,down,↓,1.2693182000657544,True,33,-1,0,12
PB060K22,2,127,AS,exp,49,↑,up,↑,0.8588805999606848,True,33,1,1,13
PB060K22,2,128,AS,exp,31,↓,down,↓,1.2477574000367895,True,32,1,0,13
PB060K22,2,129,AS,exp,38,→,up,↑,0.4345118999481201,False,32,-1,1,14
PB060K22,3,130,AS,intra_train,34,←,left,←,0.5667638999875635,True,30,-,-,-
PB060K22,3,131,AS,intra_train,48,→,right,→,0.5003641999792308,True,30,-,-,-
PB060K22,3,132,AS,intra_train,36,↑,right,→,0.6171543999807909,False,30,-,-,-
PB060K22,3,133,AS,intra_train,44,→,right,→,0.5838128000032157,True,30,-,-,-
PB060K22,3,134,AS,intra_train,25,←,left,←,0.7109811999835074,True,30,-,-,-
PB060K22,3,135,AS,exp,46,→,right,→,1.2299765000352636,True,20,0,0,0
PB060K22,3,136,AS,exp,40,↓,left,←,0.41706090001389384,False,20,-1,0,0
PB060K22,3,137,AS,exp,37,←,no_key,no_letter,-1.0,False,21,-1,0,0
PB060K22,3,138,AS,exp,27,↓,no_key,no_letter,-1.0,False,22,-1,0,0
PB060K22,3,139,AS,exp,38,↑,left,←,0.6490523999091238,False,23,-1,0,0
PB060K22,3,140,AS,exp,34,→,up,↑,0.5005089000333101,False,24,-1,0,0
PB060K22,3,141,AS,exp,45,↓,right,→,0.18506430007983,False,25,-1,0,0
PB060K22,3,142,AS,exp,27,←,left,←,0.40099889994598925,True,26,-1,0,0
PB060K22,3,143,AS,exp,42,↓,right,→,0.5504190999781713,False,26,-1,0,0
PB060K22,3,144,AS,exp,38,↑,up,↑,0.4836792000569403,True,27,-1,0,0
PB060K22,3,145,AS,exp,35,←,right,→,0.8606479000300169,False,27,-1,0,0
PB060K22,3,146,AS,exp,38,↑,up,↑,0.5176747000077739,True,28,-1,0,0
PB060K22,3,147,AS,exp,41,→,left,←,0.6710219000233337,False,28,-1,0,0
PB060K22,3,148,AS,exp,39,↑,right,→,1.127619400038384,False,29,-1,0,0
PB060K22,3,149,AS,exp,35,←,left,←,0.7317250000778586,True,30,-1,0,0
PB060K22,3,150,AS,exp,32,↓,down,↓,0.9698445999529213,True,30,1,1,1
PB060K22,3,151,AS,exp,27,→,no_key,no_letter,-1.0,False,29,-1,1,2
PB060K22,3,152,AS,exp,35,←,right,→,0.5673038999084383,False,30,-1,0,2
PB060K22,3,153,AS,exp,48,↓,down,↓,1.1443672999739647,True,31,-1,0,2
PB060K22,3,154,AS,exp,27,←,left,←,1.0430642000865191,True,31,1,1,3
PB060K22,3,155,AS,exp,45,↑,up,↑,0.7756746999220923,True,30,1,0,3
PB060K22,3,156,AS,exp,32,↓,up,↑,0.4836401999928057,False,30,-1,1,4
PB060K22,3,157,AS,exp,39,→,right,→,0.8634709999896586,True,31,-1,0,4
PB060K22,3,158,AS,exp,45,←,no_key,no_letter,-1.0,False,31,-1,0,4
PB060K22,3,159,AS,exp,27,↑,left,←,0.4012522000120953,False,32,-1,0,4
PB060K22,3,160,AS,exp,32,←,up,↑,0.3510165000334382,False,33,-1,0,4
PB060K22,3,161,AS,exp,42,↑,up,↑,0.6671778000891209,True,34,-1,0,4
PB060K22,3,162,AS,exp,28,→,right,→,0.6836681000422686,True,34,1,1,5
PB060K22,3,163,AS,exp,26,↑,up,↑,0.7705198000185192,True,33,1,0,5
PB060K22,3,164,AS,exp,32,→,right,→,0.48442250001244247,True,33,1,0,5
PB060K22,3,165,AS,exp,33,↑,up,↑,0.4676987000275403,True,32,1,0,5
PB060K22,3,166,AS,exp,48,←,left,←,0.900478900060989,True,32,1,0,5
PB060K22,3,167,AS,exp,32,↑,up,↑,0.6930121999466792,True,31,1,0,5
PB060K22,3,168,AS,exp,45,↓,left,←,1.4595912999939173,False,31,-1,1,6
PB060K22,3,169,AS,exp,46,←,no_key,no_letter,-1.0,False,32,-1,0,6
PB060K22,3,170,AS,exp,32,→,right,→,0.5671413999516517,True,33,-1,0,6
PB060K22,3,171,AS,exp,47,↑,right,→,0.4178137999260798,False,33,-1,0,6
PB060K22,3,172,AS,exp,30,→,up,↑,0.40104400005657226,False,34,-1,0,6
PB060K22,3,173,AS,exp,31,↓,right,→,0.06784419994801283,False,35,-1,0,6
PB060K22,3,174,AS,exp,40,→,right,→,0.633723699953407,True,36,-1,0,6
PB060K22,3,175,AS,exp,33,←,right,→,0.5346247999696061,False,36,-1,0,6
PB060K22,3,176,AS,exp,45,↓,down,↓,1.0029761000769213,True,37,-1,0,6
PB060K22,3,177,AS,exp,41,→,left,←,0.6504864000016823,False,37,-1,0,6
PB060K22,3,178,AS,exp,28,↑,up,↑,0.8301779999164864,True,38,-1,0,6
PB060K22,3,179,AS,exp,45,→,right,→,0.8299127999925986,True,38,1,1,7
PB060K22,3,180,AS,exp,39,←,left,←,0.8664759000530466,True,37,1,0,7
PB060K22,3,181,AS,exp,26,↓,down,↓,0.9665747000835836,True,37,1,0,7
PB060K22,3,182,AS,exp,45,↑,up,↑,0.9085899000056088,True,36,1,0,7
PB060K22,3,183,AS,exp,47,→,right,→,0.4512185000348836,True,36,1,0,7
PB060K22,3,184,AS,exp,50,↓,down,↓,1.0860850000753999,True,35,1,0,7
PB060K22,3,185,AS,exp,34,↑,up,↑,0.6504482000600547,True,35,1,0,7
PB060K22,3,186,AS,exp,27,→,right,→,0.6004200000315905,True,34,1,0,7
PB060K22,3,187,AS,exp,34,↓,down,↓,0.6671933999750763,True,34,1,0,7
PB060K22,3,188,AS,exp,25,←,left,←,0.9703034999547526,True,33,1,0,7
PB060K22,3,189,AS,exp,38,→,right,→,0.8337703000288457,True,33,1,0,7
PB060K22,3,190,AS,exp,38,↑,up,↑,0.8260499000316486,True,32,1,0,7
PB060K22,3,191,AS,exp,46,→,right,→,0.7163537000305951,True,32,1,0,7
PB060K22,3,192,AS,exp,50,←,right,→,1.383157700067386,False,31,-1,1,8
PB060K22,3,193,AS,exp,26,↓,down,↓,0.9945620999205858,True,32,-1,0,8
PB060K22,3,194,AS,exp,38,↑,left,←,1.8628511999268085,False,32,-1,0,8
PB060K22,3,195,AS,exp,33,↓,right,→,0.4509029999608174,False,33,-1,0,8
PB060K22,3,196,AS,exp,30,↑,up,↑,0.9029356999089941,True,34,-1,0,8
PB060K22,3,197,AS,exp,41,→,right,→,1.745443299994804,True,34,1,1,9
PB060K22,3,198,AS,exp,36,↓,down,↓,0.8493627000134438,True,33,1,0,9
PB060K22,3,199,AS,exp,44,↑,up,↑,0.7615833999589086,True,33,1,0,9
PB060K22,3,200,AS,exp,26,←,left,←,1.02959130005911,True,32,1,0,9
PB060K22,3,201,AS,exp,35,↓,no_key,no_letter,-1.0,False,32,-1,1,10
PB060K22,3,202,AS,exp,30,←,right,→,0.6336667999858037,False,33,-1,0,10
PB060K22,3,203,AS,exp,42,→,right,→,0.7958896999480203,True,34,-1,0,10
PB060K22,3,204,AS,exp,28,↑,left,←,0.3511848000343889,False,34,-1,0,10
PB060K22,3,205,AS,exp,48,↓,up,↑,0.5511467000469565,False,35,-1,0,10
PB060K22,3,206,AS,exp,46,↑,down,↓,0.8082268999423832,False,36,-1,0,10
PB060K22,3,207,AS,exp,30,→,no_key,no_letter,-1.0,False,37,-1,0,10
PB060K22,3,208,AS,exp,29,↓,no_key,no_letter,-1.0,False,38,-1,0,10
PB060K22,3,209,AS,exp,44,↑,right,→,1.5632852000417188,False,39,-1,0,10
PB060K22,3,210,AS,exp,39,→,no_key,no_letter,-1.0,False,40,-1,0,10
PB060K22,3,211,AS,exp,31,←,no_key,no_letter,-1.0,False,41,-1,0,10
PB060K22,3,212,AS,exp,37,↑,right,→,1.508295699954033,False,42,-1,0,10
PB060K22,3,213,AS,exp,26,←,right,→,0.8931529000401497,False,43,-1,0,10
PB060K22,3,214,AS,exp,33,↓,right,→,2.3842780999839306,False,44,-1,0,10
PB060K22,3,215,AS,exp,39,→,right,→,1.2423697999911383,True,45,-1,0,10
PB060K22,3,216,AS,exp,42,↑,up,↑,0.8504245000658557,True,45,1,1,11
PB060K22,3,217,AS,exp,43,←,no_key,no_letter,-1.0,False,44,-1,1,12
PB060K22,3,218,AS,exp,31,↓,right,→,1.7799466999713331,False,45,-1,0,12
PB060K22,3,219,AS,exp,29,→,right,→,1.675017899950035,True,46,-1,0,12
PB060K22,3,220,AS,exp,40,←,right,→,0.4843243000796065,False,46,-1,0,12
PB060K22,3,221,AS,exp,43,→,right,→,1.7449255998944864,True,47,-1,0,12
PB060K22,3,222,AS,exp,39,←,no_key,no_letter,-1.0,False,47,-1,0,12
PB060K22,3,223,AS,exp,26,↑,up,↑,0.6342423000605777,True,48,-1,0,12
PB060K22,3,224,AS,exp,28,↓,down,↓,0.9337971000932157,True,48,1,1,13
PB060K22,3,225,AS,exp,44,→,left,←,0.6344399999361485,False,47,-1,1,14
PB060K22,4,226,PS,intra_train,42,↓,down,↓,0.7794616000028327,True,13,-,-,-
PB060K22,4,227,PS,intra_train,39,←,left,←,0.4572594000492245,True,13,-,-,-
PB060K22,4,228,PS,intra_train,25,→,right,→,0.44768199999816716,True,13,-,-,-
PB060K22,4,229,PS,intra_train,46,←,no_key,no_letter,-1.0,False,13,-,-,-
PB060K22,4,230,PS,intra_train,49,→,right,→,0.46918100002221763,True,13,-,-,-
PB060K22,4,231,PS,exp,49,↓,right,→,0.681439199950546,False,9,-1,0,0
PB060K22,4,232,PS,exp,39,←,right,→,0.5089652000460774,False,10,-1,0,0
PB060K22,4,233,PS,exp,29,→,right,→,0.5877416000002995,True,11,-1,0,0
PB060K22,4,234,PS,exp,37,↓,down,↓,0.6005395000101998,True,11,1,1,1
PB060K22,4,235,PS,exp,33,←,left,←,0.5841257000574842,True,10,1,0,1
PB060K22,4,236,PS,exp,40,↑,up,↑,0.5794508999679238,True,10,1,0,1
PB060K22,4,237,PS,exp,43,←,right,→,0.5337813999503851,False,9,-1,1,2
PB060K22,4,238,PS,exp,27,↓,left,←,0.8595266999909654,False,10,-1,0,2
PB060K22,4,239,PS,exp,33,↑,down,↓,1.3445685000624508,False,11,-1,0,2
PB060K22,4,240,PS,exp,27,→,right,→,0.9701617999235168,True,12,-1,0,2
PB060K22,4,241,PS,exp,27,↓,right,→,1.5256816999753937,False,12,-1,0,2
PB060K22,4,242,PS,exp,27,←,left,←,0.7769642000785097,True,13,-1,0,2
PB060K22,4,243,PS,exp,33,↑,up,↑,0.8758733000140637,True,13,1,1,3
PB060K22,4,244,PS,exp,47,←,left,←,0.9733295999467373,True,12,1,0,3
PB060K22,4,245,PS,exp,50,↑,right,→,1.3793107999954373,False,12,-1,1,4
PB060K22,4,246,PS,exp,33,→,no_key,no_letter,-1.0,False,13,-1,0,4
PB060K22,4,247,PS,exp,37,↑,no_key,no_letter,-1.0,False,14,-1,0,4
PB060K22,4,248,PS,exp,45,↓,right,→,0.8134989000391215,False,15,-1,0,4
PB060K22,4,249,PS,exp,29,→,left,←,1.7059539000038058,False,16,-1,0,4
PB060K22,4,250,PS,exp,46,←,left,←,0.8579705000156537,True,17,-1,0,4
PB060K22,4,251,PS,exp,46,↓,left,←,1.6983729000203311,False,17,-1,0,4
PB060K22,4,252,PS,exp,36,↑,up,↑,0.5688995000673458,True,18,-1,0,4
PB060K22,4,253,PS,exp,39,↓,down,↓,0.9434079999336973,True,18,1,1,5
PB060K22,4,254,PS,exp,34,←,no_key,no_letter,-1.0,False,17,-1,1,6
PB060K22,4,255,PS,exp,36,↑,up,↑,0.5182618999388069,True,18,-1,0,6
PB060K22,4,256,PS,exp,43,→,right,→,0.4840766000561416,True,18,1,1,7
PB060K22,4,257,PS,exp,25,↑,up,↑,0.6226820000447333,True,17,1,0,7
PB060K22,4,258,PS,exp,43,↓,down,↓,0.7322781999828294,True,17,1,0,7
PB060K22,4,259,PS,exp,34,→,no_key,no_letter,-1.0,False,16,-1,1,8
PB060K22,4,260,PS,exp,29,↑,up,↑,0.46445590001530945,True,17,-1,0,8
PB060K22,4,261,PS,exp,35,←,left,←,0.5452560000121593,True,17,1,1,9
PB060K22,4,262,PS,exp,45,→,right,→,0.5173663999885321,True,16,1,0,9
PB060K22,4,263,PS,exp,31,←,left,←,0.5521446999628097,True,16,1,0,9
PB060K22,4,264,PS,exp,41,↓,down,↓,0.6249766000546515,True,15,1,0,9
PB060K22,4,265,PS,exp,29,↑,down,↓,0.9739253000589088,False,15,-1,1,10
PB060K22,4,266,PS,exp,42,←,left,←,0.5914945000549778,True,16,-1,0,10
PB060K22,4,267,PS,exp,44,↑,up,↑,0.5308400999056175,True,16,1,1,11
PB060K22,4,268,PS,exp,32,↓,up,↑,0.5274521999526769,False,15,-1,1,12
PB060K22,4,269,PS,exp,35,←,right,→,0.45661879994440824,False,16,-1,0,12
PB060K22,4,270,PS,exp,45,↓,down,↓,0.8265202000038698,True,17,-1,0,12
PB060K22,4,271,PS,exp,32,←,left,←,0.630224599968642,True,17,1,1,13
PB060K22,4,272,PS,exp,48,↓,down,↓,1.104558499995619,True,16,1,0,13
PB060K22,4,273,PS,exp,46,↑,no_key,no_letter,-1.0,False,16,-1,1,14
PB060K22,5,274,PS,intra_train,50,→,right,→,0.445272299926728,True,13,-,-,-
PB060K22,5,275,PS,intra_train,45,↓,down,↓,0.6733186999335885,True,13,-,-,-
PB060K22,5,276,PS,intra_train,26,←,left,←,0.48277999996207654,True,13,-,-,-
PB060K22,5,277,PS,intra_train,36,↓,down,↓,0.69274069997482,True,13,-,-,-
PB060K22,5,278,PS,intra_train,30,→,right,→,0.5946303999517113,True,13,-,-,-
PB060K22,5,279,PS,exp,45,↓,down,↓,0.6995659000240266,True,9,0,0,0
PB060K22,5,280,PS,exp,28,↑,down,↓,1.4810279000084847,False,9,-1,0,0
PB060K22,5,281,PS,exp,47,←,right,→,0.506809699931182,False,10,-1,0,0
PB060K22,5,282,PS,exp,30,→,right,→,0.5530603000661358,True,11,-1,0,0
PB060K22,5,283,PS,exp,29,↑,up,↑,0.582483800011687,True,11,1,1,1
PB060K22,5,284,PS,exp,29,←,left,←,0.823808400076814,True,10,1,0,1
PB060K22,5,285,PS,exp,35,↑,up,↑,0.403478900087066,True,10,1,0,1
PB060K22,5,286,PS,exp,50,←,left,←,0.7202698000473902,True,9,1,0,1
PB060K22,5,287,PS,exp,40,↓,down,↓,0.8168125000083819,True,9,1,0,1
PB060K22,5,288,PS,exp,40,→,right,→,0.6019336000317708,True,8,1,0,1
PB060K22,5,289,PS,exp,40,↓,down,↓,0.6982876000693068,True,8,1,0,1
PB060K22,5,290,PS,exp,31,→,no_key,no_letter,-1.0,False,7,-1,1,2
PB060K22,5,291,PS,exp,43,↑,left,←,0.7952564998995513,False,8,-1,0,2
PB060K22,5,292,PS,exp,30,←,left,←,0.5132953999564052,True,9,-1,0,2
PB060K22,5,293,PS,exp,41,→,right,→,0.48079519998282194,True,9,1,1,3
PB060K22,5,294,PS,exp,26,←,left,←,0.7415954999160022,True,8,1,0,3
PB060K22,5,295,PS,exp,48,→,right,→,0.48502150003332645,True,8,1,0,3
PB060K22,5,296,PS,exp,47,←,left,←,0.9115972000872716,True,7,1,0,3
PB060K22,5,297,PS,exp,32,↑,left,←,1.0811582000460476,False,7,-1,1,4
PB060K22,5,298,PS,exp,28,←,left,←,0.869865599903278,True,8,-1,0,4
PB060K22,5,299,PS,exp,27,↓,left,←,0.9113867999985814,False,8,-1,0,4
PB060K22,5,300,PS,exp,26,↑,up,↑,0.5678380000172183,True,9,-1,0,4
PB060K22,5,301,PS,exp,48,→,right,→,0.6663739000214264,True,9,1,1,5
PB060K22,5,302,PS,exp,29,↓,up,↑,1.0122376999352127,False,8,-1,1,6
PB060K22,5,303,PS,exp,36,←,right,→,0.5584101000567898,False,9,-1,0,6
PB060K22,5,304,PS,exp,35,↑,right,→,1.3330849000485614,False,10,-1,0,6
PB060K22,5,305,PS,exp,50,←,right,→,0.9925615000538528,False,11,-1,0,6
PB060K22,5,306,PS,exp,26,↑,left,←,0.6247246999992058,False,12,-1,0,6
PB060K22,5,307,PS,exp,31,↓,right,→,0.30056720005813986,False,13,-1,0,6
PB060K22,5,308,PS,exp,29,→,right,→,0.5322833999525756,True,14,-1,0,6
PB060K22,5,309,PS,exp,32,↓,right,→,0.41677850007545203,False,14,-1,0,6
PB060K22,5,310,PS,exp,36,←,left,←,0.5799932000227273,True,15,-1,0,6
PB060K22,5,311,PS,exp,34,→,right,→,0.5765367000130937,True,15,1,1,7
PB060K22,5,312,PS,exp,40,↑,up,↑,0.7381998000200838,True,14,1,0,7
PB060K22,5,313,PS,exp,37,←,up,↑,0.808550100075081,False,14,-1,1,8
PB060K22,5,314,PS,exp,41,↑,up,↑,0.6414586000610143,True,15,-1,0,8
PB060K22,5,315,PS,exp,33,←,no_key,no_letter,-1.0,False,15,-1,0,8
PB060K22,5,316,PS,exp,33,→,no_key,no_letter,-1.0,False,16,-1,0,8
PB060K22,5,317,PS,exp,27,↓,down,↓,0.6674488000571728,True,17,-1,0,8
PB060K22,5,318,PS,exp,34,→,right,→,0.6199486000696197,True,17,1,1,9
PB060K22,5,319,PS,exp,25,↑,up,↑,0.5662366999313235,True,16,1,0,9
PB060K22,5,320,PS,exp,36,←,up,↑,1.517284300061874,False,16,-1,1,10
PB060K22,5,321,PS,exp,32,↓,down,↓,0.9686486999271438,True,17,-1,0,10
PB060K22,5,322,PS,exp,40,→,no_key,no_letter,-1.0,False,17,-1,0,10
PB060K22,5,323,PS,exp,32,↑,up,↑,0.5134801000822335,True,18,-1,0,10
PB060K22,5,324,PS,exp,49,←,right,→,0.5160351000959054,False,18,-1,0,10
PB060K22,5,325,PS,exp,34,↓,no_key,no_letter,-1.0,False,19,-1,0,10
PB060K22,5,326,PS,exp,30,←,right,→,0.7549761000555009,False,20,-1,0,10
PB060K22,5,327,PS,exp,32,↑,up,↑,0.48380029993131757,True,21,-1,0,10
PB060K22,5,328,PS,exp,25,←,left,←,0.6649056000169367,True,21,1,1,11
PB060K22,5,329,PS,exp,38,↑,left,←,1.2765550999902189,False,20,-1,1,12
PB060K22,5,330,PS,exp,36,←,left,←,0.9820429999381304,True,21,-1,0,12
PB060K22,5,331,PS,exp,34,→,left,←,0.4338797000236809,False,21,-1,0,12
PB060K22,5,332,PS,exp,39,↑,up,↑,0.699153000023216,True,22,-1,0,12
PB060K22,5,333,PS,exp,38,←,left,←,0.4001466000918299,True,22,1,1,13
PB060K22,5,334,PS,exp,29,↑,up,↑,0.46719620004296303,True,21,1,0,13
PB060K22,5,335,PS,exp,34,←,up,↑,0.5642974999500439,False,21,-1,1,14
PB060K22,6,336,AS,intra_train,30,↑,left,←,0.5335390999680385,False,30,-,-,-
PB060K22,6,337,AS,intra_train,27,↓,down,↓,0.6171162999235094,True,30,-,-,-
PB060K22,6,338,AS,intra_train,47,←,left,←,2.125870199990459,True,30,-,-,-
PB060K22,6,339,AS,intra_train,49,↓,down,↓,0.8199122999794781,True,30,-,-,-
PB060K22,6,340,AS,intra_train,28,←,left,←,0.5504198000999168,True,30,-,-,-
PB060K22,6,341,AS,exp,43,↓,up,↑,0.05110540008172393,False,20,-1,0,0
PB060K22,6,342,AS,exp,42,→,up,↑,1.1588395000435412,False,21,-1,0,0
PB060K22,6,343,AS,exp,30,↓,down,↓,0.8292123000137508,True,22,-1,0,0
PB060K22,6,344,AS,exp,36,→,right,→,0.5593389000277966,True,22,1,1,1
PB060K22,6,345,AS,exp,40,↓,down,↓,0.8682900000130758,True,21,1,0,1
PB060K22,6,346,AS,exp,26,↑,up,↑,0.9955770999658853,True,21,1,0,1
PB060K22,6,347,AS,exp,25,→,right,→,0.5285565999802202,True,20,1,0,1
PB060K22,6,348,AS,exp,29,←,left,←,0.46715479996055365,True,20,1,0,1
PB060K22,6,349,AS,exp,44,↑,no_key,no_letter,-1.0,False,19,-1,1,2
PB060K22,6,350,AS,exp,44,←,right,→,0.5643447999609634,False,20,-1,0,2
PB060K22,6,351,AS,exp,26,↓,down,↓,0.6203617000719532,True,21,-1,0,2
PB060K22,6,352,AS,exp,47,→,left,←,0.5844614000525326,False,21,-1,0,2
PB060K22,6,353,AS,exp,41,↑,right,→,0.7878780999453738,False,22,-1,0,2
PB060K22,6,354,AS,exp,36,↓,right,→,0.2510877000167966,False,23,-1,0,2
PB060K22,6,355,AS,exp,43,←,left,←,0.267785600037314,True,24,-1,0,2
PB060K22,6,356,AS,exp,40,→,right,→,0.6637945999391377,True,24,1,1,3
PB060K22,6,357,AS,exp,46,↓,down,↓,1.1130029000341892,True,23,1,0,3
PB060K22,6,358,AS,exp,44,↑,right,→,1.5848134000552818,False,23,-1,1,4
PB060K22,6,359,AS,exp,32,↓,down,↓,0.991988499998115,True,24,-1,0,4
PB060K22,6,360,AS,exp,28,→,right,→,1.3529129000380635,True,24,1,1,5
PB060K22,6,361,AS,exp,39,↓,down,↓,0.6442699000472203,True,23,1,0,5
PB060K22,6,362,AS,exp,41,←,down,↓,1.4390574999852106,False,23,-1,1,6
PB060K22,6,363,AS,exp,50,↑,up,↑,0.9046447000000626,True,24,-1,0,6
PB060K22,6,364,AS,exp,28,←,left,←,0.845989599940367,True,24,1,1,7
PB060K22,6,365,AS,exp,43,→,up,↑,2.0181416999548674,False,23,-1,1,8
PB060K22,6,366,AS,exp,44,↑,right,→,0.6838049000361934,False,24,-1,0,8
PB060K22,6,367,AS,exp,32,←,no_key,no_letter,-1.0,False,25,-1,0,8
PB060K22,6,368,AS,exp,43,↓,down,↓,0.8961250999709591,True,26,-1,0,8
PB060K22,6,369,AS,exp,30,←,right,→,1.1044739000499249,False,26,-1,0,8
PB060K22,6,370,AS,exp,49,↓,no_key,no_letter,-1.0,False,27,-1,0,8
PB060K22,6,371,AS,exp,34,→,no_key,no_letter,-1.0,False,28,-1,0,8
PB060K22,6,372,AS,exp,46,↑,right,→,0.6676814999664202,False,29,-1,0,8
PB060K22,6,373,AS,exp,35,↓,down,↓,1.016929000033997,True,30,-1,0,8
PB060K22,6,374,AS,exp,47,→,right,→,0.7360123000107706,True,30,1,1,9
PB060K22,6,375,AS,exp,41,↑,up,↑,0.9655979999806732,True,29,1,0,9
PB060K22,6,376,AS,exp,43,→,right,→,0.6589509999612346,True,29,1,0,9
PB060K22,6,377,AS,exp,32,↑,up,↑,0.8337572000455111,True,28,1,0,9
PB060K22,6,378,AS,exp,40,←,right,→,1.1676488999510184,False,28,-1,1,10
PB060K22,6,379,AS,exp,40,↑,up,↑,1.1161114999558777,True,29,-1,0,10
PB060K22,6,380,AS,exp,48,→,right,→,1.5039618000155315,True,29,1,1,11
PB060K22,6,381,AS,exp,43,↓,down,↓,0.9453870999859646,True,28,1,0,11
PB060K22,6,382,AS,exp,29,←,left,←,0.731325599947013,True,28,1,0,11
PB060K22,6,383,AS,exp,36,↑,up,↑,0.9203143999911845,True,27,1,0,11
PB060K22,6,384,AS,exp,50,→,right,→,0.7770097999600694,True,27,1,0,11
PB060K22,6,385,AS,exp,47,←,up,↑,1.8315047000069171,False,26,-1,1,12
PB060K22,6,386,AS,exp,40,↓,right,→,1.8614049999741837,False,27,-1,0,12
PB060K22,6,387,AS,exp,29,→,up,↑,0.5670349000720307,False,28,-1,0,12
PB060K22,6,388,AS,exp,36,←,no_key,no_letter,-1.0,False,29,-1,0,12
PB060K22,6,389,AS,exp,47,↓,down,↓,0.952591700013727,True,30,-1,0,12
PB060K22,6,390,AS,exp,40,→,right,→,0.8680864000925794,True,30,1,1,13
PB060K22,6,391,AS,exp,30,←,left,←,1.0192449999740347,True,29,1,0,13
PB060K22,6,392,AS,exp,40,↑,down,↓,2.0176127000013366,False,29,-1,1,14
PB060K22,7,393,AS,intra_train,38,↓,right,→,0.5338809000095353,False,30,-,-,-
PB060K22,7,394,AS,intra_train,41,→,right,→,0.7000549000222236,True,30,-,-,-
PB060K22,7,395,AS,intra_train,27,↓,down,↓,0.8696056000189856,True,30,-,-,-
PB060K22,7,396,AS,intra_train,48,↑,up,↑,0.15113859996199608,True,30,-,-,-
PB060K22,7,397,AS,intra_train,25,→,right,→,0.600520999985747,True,30,-,-,-
PB060K22,7,398,AS,exp,40,←,right,→,0.6054005000041798,False,20,-1,0,0
PB060K22,7,399,AS,exp,37,↑,left,←,0.7676912000169978,False,21,-1,0,0
PB060K22,7,400,AS,exp,25,↓,up,↑,0.5946535000111908,False,22,-1,0,0
PB060K22,7,401,AS,exp,28,←,right,→,0.6095224999589846,False,23,-1,0,0
PB060K22,7,402,AS,exp,35,→,right,→,0.9209796999348328,True,24,-1,0,0
PB060K22,7,403,AS,exp,39,↑,up,↑,0.8145247000502422,True,24,1,1,1
PB060K22,7,404,AS,exp,39,↓,no_key,no_letter,-1.0,False,23,-1,1,2
PB060K22,7,405,AS,exp,45,↑,right,→,0.7191494000144303,False,24,-1,0,2
PB060K22,7,406,AS,exp,40,←,right,→,0.4335702999960631,False,25,-1,0,2
PB060K22,7,407,AS,exp,41,→,right,→,0.7205069999909028,True,26,-1,0,2
PB060K22,7,408,AS,exp,26,↓,down,↓,0.6077004000544548,True,26,1,1,3
PB060K22,7,409,AS,exp,32,←,left,←,1.6023884000023827,True,25,1,0,3
PB060K22,7,410,AS,exp,43,↓,down,↓,0.6062286000233144,True,25,1,0,3
PB060K22,7,411,AS,exp,50,→,left,←,0.6480433000251651,False,24,-1,1,4
PB060K22,7,412,AS,exp,28,←,no_key,no_letter,-1.0,False,25,-1,0,4
PB060K22,7,413,AS,exp,43,↑,left,←,0.20103520003613085,False,26,-1,0,4
PB060K22,7,414,AS,exp,38,→,up,↑,1.1038669000845402,False,27,-1,0,4
PB060K22,7,415,AS,exp,45,↑,up,↑,0.8694758999627084,True,28,-1,0,4
PB060K22,7,416,AS,exp,38,↓,down,↓,0.9861434999620542,True,28,1,1,5
PB060K22,7,417,AS,exp,34,↑,left,←,2.0741172999842092,False,27,-1,1,6
PB060K22,7,418,AS,exp,29,←,up,↑,1.6575163999805227,False,28,-1,0,6
PB060K22,7,419,AS,exp,27,→,left,←,0.689784900052473,False,29,-1,0,6
PB060K22,7,420,AS,exp,49,←,left,←,0.6738725999603048,True,30,-1,0,6
PB060K22,7,421,AS,exp,27,→,up,↑,0.10086460004094988,False,30,-1,0,6
PB060K22,7,422,AS,exp,35,↑,right,→,0.25080549996346235,False,31,-1,0,6
PB060K22,7,423,AS,exp,46,←,left,←,0.7826472000451759,True,32,-1,0,6
PB060K22,7,424,AS,exp,46,→,right,→,0.8547152999090031,True,32,1,1,7
PB060K22,7,425,AS,exp,33,←,no_key,no_letter,-1.0,False,31,-1,1,8
PB060K22,7,426,AS,exp,48,→,right,→,0.6341653999406844,True,32,-1,0,8
PB060K22,7,427,AS,exp,37,←,left,←,0.6501857000403106,True,32,1,1,9
PB060K22,7,428,AS,exp,40,→,right,→,0.7379622000735253,True,31,1,0,9
PB060K22,7,429,AS,exp,33,↑,right,→,0.8579918999457732,False,31,-1,1,10
PB060K22,7,430,AS,exp,42,←,right,→,0.6335448999889195,False,32,-1,0,10
PB060K22,7,431,AS,exp,37,↑,up,↑,0.9134665000019595,True,33,-1,0,10
PB060K22,7,432,AS,exp,38,↓,down,↓,1.614424799918197,True,33,1,1,11
PB060K22,7,433,AS,exp,36,→,no_key,no_letter,-1.0,False,32,-1,1,12
PB060K22,7,434,AS,exp,36,↓,left,←,1.6738231000490487,False,33,-1,0,12
PB060K22,7,435,AS,exp,36,←,right,→,0.43446170003153384,False,34,-1,0,12
PB060K22,7,436,AS,exp,37,→,no_key,no_letter,-1.0,False,35,-1,0,12
PB060K22,7,437,AS,exp,39,↑,up,↑,0.36778849991969764,True,36,-1,0,12
PB060K22,7,438,AS,exp,32,→,no_key,no_letter,-1.0,False,36,-1,0,12
PB060K22,7,439,AS,exp,27,←,left,←,0.48418099991977215,True,37,-1,0,12
PB060K22,7,440,AS,exp,30,↓,up,↑,1.8968387000495568,False,37,-1,0,12
PB060K22,7,441,AS,exp,30,↑,up,↑,0.43433000007644296,True,38,-1,0,12
PB060K22,7,442,AS,exp,43,→,no_key,no_letter,-1.0,False,38,-1,0,12
PB060K22,7,443,AS,exp,28,↑,up,↑,2.177598000038415,True,39,-1,0,12
PB060K22,7,444,AS,exp,29,←,left,←,0.9391303000738844,True,39,1,1,13
PB060K22,7,445,AS,exp,44,↑,no_key,no_letter,-1.0,False,38,-1,1,14
PB060K22,8,446,PS,intra_train,32,↓,up,↑,0.7741332000587136,False,13,-,-,-
PB060K22,8,447,PS,intra_train,25,←,left,←,0.5808653999119997,True,13,-,-,-
PB060K22,8,448,PS,intra_train,48,↓,down,↓,0.6228106999769807,True,13,-,-,-
PB060K22,8,449,PS,intra_train,30,↑,up,↑,0.5392378000542521,True,13,-,-,-
PB060K22,8,450,PS,intra_train,46,↓,down,↓,0.639053100021556,True,13,-,-,-
PB060K22,8,451,PS,exp,37,←,right,→,0.5080143000232056,False,9,-1,0,0
PB060K22,8,452,PS,exp,28,→,left,←,1.0539042999735102,False,10,-1,0,0
PB060K22,8,453,PS,exp,50,↓,right,→,0.3003805000334978,False,11,-1,0,0
PB060K22,8,454,PS,exp,33,←,no_key,no_letter,-1.0,False,12,-1,0,0
PB060K22,8,455,PS,exp,32,↑,up,↑,0.03439090005122125,True,13,-1,0,0
PB060K22,8,456,PS,exp,49,↓,up,↑,0.2836167000932619,False,13,-1,0,0
PB060K22,8,457,PS,exp,48,←,up,↑,1.0305779000045732,False,14,-1,0,0
PB060K22,8,458,PS,exp,37,→,right,→,0.45926180004607886,True,15,-1,0,0
PB060K22,8,459,PS,exp,43,↑,no_key,no_letter,-1.0,False,15,-1,0,0
PB060K22,8,460,PS,exp,31,←,left,←,0.4394772999221459,True,16,-1,0,0
PB060K22,8,461,PS,exp,35,↑,up,↑,0.5368753999937326,True,16,1,1,1
PB060K22,8,462,PS,exp,37,→,right,→,0.4806845000712201,True,15,1,0,1
PB060K22,8,463,PS,exp,49,↓,down,↓,0.723284799954854,True,15,1,0,1
PB060K22,8,464,PS,exp,27,↑,right,→,0.25064810004550964,False,14,-1,1,2
PB060K22,8,465,PS,exp,26,→,right,→,0.6746369000757113,True,15,-1,0,2
PB060K22,8,466,PS,exp,40,↓,no_key,no_letter,-1.0,False,15,-1,0,2
PB060K22,8,467,PS,exp,43,→,right,→,0.9184136000694707,True,16,-1,0,2
PB060K22,8,468,PS,exp,46,↓,down,↓,0.8622223000274971,True,16,1,1,3
PB060K22,8,469,PS,exp,39,←,left,←,0.538435299997218,True,15,1,0,3
PB060K22,8,470,PS,exp,33,↑,up,↑,0.5192429999588057,True,15,1,0,3
PB060K22,8,471,PS,exp,30,→,right,→,0.4659562000306323,True,14,1,0,3
PB060K22,8,472,PS,exp,44,←,left,←,0.520239399978891,True,14,1,0,3
PB060K22,8,473,PS,exp,39,↑,up,↑,0.6268158999737352,True,13,1,0,3
PB060K22,8,474,PS,exp,39,↓,down,↓,0.7817508999723941,True,13,1,0,3
PB060K22,8,475,PS,exp,40,↑,up,↑,0.9055305999936536,True,12,1,0,3
PB060K22,8,476,PS,exp,47,↓,down,↓,0.8694164999760687,True,12,1,0,3
PB060K22,8,477,PS,exp,33,↑,up,↑,0.6279869000427425,True,11,1,0,3
PB060K22,8,478,PS,exp,45,→,up,↑,1.6931705999886617,False,11,-1,1,4
PB060K22,8,479,PS,exp,48,←,no_key,no_letter,-1.0,False,12,-1,0,4
PB060K22,8,480,PS,exp,32,→,right,→,0.4952933999011293,True,13,-1,0,4
PB060K22,8,481,PS,exp,41,←,right,→,1.8805654000025243,False,13,-1,0,4
PB060K22,8,482,PS,exp,27,↑,no_key,no_letter,-1.0,False,14,-1,0,4
PB060K22,8,483,PS,exp,36,←,right,→,1.6444300999864936,False,15,-1,0,4
PB060K22,8,484,PS,exp,28,↑,no_key,no_letter,-1.0,False,16,-1,0,4
PB060K22,8,485,PS,exp,40,←,no_key,no_letter,-1.0,False,17,-1,0,4
PB060K22,8,486,PS,exp,34,→,no_key,no_letter,-1.0,False,18,-1,0,4
PB060K22,8,487,PS,exp,32,↑,right,→,0.4971889000153169,False,19,-1,0,4
PB060K22,8,488,PS,exp,26,→,no_key,no_letter,-1.0,False,20,-1,0,4
PB060K22,8,489,PS,exp,42,↑,right,→,0.0011079999385401607,False,21,-1,0,4
PB060K22,8,490,PS,exp,44,←,no_key,no_letter,-1.0,False,22,-1,0,4
PB060K22,8,491,PS,exp,34,→,right,→,0.593283100053668,True,23,-1,0,4
PB060K22,8,492,PS,exp,42,↓,down,↓,1.195464099990204,True,23,1,1,5
PB060K22,8,493,PS,exp,30,→,down,↓,0.40046440006699413,False,22,-1,1,6
PB060K22,8,494,PS,exp,50,↓,no_key,no_letter,-1.0,False,23,-1,0,6
PB060K22,8,495,PS,exp,34,←,no_key,no_letter,-1.0,False,24,-1,0,6
PB060K22,8,496,PS,exp,34,↓,up,↑,0.5954865999519825,False,25,-1,0,6
PB060K22,8,497,PS,exp,26,↑,up,↑,0.7286582000087947,True,26,-1,0,6
PB060K22,8,498,PS,exp,38,↓,down,↓,0.5671904000919312,True,26,1,1,7
PB060K22,8,499,PS,exp,27,←,left,←,0.4836941999383271,True,25,1,0,7
PB060K22,8,500,PS,exp,43,↓,down,↓,0.6680836000014096,True,25,1,0,7
PB060K22,8,501,PS,exp,31,→,no_key,no_letter,-1.0,False,24,-1,1,8
PB060K22,8,502,PS,exp,36,↑,no_key,no_letter,-1.0,False,25,-1,0,8
PB060K22,8,503,PS,exp,28,↓,down,↓,1.304087300086394,True,26,-1,0,8
PB060K22,8,504,PS,exp,39,←,left,←,0.7633182000136003,True,26,1,1,9
PB060K22,8,505,PS,exp,28,→,right,→,0.38437540002632886,True,25,1,0,9
PB060K22,8,506,PS,exp,41,←,no_key,no_letter,-1.0,False,25,-1,1,10
PB060K22,8,507,PS,exp,30,→,no_key,no_letter,-1.0,False,26,-1,0,10
PB060K22,8,508,PS,exp,47,←,right,→,0.1511317000258714,False,27,-1,0,10
PB060K22,8,509,PS,exp,26,↓,no_key,no_letter,-1.0,False,28,-1,0,10
PB060K22,8,510,PS,exp,32,←,no_key,no_letter,-1.0,False,29,-1,0,10
PB060K22,8,511,PS,exp,25,→,right,→,1.8903575000585988,True,30,-1,0,10
PB060K22,8,512,PS,exp,31,←,right,→,1.0562925999984145,False,30,-1,0,10
PB060K22,8,513,PS,exp,48,→,no_key,no_letter,-1.0,False,31,-1,0,10
PB060K22,8,514,PS,exp,25,←,left,←,0.5503383000614122,True,32,-1,0,10
PB060K22,8,515,PS,exp,50,→,no_key,no_letter,-1.0,False,32,-1,0,10
PB060K22,8,516,PS,exp,32,↓,no_key,no_letter,-1.0,False,33,-1,0,10
PB060K22,8,517,PS,exp,46,→,left,←,2.1638476999942213,False,34,-1,0,10
PB060K22,8,518,PS,exp,25,←,left,←,0.5176001000218093,True,35,-1,0,10
PB060K22,8,519,PS,exp,32,↑,no_key,no_letter,-1.0,False,35,-1,0,10
PB060K22,8,520,PS,exp,48,↓,down,↓,0.9809598999563605,True,36,-1,0,10
PB060K22,8,521,PS,exp,42,↑,no_key,no_letter,-1.0,False,36,-1,0,10
PB060K22,8,522,PS,exp,36,→,no_key,no_letter,-1.0,False,37,-1,0,10
PB060K22,8,523,PS,exp,47,←,left,←,0.4844213000033051,True,38,-1,0,10
PB060K22,8,524,PS,exp,46,↓,down,↓,0.9267929999623448,True,38,1,1,11
PB060K22,8,525,PS,exp,32,←,left,←,0.5347918999614194,True,37,1,0,11
PB060K22,8,526,PS,exp,50,↓,down,↓,1.1033212000038475,True,37,1,0,11
PB060K22,8,527,PS,exp,36,→,no_key,no_letter,-1.0,False,36,-1,1,12
PB060K22,8,528,PS,exp,37,←,left,←,0.5512770999921486,True,37,-1,0,12
PB060K22,8,529,PS,exp,37,↑,up,↑,0.5347876000450924,True,37,1,1,13
PB060K22,8,530,PS,exp,39,→,up,↑,2.181545100058429,False,36,-1,1,14
