PART_ID,Trial,Stimuli,Training,FIXTIME,MTIME,Correct,SOA,Level,Reversal,Reversal_count,Latency,Rating
PB020M36,1,SQUARES,training,45,17,False,12,-,-,-,-1.0,-
PB020M36,2,SQUARES,training,45,17,True,12,-,-,-,3.800758900004439,-
PB020M36,3,SQUARES,training,45,17,False,12,-,-,-,3.1340798000164796,-
PB020M36,4,SQUARES,training,45,17,True,12,-,-,-,0.5506848999939393,-
PB020M36,5,SQUARES,training,45,17,True,12,-,-,-,0.43389980000210926,-
PB020M36,6,SQUARES,training,45,17,True,12,-,-,-,0.1836784999759402,-
PB020M36,7,SQUARES,training,45,17,True,12,-,-,-,1.4340331999992486,-
PB020M36,8,SQUARES,training,45,17,True,12,-,-,-,0.26726379999308847,-
PB020M36,9,SQUARES,training,45,17,True,12,-,-,-,0.7172721000097226,-
PB020M36,10,SQUARES,training,45,17,True,12,-,-,-,0.3338604000164196,-
PB020M36,11,SQUARES,training,45,17,True,6,-,-,-,3.0169901000044774,-
PB020M36,12,SQUARES,training,45,17,True,6,-,-,-,0.5839260999928229,-
PB020M36,13,SQUARES,training,45,17,True,6,-,-,-,0.30068290000781417,-
PB020M36,14,SQUARES,training,45,17,True,6,-,-,-,0.2839646000065841,-
PB020M36,15,SQUARES,training,45,17,True,6,-,-,-,0.28337679998367094,-
PB020M36,16,SQUARES,training,45,17,True,6,-,-,-,0.2672139999922365,-
PB020M36,17,SQUARES,training,45,17,True,6,-,-,-,0.3177148000104353,-
PB020M36,18,SQUARES,training,45,17,True,6,-,-,-,0.3841459999966901,-
PB020M36,19,SQUARES,training,45,17,True,6,-,-,-,0.7338787999760825,-
PB020M36,20,SQUARES,training,45,17,True,6,-,-,-,0.6341642999905162,-
PB020M36,1,SQUARES,exp,45,17,True,6,0,0,0,1.1339713000052143,-
PB020M36,2,SQUARES,exp,45,17,True,6,1,0,-,0.7172071999812033,-
PB020M36,3,SQUARES,exp,45,17,True,5,1,0,-,0.6006100000231527,-
PB020M36,4,SQUARES,exp,45,17,True,5,1,0,-,0.4505957000073977,-
PB020M36,5,SQUARES,exp,45,17,True,4,1,0,-,0.5172739999834448,-
PB020M36,6,SQUARES,exp,45,17,False,4,-1,1,1,1.0171642000204884,-
PB020M36,7,SQUARES,exp,45,17,True,5,-1,0,-,0.9005862000049092,-
PB020M36,8,SQUARES,exp,45,17,True,5,1,1,2,0.4506888000178151,-
PB020M36,9,SQUARES,exp,45,17,True,4,1,0,-,0.4175956000108272,-
PB020M36,10,SQUARES,exp,45,17,True,4,1,0,-,0.43395479998434894,-
PB020M36,11,SQUARES,exp,45,17,True,3,1,0,-,0.40049339999677613,-
PB020M36,12,SQUARES,exp,45,17,False,3,-1,1,3,0.4833983000135049,-
PB020M36,13,SQUARES,exp,45,17,True,4,-1,0,-,0.3506102000246756,-
PB020M36,14,SQUARES,exp,45,17,True,4,1,1,4,0.634014000010211,-
PB020M36,15,SQUARES,exp,45,17,False,3,-1,1,5,0.4671574999811128,-
PB020M36,16,SQUARES,exp,45,17,True,4,-1,0,-,0.5005837000207976,-
PB020M36,17,SQUARES,exp,45,17,True,4,1,1,6,0.31712679998599924,-
PB020M36,18,SQUARES,exp,45,17,False,3,-1,1,7,0.2837645999970846,-
PB020M36,19,SQUARES,exp,45,17,False,4,-1,0,-,0.31723559999954887,-
PB020M36,20,SQUARES,exp,45,17,False,5,-1,0,-,0.21730960000422783,-
PB020M36,21,SQUARES,exp,45,17,True,6,-1,0,-,0.2675089999975171,-
PB020M36,22,SQUARES,exp,45,17,False,6,-1,0,-,0.3173203000042122,-
PB020M36,23,SQUARES,exp,45,17,True,7,-1,0,-,0.1671941000095103,-
PB020M36,24,SQUARES,exp,45,17,True,7,1,1,8,0.6172722000046633,-
PB020M36,25,SQUARES,exp,45,17,True,6,1,0,-,0.2340766999986954,-
PB020M36,26,SQUARES,exp,45,17,False,6,-1,1,9,0.2673437999910675,-
PB020M36,27,SQUARES,exp,45,17,True,7,-1,0,-,0.35064069999498315,-
PB020M36,28,SQUARES,exp,45,17,False,7,-1,0,-,0.33419329999014735,-
PB020M36,29,SQUARES,exp,45,17,True,8,-1,0,-,0.4338839999982156,-
PB020M36,30,SQUARES,exp,45,17,True,8,1,1,10,0.48362929999711923,-
PB020M36,1,CIRCLES,training,45,17,True,20,-,-,-,0.08386720000999048,-
PB020M36,2,CIRCLES,training,45,17,False,20,-,-,-,-1.0,-
PB020M36,3,CIRCLES,training,45,17,False,20,-,-,-,-1.0,-
PB020M36,4,CIRCLES,training,45,17,True,20,-,-,-,0.6005639000213705,-
PB020M36,5,CIRCLES,training,45,17,True,20,-,-,-,0.16717840000637807,-
PB020M36,6,CIRCLES,training,45,17,True,20,-,-,-,1.2672489999968093,-
PB020M36,7,CIRCLES,training,45,17,True,20,-,-,-,0.034363399987341836,-
PB020M36,8,CIRCLES,training,45,17,True,20,-,-,-,0.06732279999414459,-
PB020M36,9,CIRCLES,training,45,17,True,20,-,-,-,0.9673074000165798,-
PB020M36,10,CIRCLES,training,45,17,True,20,-,-,-,0.03360819999943487,-
PB020M36,11,CIRCLES,training,45,17,True,10,-,-,-,0.050760500016622245,-
PB020M36,12,CIRCLES,training,45,17,True,10,-,-,-,0.13395279998076148,-
PB020M36,13,CIRCLES,training,45,17,True,10,-,-,-,0.050610799982678145,-
PB020M36,14,CIRCLES,training,45,17,True,10,-,-,-,0.11743330000899732,-
PB020M36,15,CIRCLES,training,45,17,True,10,-,-,-,0.23396760001196526,-
PB020M36,16,CIRCLES,training,45,17,True,10,-,-,-,0.05017569998744875,-
PB020M36,17,CIRCLES,training,45,17,True,10,-,-,-,0.06738469999982044,-
PB020M36,18,CIRCLES,training,45,17,True,10,-,-,-,0.033975300000747666,-
PB020M36,19,CIRCLES,training,45,17,True,10,-,-,-,0.0005522000137716532,-
PB020M36,20,CIRCLES,training,45,17,True,10,-,-,-,0.23385760001838207,-
PB020M36,1,CIRCLES,exp,45,17,False,10,-1,0,0,-1.0,-
PB020M36,2,CIRCLES,exp,45,17,True,11,-1,0,-,0.017156299989437684,-
PB020M36,3,CIRCLES,exp,45,17,True,11,1,1,1,0.15046649999567308,-
PB020M36,4,CIRCLES,exp,45,17,True,10,1,0,-,0.08383930000127293,-
PB020M36,5,CIRCLES,exp,45,17,True,10,1,0,-,0.20065850001992658,-
PB020M36,6,CIRCLES,exp,45,17,True,9,1,0,-,0.13380989999859594,-
PB020M36,7,CIRCLES,exp,45,17,True,9,1,0,-,0.08387540001422167,-
PB020M36,8,CIRCLES,exp,45,17,True,8,1,0,-,0.08386389998486266,-
PB020M36,9,CIRCLES,exp,45,17,True,8,1,0,-,0.11694880001596175,-
PB020M36,10,CIRCLES,exp,45,17,False,7,-1,1,2,0.6341224000207148,-
PB020M36,11,CIRCLES,exp,45,17,True,8,-1,0,-,0.35055890001240186,-
PB020M36,12,CIRCLES,exp,45,17,True,8,1,1,3,0.35014979998231865,-
PB020M36,13,CIRCLES,exp,45,17,True,7,1,0,-,0.2505457999941427,-
PB020M36,14,CIRCLES,exp,45,17,True,7,1,0,-,0.40099609998287633,-
PB020M36,15,CIRCLES,exp,45,17,True,6,1,0,-,0.13394710002467036,-
PB020M36,16,CIRCLES,exp,45,17,False,6,-1,1,4,1.033998300001258,-
PB020M36,17,CIRCLES,exp,45,17,True,7,-1,0,-,0.284265200025402,-
PB020M36,18,CIRCLES,exp,45,17,True,7,1,1,5,0.3337928999972064,-
PB020M36,19,CIRCLES,exp,45,17,True,6,1,0,-,0.18353330000536516,-
PB020M36,20,CIRCLES,exp,45,17,True,6,1,0,-,0.2172607000102289,-
PB020M36,21,CIRCLES,exp,45,17,False,5,-1,1,6,1.0168762999819592,-
PB020M36,22,CIRCLES,exp,45,17,True,6,-1,0,-,0.6509832000010647,-
PB020M36,23,CIRCLES,exp,45,17,True,6,1,1,7,0.25068369999644347,-
PB020M36,24,CIRCLES,exp,45,17,True,5,1,0,-,0.3006418000150006,-
PB020M36,25,CIRCLES,exp,45,17,False,5,-1,1,8,0.31712820002576336,-
PB020M36,26,CIRCLES,exp,45,17,True,6,-1,0,-,0.26724700001068413,-
PB020M36,27,CIRCLES,exp,45,17,False,6,-1,0,-,0.3673537000140641,-
PB020M36,28,CIRCLES,exp,45,17,True,7,-1,0,-,0.26677899999776855,-
PB020M36,29,CIRCLES,exp,45,17,True,7,1,1,9,0.2000945000036154,-
PB020M36,30,CIRCLES,exp,45,17,True,6,1,0,-,0.2672071999986656,-
PB020M36,31,CIRCLES,exp,45,17,False,6,-1,1,10,0.9505389000114519,-
