PART_ID,Trial,Stimuli,Training,FIXTIME,MTIME,Correct,SOA,Level,Reversal,Reversal_count,Latency,Rating
PB029M20,1,SQUARES,training,45,17,True,12,-,-,-,3.3676084000617266,-
PB029M20,2,SQUARES,training,45,17,True,12,-,-,-,1.317217000061646,-
PB029M20,3,SQUARES,training,45,17,True,12,-,-,-,0.15057349996641278,-
PB029M20,4,SQUARES,training,45,17,True,12,-,-,-,0.11707500007469207,-
PB029M20,5,SQUARES,training,45,17,True,12,-,-,-,0.0005376000190153718,-
PB029M20,6,SQUARES,training,45,17,True,12,-,-,-,0.11678929999470711,-
PB029M20,7,SQUARES,training,45,17,True,12,-,-,-,0.11760499991942197,-
PB029M20,8,SQUARES,training,45,17,False,12,-,-,-,1.800195699906908,-
PB029M20,9,SQUARES,training,45,17,True,12,-,-,-,0.2675270000472665,-
PB029M20,10,SQUARES,training,45,17,True,12,-,-,-,1.1672098999843001,-
PB029M20,11,SQUARES,training,45,17,True,6,-,-,-,1.2006364000262693,-
PB029M20,12,SQUARES,training,45,17,True,6,-,-,-,0.9840081000002101,-
PB029M20,13,SQUARES,training,45,17,True,6,-,-,-,1.06720310007222,-
PB029M20,14,SQUARES,training,45,17,True,6,-,-,-,0.6006833000574261,-
PB029M20,15,SQUARES,training,45,17,True,6,-,-,-,0.7338980999775231,-
PB029M20,16,SQUARES,training,45,17,True,6,-,-,-,0.483925599954091,-
PB029M20,17,SQUARES,training,45,17,False,6,-,-,-,0.4505825999658555,-
PB029M20,18,SQUARES,training,45,17,True,6,-,-,-,0.367426999961026,-
PB029M20,19,SQUARES,training,45,17,True,6,-,-,-,0.550653199898079,-
PB029M20,20,SQUARES,training,45,17,True,6,-,-,-,0.15056839992757887,-
PB029M20,1,SQUARES,exp,45,17,True,6,0,0,0,1.017294800025411,-
PB029M20,2,SQUARES,exp,45,17,True,6,1,0,-,0.300584000069648,-
PB029M20,3,SQUARES,exp,45,17,True,5,1,0,-,0.16715509991627187,-
PB029M20,4,SQUARES,exp,45,17,True,5,1,0,-,0.7005769000388682,-
PB029M20,5,SQUARES,exp,45,17,True,4,1,0,-,0.2672121999785304,-
PB029M20,6,SQUARES,exp,45,17,False,4,-1,1,1,0.3171202999074012,-
PB029M20,7,SQUARES,exp,45,17,True,5,-1,0,-,0.6834510000189766,-
PB029M20,8,SQUARES,exp,45,17,True,5,1,1,2,0.5840258999960497,-
PB029M20,9,SQUARES,exp,45,17,False,4,-1,1,3,0.9506603999761865,-
PB029M20,10,SQUARES,exp,45,17,True,5,-1,0,-,0.3170344999525696,-
PB029M20,11,SQUARES,exp,45,17,True,5,1,1,4,0.6172560000559315,-
PB029M20,12,SQUARES,exp,45,17,False,4,-1,1,5,1.2171053999336436,-
PB029M20,13,SQUARES,exp,45,17,True,5,-1,0,-,0.2838945999974385,-
PB029M20,14,SQUARES,exp,45,17,True,5,1,1,6,0.734054800006561,-
PB029M20,15,SQUARES,exp,45,17,True,4,1,0,-,0.23386309994384646,-
PB029M20,16,SQUARES,exp,45,17,False,4,-1,1,7,0.46742160001304,-
PB029M20,17,SQUARES,exp,45,17,True,5,-1,0,-,0.7340809999732301,-
PB029M20,18,SQUARES,exp,45,17,True,5,1,1,8,0.8673000000417233,-
PB029M20,19,SQUARES,exp,45,17,True,4,1,0,-,0.3007724001072347,-
PB029M20,20,SQUARES,exp,45,17,True,4,1,0,-,0.23385670001152903,-
PB029M20,21,SQUARES,exp,45,17,True,3,1,0,-,0.3674435999710113,-
PB029M20,22,SQUARES,exp,45,17,False,3,-1,1,9,0.450738099985756,-
PB029M20,23,SQUARES,exp,45,17,True,4,-1,0,-,0.6339320000261068,-
PB029M20,24,SQUARES,exp,45,17,False,4,-1,0,-,1.3004662999883294,-
PB029M20,25,SQUARES,exp,45,17,True,5,-1,0,-,0.4173369000200182,-
PB029M20,26,SQUARES,exp,45,17,True,5,1,1,10,0.9342080999631435,-
PB029M20,1,CIRCLES,training,45,17,True,20,-,-,-,0.8172591999173164,-
PB029M20,2,CIRCLES,training,45,17,False,20,-,-,-,-1.0,-
PB029M20,3,CIRCLES,training,45,17,True,20,-,-,-,2.384001199970953,-
PB029M20,4,CIRCLES,training,45,17,True,20,-,-,-,0.7006234000436962,-
PB029M20,5,CIRCLES,training,45,17,True,20,-,-,-,0.20076149993110448,-
PB029M20,6,CIRCLES,training,45,17,True,20,-,-,-,0.3168468000367284,-
PB029M20,7,CIRCLES,training,45,17,True,20,-,-,-,0.050570900086313486,-
PB029M20,8,CIRCLES,training,45,17,True,20,-,-,-,0.033729400020092726,-
PB029M20,9,CIRCLES,training,45,17,True,20,-,-,-,0.5006005000323057,-
PB029M20,10,CIRCLES,training,45,17,True,20,-,-,-,1.5507413999876007,-
PB029M20,11,CIRCLES,training,45,17,True,10,-,-,-,0.1839453000575304,-
PB029M20,12,CIRCLES,training,45,17,True,10,-,-,-,0.5339106000028551,-
PB029M20,13,CIRCLES,training,45,17,True,10,-,-,-,0.0006458000279963017,-
PB029M20,14,CIRCLES,training,45,17,True,10,-,-,-,0.31720920000225306,-
PB029M20,15,CIRCLES,training,45,17,True,10,-,-,-,0.15074910002294928,-
PB029M20,16,CIRCLES,training,45,17,True,10,-,-,-,0.3172308000503108,-
PB029M20,17,CIRCLES,training,45,17,True,10,-,-,-,0.08351339993532747,-
PB029M20,18,CIRCLES,training,45,17,True,10,-,-,-,0.11708760005421937,-
PB029M20,19,CIRCLES,training,45,17,True,10,-,-,-,0.06731940002646297,-
PB029M20,20,CIRCLES,training,45,17,True,10,-,-,-,0.23388279997743666,-
PB029M20,1,CIRCLES,exp,45,17,False,10,-1,0,0,1.4504245000425726,-
PB029M20,2,CIRCLES,exp,45,17,True,11,-1,0,-,0.15068500000052154,-
PB029M20,3,CIRCLES,exp,45,17,True,11,1,1,1,0.4501633000327274,-
PB029M20,4,CIRCLES,exp,45,17,True,10,1,0,-,0.40064350003376603,-
PB029M20,5,CIRCLES,exp,45,17,True,10,1,0,-,0.21708480000961572,-
PB029M20,6,CIRCLES,exp,45,17,True,9,1,0,-,0.017325300024822354,-
PB029M20,7,CIRCLES,exp,45,17,True,9,1,0,-,0.08400489995256066,-
PB029M20,8,CIRCLES,exp,45,17,True,8,1,0,-,0.21732970001176,-
PB029M20,9,CIRCLES,exp,45,17,True,8,1,0,-,0.36721019994001836,-
PB029M20,10,CIRCLES,exp,45,17,True,7,1,0,-,0.11726369999814779,-
PB029M20,11,CIRCLES,exp,45,17,True,7,1,0,-,0.06719279999379069,-
PB029M20,12,CIRCLES,exp,45,17,True,6,1,0,-,0.3672444000840187,-
PB029M20,13,CIRCLES,exp,45,17,True,6,1,0,-,0.2676388000836596,-
PB029M20,14,CIRCLES,exp,45,17,True,5,1,0,-,0.567282099975273,-
PB029M20,15,CIRCLES,exp,45,17,True,5,1,0,-,0.2673983999993652,-
PB029M20,16,CIRCLES,exp,45,17,False,4,-1,1,2,0.8006643999833614,-
PB029M20,17,CIRCLES,exp,45,17,True,5,-1,0,-,0.28407050005625933,-
PB029M20,18,CIRCLES,exp,45,17,True,5,1,1,3,0.40115890000015497,-
PB029M20,19,CIRCLES,exp,45,17,False,4,-1,1,4,0.2339289999799803,-
PB029M20,20,CIRCLES,exp,45,17,True,5,-1,0,-,0.2005226999754086,-
PB029M20,21,CIRCLES,exp,45,17,True,5,1,1,5,0.13390719995368272,-
PB029M20,22,CIRCLES,exp,45,17,True,4,1,0,-,0.21724729996640235,-
PB029M20,23,CIRCLES,exp,45,17,True,4,1,0,-,0.20056269993074238,-
PB029M20,24,CIRCLES,exp,45,17,True,3,1,0,-,0.40054150007199496,-
PB029M20,25,CIRCLES,exp,45,17,False,3,-1,1,6,0.26697100000455976,-
PB029M20,26,CIRCLES,exp,45,17,True,4,-1,0,-,0.23400479997508228,-
PB029M20,27,CIRCLES,exp,45,17,False,4,-1,0,-,0.21732419996988028,-
PB029M20,28,CIRCLES,exp,45,17,True,5,-1,0,-,0.0004964999388903379,-
PB029M20,29,CIRCLES,exp,45,17,False,5,-1,0,-,0.33402439998462796,-
PB029M20,30,CIRCLES,exp,45,17,True,6,-1,0,-,0.1838197000324726,-
PB029M20,31,CIRCLES,exp,45,17,True,6,1,1,7,0.15024710004217923,-
PB029M20,32,CIRCLES,exp,45,17,True,5,1,0,-,0.1672707999823615,-
PB029M20,33,CIRCLES,exp,45,17,True,5,1,0,-,0.06725690001621842,-
PB029M20,34,CIRCLES,exp,45,17,False,4,-1,1,8,0.7672598999924958,-
PB029M20,35,CIRCLES,exp,45,17,True,5,-1,0,-,0.5671793000074103,-
PB029M20,36,CIRCLES,exp,45,17,True,5,1,1,9,0.2502787000266835,-
PB029M20,37,CIRCLES,exp,45,17,True,4,1,0,-,0.11735860002227128,-
PB029M20,38,CIRCLES,exp,45,17,True,4,1,0,-,0.13392669998575002,-
PB029M20,39,CIRCLES,exp,45,17,True,3,1,0,-,0.1508208999875933,-
PB029M20,40,CIRCLES,exp,45,17,False,3,-1,1,10,0.1339185000397265,-
