PART_ID,Trial_no,Trial_type,PDI,Stim_letter,Key_pressed,letter_choose,Rt,Corr,Stimulus Time
001K22,1,training,10,↑,no_key,no_letter,-1.0,False,30
001K22,2,training,10,←,left,←,1.142907199988258,True,30
001K22,3,training,10,→,left,←,0.7116693999996642,False,30
001K22,4,training,10,↓,left,←,0.46788569999625906,False,30
001K22,5,training,10,↓,right,→,1.0588241000077687,False,30
001K22,6,training,10,↑,left,←,0.6337224000017159,False,30
001K22,7,training,10,←,left,←,0.533652499987511,True,30
001K22,8,training,10,←,left,←,0.533756299992092,True,30
001K22,9,training,10,→,left,←,0.5171134999982314,False,30
001K22,10,training,10,→,right,→,1.3187932000000728,True,30
001K22,11,training,10,←,left,←,0.9423495000082767,True,30
001K22,12,training,10,↑,no_key,no_letter,-1.0,False,30
001K22,13,training,10,→,right,→,1.2730660999950487,True,30
001K22,14,training,10,↓,right,→,1.9580378999962704,False,30
001K22,15,training,10,↑,no_key,no_letter,-1.0,False,30
001K22,16,training,10,←,no_key,no_letter,-1.0,False,30
001K22,17,training,10,↑,right,→,0.9272760000021663,False,30
001K22,18,training,10,←,right,→,0.5838724999921396,False,30
001K22,19,training,10,↑,no_key,no_letter,-1.0,False,30
001K22,20,training,10,↑,up,↑,1.5343549999961397,True,30
001K22,21,training,10,←,right,→,1.0611364999931538,False,18
001K22,22,training,10,←,up,↑,0.9814143999974476,False,18
001K22,23,training,10,↑,up,↑,1.4103420000028564,True,18
001K22,24,training,10,↑,left,←,1.617242799999076,False,18
001K22,25,training,10,↑,up,↑,1.294538800008013,True,18
001K22,26,training,10,→,down,↓,1.8830159999924945,False,18
001K22,27,training,10,→,no_key,no_letter,-1.0,False,18
001K22,28,training,10,→,right,→,1.1897334000095725,True,18
001K22,29,training,10,↑,left,←,1.0312362999975448,False,18
001K22,30,training,10,↓,up,↑,1.731055500000366,False,18
001K22,31,training,48,↑,left,←,1.6101813999994192,False,15
001K22,32,training,48,→,down,↓,1.7223091999912867,False,15
001K22,33,training,180,→,left,←,1.7305900999926962,False,15
001K22,34,experiment,48,←,left,←,0.9218022999993991,True,15
001K22,35,experiment,120,↓,down,↓,1.720884099995601,True,15
001K22,36,experiment,108,→,right,→,1.3507826999993995,True,15
001K22,37,experiment,120,←,right,→,1.1702409999998054,False,15
001K22,38,experiment,84,↓,no_key,no_letter,-1.0,False,15
001K22,39,experiment,96,↑,no_key,no_letter,-1.0,False,15
001K22,40,experiment,84,↓,left,←,1.027529400002095,False,15
001K22,41,experiment,180,↑,left,←,1.0179251999943517,False,15
001K22,42,experiment,12,↑,no_key,no_letter,-1.0,False,15
001K22,43,experiment,84,→,right,→,1.3327800999977626,True,15
001K22,44,experiment,156,←,no_key,no_letter,-1.0,False,15
001K22,45,experiment,36,↑,up,↑,0.8618242000084138,True,15
001K22,46,experiment,132,↓,up,↑,1.4162482999963686,False,15
001K22,47,experiment,72,←,left,←,1.3177108999952907,True,15
001K22,48,experiment,180,↑,left,←,1.840447700000368,False,15
001K22,49,experiment,144,↓,left,←,1.0812127999961376,False,15
001K22,50,experiment,180,→,right,→,1.2315556999965338,True,15
001K22,51,experiment,12,→,no_key,no_letter,-1.0,False,15
001K22,52,experiment,168,→,right,→,0.9297259000013582,True,15
001K22,53,experiment,132,↑,right,→,1.298421800005599,False,15
001K22,54,experiment,60,→,no_key,no_letter,-1.0,False,15
001K22,55,experiment,84,←,right,→,1.6833841000043321,False,15
001K22,56,experiment,168,→,right,→,1.4220844000083162,True,15
001K22,57,experiment,72,↓,right,→,1.0166575999901397,False,15
001K22,58,experiment,72,↑,left,←,1.4142133999994257,False,15
001K22,59,experiment,96,↓,right,→,1.434524299998884,False,15
001K22,60,experiment,156,←,right,→,1.086775799994939,False,15
001K22,61,experiment,60,↑,up,↑,1.1123292000120273,True,15
001K22,62,experiment,48,←,up,↑,1.5118242999888025,False,15
001K22,63,experiment,132,←,down,↓,1.3115166000061436,False,15
001K22,64,experiment,120,↑,right,→,1.4088057999906596,False,15
001K22,65,experiment,12,←,no_key,no_letter,-1.0,False,15
001K22,66,experiment,120,←,left,←,1.155595499993069,True,15
001K22,67,experiment,24,↑,no_key,no_letter,-1.0,False,15
001K22,68,experiment,60,↑,right,→,1.1030901999911293,False,15
001K22,69,experiment,144,↓,left,←,1.507566999993287,False,15
001K22,70,experiment,36,←,left,←,1.1158025999902748,True,15
001K22,71,experiment,180,↑,left,←,1.3949768000020413,False,15
001K22,72,experiment,108,←,no_key,no_letter,-1.0,False,15
001K22,73,experiment,168,←,left,←,0.8293059999996331,True,15
001K22,74,experiment,24,↑,up,↑,1.2110169999941718,True,15
001K22,75,experiment,108,←,left,←,1.0893243000027724,True,15
001K22,76,experiment,96,←,left,←,1.086695800011512,True,15
001K22,77,experiment,72,→,left,←,1.0127877999912016,False,15
001K22,78,experiment,144,↓,up,↑,1.120837099995697,False,15
001K22,79,experiment,144,→,right,→,1.3772623999975622,True,15
001K22,80,experiment,156,↓,up,↑,1.0324886000016704,False,15
001K22,81,experiment,60,↓,no_key,no_letter,-1.0,False,15
001K22,82,experiment,36,↑,left,←,1.2778504000016255,False,15
001K22,83,experiment,24,←,left,←,0.9294850000005681,True,15
001K22,84,experiment,24,↑,left,←,0.8304242000012891,False,15
001K22,85,experiment,48,→,right,→,1.5983905999892158,True,15
001K22,86,experiment,132,→,left,←,1.5384179999964545,False,15
001K22,87,experiment,108,↑,up,↑,0.9065227999963099,True,15
001K22,88,experiment,36,↓,left,←,1.2840971999976318,False,15
001K22,89,experiment,156,↓,left,←,1.2900144000013825,False,15
001K22,90,experiment,96,←,right,→,1.089418299990939,False,15
001K22,91,experiment,48,↑,right,→,0.887229899992235,False,15
001K22,92,experiment,168,←,right,→,1.0900025000009919,False,15
001K22,93,experiment,12,→,no_key,no_letter,-1.0,False,15
001K22,94,training,168,↓,right,→,1.4208249999937834,False,16
001K22,95,training,156,↓,right,→,0.9616687000088859,False,16
001K22,96,training,156,←,left,←,0.7848029000015231,True,16
001K22,97,experiment,36,↑,up,↑,0.9978560000017751,True,16
001K22,98,experiment,180,↑,down,↓,1.049205900009838,False,16
001K22,99,experiment,48,→,left,←,1.1983518000051845,False,16
001K22,100,experiment,144,↑,up,↑,1.5082129000074929,True,16
001K22,101,experiment,108,↓,no_key,no_letter,-1.0,False,16
001K22,102,experiment,120,←,right,→,0.927875600013067,False,16
001K22,103,experiment,180,↓,left,←,1.098982800001977,False,16
001K22,104,experiment,72,↑,right,→,0.9837753000028897,False,16
001K22,105,experiment,24,←,right,→,1.331443399991258,False,16
001K22,106,experiment,96,↑,left,←,1.2999254000023939,False,16
001K22,107,experiment,156,←,no_key,no_letter,-1.0,False,16
001K22,108,experiment,36,←,right,→,0.7637141000013798,False,16
001K22,109,experiment,108,→,up,↑,0.8941266000038013,False,16
001K22,110,experiment,96,↓,left,←,0.8700645999924745,False,16
001K22,111,experiment,96,←,left,←,1.1410093999875244,True,16
001K22,112,experiment,12,↑,no_key,no_letter,-1.0,False,16
001K22,113,experiment,168,→,right,→,1.1192698999948334,True,16
001K22,114,experiment,96,→,left,←,1.2001887000078568,False,16
001K22,115,experiment,84,↑,up,↑,1.0152078000101028,True,16
001K22,116,experiment,48,→,left,←,1.2706689999904484,False,16
001K22,117,experiment,24,↑,down,↓,1.8460283000022173,False,16
001K22,118,experiment,120,→,no_key,no_letter,-1.0,False,16
001K22,119,experiment,36,↑,left,←,1.5810082000098191,False,16
001K22,120,experiment,144,↓,no_key,no_letter,-1.0,False,16
001K22,121,experiment,48,←,right,→,1.0228652000078,False,16
001K22,122,experiment,156,←,left,←,1.1188405000139028,True,16
001K22,123,experiment,48,→,left,←,1.231247899995651,False,16
001K22,124,experiment,108,↑,left,←,1.0575400999950944,False,16
001K22,125,experiment,24,←,right,→,1.056032899999991,False,16
001K22,126,experiment,60,↑,right,→,0.5891069999925094,False,16
001K22,127,experiment,144,←,left,←,0.6867836000019452,True,16
001K22,128,experiment,84,→,left,←,0.5942771999980323,False,16
001K22,129,experiment,120,↓,right,→,0.5336899999965681,False,16
001K22,130,experiment,156,↑,left,←,0.7360738999996101,False,16
001K22,131,experiment,132,↓,no_key,no_letter,-1.0,False,16
001K22,132,experiment,72,↓,up,↑,0.9191342999984045,False,16
001K22,133,experiment,156,→,left,←,0.6816036999953212,False,16
001K22,134,experiment,12,→,left,←,0.8591860000015004,False,16
001K22,135,experiment,12,→,right,→,0.7655184000032023,True,16
001K22,136,experiment,60,←,left,←,1.9134256000106689,True,16
001K22,137,experiment,120,→,left,←,1.0270085999945877,False,16
001K22,138,experiment,108,→,left,←,1.0593349999981,False,16
001K22,139,experiment,168,↓,right,→,1.455380299987155,False,16
001K22,140,experiment,60,↑,up,↑,1.5818762999988394,True,16
001K22,141,experiment,12,↓,right,→,1.3447210000013001,False,16
001K22,142,experiment,168,→,up,↑,1.3624906000040937,False,16
001K22,143,experiment,132,↓,left,←,1.878119200002402,False,16
001K22,144,experiment,84,↑,right,→,1.398540399997728,False,16
001K22,145,experiment,72,↑,right,→,1.1470256000029622,False,16
001K22,146,experiment,168,↑,left,←,1.0513332999980776,False,16
001K22,147,experiment,132,↓,left,←,0.9858681000041543,False,16
001K22,148,experiment,180,→,right,→,0.8563051999954041,True,16
001K22,149,experiment,84,←,right,→,1.555836300001829,False,16
001K22,150,experiment,60,→,left,←,1.1889722000050824,False,16
001K22,151,experiment,180,→,left,←,0.908130900003016,False,16
001K22,152,experiment,144,→,right,→,0.7384831999952439,True,16
001K22,153,experiment,132,↑,left,←,0.6502227000019047,False,16
001K22,154,experiment,72,↓,left,←,0.6582157000084408,False,16
001K22,155,experiment,36,↑,left,←,0.7956555000127992,False,16
001K22,156,experiment,24,↓,no_key,no_letter,-1.0,False,16
001K22,157,training,96,↑,down,↓,1.7163418999989517,False,17
001K22,158,training,144,←,left,←,1.2569711999967694,True,17
001K22,159,training,180,↑,up,↑,1.3349693000054685,True,17
001K22,160,experiment,144,←,left,←,1.2942731999937678,True,17
001K22,161,experiment,24,→,right,→,1.2237924999935785,True,17
001K22,162,experiment,180,↓,down,↓,0.8046328000054928,True,17
001K22,163,experiment,132,↑,down,↓,1.1096936999965692,False,17
001K22,164,experiment,48,→,right,→,1.1475687000056496,True,17
001K22,165,experiment,96,→,down,↓,1.183409399993252,False,17
001K22,166,experiment,36,←,left,←,1.2571428999945056,True,17
001K22,167,experiment,96,→,down,↓,1.204294100010884,False,17
001K22,168,experiment,72,←,down,↓,1.0649376999936067,False,17
001K22,169,experiment,12,→,no_key,no_letter,-1.0,False,17
001K22,170,experiment,60,↓,up,↑,1.053963999991538,False,17
001K22,171,experiment,120,↑,up,↑,0.8461556000111159,True,17
001K22,172,experiment,168,→,right,→,0.9810689000005368,True,17
001K22,173,experiment,24,→,left,←,1.2942079000058584,False,17
001K22,174,experiment,168,↑,up,↑,1.0951113999908557,True,17
001K22,175,experiment,60,↓,left,←,1.332619299995713,False,17
001K22,176,experiment,108,→,right,→,0.9282914999930654,True,17
001K22,177,experiment,156,↓,left,←,1.4316088999912608,False,17
001K22,178,experiment,72,↑,up,↑,1.0731392000016058,True,17
001K22,179,experiment,168,→,no_key,no_letter,-1.0,False,17
001K22,180,experiment,60,↓,left,←,1.4650422999984585,False,17
001K22,181,experiment,180,←,right,→,0.968295799990301,False,17
001K22,182,experiment,72,←,left,←,0.7283693999925163,True,17
001K22,183,experiment,72,←,left,←,0.7991328999924008,True,17
001K22,184,experiment,36,↓,left,←,1.0236524000065401,False,17
001K22,185,experiment,156,↑,no_key,no_letter,-1.0,False,17
001K22,186,experiment,132,→,right,→,1.3897251000016695,True,17
001K22,187,experiment,120,←,left,←,1.083566899993457,True,17
001K22,188,experiment,144,↑,left,←,1.2530138000001898,False,17
001K22,189,experiment,60,←,left,←,1.2575324999925215,True,17
001K22,190,experiment,24,→,left,←,1.705355599988252,False,17
001K22,191,experiment,48,→,right,→,0.5068794999970123,True,17
001K22,192,experiment,48,↓,down,↓,1.2388340000034077,True,17
001K22,193,experiment,36,↑,up,↑,1.3656856000015978,True,17
001K22,194,experiment,120,↑,up,↑,1.096224599998095,True,17
001K22,195,experiment,36,←,left,←,0.8504069999908097,True,17
001K22,196,experiment,156,←,left,←,1.1200086000026204,True,17
001K22,197,experiment,168,↓,left,←,0.8938606000010623,False,17
001K22,198,experiment,84,↓,right,→,1.4756736000126693,False,17
001K22,199,experiment,96,↑,left,←,1.1377881999942474,False,17
001K22,200,experiment,180,→,left,←,1.0381870999990497,False,17
001K22,201,experiment,84,↓,right,→,1.4867552000068827,False,17
001K22,202,experiment,84,→,right,→,0.7249624000105541,True,17
001K22,203,experiment,144,↓,down,↓,1.281753100003698,True,17
001K22,204,experiment,84,→,up,↑,1.114226999998209,False,17
001K22,205,experiment,132,↓,down,↓,1.1863809999922523,True,17
001K22,206,experiment,120,→,right,→,0.8085544000059599,True,17
001K22,207,experiment,156,↑,no_key,no_letter,-1.0,False,17
001K22,208,experiment,96,←,left,←,0.9728662999987137,True,17
001K22,209,experiment,108,←,left,←,1.0321284000092419,True,17
001K22,210,experiment,132,→,right,→,0.7697104000108084,True,17
001K22,211,experiment,180,↑,left,←,1.809479099989403,False,17
001K22,212,experiment,12,←,no_key,no_letter,-1.0,False,17
001K22,213,experiment,48,←,right,→,0.8097672000003513,False,17
001K22,214,experiment,108,↑,up,↑,1.2220474999921862,True,17
001K22,215,experiment,12,↓,down,↓,1.209352999998373,True,17
001K22,216,experiment,108,↓,down,↓,1.0197874000004958,True,17
001K22,217,experiment,12,↓,down,↓,1.0706037999916589,True,17
001K22,218,experiment,24,↓,down,↓,0.712639900011709,True,17
001K22,219,experiment,144,←,left,←,1.1550496000127168,True,17
001K22,220,training,96,↑,right,→,1.1476933999947505,False,18
001K22,221,training,144,←,left,←,0.9286359000107041,True,18
001K22,222,training,60,←,left,←,0.7961963999987347,True,18
001K22,223,experiment,84,↓,right,→,1.2631700999918394,False,18
001K22,224,experiment,144,→,right,→,0.7687748000025749,True,18
001K22,225,experiment,48,↑,right,→,1.1267814000020735,False,18
001K22,226,experiment,96,→,right,→,0.6571805999992648,True,18
001K22,227,experiment,168,→,left,←,1.047806100003072,False,18
001K22,228,experiment,24,←,right,→,1.0682954999938374,False,18
001K22,229,experiment,180,↓,right,→,1.0142180000111694,False,18
001K22,230,experiment,96,↓,down,↓,1.2623181000089971,True,18
001K22,231,experiment,72,→,right,→,0.6796145999978762,True,18
001K22,232,experiment,36,←,left,←,0.8215272000088589,True,18
001K22,233,experiment,132,←,down,↓,1.2453850000019884,False,18
001K22,234,experiment,156,↓,right,→,0.9368224999925587,False,18
001K22,235,experiment,12,←,right,→,1.8554950000107056,False,18
001K22,236,experiment,132,→,left,←,1.1672660999902291,False,18
001K22,237,experiment,36,↓,down,↓,1.0384438000037335,True,18
001K22,238,experiment,132,↑,up,↑,1.047381199998199,True,18
001K22,239,experiment,144,↓,up,↑,1.0950289000029443,False,18
001K22,240,experiment,60,↓,down,↓,0.926144099998055,True,18
001K22,241,experiment,36,↓,down,↓,0.8073554000002332,True,18
001K22,242,experiment,84,↑,up,↑,0.6339403999882052,True,18
001K22,243,experiment,60,↑,down,↓,1.3523129999957746,False,18
001K22,244,experiment,72,←,up,↑,0.9241424000065308,False,18
001K22,245,experiment,132,→,left,←,1.1230265000049258,False,18
001K22,246,experiment,24,↑,up,↑,0.8000025999936042,True,18
001K22,247,experiment,84,↑,up,↑,0.5970460999960778,True,18
001K22,248,experiment,72,←,left,←,1.1097474999987753,True,18
001K22,249,experiment,48,←,left,←,0.6365908000007039,True,18
001K22,250,experiment,36,←,right,→,1.0305860999942524,False,18
001K22,251,experiment,168,←,left,←,0.7972757000097772,True,18
001K22,252,experiment,84,↑,left,←,0.990293599999859,False,18
001K22,253,experiment,144,←,left,←,1.024341700001969,True,18
001K22,254,experiment,156,←,left,←,0.5539374000072712,True,18
001K22,255,experiment,180,→,right,→,0.6949418000003789,True,18
001K22,256,experiment,12,↓,down,↓,1.255727100011427,True,18
001K22,257,experiment,108,↑,up,↑,1.8152746000123443,True,18
001K22,258,experiment,120,→,down,↓,1.2991646000009496,False,18
001K22,259,experiment,108,↑,up,↑,1.0037624000106007,True,18
001K22,260,experiment,120,→,right,→,0.7968285000097239,True,18
001K22,261,experiment,180,↓,down,↓,1.2706430999969598,True,18
001K22,262,experiment,60,←,right,→,1.535020200011786,False,18
001K22,263,experiment,12,↑,left,←,1.5358426999882795,False,18
001K22,264,experiment,48,↑,no_key,no_letter,-1.0,False,18
001K22,265,experiment,168,←,left,←,0.8487007999938214,True,18
001K22,266,experiment,96,↑,up,↑,0.9189894000010099,True,18
001K22,267,experiment,180,←,right,→,0.8714307000045665,False,18
001K22,268,experiment,120,→,right,→,0.8341857999912463,True,18
001K22,269,experiment,24,→,right,→,0.5548597000015434,True,18
001K22,270,experiment,144,↓,no_key,no_letter,-1.0,False,18
001K22,271,experiment,72,→,up,↑,1.2282947999919998,False,18
001K22,272,experiment,24,↓,no_key,no_letter,-1.0,False,18
001K22,273,experiment,96,↓,up,↑,1.3412143000023207,False,18
001K22,274,experiment,108,←,up,↑,0.8623215999978129,False,18
001K22,275,experiment,108,↓,down,↓,1.043245000008028,True,18
001K22,276,experiment,168,↓,down,↓,1.0422984999895561,True,18
001K22,277,experiment,60,↓,down,↓,1.0397269000095548,True,18
001K22,278,experiment,48,←,down,↓,1.2516586999990977,False,18
001K22,279,experiment,12,↑,down,↓,1.2274359000002733,False,18
001K22,280,experiment,120,→,right,→,1.0705075000005309,True,18
001K22,281,experiment,156,→,right,→,0.608695799994166,True,18
001K22,282,experiment,156,←,left,←,1.1368776000017533,True,18
001K22,283,training,60,↑,no_key,no_letter,-1.0,False,18
001K22,284,training,132,↑,left,←,1.6472245000040857,False,18
001K22,285,training,168,←,left,←,1.1996866000117734,True,18
001K22,286,experiment,168,↑,left,←,0.9584667000017362,False,18
001K22,287,experiment,120,→,right,→,0.6712398999952711,True,18
001K22,288,experiment,48,←,left,←,0.9065650999982608,True,18
001K22,289,experiment,12,↓,down,↓,0.9272111000027508,True,18
001K22,290,experiment,84,↓,left,←,1.651384800003143,False,18
001K22,291,experiment,108,↑,up,↑,0.9268783000006806,True,18
001K22,292,experiment,60,→,left,←,1.290583299996797,False,18
001K22,293,experiment,60,↓,down,↓,1.0721372999978485,True,18
001K22,294,experiment,120,←,left,←,0.7705540000024484,True,18
001K22,295,experiment,12,↑,up,↑,0.6762965000089025,True,18
001K22,296,experiment,48,↑,up,↑,0.6991386000008788,True,18
001K22,297,experiment,144,↑,up,↑,0.5846856999996817,True,18
001K22,298,experiment,156,→,right,→,0.7692956000100821,True,18
001K22,299,experiment,108,↑,no_key,no_letter,-1.0,False,18
001K22,300,experiment,12,↓,down,↓,1.3200026999984402,True,18
001K22,301,experiment,156,↑,up,↑,1.6639043000031961,True,18
001K22,302,experiment,132,←,left,←,1.903522199994768,True,18
001K22,303,experiment,168,←,left,←,0.8141251999913948,True,18
001K22,304,experiment,36,←,left,←,1.1902265999960946,True,18
001K22,305,experiment,72,→,right,→,0.7841331000090577,True,18
001K22,306,experiment,48,←,right,→,1.0384185000002617,False,18
001K22,307,experiment,36,↓,left,←,1.0755071999883512,False,18
001K22,308,experiment,144,→,no_key,no_letter,-1.0,False,18
001K22,309,experiment,24,→,right,→,0.2838338000001386,True,18
001K22,310,experiment,72,→,left,←,1.0879075000120793,False,18
001K22,311,experiment,36,←,left,←,0.9012472000031266,True,18
001K22,312,experiment,108,→,left,←,1.1778973000036785,False,18
001K22,313,experiment,48,→,right,→,1.2198612000065623,True,18
001K22,314,experiment,144,↓,left,←,1.2052021999988938,False,18
001K22,315,experiment,132,←,left,←,1.088362500013318,True,18
001K22,316,experiment,156,←,left,←,1.134181900008116,True,18
001K22,317,experiment,72,→,right,→,0.8584173999988707,True,18
001K22,318,experiment,60,→,right,→,0.8979233999998542,True,18
001K22,319,experiment,132,→,right,→,0.7416291000117781,True,18
001K22,320,experiment,96,↑,no_key,no_letter,-1.0,False,18
001K22,321,experiment,144,→,left,←,1.3038812000013422,False,18
001K22,322,experiment,24,→,right,→,0.9746430000086548,True,18
001K22,323,experiment,120,↑,left,←,1.0352155000000494,False,18
001K22,324,experiment,84,←,no_key,no_letter,-1.0,False,18
001K22,325,experiment,132,↓,up,↑,1.1166957999957958,False,18
001K22,326,experiment,96,↓,down,↓,1.0166173000034178,True,18
001K22,327,experiment,156,↓,down,↓,0.9608776999957627,True,18
001K22,328,experiment,120,↓,down,↓,1.7257730000128504,True,18
001K22,329,experiment,72,↑,up,↑,0.7197868999937782,True,18
001K22,330,experiment,168,↓,down,↓,1.2560996000102023,True,18
001K22,331,experiment,60,↓,up,↑,0.9080084000015631,False,18
001K22,332,experiment,24,←,right,→,0.6017282999964664,False,18
001K22,333,experiment,96,→,right,→,0.9376185000000987,True,18
001K22,334,experiment,168,↓,down,↓,1.1483286000002408,True,18
001K22,335,experiment,180,←,right,→,1.5066774000006262,False,18
001K22,336,experiment,180,↓,left,←,0.8728917999978876,False,18
001K22,337,experiment,180,←,left,←,0.7000428000028478,True,18
001K22,338,experiment,84,←,left,←,0.5859290999942459,True,18
001K22,339,experiment,96,←,left,←,0.6917727999971248,True,18
001K22,340,experiment,24,←,left,←,1.0483507999888388,True,18
001K22,341,experiment,84,→,right,→,0.5863171000091825,True,18
001K22,342,experiment,12,←,left,←,0.6818791999976384,True,18
001K22,343,experiment,36,→,left,←,0.5962348000030033,False,18
001K22,344,experiment,108,→,right,→,0.6492542999912985,True,18
001K22,345,experiment,180,↑,right,→,0.7159321999934036,False,18
001K22,346,training,156,→,no_key,no_letter,-1.0,False,18
001K22,347,training,48,↑,up,↑,1.455702499995823,True,18
001K22,348,training,12,→,right,→,0.7713940999965416,True,18
001K22,349,experiment,96,↑,up,↑,1.3731732000014745,True,18
001K22,350,experiment,168,↓,down,↓,0.8595204000012018,True,18
001K22,351,experiment,156,→,right,→,0.5428141000011237,True,18
001K22,352,experiment,180,→,right,→,0.5765098999982001,True,18
001K22,353,experiment,144,↓,down,↓,1.320815400002175,True,18
001K22,354,experiment,144,↑,up,↑,0.7155290000082459,True,18
001K22,355,experiment,108,←,left,←,0.8967916000110563,True,18
001K22,356,experiment,156,↓,left,←,1.2631599999876926,False,18
001K22,357,experiment,24,←,up,↑,0.9812324999948032,False,18
001K22,358,experiment,72,↓,left,←,1.1961180999933276,False,18
001K22,359,experiment,72,←,left,←,1.3090187000052538,True,18
001K22,360,experiment,24,↑,down,↓,1.2997093000012683,False,18
001K22,361,experiment,60,↑,down,↓,0.9632118000008631,False,18
001K22,362,experiment,120,↓,left,←,1.5852716999943368,False,18
001K22,363,experiment,60,→,right,→,0.6921456999989459,True,18
001K22,364,experiment,156,→,right,→,1.7301477000000887,True,18
001K22,365,experiment,132,←,right,→,0.5372519000084139,False,18
001K22,366,experiment,12,↓,up,↑,0.9179168000118807,False,18
001K22,367,experiment,24,←,left,←,1.8697249999968335,True,18
001K22,368,experiment,96,↓,right,→,0.9614265999989584,False,18
001K22,369,experiment,48,←,right,→,0.8253980000008596,False,18
001K22,370,experiment,48,←,right,→,1.7345894999889424,False,18
001K22,371,experiment,144,↓,right,→,1.3194010000006529,False,18
001K22,372,experiment,168,→,no_key,no_letter,-1.0,False,18
001K22,373,experiment,48,→,right,→,1.4294231000094442,True,18
001K22,374,experiment,132,↓,right,→,1.0274365000077523,False,18
001K22,375,experiment,168,←,left,←,0.8172670000058133,True,18
001K22,376,experiment,180,↓,left,←,0.7774183000001358,False,18
001K22,377,experiment,84,↑,no_key,no_letter,-1.0,False,18
001K22,378,experiment,36,→,left,←,0.9839975999930175,False,18
001K22,379,experiment,36,→,left,←,0.9477908999979263,False,18
001K22,380,experiment,144,↑,up,↑,1.5935223999986192,True,18
001K22,381,experiment,72,←,left,←,0.7212708000006387,True,18
001K22,382,experiment,108,→,right,→,0.8097004000010202,True,18
001K22,383,experiment,108,←,left,←,1.0737051999894902,True,18
001K22,384,experiment,36,←,left,←,0.9602173000021139,True,18
001K22,385,experiment,84,←,left,←,1.053072599999723,True,18
001K22,386,experiment,132,→,left,←,1.1251533000031486,False,18
001K22,387,experiment,132,↑,up,↑,0.7594145000039134,True,18
001K22,388,experiment,180,←,left,←,0.9858457000082126,True,18
001K22,389,experiment,60,↑,up,↑,0.5635990999871865,True,18
001K22,390,experiment,96,↑,left,←,1.4276469000033103,False,18
001K22,391,experiment,24,→,right,→,0.7437820000050124,True,18
001K22,392,experiment,156,←,left,←,0.7553034000011394,True,18
001K22,393,experiment,168,→,right,→,0.7003847000014503,True,18
001K22,394,experiment,12,→,no_key,no_letter,-1.0,False,18
001K22,395,experiment,84,←,left,←,0.6957580000016605,True,18
001K22,396,experiment,36,→,right,→,1.182518399989931,True,18
001K22,397,experiment,120,↑,up,↑,0.95476900000358,True,18
001K22,398,experiment,120,→,right,→,0.5669372999982443,True,18
001K22,399,experiment,60,→,right,→,0.6566015999997035,True,18
001K22,400,experiment,72,→,left,←,1.1744520000065677,False,18
001K22,401,experiment,96,↑,left,←,1.154913199992734,False,18
001K22,402,experiment,48,↑,up,↑,1.4388061999925412,True,18
001K22,403,experiment,12,←,left,←,1.1939860999991652,True,18
001K22,404,experiment,180,→,right,→,0.8358641999948304,True,18
001K22,405,experiment,120,↑,up,↑,0.9992415000015171,True,18
001K22,406,experiment,12,↑,right,→,1.2973958999937167,False,18
001K22,407,experiment,84,←,right,→,0.9859674000035739,False,18
001K22,408,experiment,108,→,right,→,0.6611903000011807,True,18
001K22,409,training,72,←,no_key,no_letter,-1.0,False,18
001K22,410,training,120,←,left,←,0.8258490000007441,True,18
001K22,411,training,60,←,left,←,0.5898563999944599,True,18
001K22,412,experiment,132,↓,left,←,1.30179309999221,False,18
001K22,413,experiment,72,→,left,←,0.9183635000081267,False,18
001K22,414,experiment,60,↑,left,←,1.3072743000084301,False,18
001K22,415,experiment,156,→,right,→,0.8843926999979885,True,18
001K22,416,experiment,24,→,right,→,0.8143353000050411,True,18
001K22,417,experiment,72,→,right,→,0.7147872000059579,True,18
001K22,418,experiment,12,→,right,→,0.7572097000083886,True,18
001K22,419,experiment,180,←,left,←,0.9484777000034228,True,18
001K22,420,experiment,168,↑,no_key,no_letter,-1.0,False,18
001K22,421,experiment,144,→,right,→,0.9290270000055898,True,18
001K22,422,experiment,84,←,left,←,1.0237211999919964,True,18
001K22,423,experiment,48,↑,left,←,0.9541886999941198,False,18
001K22,424,experiment,180,←,left,←,0.5770583999983501,True,18
001K22,425,experiment,48,→,left,←,0.8894279000087408,False,18
001K22,426,experiment,72,↓,down,↓,1.2421763999882387,True,18
001K22,427,experiment,132,←,left,←,0.6157251999975415,True,18
001K22,428,experiment,168,↑,up,↑,0.637764099999913,True,18
001K22,429,experiment,144,→,left,←,0.7914363000018056,False,18
001K22,430,experiment,36,←,left,←,0.8696550000022398,True,18
001K22,431,experiment,24,→,right,→,0.7160058000008576,True,18
001K22,432,experiment,24,↓,left,←,1.2418257999961497,False,18
001K22,433,experiment,168,↑,left,←,1.0081020999932662,False,18
001K22,434,experiment,108,↓,left,←,0.08399119999376126,False,18
001K22,435,experiment,60,↓,down,↓,1.0705052999983309,True,18
001K22,436,experiment,96,↓,right,→,1.2761782000015955,False,18
001K22,437,experiment,132,↓,down,↓,1.2786785000062082,True,18
001K22,438,experiment,60,→,down,↓,1.335778399996343,False,18
001K22,439,experiment,48,←,no_key,no_letter,-1.0,False,18
001K22,440,experiment,108,←,left,←,0.6954489000054309,True,18
001K22,441,experiment,156,→,right,→,0.7604971000109799,True,18
001K22,442,experiment,24,↑,left,←,0.9907744999945862,False,18
001K22,443,experiment,180,↑,up,↑,1.1611775999917882,True,18
001K22,444,experiment,144,↑,left,←,0.6327676999935647,False,18
001K22,445,experiment,144,↓,down,↓,0.8884886000014376,True,18
001K22,446,experiment,84,↓,up,↑,1.108530499986955,False,18
001K22,447,experiment,36,↑,up,↑,0.7184403999999631,True,18
001K22,448,experiment,36,←,left,←,0.7289705000002868,True,18
001K22,449,experiment,12,↓,left,←,0.9647388999874238,False,18
001K22,450,experiment,180,→,right,→,0.5986698000051547,True,18
001K22,451,experiment,96,↑,left,←,0.898619300001883,False,18
001K22,452,experiment,84,←,left,←,0.7924899999925401,True,18
001K22,453,experiment,156,←,left,←,0.5725722999923164,True,18
001K22,454,experiment,108,→,left,←,1.0274011000001337,False,18
001K22,455,experiment,12,←,left,←,0.6384991999948397,True,18
001K22,456,experiment,72,←,left,←,0.7532384999940405,True,18
001K22,457,experiment,168,←,left,←,0.5069722000043839,True,18
001K22,458,experiment,120,←,left,←,0.6392616999946767,True,18
001K22,459,experiment,108,↓,down,↓,1.0934179999894695,True,18
001K22,460,experiment,48,↑,left,←,1.210193299993989,False,18
001K22,461,experiment,132,←,left,←,0.7231628000008641,True,18
001K22,462,experiment,12,←,left,←,0.7410900999966543,True,18
001K22,463,experiment,120,↓,left,←,0.7743897000036668,False,18
001K22,464,experiment,96,↑,left,←,0.6890051999944262,False,18
001K22,465,experiment,156,←,left,←,0.6261874999909196,True,18
001K22,466,experiment,36,↑,up,↑,1.052511499990942,True,18
001K22,467,experiment,96,↑,left,←,0.7548516999959247,False,18
001K22,468,experiment,60,→,right,→,0.6330479000025662,True,18
001K22,469,experiment,120,←,left,←,0.7321320000046398,True,18
001K22,470,experiment,120,→,right,→,0.6496766000054777,True,18
001K22,471,experiment,84,←,right,→,0.8344686000054935,False,18
001K22,472,training,168,↓,no_key,no_letter,-1.0,False,18
001K22,473,training,48,←,right,→,0.7510885999945458,False,18
001K22,474,training,168,↓,left,←,0.7870858000096632,False,18
001K22,475,experiment,180,←,left,←,0.5144073999981629,True,18
001K22,476,experiment,120,↓,left,←,1.7360379000019748,False,18
001K22,477,experiment,108,↓,right,→,0.6233207000041148,False,18
001K22,478,experiment,84,↓,up,↑,0.9878795000113314,False,18
001K22,479,experiment,180,←,left,←,1.1500201000017114,True,18
001K22,480,experiment,72,↑,no_key,no_letter,-1.0,False,18
001K22,481,experiment,180,←,left,←,0.9573295000009239,True,18
001K22,482,experiment,132,←,left,←,0.7060862999933306,True,18
001K22,483,experiment,96,↑,right,→,0.7096878000011202,False,18
001K22,484,experiment,168,↓,left,←,0.7350314999930561,False,18
001K22,485,experiment,72,←,right,→,1.0744374999922002,False,18
001K22,486,experiment,144,←,left,←,0.8825683999893954,True,18
001K22,487,experiment,96,←,left,←,0.7003502000006847,True,18
001K22,488,experiment,96,↑,left,←,1.5032750999962445,False,18
001K22,489,experiment,12,→,left,←,0.9875917000026675,False,18
001K22,490,experiment,132,↑,right,→,0.97446409999975,False,18
001K22,491,experiment,132,→,left,←,0.6222912999946857,False,18
001K22,492,experiment,36,←,left,←,0.8530245000001742,True,18
001K22,493,experiment,156,→,left,←,0.6816411000036169,False,18
001K22,494,experiment,72,←,left,←,0.9010987999936333,True,18
001K22,495,experiment,96,↓,up,↑,0.7284701000025962,False,18
001K22,496,experiment,120,↑,up,↑,0.688168399996357,True,18
001K22,497,experiment,168,↓,up,↑,0.7375444999925094,False,18
001K22,498,experiment,108,↑,up,↑,0.9431787000066834,True,18
001K22,499,experiment,84,→,left,←,0.8083468000113498,False,18
001K22,500,experiment,12,←,left,←,0.6358788999932585,True,18
001K22,501,experiment,60,→,left,←,0.9036002000066219,False,18
001K22,502,experiment,120,↑,up,↑,0.931900499999756,True,18
001K22,503,experiment,120,→,left,←,0.8118148000066867,False,18
001K22,504,experiment,108,→,right,→,0.7808770999981789,True,18
001K22,505,experiment,48,←,right,→,0.7337292000011075,False,18
001K22,506,experiment,144,↑,no_key,no_letter,-1.0,False,18
001K22,507,experiment,36,↓,down,↓,1.229166000004625,True,18
001K22,508,experiment,132,↑,right,→,0.8331755999970483,False,18
001K22,509,experiment,36,→,right,→,0.6729090000008,True,18
001K22,510,experiment,108,→,right,→,0.647524500003783,True,18
001K22,511,experiment,72,↑,up,↑,0.7695549000054598,True,18
001K22,512,experiment,48,←,left,←,0.739995199997793,True,18
001K22,513,experiment,48,↑,left,←,0.973988300000201,False,18
001K22,514,experiment,168,↑,up,↑,0.5710470000049099,True,18
001K22,515,experiment,60,↓,down,↓,1.2408887000055984,True,18
001K22,516,experiment,156,←,left,←,0.5891150000097696,True,18
001K22,517,experiment,84,↑,left,←,1.243245499994373,False,18
001K22,518,experiment,12,→,up,↑,1.2041954000014812,False,18
001K22,519,experiment,60,←,left,←,0.9832510999985971,True,18
001K22,520,experiment,24,↑,up,↑,0.7632977000030223,True,18
001K22,521,experiment,36,↑,up,↑,1.2738583000027575,True,18
001K22,522,experiment,48,←,left,←,0.9175722999934806,True,18
001K22,523,experiment,180,→,right,→,0.8445952999900328,True,18
001K22,524,experiment,156,→,right,→,0.5216242000024067,True,18
001K22,525,experiment,144,←,right,→,0.6460738000023412,False,18
001K22,526,experiment,24,↑,left,←,1.1530574999924283,False,18
001K22,527,experiment,156,←,left,←,0.5338808999949833,True,18
001K22,528,experiment,84,↑,left,←,0.7589516000007279,False,18
001K22,529,experiment,60,→,left,←,0.7308683999872301,False,18
001K22,530,experiment,24,↓,left,←,0.95693110000866,False,18
001K22,531,experiment,24,↓,down,↓,1.1293095000000903,True,18
001K22,532,experiment,144,←,left,←,0.8047650000080466,True,18
001K22,533,experiment,168,↑,left,←,0.9164266000007046,False,18
001K22,534,experiment,12,↓,left,←,1.0481336999946507,False,18
001K22,535,training,180,↓,no_key,no_letter,-1.0,False,18
001K22,536,training,24,→,right,→,1.0455301999900257,True,18
001K22,537,training,48,→,right,→,0.8504898000101093,True,18
001K22,538,experiment,72,→,right,→,0.5845415000076173,True,18
001K22,539,experiment,180,→,right,→,0.8138581999955932,True,18
001K22,540,experiment,48,→,right,→,0.5690547999984119,True,18
001K22,541,experiment,132,↓,no_key,no_letter,-1.0,False,18
001K22,542,experiment,24,→,right,→,0.5145024999947054,True,18
001K22,543,experiment,96,↓,down,↓,1.0293228999944404,True,18
001K22,544,experiment,132,↓,down,↓,1.0217344999982743,True,18
001K22,545,experiment,24,↑,down,↓,1.0551152000116417,False,18
001K22,546,experiment,96,↓,up,↑,1.0353008000092814,False,18
001K22,547,experiment,60,↑,up,↑,1.0895962000067811,True,18
001K22,548,experiment,108,↓,down,↓,0.9591866999980994,True,18
001K22,549,experiment,12,↓,no_key,no_letter,-1.0,False,18
001K22,550,experiment,132,↑,up,↑,0.8235404000006383,True,18
001K22,551,experiment,72,→,right,→,1.0447426000027917,True,18
001K22,552,experiment,72,→,right,→,0.7875399000040488,True,18
001K22,553,experiment,132,↓,left,←,1.8530366999912076,False,18
001K22,554,experiment,48,↓,up,↑,0.9384335999930045,False,18
001K22,555,experiment,156,→,right,→,0.7862044000066817,True,18
001K22,556,experiment,96,↓,right,→,1.0280541000101948,False,18
001K22,557,experiment,144,↑,right,→,1.4194538000010652,False,18
001K22,558,experiment,108,↓,right,→,0.8482001000083983,False,18
001K22,559,experiment,84,→,right,→,0.7506596999883186,True,18
001K22,560,experiment,144,↑,up,↑,1.294431699992856,True,18
001K22,561,experiment,36,↑,up,↑,0.7486831999995047,True,18
001K22,562,experiment,48,↑,up,↑,0.6338091999932658,True,18
001K22,563,experiment,60,→,right,→,0.9163150999956997,True,18
001K22,564,experiment,168,→,right,→,0.6405768999975407,True,18
001K22,565,experiment,144,↑,right,→,0.9048959000065224,False,18
001K22,566,experiment,156,↓,down,↓,1.0597718999924837,True,18
001K22,567,experiment,120,↓,right,→,0.8406391999888001,False,18
001K22,568,experiment,24,↓,right,→,1.1643207000015536,False,18
001K22,569,experiment,24,→,right,→,0.5713932999933604,True,18
001K22,570,experiment,36,↓,down,↓,0.9574663999956101,True,18
001K22,571,experiment,60,↑,up,↑,0.9369570000126259,True,18
001K22,572,experiment,12,←,left,←,0.6302281999960542,True,18
001K22,573,experiment,168,→,left,←,1.504601199994795,False,18
001K22,574,experiment,60,↑,right,→,1.0888508000061847,False,18
001K22,575,experiment,168,→,right,→,0.8522916000074474,True,18
001K22,576,experiment,96,↓,left,←,1.170085999998264,False,18
001K22,577,experiment,120,↓,left,←,1.0180978999997023,False,18
001K22,578,experiment,156,↑,up,↑,0.569111700009671,True,18
001K22,579,experiment,84,→,up,↑,1.0272969999932684,False,18
001K22,580,experiment,36,←,left,←,0.8847488000028534,True,18
001K22,581,experiment,120,↑,left,←,1.7703787999926135,False,18
001K22,582,experiment,180,→,left,←,0.7399205999972764,False,18
001K22,583,experiment,72,↓,up,↑,0.9533283000055235,False,18
001K22,584,experiment,12,→,right,→,0.7580176000046777,True,18
001K22,585,experiment,36,→,right,→,1.3521491999999853,True,18
001K22,586,experiment,180,←,left,←,0.6834860000089975,True,18
001K22,587,experiment,48,←,left,←,0.5763906999927713,True,18
001K22,588,experiment,168,→,right,→,0.8748731999949086,True,18
001K22,589,experiment,12,↓,right,→,1.4066486999945482,False,18
001K22,590,experiment,144,→,right,→,1.0741658999904757,True,18
001K22,591,experiment,180,→,left,←,0.9531440999999177,False,18
001K22,592,experiment,120,↑,left,←,0.7009144999901764,False,18
001K22,593,experiment,84,↑,up,↑,0.6599788999883458,True,18
001K22,594,experiment,108,↑,left,←,1.0888379000098212,False,18
001K22,595,experiment,84,↓,up,↑,0.8054728999995859,False,18
001K22,596,experiment,156,←,left,←,0.780506900002365,True,18
001K22,597,experiment,108,←,left,←,0.4990369000006467,True,18
001K22,598,training,12,↑,no_key,no_letter,-1.0,False,18
001K22,599,training,168,↑,up,↑,0.6950453000026755,True,18
001K22,600,training,132,←,left,←,0.6444286000041757,True,18
001K22,601,experiment,36,↑,up,↑,0.9946012000000337,True,18
001K22,602,experiment,120,→,right,→,0.8330665999965277,True,18
001K22,603,experiment,96,↓,down,↓,1.193473899998935,True,18
001K22,604,experiment,12,→,right,→,0.7230848000035621,True,18
001K22,605,experiment,132,↓,down,↓,0.8374297999980627,True,18
001K22,606,experiment,144,←,left,←,0.5669234999950277,True,18
001K22,607,experiment,48,→,right,→,0.7226852000021609,True,18
001K22,608,experiment,168,→,right,→,0.48552429999108426,True,18
001K22,609,experiment,156,↓,no_key,no_letter,-1.0,False,18
001K22,610,experiment,60,↓,left,←,0.970006799994735,False,18
001K22,611,experiment,72,←,left,←,0.6094052999978885,True,18
001K22,612,experiment,180,↓,no_key,no_letter,-1.0,False,18
001K22,613,experiment,120,↑,left,←,1.3388321000093129,False,18
001K22,614,experiment,180,→,right,→,0.8106251999997767,True,18
001K22,615,experiment,48,↓,down,↓,1.2295682999974815,True,18
001K22,616,experiment,132,→,right,→,0.8463682000001427,True,18
001K22,617,experiment,72,→,left,←,1.348531700001331,False,18
001K22,618,experiment,96,←,right,→,1.1549175000109244,False,18
001K22,619,experiment,60,←,left,←,0.788864600006491,True,18
001K22,620,experiment,24,→,right,→,0.9774805999913951,True,18
001K22,621,experiment,12,→,right,→,0.7495352999976603,True,18
001K22,622,experiment,48,←,left,←,0.788477399997646,True,18
001K22,623,experiment,108,→,right,→,0.7653733999904944,True,18
001K22,624,experiment,60,→,left,←,0.833235699989018,False,18
001K22,625,experiment,120,←,left,←,0.6390354999894043,True,18
001K22,626,experiment,180,↓,up,↑,1.0620619999972405,False,18
001K22,627,experiment,144,↓,up,↑,1.0597703000094043,False,18
001K22,628,experiment,96,←,left,←,0.9176119000039762,True,18
001K22,629,experiment,24,↑,up,↑,1.085155200009467,True,18
001K22,630,experiment,168,←,left,←,0.9727710000006482,True,18
001K22,631,experiment,108,↑,up,↑,0.8799261999956798,True,18
001K22,632,experiment,96,↓,down,↓,1.0695547999930568,True,18
001K22,633,experiment,12,←,left,←,1.486510399990948,True,18
001K22,634,experiment,132,←,left,←,0.7171034000057261,True,18
001K22,635,experiment,156,→,right,→,0.9133996000018669,True,18
001K22,636,experiment,180,←,down,↓,0.9463780000078259,False,18
001K22,637,experiment,144,←,left,←,0.6318425999925239,True,18
001K22,638,experiment,72,↑,left,←,1.4649746999930358,False,18
001K22,639,experiment,108,→,right,→,0.7617519000050379,True,18
001K22,640,experiment,84,→,right,→,0.9530954000074416,True,18
001K22,641,experiment,84,↓,down,↓,0.7857653000100981,True,18
001K22,642,experiment,156,→,right,→,0.7558106000069529,True,18
001K22,643,experiment,144,↑,up,↑,0.8613360000017565,True,18
001K22,644,experiment,132,→,left,←,0.7504014000005554,False,18
001K22,645,experiment,36,↑,up,↑,0.7785208999994211,True,18
001K22,646,experiment,84,↑,up,↑,0.6231300999934319,True,18
001K22,647,experiment,12,←,left,←,0.8017683000070974,True,18
001K22,648,experiment,120,←,right,→,0.8800079000066034,False,18
001K22,649,experiment,60,↓,down,↓,1.2407338000048185,True,18
001K22,650,experiment,156,→,right,→,0.8690093000041088,True,18
001K22,651,experiment,72,↑,right,→,0.8320266999944579,False,18
001K22,652,experiment,168,←,left,←,1.0468756000045687,True,18
001K22,653,experiment,168,↑,up,↑,0.75812080000469,True,18
001K22,654,experiment,84,→,right,→,0.8557437999988906,True,18
001K22,655,experiment,48,↑,up,↑,0.9224817999929655,True,18
001K22,656,experiment,36,→,right,→,0.9308927999954903,True,18
001K22,657,experiment,36,↑,up,↑,1.0900900999986334,True,18
001K22,658,experiment,24,→,right,→,1.2541257999982918,True,18
001K22,659,experiment,24,←,left,←,0.6549135999957798,True,18
001K22,660,experiment,108,←,left,←,0.6616561999981059,True,18
001K22,661,training,48,↑,up,↑,1.6506929000024684,True,18
001K22,662,training,12,↑,up,↑,1.2686877999949502,True,18
001K22,663,training,96,↑,down,↓,1.2514795000024606,False,18
001K22,664,experiment,48,←,left,←,1.0514332000020659,True,18
001K22,665,experiment,24,↑,up,↑,0.8649126000091201,True,18
001K22,666,experiment,48,←,left,←,0.6850296999909915,True,18
001K22,667,experiment,84,↑,up,↑,0.9120153999974718,True,18
001K22,668,experiment,72,←,left,←,0.9980635000101756,True,18
001K22,669,experiment,180,←,left,←,0.6109907999925781,True,18
001K22,670,experiment,120,↑,up,↑,0.6469166000024416,True,18
001K22,671,experiment,36,←,right,→,1.0396612000040477,False,18
001K22,672,experiment,96,↓,down,↓,1.7930609000031836,True,18
001K22,673,experiment,132,↓,left,←,0.7911019999883138,False,18
001K22,674,experiment,24,←,right,→,0.8909403999859933,False,18
001K22,675,experiment,180,↑,up,↑,1.0763827999908244,True,18
001K22,676,experiment,144,←,right,→,1.3512644000002183,False,18
001K22,677,experiment,120,↓,up,↑,1.7681860000011511,False,18
001K22,678,experiment,108,←,left,←,0.7492735000123503,True,18
001K22,679,experiment,60,↓,right,→,0.6997256000031484,False,18
001K22,680,experiment,48,↑,up,↑,0.7095556999993278,True,18
001K22,681,experiment,156,↑,up,↑,0.7341534000006504,True,18
001K22,682,experiment,12,←,left,←,0.8868635999970138,True,18
001K22,683,experiment,84,→,left,←,0.9428888000111328,False,18
001K22,684,experiment,96,↑,up,↑,0.8140557000006083,True,18
001K22,685,experiment,180,→,right,→,0.7180726000078721,True,18
001K22,686,experiment,24,↓,down,↓,1.4802057999913814,True,18
001K22,687,experiment,132,↑,up,↑,0.7989315000013448,True,18
001K22,688,experiment,168,→,left,←,0.7354702000011457,False,18
001K22,689,experiment,168,↑,left,←,1.0188789999956498,False,18
001K22,690,experiment,120,↓,right,→,0.8862809999991441,False,18
001K22,691,experiment,60,→,right,→,0.9358276999992086,True,18
001K22,692,experiment,84,→,right,→,0.5251990999968257,True,18
001K22,693,experiment,72,↓,down,↓,1.2875851999997394,True,18
001K22,694,experiment,180,→,right,→,0.7591530999925453,True,18
001K22,695,experiment,108,↓,down,↓,1.5851752000016859,True,18
001K22,696,experiment,48,↓,down,↓,1.337582599997404,True,18
001K22,697,experiment,144,↑,up,↑,1.1791784999950323,True,18
001K22,698,experiment,156,→,right,→,1.2255016999988584,True,18
001K22,699,experiment,120,→,left,←,1.014079499989748,False,18
001K22,700,experiment,60,↓,down,↓,1.21431229999871,True,18
001K22,701,experiment,12,→,right,→,0.9112670000031358,True,18
001K22,702,experiment,96,→,left,←,1.1956493000034243,False,18
001K22,703,experiment,36,↓,left,←,1.3345618000021204,False,18
001K22,704,experiment,84,→,left,←,1.0313444000057643,False,18
001K22,705,experiment,108,↑,up,↑,0.8175728999922285,True,18
001K22,706,experiment,60,↑,up,↑,0.5881924999994226,True,18
001K22,707,experiment,24,↓,up,↑,1.1183125999959884,False,18
001K22,708,experiment,132,↓,down,↓,1.1213615000015125,True,18
001K22,709,experiment,156,→,right,→,1.059897800005274,True,18
001K22,710,experiment,36,↑,down,↓,1.2094195999961812,False,18
001K22,711,experiment,156,↑,up,↑,0.7173043999937363,True,18
001K22,712,experiment,72,←,left,←,0.8081088000035379,True,18
001K22,713,experiment,12,←,left,←,0.9838291999913054,True,18
001K22,714,experiment,168,↓,left,←,0.8086774999974295,False,18
001K22,715,experiment,108,→,right,→,0.7003091999940807,True,18
001K22,716,experiment,12,↓,right,→,1.3480126000067685,False,18
001K22,717,experiment,144,↓,down,↓,1.3204231999989133,True,18
001K22,718,experiment,144,←,left,←,0.7389169000089169,True,18
001K22,719,experiment,132,↑,up,↑,0.6304456000070786,True,18
001K22,720,experiment,168,→,left,←,0.942314300002181,False,18
001K22,721,experiment,36,→,left,←,0.8069496000098297,False,18
001K22,722,experiment,72,↑,up,↑,0.9474262000003364,True,18
001K22,723,experiment,96,↓,right,→,0.8687733999977354,False,18
001K22,724,training,144,↓,down,↓,1.702283599996008,True,18
001K22,725,training,36,↑,no_key,no_letter,-1.0,False,18
001K22,726,training,60,↑,up,↑,0.9285688999952981,True,18
001K22,727,experiment,156,↑,up,↑,1.2026045999955386,True,18
001K22,728,experiment,180,←,left,←,0.7402210000000196,True,18
001K22,729,experiment,180,←,left,←,0.7340506000036839,True,18
001K22,730,experiment,168,→,down,↓,1.4738743999914732,False,18
001K22,731,experiment,60,↓,down,↓,0.8823388000018895,True,18
001K22,732,experiment,168,↑,up,↑,0.6406197999895085,True,18
001K22,733,experiment,84,↑,left,←,1.1760734000126831,False,18
001K22,734,experiment,168,↑,up,↑,1.0413952999952016,True,18
001K22,735,experiment,144,↑,up,↑,0.6602623000071617,True,18
001K22,736,experiment,36,↓,left,←,1.4224355000042124,False,18
001K22,737,experiment,12,←,left,←,0.8087396999908378,True,18
001K22,738,experiment,120,↓,down,↓,0.9591147999890381,True,18
001K22,739,experiment,108,↑,up,↑,0.617798599996604,True,18
001K22,740,experiment,180,→,right,→,1.0228658999985782,True,18
001K22,741,experiment,132,↑,right,→,1.0301899000041885,False,18
001K22,742,experiment,60,↓,up,↑,0.9976535000023432,False,18
001K22,743,experiment,144,↑,up,↑,0.5905518000072334,True,18
001K22,744,experiment,24,↓,up,↑,0.9250521000067238,False,18
001K22,745,experiment,12,↓,no_key,no_letter,-1.0,False,18
001K22,746,experiment,156,→,right,→,0.778597800002899,True,18
001K22,747,experiment,24,→,no_key,no_letter,-1.0,False,18
001K22,748,experiment,120,↑,up,↑,1.0563011999911396,True,18
001K22,749,experiment,72,↑,up,↑,0.8109512999944855,True,18
001K22,750,experiment,60,↑,up,↑,0.9127956000011181,True,18
001K22,751,experiment,156,←,left,←,0.8020470000046771,True,18
001K22,752,experiment,84,↑,up,↑,1.0007474000012735,True,18
001K22,753,experiment,12,→,left,←,0.9848919000069145,False,18
001K22,754,experiment,120,↓,left,←,0.5853806999948574,False,18
001K22,755,experiment,168,↓,left,←,1.0396384000050602,False,18
001K22,756,experiment,24,←,left,←,0.7123066999920411,True,18
001K22,757,experiment,36,↑,up,↑,0.5907487000076799,True,18
001K22,758,experiment,96,←,up,↑,0.7128946000011638,False,18
001K22,759,experiment,60,↑,up,↑,0.5198203999898396,True,18
001K22,760,experiment,96,→,left,←,0.8218974999908824,False,18
001K22,761,experiment,48,↑,up,↑,0.6033233999914955,True,18
001K22,762,experiment,96,↑,left,←,0.7409009999973932,False,18
001K22,763,experiment,144,→,up,↑,0.5571562999975868,False,18
001K22,764,experiment,108,↓,left,←,0.8397330000007059,False,18
001K22,765,experiment,48,↑,down,↓,1.3342701000074157,False,18
001K22,766,experiment,84,↓,left,←,0.9153730999969412,False,18
001K22,767,experiment,84,→,left,←,0.8755253999988781,False,18
001K22,768,experiment,108,↑,left,←,1.0144695999915712,False,18
001K22,769,experiment,24,←,left,←,0.7931360999937169,True,18
001K22,770,experiment,144,↑,no_key,no_letter,-1.0,False,18
001K22,771,experiment,48,↑,up,↑,0.9800165000051493,True,18
001K22,772,experiment,48,↓,down,↓,1.134695600005216,True,18
001K22,773,experiment,132,↑,down,↓,1.4724941000022227,False,18
001K22,774,experiment,96,↓,down,↓,0.9532707999896957,True,18
001K22,775,experiment,120,→,right,→,1.1110013999859802,True,18
001K22,776,experiment,72,↑,up,↑,0.6613797000027262,True,18
001K22,777,experiment,72,↓,down,↓,0.7646530999918468,True,18
001K22,778,experiment,36,←,right,→,0.9118117000034545,False,18
001K22,779,experiment,156,↓,down,↓,0.9512252999993507,True,18
001K22,780,experiment,12,←,left,←,0.9263384000078076,True,18
001K22,781,experiment,108,↓,left,←,0.9226131999894278,False,18
001K22,782,experiment,72,↑,left,←,1.197444599994924,False,18
001K22,783,experiment,132,→,right,→,0.8096201000007568,True,18
001K22,784,experiment,180,↑,up,↑,0.9450804000080097,True,18
001K22,785,experiment,132,→,right,→,1.0082523000019137,True,18
001K22,786,experiment,36,↓,down,↓,1.0606087999913143,True,18
001K22,787,training,180,→,left,←,0.8805358999961754,False,18
001K22,788,training,144,↓,left,←,0.9403082999924663,False,18
001K22,789,training,168,←,right,→,1.1358498000045074,False,18
001K22,790,experiment,156,←,left,←,0.8029897000087658,True,18
001K22,791,experiment,60,↑,up,↑,0.78480419999687,True,18
001K22,792,experiment,132,←,left,←,1.5035535000060918,True,18
001K22,793,experiment,96,↓,left,←,0.9950864999991609,False,18
001K22,794,experiment,24,↑,up,↑,0.961189599998761,True,18
001K22,795,experiment,144,↑,up,↑,0.9543745999981184,True,18
001K22,796,experiment,132,→,left,←,0.7233726999984356,False,18
001K22,797,experiment,120,→,left,←,1.2080377000092994,False,18
001K22,798,experiment,108,←,left,←,0.7352028999885079,True,18
001K22,799,experiment,180,↑,right,→,1.0899132000049576,False,18
001K22,800,experiment,48,←,left,←,0.7386401999974623,True,18
001K22,801,experiment,12,↓,left,←,1.1513954999973066,False,18
001K22,802,experiment,120,←,left,←,0.6685697999928379,True,18
001K22,803,experiment,24,→,right,→,0.6848602999962168,True,18
001K22,804,experiment,84,↓,left,←,0.4980860999930883,False,18
001K22,805,experiment,108,↑,up,↑,0.887819200012018,True,18
001K22,806,experiment,180,←,right,→,1.3048386000009486,False,18
001K22,807,experiment,120,↓,up,↑,1.0660330999962753,False,18
001K22,808,experiment,12,→,right,→,0.7250217999971937,True,18
001K22,809,experiment,36,↓,down,↓,0.8987311999953818,True,18
001K22,810,experiment,144,←,left,←,0.7392306999972789,True,18
001K22,811,experiment,24,→,right,→,0.9352690999949118,True,18
001K22,812,experiment,84,↓,down,↓,0.8941253000084544,True,18
001K22,813,experiment,48,←,right,→,1.0362001000030432,False,18
001K22,814,experiment,60,←,left,←,0.7570847000024514,True,18
001K22,815,experiment,180,→,right,→,0.8441984999954002,True,18
001K22,816,experiment,156,↑,right,→,0.8201451999921119,False,18
001K22,817,experiment,12,←,right,→,0.8522741999913706,False,18
001K22,818,experiment,132,↓,no_key,no_letter,-1.0,False,18
001K22,819,experiment,180,↓,down,↓,0.8544917999970494,True,18
001K22,820,experiment,168,→,right,→,0.8242981999937911,True,18
001K22,821,experiment,48,↑,right,→,0.9481739999901038,False,18
001K22,822,experiment,72,←,left,←,0.7445459000009578,True,18
001K22,823,experiment,60,→,right,→,0.6496156999928644,True,18
001K22,824,experiment,36,↑,up,↑,0.6856893000076525,True,18
001K22,825,experiment,72,←,left,←,0.7066025999956764,True,18
001K22,826,experiment,72,↓,left,←,1.0715904000098817,False,18
001K22,827,experiment,84,←,left,←,0.6114038000087021,True,18
001K22,828,experiment,36,←,left,←,0.9322373000031803,True,18
001K22,829,experiment,96,←,left,←,0.584527099999832,True,18
001K22,830,experiment,168,↑,up,↑,0.8450142000074266,True,18
001K22,831,experiment,108,←,up,↑,0.8619701999996323,False,18
001K22,832,experiment,84,↑,up,↑,0.8648202000040328,True,18
001K22,833,experiment,12,→,up,↑,1.1418547999928705,False,18
001K22,834,experiment,60,↓,up,↑,1.0217009000043618,False,18
001K22,835,experiment,144,←,left,←,0.8708448999968823,True,18
001K22,836,experiment,96,→,right,→,0.6629596999991918,True,18
001K22,837,experiment,144,↓,down,↓,0.9938215000001946,True,18
001K22,838,experiment,168,→,right,→,1.0951748999941628,True,18
001K22,839,experiment,96,↓,down,↓,0.9863098999921931,True,18
001K22,840,experiment,72,←,down,↓,1.2804058000037912,False,18
001K22,841,experiment,156,↑,up,↑,0.9350149000092642,True,18
001K22,842,experiment,24,←,left,←,1.315198500000406,True,18
001K22,843,experiment,120,→,left,←,0.6358502999937627,False,18
001K22,844,experiment,132,→,right,→,1.0550619999994524,True,18
001K22,845,experiment,168,↓,up,↑,0.9342593999899691,False,18
001K22,846,experiment,108,↓,down,↓,0.8195313000032911,True,18
001K22,847,experiment,36,←,right,→,0.9163980000012089,False,18
001K22,848,experiment,48,↑,right,→,1.146245199997793,False,18
001K22,849,experiment,156,↓,right,→,1.0260785999998916,False,18
