PART_ID,Trial_no,Trial_type,PDI,Stim_letter,Key_pressed,letter_choose,Rt,Corr,Stimulus Time
10K21,1,training,10,→,right,→,0.36732999997911975,True,30
10K21,2,training,10,←,right,→,0.533843600016553,False,30
10K21,3,training,10,←,right,→,0.48386229999596253,False,30
10K21,4,training,10,↓,down,↓,0.7382131000049412,True,30
10K21,5,training,10,↑,down,↓,0.5505821999977343,False,30
10K21,6,training,10,↓,down,↓,0.8208651000168175,True,30
10K21,7,training,10,↑,down,↓,0.6172260000021197,False,30
10K21,8,training,10,←,right,→,0.5004151000175625,False,30
10K21,9,training,10,↓,down,↓,0.5673603999894112,True,30
10K21,10,training,10,↑,up,↑,0.5503400999587029,True,30
10K21,11,training,10,↑,up,↑,0.6730124999885447,True,30
10K21,12,training,10,↓,down,↓,0.6706071000080556,True,30
10K21,13,training,10,↓,down,↓,0.4839773999992758,True,30
10K21,14,training,10,→,right,→,0.4171373000135645,True,30
10K21,15,training,10,↓,down,↓,0.9091385999927297,True,30
10K21,16,training,10,↑,up,↑,0.9059684999519959,True,30
10K21,17,training,10,↑,up,↑,0.8764177999692038,True,30
10K21,18,training,10,→,right,→,0.48388660000637174,True,30
10K21,19,training,10,→,right,→,0.5671373000368476,True,30
10K21,20,training,10,←,left,←,0.5503856000141241,True,30
10K21,21,training,10,←,right,→,0.4960733000189066,False,18
10K21,22,training,10,→,up,↑,0.9282248999807052,False,18
10K21,23,training,10,↓,down,↓,0.5409749000100419,True,18
10K21,24,training,10,↓,down,↓,0.6354080999735743,True,18
10K21,25,training,10,←,left,←,0.6121262000524439,True,18
10K21,26,training,10,↑,up,↑,0.7556173999910243,True,18
10K21,27,training,10,→,right,→,0.6060765000293031,True,18
10K21,28,training,10,←,left,←,0.43362869997508824,True,18
10K21,29,training,10,↑,up,↑,0.6081720999791287,True,18
10K21,30,training,10,↑,no_key,no_letter,-1.0,False,18
10K21,31,training,60,↑,up,↑,0.5581622999743558,True,15
10K21,32,training,72,↓,right,→,0.875365799991414,False,15
10K21,33,training,168,←,left,←,0.8107524000224657,True,15
10K21,34,experiment,48,↑,up,↑,0.7843124000355601,True,15
10K21,35,experiment,108,↓,down,↓,0.587855399993714,True,15
10K21,36,experiment,180,↑,up,↑,0.9505344000062905,True,15
10K21,37,experiment,168,←,left,←,0.43628460000036284,True,15
10K21,38,experiment,84,↓,down,↓,0.6578187000122853,True,15
10K21,39,experiment,96,↑,up,↑,0.4581313999951817,True,15
10K21,40,experiment,144,←,left,←,0.4958450999693014,True,15
10K21,41,experiment,156,→,right,→,0.635331799974665,True,15
10K21,42,experiment,72,↑,up,↑,0.5762332000304013,True,15
10K21,43,experiment,72,↓,down,↓,0.9614961000042967,True,15
10K21,44,experiment,180,→,right,→,0.49466050002956763,True,15
10K21,45,experiment,36,→,down,↓,0.823531899950467,False,15
10K21,46,experiment,168,←,up,↑,0.7172350999899209,False,15
10K21,47,experiment,108,↑,right,→,0.6395837999880314,False,15
10K21,48,experiment,12,←,left,←,0.5839116000570357,True,15
10K21,49,experiment,144,↓,down,↓,0.6247148999827914,True,15
10K21,50,experiment,48,↑,up,↑,0.6415890000062063,True,15
10K21,51,experiment,72,→,right,→,0.5670877000084147,True,15
10K21,52,experiment,132,↑,down,↓,0.6419034999562427,False,15
10K21,53,experiment,132,↓,down,↓,0.5776269999914803,True,15
10K21,54,experiment,24,↓,left,←,0.7163588000112213,False,15
10K21,55,experiment,12,←,no_key,no_letter,-1.0,False,15
10K21,56,experiment,72,↓,right,→,0.36731169995618984,False,15
10K21,57,experiment,84,→,left,←,0.444795899966266,False,15
10K21,58,experiment,156,←,left,←,0.44205750001128763,True,15
10K21,59,experiment,120,←,left,←,0.5167646000045352,True,15
10K21,60,experiment,120,↑,down,↓,0.5006215000175871,False,15
10K21,61,experiment,24,↑,up,↑,0.5678088000277057,True,15
10K21,62,experiment,96,←,right,→,0.6615720999543555,False,15
10K21,63,experiment,12,↑,up,↑,0.5489538999972865,True,15
10K21,64,experiment,156,←,right,→,0.4346536000375636,False,15
10K21,65,experiment,108,↓,down,↓,0.7050292999483645,True,15
10K21,66,experiment,108,↓,down,↓,0.5736478999606334,True,15
10K21,67,experiment,24,↑,up,↑,0.5941417999565601,True,15
10K21,68,experiment,12,←,left,←,0.583550599985756,True,15
10K21,69,experiment,36,→,right,→,0.506627099995967,True,15
10K21,70,experiment,168,←,right,→,0.5312446000170894,False,15
10K21,71,experiment,120,↑,up,↑,0.5589302000007592,True,15
10K21,72,experiment,132,↑,up,↑,0.7962413000059314,True,15
10K21,73,experiment,156,↓,right,→,0.7256674999953248,False,15
10K21,74,experiment,84,↓,left,←,0.7333018000354059,False,15
10K21,75,experiment,60,→,left,←,0.6133299000211991,False,15
10K21,76,experiment,24,←,up,↑,0.804416700033471,False,15
10K21,77,experiment,60,↓,up,↑,0.628267300024163,False,15
10K21,78,experiment,180,←,up,↑,0.8615311999456026,False,15
10K21,79,experiment,180,↑,up,↑,0.7125484999851324,True,15
10K21,80,experiment,60,↓,left,←,0.7293675999972038,False,15
10K21,81,experiment,144,↑,up,↑,0.6601610999787226,True,15
10K21,82,experiment,144,↓,down,↓,0.5875031999894418,True,15
10K21,83,experiment,120,←,right,→,0.8558159000240266,False,15
10K21,84,experiment,48,→,right,→,0.4878731000353582,True,15
10K21,85,experiment,132,←,left,←,0.6800730999675579,True,15
10K21,86,experiment,36,↓,left,←,0.8970627000089735,False,15
10K21,87,experiment,84,→,left,←,0.7471683999756351,False,15
10K21,88,experiment,36,↓,down,↓,0.6141962999827228,True,15
10K21,89,experiment,168,←,left,←,0.6266114999889396,True,15
10K21,90,experiment,96,↑,up,↑,0.6448988000047393,True,15
10K21,91,experiment,96,↓,down,↓,0.6778845000080764,True,15
10K21,92,experiment,48,←,left,←,0.41856590000679716,True,15
10K21,93,experiment,60,→,right,→,0.8031224000151269,True,15
10K21,94,training,48,→,left,←,0.4869759999564849,False,15
10K21,95,training,120,↑,up,↑,0.5530350999906659,True,15
10K21,96,training,48,↓,down,↓,0.6129934000200592,True,15
10K21,97,experiment,36,→,right,→,0.5693059000186622,True,15
10K21,98,experiment,72,→,left,←,0.5490174000151455,False,15
10K21,99,experiment,48,←,left,←,0.5181673999759369,True,15
10K21,100,experiment,156,←,left,←,0.6520451999967918,True,15
10K21,101,experiment,144,↓,up,↑,0.7762457999633625,False,15
10K21,102,experiment,168,→,right,→,0.7085239000152797,True,15
10K21,103,experiment,60,↑,left,←,0.7477213000529446,False,15
10K21,104,experiment,108,←,left,←,0.6524949000449851,True,15
10K21,105,experiment,96,↑,up,↑,0.7044838999863714,True,15
10K21,106,experiment,12,←,left,←,0.5357895999914035,True,15
10K21,107,experiment,84,↑,left,←,0.5896421000361443,False,15
10K21,108,experiment,132,↑,left,←,0.6775946999550797,False,15
10K21,109,experiment,24,→,right,→,0.5914919999777339,True,15
10K21,110,experiment,132,←,left,←,0.43858669995097443,True,15
10K21,111,experiment,84,↑,up,↑,0.46874109999043867,True,15
10K21,112,experiment,12,↓,down,↓,0.9576763000222854,True,15
10K21,113,experiment,24,←,left,←,0.699119700002484,True,15
10K21,114,experiment,72,←,left,←,0.8460469999699853,True,15
10K21,115,experiment,156,←,left,←,0.4893417000421323,True,15
10K21,116,experiment,72,↓,down,↓,0.9174360000179149,True,15
10K21,117,experiment,120,↑,right,→,0.9232254000380635,False,15
10K21,118,experiment,60,←,left,←,0.6101952999597415,True,15
10K21,119,experiment,108,↑,right,→,0.6503140000277199,False,15
10K21,120,experiment,120,↑,up,↑,0.7576718999771401,True,15
10K21,121,experiment,12,→,right,→,0.5421587000018917,True,15
10K21,122,experiment,48,↑,up,↑,0.5128294000169262,True,15
10K21,123,experiment,156,←,up,↑,0.7337460000417195,False,15
10K21,124,experiment,96,↑,left,←,0.4674601999577135,False,15
10K21,125,experiment,36,↑,up,↑,0.6645799000398256,True,15
10K21,126,experiment,156,→,right,→,0.4473077000002377,True,15
10K21,127,experiment,144,↓,left,←,0.4772715999861248,False,15
10K21,128,experiment,144,↓,down,↓,0.5763990000123158,True,15
10K21,129,experiment,180,↑,up,↑,0.5329040000215173,True,15
10K21,130,experiment,72,←,left,←,0.5814211000106297,True,15
10K21,131,experiment,120,↓,down,↓,0.6286858000094071,True,15
10K21,132,experiment,180,↑,up,↑,0.5426572999567725,True,15
10K21,133,experiment,36,↑,right,→,0.6306094999890774,False,15
10K21,134,experiment,168,→,left,←,0.6632343999808654,False,15
10K21,135,experiment,84,↑,up,↑,0.5483162000309676,True,15
10K21,136,experiment,108,→,right,→,0.5440597999840975,True,15
10K21,137,experiment,24,→,right,→,0.5874277999973856,True,15
10K21,138,experiment,96,↑,up,↑,0.525614799989853,True,15
10K21,139,experiment,180,↓,left,←,0.9538309999625199,False,15
10K21,140,experiment,60,↓,up,↑,0.5045634999987669,False,15
10K21,141,experiment,132,↓,down,↓,0.6947346000233665,True,15
10K21,142,experiment,108,↑,down,↓,0.8149733999744058,False,15
10K21,143,experiment,48,↓,down,↓,0.7347234000335447,True,15
10K21,144,experiment,24,←,left,←,0.5060288999811746,True,15
10K21,145,experiment,84,↑,up,↑,0.7566331999842077,True,15
10K21,146,experiment,48,←,right,→,0.961890599981416,False,15
10K21,147,experiment,132,↓,down,↓,0.7551187000353821,True,15
10K21,148,experiment,60,↑,up,↑,0.8086732999654487,True,15
10K21,149,experiment,168,→,left,←,0.7847535999608226,False,15
10K21,150,experiment,96,↓,down,↓,0.5831496000173502,True,15
10K21,151,experiment,180,→,right,→,0.6317273000022396,True,15
10K21,152,experiment,12,←,left,←,0.5824703999678604,True,15
10K21,153,experiment,120,↑,up,↑,0.7094856000039726,True,15
10K21,154,experiment,168,←,left,←,0.5463602999807335,True,15
10K21,155,experiment,36,→,right,→,0.5316715000080876,True,15
10K21,156,experiment,144,→,left,←,0.7827708999975584,False,15
10K21,157,training,12,→,right,→,0.5493106000358239,True,15
10K21,158,training,108,→,left,←,0.8233160999952815,False,15
10K21,159,training,120,→,left,←,0.5836947000352666,False,15
10K21,160,experiment,144,←,right,→,0.8137054000399075,False,15
10K21,161,experiment,96,→,down,↓,0.7377061999868602,False,15
10K21,162,experiment,156,↓,down,↓,0.5425609000376426,True,15
10K21,163,experiment,144,←,left,←,0.5543581999954768,True,15
10K21,164,experiment,48,←,left,←,0.6933008999913,True,15
10K21,165,experiment,24,→,left,←,0.567651699995622,False,15
10K21,166,experiment,60,→,left,←,0.46891659998800606,False,15
10K21,167,experiment,60,←,left,←,0.6220419000019319,True,15
10K21,168,experiment,48,→,left,←,0.6156023999792524,False,15
10K21,169,experiment,120,←,right,→,0.5487154999864288,False,15
10K21,170,experiment,168,→,right,→,0.4575996000203304,True,15
10K21,171,experiment,84,↓,down,↓,0.8473419999936596,True,15
10K21,172,experiment,108,↑,up,↑,0.6316484000417404,True,15
10K21,173,experiment,132,←,right,→,0.572664099978283,False,15
10K21,174,experiment,132,↓,left,←,0.5809533999999985,False,15
10K21,175,experiment,168,←,left,←,0.5509820000152104,True,15
10K21,176,experiment,12,←,left,←,0.6385924000060186,True,15
10K21,177,experiment,180,←,right,→,0.6391202000086196,False,15
10K21,178,experiment,72,←,left,←,0.5546974000171758,True,15
10K21,179,experiment,180,↓,right,→,0.5406775000155903,False,15
10K21,180,experiment,120,↓,up,↑,0.6095133000053465,False,15
10K21,181,experiment,72,←,down,↓,0.48721589997876436,False,15
10K21,182,experiment,180,↓,left,←,0.4848366000223905,False,15
10K21,183,experiment,48,↑,right,→,0.5751321999705397,False,15
10K21,184,experiment,12,←,left,←,0.8204075000248849,True,15
10K21,185,experiment,144,→,left,←,0.4383354000165127,False,15
10K21,186,experiment,96,↑,down,↓,0.625181799987331,False,15
10K21,187,experiment,156,←,left,←,0.4789255000068806,True,15
10K21,188,experiment,84,↑,up,↑,0.6831589000066742,True,15
10K21,189,experiment,36,↑,up,↑,0.5660531000467017,True,15
10K21,190,experiment,12,←,left,←,0.5258106999681331,True,15
10K21,191,experiment,36,↓,left,←,0.6282958000083454,False,15
10K21,192,experiment,132,↓,right,→,0.5387478999909945,False,15
10K21,193,experiment,180,↓,down,↓,0.504848399956245,True,15
10K21,194,experiment,132,↓,down,↓,0.6205158000229858,True,15
10K21,195,experiment,168,→,left,←,1.8822934000054374,False,15
10K21,196,experiment,36,↑,up,↑,0.6157062000129372,True,15
10K21,197,experiment,24,→,right,→,0.7031319999950938,True,15
10K21,198,experiment,12,↑,up,↑,0.560410900041461,True,15
10K21,199,experiment,108,↑,up,↑,0.9817708000191487,True,15
10K21,200,experiment,120,←,right,→,0.45205590000841767,False,15
10K21,201,experiment,24,↓,up,↑,1.1180325000314042,False,15
10K21,202,experiment,96,↓,down,↓,0.5890702999895439,True,15
10K21,203,experiment,156,→,right,→,0.6240010000183247,True,15
10K21,204,experiment,36,→,left,←,0.6664834000403062,False,15
10K21,205,experiment,60,→,up,↑,0.7017903999658301,False,15
10K21,206,experiment,72,↓,left,←,0.661810300021898,False,15
10K21,207,experiment,96,←,left,←,0.5000003000022843,True,15
10K21,208,experiment,108,↓,down,↓,0.6282815000158735,True,15
10K21,209,experiment,72,↓,down,↓,0.6349044000380673,True,15
10K21,210,experiment,60,←,right,→,0.5158581999712624,False,15
10K21,211,experiment,48,→,left,←,0.5458976999507286,False,15
10K21,212,experiment,144,→,right,→,0.4866833999985829,True,15
10K21,213,experiment,84,←,left,←,0.5042219000170007,True,15
10K21,214,experiment,84,←,right,→,0.48658379999687895,False,15
10K21,215,experiment,120,→,right,→,0.46161370002664626,True,15
10K21,216,experiment,168,←,left,←,0.38386000000173226,True,15
10K21,217,experiment,108,→,right,→,0.47155120002571493,True,15
10K21,218,experiment,24,→,right,→,0.47141739999642596,True,15
10K21,219,experiment,156,←,left,←,0.5961519000120461,True,15
10K21,220,training,120,←,right,→,0.4881212000036612,False,16
10K21,221,training,144,←,left,←,0.45937150000827387,True,16
10K21,222,training,36,↓,down,↓,0.6129097999655642,True,16
10K21,223,experiment,108,↑,right,→,1.384673499967903,False,16
10K21,224,experiment,84,↑,up,↑,0.5219449999858625,True,16
10K21,225,experiment,72,↓,down,↓,0.5094276999589056,True,16
10K21,226,experiment,132,↑,up,↑,0.7137646999908611,True,16
10K21,227,experiment,108,→,right,→,0.44471729994984344,True,16
10K21,228,experiment,156,↑,up,↑,0.6622480000369251,True,16
10K21,229,experiment,84,←,left,←,0.5806252000038512,True,16
10K21,230,experiment,48,↑,up,↑,0.8492741999798454,True,16
10K21,231,experiment,144,↑,left,←,0.6229220000095665,False,16
10K21,232,experiment,84,↓,down,↓,0.9942643000395037,True,16
10K21,233,experiment,24,←,right,→,1.0406634000246413,False,16
10K21,234,experiment,60,↓,down,↓,0.6650038000079803,True,16
10K21,235,experiment,120,↑,up,↑,0.9098740000044927,True,16
10K21,236,experiment,48,←,up,↑,0.7023297999985516,False,16
10K21,237,experiment,60,←,left,←,0.7243203000398353,True,16
10K21,238,experiment,72,↓,down,↓,0.7326863000052981,True,16
10K21,239,experiment,168,←,right,→,0.7540333999786526,False,16
10K21,240,experiment,156,→,right,→,0.5025962000363506,True,16
10K21,241,experiment,144,↓,down,↓,0.6807355000055395,True,16
10K21,242,experiment,180,↓,down,↓,0.7840430999640375,True,16
10K21,243,experiment,120,←,left,←,1.4767024000175297,True,16
10K21,244,experiment,132,→,right,→,0.5354023000109009,True,16
10K21,245,experiment,96,←,right,→,0.5391263000201434,False,16
10K21,246,experiment,108,↑,up,↑,0.9286314999917522,True,16
10K21,247,experiment,12,↓,down,↓,0.6343660000129603,True,16
10K21,248,experiment,84,↑,up,↑,0.57154899998568,True,16
10K21,249,experiment,72,↓,down,↓,0.6490670000202954,True,16
10K21,250,experiment,120,↓,down,↓,0.6349143999977969,True,16
10K21,251,experiment,24,↑,up,↑,0.6314723999821581,True,16
10K21,252,experiment,180,↓,down,↓,0.7414650000282563,True,16
10K21,253,experiment,180,↓,down,↓,0.6052732999669388,True,16
10K21,254,experiment,132,←,right,→,0.5029997000237927,False,16
10K21,255,experiment,24,↓,down,↓,0.5791964000090957,True,16
10K21,256,experiment,168,↑,right,→,0.7098458000109531,False,16
10K21,257,experiment,156,↑,up,↑,0.6870955000049435,True,16
10K21,258,experiment,24,↑,down,↓,0.8059384999796748,False,16
10K21,259,experiment,48,↑,up,↑,0.7384889000095427,True,16
10K21,260,experiment,144,←,left,←,0.4954726999858394,True,16
10K21,261,experiment,96,←,right,→,0.7059814000385813,False,16
10K21,262,experiment,36,↓,up,↑,0.6225364999845624,False,16
10K21,263,experiment,156,←,right,→,0.5967892999760807,False,16
10K21,264,experiment,36,←,left,←,0.5028518000035547,True,16
10K21,265,experiment,12,→,left,←,0.8002294999896549,False,16
10K21,266,experiment,168,↑,up,↑,0.5149507999885827,True,16
10K21,267,experiment,60,←,left,←,0.5269528000499122,True,16
10K21,268,experiment,48,↓,right,→,0.5592939999769442,False,16
10K21,269,experiment,108,↓,left,←,0.4003229000372812,False,16
10K21,270,experiment,180,↓,down,↓,0.7623928000102751,True,16
10K21,271,experiment,72,↓,down,↓,0.6192822000011802,True,16
10K21,272,experiment,96,←,right,→,0.4505438000196591,False,16
10K21,273,experiment,96,←,right,→,0.47273930005030707,False,16
10K21,274,experiment,60,←,right,→,0.5202082999749109,False,16
10K21,275,experiment,36,↑,left,←,0.5897189999814145,False,16
10K21,276,experiment,168,→,right,→,0.5230200000223704,True,16
10K21,277,experiment,120,↑,up,↑,0.7456793999881484,True,16
10K21,278,experiment,12,↑,up,↑,0.5017306000227109,True,16
10K21,279,experiment,36,↓,right,→,0.4950807000277564,False,16
10K21,280,experiment,12,↑,up,↑,0.5168600999750197,True,16
10K21,281,experiment,132,↓,down,↓,0.6754315000143833,True,16
10K21,282,experiment,144,↓,down,↓,0.540722600009758,True,16
10K21,283,training,84,↓,down,↓,0.5150547999655828,True,16
10K21,284,training,120,↑,up,↑,0.4419162000413053,True,16
10K21,285,training,144,→,right,→,0.581693299987819,True,16
10K21,286,experiment,108,→,right,→,0.534207199991215,True,16
10K21,287,experiment,156,→,right,→,0.4960444000316784,True,16
10K21,288,experiment,84,←,left,←,0.5718606000300497,True,16
10K21,289,experiment,144,←,left,←,0.6681540999561548,True,16
10K21,290,experiment,12,↓,down,↓,0.6331189000047743,True,16
10K21,291,experiment,180,←,right,→,0.7177060999674723,False,16
10K21,292,experiment,108,↑,up,↑,0.8116826000041328,True,16
10K21,293,experiment,156,↑,up,↑,0.49023259995738044,True,16
10K21,294,experiment,144,→,left,←,0.5236326000303961,False,16
10K21,295,experiment,168,↑,right,→,0.7912512000184506,False,16
10K21,296,experiment,168,→,right,→,0.6594680999987759,True,16
10K21,297,experiment,144,→,left,←,0.5452642000163905,False,16
10K21,298,experiment,168,→,right,→,0.4004890999640338,True,16
10K21,299,experiment,72,←,left,←,0.4821982000139542,True,16
10K21,300,experiment,72,↓,down,↓,0.701199600007385,True,16
10K21,301,experiment,144,←,left,←,0.66459230001783,True,16
10K21,302,experiment,84,↓,down,↓,0.6747507999534719,True,16
10K21,303,experiment,60,↑,left,←,0.8299768000142649,False,16
10K21,304,experiment,12,↓,left,←,0.7695104000158608,False,16
10K21,305,experiment,24,↑,up,↑,0.7150055000092834,True,16
10K21,306,experiment,96,→,left,←,0.7146673999959603,False,16
10K21,307,experiment,156,↑,up,↑,0.7175199000048451,True,16
10K21,308,experiment,36,↓,down,↓,0.5904691999894567,True,16
10K21,309,experiment,60,→,right,→,0.6444615999935195,True,16
10K21,310,experiment,48,→,up,↑,0.7126306999707595,False,16
10K21,311,experiment,12,↑,down,↓,1.2244582999846898,False,16
10K21,312,experiment,108,↓,left,←,0.5876141000189818,False,16
10K21,313,experiment,96,↑,up,↑,0.5444206999964081,True,16
10K21,314,experiment,36,→,left,←,0.6125356000266038,False,16
10K21,315,experiment,96,↓,right,→,0.6221606000326574,False,16
10K21,316,experiment,120,→,right,→,0.6585665000020526,True,16
10K21,317,experiment,24,↑,up,↑,0.6853062000009231,True,16
10K21,318,experiment,72,←,left,←,0.7011104000266641,True,16
10K21,319,experiment,36,→,left,←,0.7832024999661371,False,16
10K21,320,experiment,132,↑,up,↑,0.5638306000037119,True,16
10K21,321,experiment,36,↓,down,↓,0.7498335000127554,True,16
10K21,322,experiment,72,→,right,→,0.460369799984619,True,16
10K21,323,experiment,108,→,right,→,0.46425259998068213,True,16
10K21,324,experiment,48,←,left,←,0.6135928999865428,True,16
10K21,325,experiment,48,↑,down,↓,0.5679830000153743,False,16
10K21,326,experiment,120,↓,down,↓,0.7253238999983296,True,16
10K21,327,experiment,120,→,right,→,0.46384159999433905,True,16
10K21,328,experiment,132,↑,up,↑,0.5543259999831207,True,16
10K21,329,experiment,180,↓,up,↑,0.676393800007645,False,16
10K21,330,experiment,24,↓,left,←,0.6359116999665275,False,16
10K21,331,experiment,60,↓,up,↑,0.7331579000456259,False,16
10K21,332,experiment,132,←,left,←,0.4953739999909885,True,16
10K21,333,experiment,120,↑,up,↑,0.7465117000392638,True,16
10K21,334,experiment,48,←,left,←,0.5012480999575928,True,16
10K21,335,experiment,180,↓,down,↓,0.6996938000083901,True,16
10K21,336,experiment,180,←,left,←,0.5095603999798186,True,16
10K21,337,experiment,60,←,left,←,0.8428524000337347,True,16
10K21,338,experiment,24,←,left,←,0.7443154000211507,True,16
10K21,339,experiment,12,←,left,←,0.5389592999708839,True,16
10K21,340,experiment,96,↓,down,↓,0.6968010000418872,True,16
10K21,341,experiment,168,↓,up,↑,1.1220194000052288,False,16
10K21,342,experiment,156,↑,up,↑,0.568430699990131,True,16
10K21,343,experiment,132,↓,down,↓,0.6162835999857634,True,16
10K21,344,experiment,84,←,left,←,0.7601257999776863,True,16
10K21,345,experiment,84,→,right,→,0.8752962000435218,True,16
10K21,346,training,108,↑,up,↑,0.6467084999894723,True,16
10K21,347,training,48,←,right,→,0.6333378999843262,False,16
10K21,348,training,168,↑,up,↑,0.7172174999723211,True,16
10K21,349,experiment,144,↑,up,↑,0.7624147000024095,True,16
10K21,350,experiment,168,↓,down,↓,0.9107081999536604,True,16
10K21,351,experiment,60,↓,down,↓,0.5161850999575108,True,16
10K21,352,experiment,96,←,left,←,0.6477373999659903,True,16
10K21,353,experiment,24,↓,down,↓,0.5418187999748625,True,16
10K21,354,experiment,72,↓,down,↓,0.5366256000124849,True,16
10K21,355,experiment,12,↓,down,↓,0.5369394000153989,True,16
10K21,356,experiment,144,↓,down,↓,0.5546450999681838,True,16
10K21,357,experiment,36,↑,down,↓,0.7024491999763995,False,16
10K21,358,experiment,48,→,left,←,0.6317590999533422,False,16
10K21,359,experiment,168,↑,up,↑,1.0786767000099644,True,16
10K21,360,experiment,120,↑,up,↑,0.8133446999709122,True,16
10K21,361,experiment,24,↑,down,↓,0.77147530001821,False,16
10K21,362,experiment,48,→,right,→,0.6092718999716453,True,16
10K21,363,experiment,48,←,left,←,0.4820468999678269,True,16
10K21,364,experiment,60,←,left,←,0.5017944000428542,True,16
10K21,365,experiment,12,→,right,→,0.6341142000164837,True,16
10K21,366,experiment,156,↓,down,↓,0.6654377999948338,True,16
10K21,367,experiment,132,↓,down,↓,0.4730590999824926,True,16
10K21,368,experiment,60,→,right,→,0.5850875999894924,True,16
10K21,369,experiment,96,→,left,←,0.7070446999859996,False,16
10K21,370,experiment,120,→,right,→,0.5433537000208162,True,16
10K21,371,experiment,132,↓,right,→,0.40059620002284646,False,16
10K21,372,experiment,180,↑,right,→,0.699260100023821,False,16
10K21,373,experiment,108,↑,down,↓,0.6448237999575213,False,16
10K21,374,experiment,180,↓,left,←,0.4806580999866128,False,16
10K21,375,experiment,180,→,left,←,0.5968555000144988,False,16
10K21,376,experiment,132,↓,down,↓,0.49449760001152754,True,16
10K21,377,experiment,84,→,right,→,0.4835214000195265,True,16
10K21,378,experiment,180,←,left,←,0.49778779997723177,True,16
10K21,379,experiment,12,↓,down,↓,0.6579550000024028,True,16
10K21,380,experiment,72,↓,down,↓,0.6724961999570951,True,16
10K21,381,experiment,168,→,right,→,0.4919660000014119,True,16
10K21,382,experiment,144,↓,left,←,0.7266002999967895,False,16
10K21,383,experiment,60,↑,up,↑,0.7133185000275262,True,16
10K21,384,experiment,108,↓,down,↓,0.5414055999717675,True,16
10K21,385,experiment,132,↓,down,↓,0.868267499958165,True,16
10K21,386,experiment,72,→,right,→,0.6019975999952294,True,16
10K21,387,experiment,156,→,left,←,0.5678157000220381,False,16
10K21,388,experiment,96,→,right,→,0.5305376999895088,True,16
10K21,389,experiment,48,←,right,→,0.7142341999569908,False,16
10K21,390,experiment,84,↑,up,↑,0.8209804000216536,True,16
10K21,391,experiment,72,↓,down,↓,0.6395226000458933,True,16
10K21,392,experiment,156,←,right,→,0.614609099982772,False,16
10K21,393,experiment,84,←,up,↑,0.7672810999793,False,16
10K21,394,experiment,24,↓,up,↑,0.6061988999717869,False,16
10K21,395,experiment,84,→,right,→,0.8223683999967761,True,16
10K21,396,experiment,144,↑,up,↑,0.5969913000008091,True,16
10K21,397,experiment,24,↑,up,↑,0.6622748000081629,True,16
10K21,398,experiment,120,←,right,→,0.5917763000470586,False,16
10K21,399,experiment,36,←,right,→,0.481757799978368,False,16
10K21,400,experiment,12,↑,up,↑,0.5905648000189103,True,16
10K21,401,experiment,168,↑,up,↑,0.6337843000073917,True,16
10K21,402,experiment,156,→,left,←,0.5938899000175297,False,16
10K21,403,experiment,96,↓,up,↑,0.8934915999998339,False,16
10K21,404,experiment,120,↓,down,↓,0.6520929000107571,True,16
10K21,405,experiment,36,←,right,→,0.9096474999678321,False,16
10K21,406,experiment,36,↓,down,↓,0.6219810000038706,True,16
10K21,407,experiment,108,↑,up,↑,0.5746803000220098,True,16
10K21,408,experiment,108,↓,down,↓,0.5713352999882773,True,16
10K21,409,training,156,→,left,←,0.5294946999638341,False,16
10K21,410,training,120,↑,up,↑,0.6992934999871068,True,16
10K21,411,training,24,→,right,→,0.5743982999701984,True,16
10K21,412,experiment,156,↑,up,↑,0.6271292000310495,True,16
10K21,413,experiment,96,←,right,→,0.6306944999960251,False,16
10K21,414,experiment,24,↑,up,↑,0.5933657999848947,True,16
10K21,415,experiment,60,→,right,→,0.5452798000187613,True,16
10K21,416,experiment,180,↑,down,↓,0.710468299977947,False,16
10K21,417,experiment,84,→,right,→,0.7040119000012055,True,16
10K21,418,experiment,48,↑,up,↑,0.5239123000064865,True,16
10K21,419,experiment,108,→,right,→,0.5862291000084952,True,16
10K21,420,experiment,108,←,left,←,0.6660187999950722,True,16
10K21,421,experiment,72,→,right,→,0.6415625999798067,True,16
10K21,422,experiment,12,→,right,→,0.7252860000007786,True,16
10K21,423,experiment,12,→,right,→,0.6685139000182971,True,16
10K21,424,experiment,108,←,left,←,0.736283199978061,True,16
10K21,425,experiment,48,↑,up,↑,0.5689919000142254,True,16
10K21,426,experiment,168,↓,down,↓,0.6576419999473728,True,16
10K21,427,experiment,60,↓,down,↓,0.7146889000432566,True,16
10K21,428,experiment,96,↑,up,↑,0.7690670000156388,True,16
10K21,429,experiment,36,→,right,→,0.5942890999722295,True,16
10K21,430,experiment,120,↑,right,→,0.6716108999680728,False,16
10K21,431,experiment,180,→,right,→,0.8546241999720223,True,16
10K21,432,experiment,60,↓,down,↓,0.6621043000486679,True,16
10K21,433,experiment,96,↑,up,↑,0.6174615999916568,True,16
10K21,434,experiment,168,→,right,→,0.5577343000331894,True,16
10K21,435,experiment,24,↓,left,←,0.7649746999959461,False,16
10K21,436,experiment,144,↓,left,←,0.6714932000031695,False,16
10K21,437,experiment,48,→,right,→,0.49664049997227266,True,16
10K21,438,experiment,36,←,right,→,0.5804127999581397,False,16
10K21,439,experiment,156,→,right,→,0.5856333000119776,True,16
10K21,440,experiment,24,↑,up,↑,0.6061045000096783,True,16
10K21,441,experiment,144,←,right,→,0.48632719996385276,False,16
10K21,442,experiment,144,↓,left,←,0.4899877000134438,False,16
10K21,443,experiment,120,↓,right,→,0.5541546999593265,False,16
10K21,444,experiment,36,←,right,→,0.5406086000148207,False,16
10K21,445,experiment,60,↓,up,↑,0.6436551999649964,False,16
10K21,446,experiment,156,←,right,→,0.5759024000144564,False,16
10K21,447,experiment,12,↑,down,↓,0.8072152999811806,False,16
10K21,448,experiment,132,↓,right,→,0.5531109999865294,False,16
10K21,449,experiment,108,←,up,↑,0.5535160999861546,False,16
10K21,450,experiment,120,↓,down,↓,0.5133827999816276,True,16
10K21,451,experiment,72,→,right,→,0.5385819000075571,True,16
10K21,452,experiment,132,↑,up,↑,0.6205312000238337,True,16
10K21,453,experiment,48,←,right,→,0.6649126000120305,False,16
10K21,454,experiment,144,←,up,↑,0.5877172999898903,False,16
10K21,455,experiment,180,↓,up,↑,0.8292581000132486,False,16
10K21,456,experiment,120,↓,right,→,0.9867388000129722,False,16
10K21,457,experiment,72,↓,up,↑,0.6867569000460207,False,16
10K21,458,experiment,180,↓,down,↓,0.7075213000061922,True,16
10K21,459,experiment,156,→,right,→,0.5553942999686114,True,16
10K21,460,experiment,36,↑,up,↑,0.5536854999954812,True,16
10K21,461,experiment,24,→,right,→,0.6744080000207759,True,16
10K21,462,experiment,132,↑,up,↑,0.4743125999812037,True,16
10K21,463,experiment,84,→,left,←,0.591990299988538,False,16
10K21,464,experiment,132,↑,up,↑,0.4887690999894403,True,16
10K21,465,experiment,72,↓,down,↓,0.6627974000293761,True,16
10K21,466,experiment,84,←,left,←,0.49362060002749786,True,16
10K21,467,experiment,96,↓,down,↓,0.6504435999668203,True,16
10K21,468,experiment,168,↓,down,↓,0.5737980999983847,True,16
10K21,469,experiment,12,↓,down,↓,0.5663170000188984,True,16
10K21,470,experiment,84,↓,down,↓,0.6649607999715954,True,16
10K21,471,experiment,168,↓,right,→,0.7204813999705948,False,16
10K21,472,training,36,→,right,→,0.6726885000243783,True,16
10K21,473,training,120,↓,down,↓,0.5959673000033945,True,16
10K21,474,training,72,→,right,→,0.7391511999885552,True,16
10K21,475,experiment,12,←,left,←,0.5574558000080287,True,16
10K21,476,experiment,60,↓,down,↓,1.241375599987805,True,16
10K21,477,experiment,168,↓,left,←,0.5718138000229374,False,16
10K21,478,experiment,12,→,right,→,0.6005887999781407,True,16
10K21,479,experiment,156,→,down,↓,0.6493954000179656,False,16
10K21,480,experiment,12,←,left,←,0.5100091000203975,True,16
10K21,481,experiment,120,↓,down,↓,0.5304865999496542,True,16
10K21,482,experiment,180,←,left,←,0.630074999993667,True,16
10K21,483,experiment,168,↓,right,→,0.5302405999973416,False,16
10K21,484,experiment,60,↓,down,↓,0.6617876999662258,True,16
10K21,485,experiment,132,↑,up,↑,0.7259062000084668,True,16
10K21,486,experiment,144,→,right,→,0.5476505999686196,True,16
10K21,487,experiment,144,↑,down,↓,0.6021567000425421,False,16
10K21,488,experiment,108,↓,right,→,0.6152182000223547,False,16
10K21,489,experiment,132,←,left,←,0.6954410999896936,True,16
10K21,490,experiment,168,↓,left,←,0.49818799999775365,False,16
10K21,491,experiment,156,↓,down,↓,0.6079015000141226,True,16
10K21,492,experiment,72,↓,down,↓,0.5650318999541923,True,16
10K21,493,experiment,84,↓,down,↓,0.8030831000069156,True,16
10K21,494,experiment,36,↓,down,↓,0.5351796000031754,True,16
10K21,495,experiment,96,↓,down,↓,0.6533829000545666,True,16
10K21,496,experiment,108,→,right,→,0.5722856000065804,True,16
10K21,497,experiment,108,←,left,←,0.4919458000222221,True,16
10K21,498,experiment,84,↑,up,↑,0.6608464999590069,True,16
10K21,499,experiment,24,↑,up,↑,0.6264839000068605,True,16
10K21,500,experiment,60,→,right,→,0.7067076999810524,True,16
10K21,501,experiment,72,↑,up,↑,0.5971465000184253,True,16
10K21,502,experiment,36,→,left,←,0.6394427000195719,False,16
10K21,503,experiment,84,↑,up,↑,0.5641350999940187,True,16
10K21,504,experiment,120,↑,up,↑,0.5357175000244752,True,16
10K21,505,experiment,144,↑,up,↑,0.8324321999680251,True,16
10K21,506,experiment,156,←,left,←,0.5175865999772213,True,16
10K21,507,experiment,180,↓,up,↑,0.600120400020387,False,16
10K21,508,experiment,96,↓,down,↓,0.5737163000158034,True,16
10K21,509,experiment,132,↑,left,←,0.6296867000055499,False,16
10K21,510,experiment,144,↓,down,↓,0.5341773999971338,True,16
10K21,511,experiment,96,↑,left,←,0.7272626999765635,False,16
10K21,512,experiment,24,↑,up,↑,0.6437983000068925,True,16
10K21,513,experiment,12,←,up,↑,0.6476203000056557,False,16
10K21,514,experiment,120,←,left,←,0.542863100010436,True,16
10K21,515,experiment,156,↓,up,↑,0.5677231000154279,False,16
10K21,516,experiment,48,←,left,←,0.6458028999622911,True,16
10K21,517,experiment,36,↓,down,↓,0.7697217999957502,True,16
10K21,518,experiment,120,→,right,→,0.5054028000449762,True,16
10K21,519,experiment,60,↓,down,↓,0.5756438999669626,True,16
10K21,520,experiment,24,↓,down,↓,0.6048678999650292,True,16
10K21,521,experiment,48,↑,right,→,0.6201106999651529,False,16
10K21,522,experiment,24,↓,right,→,0.5467425999813713,False,16
10K21,523,experiment,132,→,right,→,0.5655099000432529,True,16
10K21,524,experiment,72,←,left,←,0.4370886000106111,True,16
10K21,525,experiment,168,↓,left,←,0.5763370000058785,False,16
10K21,526,experiment,36,→,left,←,0.514655299950391,False,16
10K21,527,experiment,108,↑,right,→,0.4358178999973461,False,16
10K21,528,experiment,72,←,left,←,0.5105605999706313,True,16
10K21,529,experiment,180,→,left,←,0.6069251999724656,False,16
10K21,530,experiment,48,↑,up,↑,0.5685227999929339,True,16
10K21,531,experiment,180,→,right,→,0.6954690999700688,True,16
10K21,532,experiment,48,↑,up,↑,0.5692731000017375,True,16
10K21,533,experiment,84,→,right,→,0.7351167000015266,True,16
10K21,534,experiment,96,↑,up,↑,0.7012180000310764,True,16
10K21,535,training,144,↓,down,↓,0.5446225000196137,True,16
10K21,536,training,120,→,right,→,0.5305638000136241,True,16
10K21,537,training,108,→,right,→,0.5278403999982402,True,16
10K21,538,experiment,132,↑,up,↑,0.5533946999930777,True,16
10K21,539,experiment,72,←,left,←,0.5910222000093199,True,16
10K21,540,experiment,168,←,left,←,0.7268146999995224,True,16
10K21,541,experiment,108,←,left,←,0.6885977000347339,True,16
10K21,542,experiment,24,←,left,←,0.5636189999640919,True,16
10K21,543,experiment,144,↓,down,↓,0.9474710999638774,True,16
10K21,544,experiment,12,↓,down,↓,0.6962017000187188,True,16
10K21,545,experiment,24,↑,up,↑,0.6123328999965452,True,16
10K21,546,experiment,168,↓,down,↓,0.5442172999610193,True,16
10K21,547,experiment,96,→,left,←,0.5775757000083104,False,16
10K21,548,experiment,96,←,left,←,0.5223705000244081,True,16
10K21,549,experiment,48,↑,up,↑,0.7732086000032723,True,16
10K21,550,experiment,96,←,left,←,0.47704599995631725,True,16
10K21,551,experiment,156,↑,up,↑,0.6766558000235818,True,16
10K21,552,experiment,156,↓,down,↓,0.6178996000089683,True,16
10K21,553,experiment,168,←,left,←,0.4872594000189565,True,16
10K21,554,experiment,60,←,left,←,0.4548495000344701,True,16
10K21,555,experiment,108,→,left,←,0.4447943000122905,False,16
10K21,556,experiment,144,↓,down,↓,0.6939425999880768,True,16
10K21,557,experiment,132,←,left,←,0.5165990999666974,True,16
10K21,558,experiment,180,↓,left,←,0.6719597000046633,False,16
10K21,559,experiment,144,←,left,←,0.4981932999799028,True,16
10K21,560,experiment,144,↓,down,↓,0.5559327999944799,True,16
10K21,561,experiment,120,↑,down,↓,0.5382249999674968,False,16
10K21,562,experiment,36,→,right,→,0.5760569000267424,True,16
10K21,563,experiment,108,↑,up,↑,0.5530997000169009,True,16
10K21,564,experiment,48,←,right,→,0.4897159000393003,False,16
10K21,565,experiment,36,↓,down,↓,0.546057200001087,True,16
10K21,566,experiment,180,→,right,→,0.4651257000514306,True,16
10K21,567,experiment,96,→,right,→,0.5451767000486143,True,16
10K21,568,experiment,72,↓,left,←,0.7518308000289835,False,16
10K21,569,experiment,36,↑,up,↑,0.6258256000000983,True,16
10K21,570,experiment,12,←,left,←,0.6919412999995984,True,16
10K21,571,experiment,48,↑,left,←,0.5983194000436924,False,16
10K21,572,experiment,48,↓,down,↓,0.5181981999776326,True,16
10K21,573,experiment,12,↑,up,↑,0.6159768999787048,True,16
10K21,574,experiment,132,↑,up,↑,0.6177478000172414,True,16
10K21,575,experiment,72,↑,up,↑,0.5833251000149176,True,16
10K21,576,experiment,60,↑,up,↑,0.6472291999962181,True,16
10K21,577,experiment,60,↓,up,↑,0.62357019999763,False,16
10K21,578,experiment,12,↓,down,↓,0.5631446000188589,True,16
10K21,579,experiment,24,↑,up,↑,0.7227963999612257,True,16
10K21,580,experiment,120,←,left,←,0.7152885000105016,True,16
10K21,581,experiment,60,→,right,→,0.57824989996152,True,16
10K21,582,experiment,120,→,left,←,0.6252227000077255,False,16
10K21,583,experiment,180,↓,down,↓,0.6189558999612927,True,16
10K21,584,experiment,72,↓,left,←,0.5438027000054717,False,16
10K21,585,experiment,84,←,left,←,0.5232386999996379,True,16
10K21,586,experiment,24,←,left,←,0.5823176000267267,True,16
10K21,587,experiment,132,→,left,←,0.4983360999613069,False,16
10K21,588,experiment,108,↓,down,↓,0.6210270000156015,True,16
10K21,589,experiment,156,→,left,←,0.7116993000381626,False,16
10K21,590,experiment,120,↓,down,↓,0.6248839999898337,True,16
10K21,591,experiment,168,←,left,←,0.6008993000141345,True,16
10K21,592,experiment,156,←,up,↑,0.7301319999969564,False,16
10K21,593,experiment,36,↑,up,↑,0.5932294999947771,True,16
10K21,594,experiment,84,↑,up,↑,0.5867072000401095,True,16
10K21,595,experiment,84,←,right,→,0.6351189000415616,False,16
10K21,596,experiment,180,←,left,←,0.6055673999944702,True,16
10K21,597,experiment,84,↑,up,↑,0.6017339999671094,True,16
10K21,598,training,120,↓,up,↑,0.5818866000045091,False,16
10K21,599,training,36,→,right,→,0.6034035999909975,True,16
10K21,600,training,132,↓,down,↓,0.5525756000424735,True,16
10K21,601,experiment,168,↑,up,↑,0.509892400004901,True,16
10K21,602,experiment,96,→,right,→,0.8445830999989994,True,16
10K21,603,experiment,36,←,left,←,0.4371259000035934,True,16
10K21,604,experiment,144,↓,down,↓,0.901315099967178,True,16
10K21,605,experiment,156,←,left,←,0.5263313999748789,True,16
10K21,606,experiment,84,↑,up,↑,0.8259970000362955,True,16
10K21,607,experiment,48,↓,up,↑,0.6918318000389263,False,16
10K21,608,experiment,36,↓,down,↓,0.6087715000030585,True,16
10K21,609,experiment,108,↑,down,↓,0.66223210003227,False,16
10K21,610,experiment,144,↑,right,→,0.741022799978964,False,16
10K21,611,experiment,72,↑,left,←,0.6060974000138231,False,16
10K21,612,experiment,24,→,right,→,0.6884000000427477,True,16
10K21,613,experiment,120,↓,left,←,0.7151243999833241,False,16
10K21,614,experiment,24,↑,left,←,0.6998491000267677,False,16
10K21,615,experiment,132,←,left,←,0.6193549000308849,True,16
10K21,616,experiment,72,↑,up,↑,0.6534807999851182,True,16
10K21,617,experiment,12,→,right,→,0.6437932999688201,True,16
10K21,618,experiment,180,↑,down,↓,0.7688759000157006,False,16
10K21,619,experiment,168,↓,down,↓,0.7233853000216186,True,16
10K21,620,experiment,108,→,right,→,0.5781268000137061,True,16
10K21,621,experiment,72,←,left,←,0.7097833000007086,True,16
10K21,622,experiment,156,↑,up,↑,0.5784423999721184,True,16
10K21,623,experiment,156,←,left,←,0.5613445999915712,True,16
10K21,624,experiment,60,→,right,→,0.5594472999800928,True,16
10K21,625,experiment,60,→,left,←,0.5692766000283882,False,16
10K21,626,experiment,60,←,right,→,0.5664799999794923,False,16
10K21,627,experiment,48,←,left,←,0.6023940999875776,True,16
10K21,628,experiment,144,→,right,→,0.542814799991902,True,16
10K21,629,experiment,48,→,left,←,0.6503904000273906,False,16
10K21,630,experiment,144,←,right,→,0.6324809000361711,False,16
10K21,631,experiment,132,↑,up,↑,0.7494539000326768,True,16
10K21,632,experiment,84,↓,up,↑,0.6515151999774389,False,16
10K21,633,experiment,120,↑,up,↑,0.5752226999611594,True,16
10K21,634,experiment,84,↑,up,↑,0.5290858999942429,True,16
10K21,635,experiment,156,↑,up,↑,0.632345299993176,True,16
10K21,636,experiment,96,→,up,↑,0.5139767000218853,False,16
10K21,637,experiment,120,↑,up,↑,0.4788848000462167,True,16
10K21,638,experiment,12,←,left,←,0.6833420000039041,True,16
10K21,639,experiment,96,→,left,←,0.6639713999466039,False,16
10K21,640,experiment,48,←,left,←,0.6215489000314847,True,16
10K21,641,experiment,108,↓,down,↓,0.7051300999592058,True,16
10K21,642,experiment,24,←,left,←,0.7541919000213966,True,16
10K21,643,experiment,96,↓,down,↓,0.6227131999912672,True,16
10K21,644,experiment,36,↓,down,↓,0.5079863999853842,True,16
10K21,645,experiment,132,←,right,→,0.6224006999982521,False,16
10K21,646,experiment,24,←,left,←,0.5890318999881856,True,16
10K21,647,experiment,12,←,left,←,0.5028205999988131,True,16
10K21,648,experiment,84,↑,up,↑,0.49697350000496954,True,16
10K21,649,experiment,60,↓,down,↓,0.7906486999709159,True,16
10K21,650,experiment,72,↓,down,↓,0.5303797000087798,True,16
10K21,651,experiment,168,←,left,←,0.8674185999552719,True,16
10K21,652,experiment,12,↑,up,↑,0.53577449999284,True,16
10K21,653,experiment,36,←,left,←,0.5078572999918833,True,16
10K21,654,experiment,120,←,left,←,0.7590920000220649,True,16
10K21,655,experiment,108,↑,up,↑,0.8205149999703281,True,16
10K21,656,experiment,132,↓,left,←,0.6946080999914557,False,16
10K21,657,experiment,180,→,left,←,0.5804354000138119,False,16
10K21,658,experiment,168,↓,right,→,0.4947355999611318,False,16
10K21,659,experiment,180,↓,right,→,0.578747600025963,False,16
10K21,660,experiment,180,↑,left,←,0.550993200042285,False,16
10K21,661,training,120,↓,left,←,0.779352999990806,False,16
10K21,662,training,132,↑,up,↑,0.498304599954281,True,16
10K21,663,training,156,→,right,→,0.5448628999874927,True,16
10K21,664,experiment,156,←,right,→,0.7076495999936014,False,16
10K21,665,experiment,24,↓,down,↓,0.6079362000455149,True,16
10K21,666,experiment,36,→,up,↑,0.7549070999957621,False,16
10K21,667,experiment,180,←,right,→,0.5154388999799266,False,16
10K21,668,experiment,180,↑,left,←,0.5750480000278912,False,16
10K21,669,experiment,168,↑,up,↑,0.6055941000231542,True,16
10K21,670,experiment,12,→,up,↑,0.8409440999967046,False,16
10K21,671,experiment,120,↓,down,↓,0.6726142999832518,True,16
10K21,672,experiment,96,↑,up,↑,0.5622908000368625,True,16
10K21,673,experiment,12,↓,down,↓,0.6041762999957427,True,16
10K21,674,experiment,36,→,right,→,0.51173430000199,True,16
10K21,675,experiment,96,→,right,→,0.4787472999887541,True,16
10K21,676,experiment,120,→,right,→,0.5074288999894634,True,16
10K21,677,experiment,144,→,right,→,0.648970799986273,True,16
10K21,678,experiment,108,↓,left,←,1.2068681999808177,False,16
10K21,679,experiment,168,→,right,→,0.605317399953492,True,16
10K21,680,experiment,24,→,right,→,0.46148410002933815,True,16
10K21,681,experiment,12,→,left,←,0.9533643000177108,False,16
10K21,682,experiment,60,↓,up,↑,0.7428849999560043,False,16
10K21,683,experiment,144,←,left,←,0.5798780000186525,True,16
10K21,684,experiment,12,↑,up,↑,0.55970449995948,True,16
10K21,685,experiment,180,←,left,←,0.566669899970293,True,16
10K21,686,experiment,96,↓,right,→,0.5511491000070237,False,16
10K21,687,experiment,108,←,right,→,0.6266362000023946,False,16
10K21,688,experiment,132,↑,up,↑,0.6322511999751441,True,16
10K21,689,experiment,24,↑,up,↑,0.6492336000083014,True,16
10K21,690,experiment,72,↓,down,↓,0.5504258999717422,True,16
10K21,691,experiment,84,←,left,←,0.5679712999844924,True,16
10K21,692,experiment,120,↓,down,↓,0.6825771000003442,True,16
10K21,693,experiment,24,←,down,↓,0.8375948999891989,False,16
10K21,694,experiment,180,↓,down,↓,0.567095399950631,True,16
10K21,695,experiment,156,→,right,→,0.4796866000397131,True,16
10K21,696,experiment,132,↑,up,↑,0.6277914000093006,True,16
10K21,697,experiment,84,←,right,→,0.662146600021515,False,16
10K21,698,experiment,108,←,left,←,0.5669506000122055,True,16
10K21,699,experiment,96,↑,left,←,0.6574748000130057,False,16
10K21,700,experiment,168,↓,down,↓,0.6507837999961339,True,16
10K21,701,experiment,36,↑,up,↑,0.8122574999579228,True,16
10K21,702,experiment,132,→,left,←,0.5963282000157051,False,16
10K21,703,experiment,48,←,left,←,0.5804696999839507,True,16
10K21,704,experiment,48,↓,down,↓,0.6599089999799617,True,16
10K21,705,experiment,144,↑,up,↑,0.8109205000218935,True,16
10K21,706,experiment,144,←,left,←,0.7260555999819189,True,16
10K21,707,experiment,72,→,left,←,0.6321615999913774,False,16
10K21,708,experiment,72,←,left,←,0.6224182999576442,True,16
10K21,709,experiment,156,→,right,→,0.7988454999867827,True,16
10K21,710,experiment,120,←,left,←,0.9442953999969177,True,16
10K21,711,experiment,168,←,left,←,0.5597705999971367,True,16
10K21,712,experiment,60,↑,left,←,0.7509871000074781,False,16
10K21,713,experiment,60,→,right,→,0.6727578000281937,True,16
10K21,714,experiment,156,↑,up,↑,0.6309575999621302,True,16
10K21,715,experiment,84,↓,down,↓,0.7762808999978006,True,16
10K21,716,experiment,36,↑,up,↑,0.6903370000072755,True,16
10K21,717,experiment,48,↓,down,↓,0.6300977999926545,True,16
10K21,718,experiment,48,→,right,→,0.5416545000043698,True,16
10K21,719,experiment,72,←,left,←,0.5839860999840312,True,16
10K21,720,experiment,108,←,left,←,0.6787890999694355,True,16
10K21,721,experiment,60,←,left,←,0.5599823999800719,True,16
10K21,722,experiment,132,↑,left,←,0.6937788999639452,False,16
10K21,723,experiment,84,↓,down,↓,0.6607477000216022,True,16
10K21,724,training,168,↑,up,↑,0.7285419000545517,True,16
10K21,725,training,144,→,left,←,0.4968178999843076,False,16
10K21,726,training,108,←,left,←,0.6083642999874428,True,16
10K21,727,experiment,108,←,left,←,0.5473432999569923,True,16
10K21,728,experiment,84,↑,up,↑,0.6132069999584928,True,16
10K21,729,experiment,108,←,left,←,0.595062299980782,True,16
10K21,730,experiment,96,←,left,←,0.530907100008335,True,16
10K21,731,experiment,156,↓,down,↓,0.6537302000215277,True,16
10K21,732,experiment,72,↑,up,↑,0.4976411999668926,True,16
10K21,733,experiment,12,↑,up,↑,1.2831403000163846,True,16
10K21,734,experiment,96,↓,down,↓,0.7544680999708362,True,16
10K21,735,experiment,24,→,right,→,0.6535264999838546,True,16
10K21,736,experiment,144,↓,down,↓,0.5742548999842256,True,16
10K21,737,experiment,120,←,left,←,0.7258603000082076,True,16
10K21,738,experiment,132,↑,down,↓,0.7854714999557473,False,16
10K21,739,experiment,120,↑,down,↓,0.6215918000089005,False,16
10K21,740,experiment,12,←,left,←,0.7047903999919072,True,16
10K21,741,experiment,108,→,up,↑,0.7029517999617383,False,16
10K21,742,experiment,180,←,left,←,0.626048100006301,True,16
10K21,743,experiment,132,↓,down,↓,0.6512036000494845,True,16
10K21,744,experiment,156,↑,up,↑,0.6403396999812685,True,16
10K21,745,experiment,72,←,left,←,0.6520726999733597,True,16
10K21,746,experiment,24,↑,left,←,0.8063197000301443,False,16
10K21,747,experiment,180,↑,down,↓,0.7531126000103541,False,16
10K21,748,experiment,168,→,right,→,0.6227197999833152,True,16
10K21,749,experiment,96,→,right,→,0.7126218000194058,True,16
10K21,750,experiment,132,→,left,←,0.7873171000392176,False,16
10K21,751,experiment,84,←,left,←,0.6418667999678291,True,16
10K21,752,experiment,60,↓,up,↑,0.7763279000064358,False,16
10K21,753,experiment,48,↓,left,←,1.0151480000349693,False,16
10K21,754,experiment,60,↓,down,↓,0.5569395999773405,True,16
10K21,755,experiment,156,→,right,→,0.5080729000037536,True,16
10K21,756,experiment,72,↓,right,→,0.8622812000103295,False,16
10K21,757,experiment,180,↓,down,↓,0.5908471000147983,True,16
10K21,758,experiment,36,↓,down,↓,0.9292648999835365,True,16
10K21,759,experiment,84,←,left,←,0.7299931999878027,True,16
10K21,760,experiment,108,↓,up,↑,0.6859195999568328,False,16
10K21,761,experiment,24,↓,down,↓,0.5802179999882355,True,16
10K21,762,experiment,96,←,left,←,0.444062499969732,True,16
10K21,763,experiment,24,↑,up,↑,0.6973635000176728,True,16
10K21,764,experiment,60,↑,up,↑,0.4947441999684088,True,16
10K21,765,experiment,120,↑,up,↑,0.4590213999617845,True,16
10K21,766,experiment,144,→,up,↑,0.5423803000012413,False,16
10K21,767,experiment,144,→,right,→,0.5545698000350967,True,16
10K21,768,experiment,36,→,right,→,1.3065064999973401,True,16
10K21,769,experiment,156,↑,right,→,0.6406361000263132,False,16
10K21,770,experiment,12,↓,down,↓,0.6927734999917448,True,16
10K21,771,experiment,72,↑,up,↑,0.6673455000272952,True,16
10K21,772,experiment,168,↑,left,←,0.622635200037621,False,16
10K21,773,experiment,60,←,up,↑,0.5924217999563552,False,16
10K21,774,experiment,48,→,right,→,0.6821534000337124,True,16
10K21,775,experiment,48,↓,down,↓,0.6965601000119932,True,16
10K21,776,experiment,120,←,left,←,0.6942015000386164,True,16
10K21,777,experiment,180,→,left,←,0.5045533000375144,False,16
10K21,778,experiment,168,→,left,←,0.6040564999566413,False,16
10K21,779,experiment,36,←,left,←,0.5503658999805339,True,16
10K21,780,experiment,48,→,left,←,0.8006535000167787,False,16
10K21,781,experiment,132,↑,up,↑,0.6689811000251211,True,16
10K21,782,experiment,168,↓,down,↓,0.7020630000042729,True,16
10K21,783,experiment,144,↑,up,↑,0.6546235000132583,True,16
10K21,784,experiment,36,→,right,→,0.5762160000158474,True,16
10K21,785,experiment,12,↓,right,→,0.977783799986355,False,16
10K21,786,experiment,84,←,left,←,0.6844611999695189,True,16
10K21,787,training,144,→,right,→,0.5088847000151873,True,16
10K21,788,training,168,↑,up,↑,1.4677977000246756,True,16
10K21,789,training,144,↑,up,↑,0.5666194000514224,True,16
10K21,790,experiment,12,←,right,→,0.7523486000136472,False,16
10K21,791,experiment,60,↑,up,↑,0.695120099990163,True,16
10K21,792,experiment,168,↑,up,↑,0.5024042999721132,True,16
10K21,793,experiment,120,↓,down,↓,0.6196554999914952,True,16
10K21,794,experiment,132,↓,down,↓,0.6649229999748059,True,16
10K21,795,experiment,36,↓,down,↓,0.5725814999896102,True,16
10K21,796,experiment,180,←,left,←,0.4983264999464154,True,16
10K21,797,experiment,180,→,right,→,0.3835971999797039,True,16
10K21,798,experiment,48,→,right,→,0.5859945000265725,True,16
10K21,799,experiment,24,←,right,→,0.5763700999668799,False,16
10K21,800,experiment,144,↑,down,↓,0.6714190999628045,False,16
10K21,801,experiment,24,↑,up,↑,0.6753404000191949,True,16
10K21,802,experiment,168,↑,up,↑,0.7098695999593474,True,16
10K21,803,experiment,12,↓,down,↓,0.6386974999913946,True,16
10K21,804,experiment,156,↓,down,↓,0.6743662999942899,True,16
10K21,805,experiment,60,←,left,←,0.6514210000168532,True,16
10K21,806,experiment,132,↓,down,↓,0.5381097999634221,True,16
10K21,807,experiment,168,↓,down,↓,0.548034599982202,True,16
10K21,808,experiment,12,←,left,←,0.7433120000059716,True,16
10K21,809,experiment,120,→,right,→,0.6242408999823965,True,16
10K21,810,experiment,156,↑,up,↑,0.6760268999496475,True,16
10K21,811,experiment,12,↑,up,↑,0.5987995000323281,True,16
10K21,812,experiment,84,←,left,←,0.6899641000200063,True,16
10K21,813,experiment,24,↑,up,↑,0.5764423000509851,True,16
10K21,814,experiment,96,↓,up,↑,0.7810066000092775,False,16
10K21,815,experiment,144,↑,up,↑,0.6189933999557979,True,16
10K21,816,experiment,72,←,left,←,0.645132299978286,True,16
10K21,817,experiment,72,↑,up,↑,0.5716090999776497,True,16
10K21,818,experiment,48,↓,down,↓,0.7053678000229411,True,16
10K21,819,experiment,96,→,right,→,0.6902828000020236,True,16
10K21,820,experiment,156,←,left,←,1.074344899971038,True,16
10K21,821,experiment,24,↑,up,↑,0.6463441000087187,True,16
10K21,822,experiment,36,→,right,→,0.6025219000293873,True,16
10K21,823,experiment,84,↑,up,↑,0.7961104999994859,True,16
10K21,824,experiment,108,↑,down,↓,0.7283548999694176,False,16
10K21,825,experiment,168,↑,up,↑,0.6750129000283778,True,16
10K21,826,experiment,60,→,right,→,0.6963696000166237,True,16
10K21,827,experiment,36,↓,down,↓,0.6273143999860622,True,16
10K21,828,experiment,84,→,right,→,0.722006700001657,True,16
10K21,829,experiment,132,→,right,→,0.6157380000222474,True,16
10K21,830,experiment,96,↑,down,↓,0.8278812000062317,False,16
10K21,831,experiment,144,↓,down,↓,0.724073999968823,True,16
10K21,832,experiment,108,→,right,→,0.6179857999668457,True,16
10K21,833,experiment,60,↓,up,↑,0.6749361999682151,False,16
10K21,834,experiment,84,←,left,←,0.6258458999800496,True,16
10K21,835,experiment,180,←,left,←,0.5416291999863461,True,16
10K21,836,experiment,72,←,left,←,0.5253686999785714,True,16
10K21,837,experiment,120,→,right,→,0.5906726999673992,True,16
10K21,838,experiment,144,↓,left,←,0.7036483999690972,False,16
10K21,839,experiment,120,↑,up,↑,0.775985199958086,True,16
10K21,840,experiment,180,↓,right,→,0.6163498999667354,False,16
10K21,841,experiment,108,→,right,→,0.7400477000046521,True,16
10K21,842,experiment,48,↑,up,↑,0.6216818999964744,True,16
10K21,843,experiment,36,→,right,→,0.5969525999971665,True,16
10K21,844,experiment,132,←,left,←,0.8032461000257172,True,16
10K21,845,experiment,156,←,right,→,0.6403257999918424,False,16
10K21,846,experiment,48,↑,left,←,0.7861166999791749,False,16
10K21,847,experiment,96,→,right,→,0.6624560999916866,True,16
10K21,848,experiment,72,↓,down,↓,0.7000690000131726,True,16
10K21,849,experiment,108,↓,right,→,0.6337598999962211,False,16
