PART_ID,Trial_no,Trial_type,PDI,Stim_letter,Key_pressed,letter_choose,Rt,Corr,Stimulus Time
11M35,1,training,10,↑,left,←,1.8645213000127114,False,30
11M35,2,training,10,→,right,→,0.9421713000047021,True,30
11M35,3,training,10,←,left,←,1.2556721000000834,True,30
11M35,4,training,10,→,left,←,1.0817151999799535,False,30
11M35,5,training,10,→,left,←,0.7896898000035435,False,30
11M35,6,training,10,←,right,→,0.8175630000187084,False,30
11M35,7,training,10,←,left,←,0.7646445000427775,True,30
11M35,8,training,10,↓,right,→,1.1296008999925107,False,30
11M35,9,training,10,↓,left,←,1.5026131000486203,False,30
11M35,10,training,10,→,left,←,0.9724286000127904,False,30
11M35,11,training,10,←,left,←,0.7509828999754973,True,30
11M35,12,training,10,↑,right,→,0.7462017000070773,False,30
11M35,13,training,10,↑,right,→,1.1757207999471575,False,30
11M35,14,training,10,↓,left,←,1.3407806999748573,False,30
11M35,15,training,10,↓,left,←,0.9408961000153795,False,30
11M35,16,training,10,↑,left,←,0.8287350999889895,False,30
11M35,17,training,10,↑,no_key,no_letter,-1.0,False,30
11M35,18,training,10,↓,left,←,1.7982547999708913,False,30
11M35,19,training,10,↓,left,←,0.8231744000222534,False,30
11M35,20,training,10,↓,left,←,0.8021525000222027,False,30
11M35,21,training,10,↓,right,→,0.8532390000182204,False,18
11M35,22,training,10,→,left,←,1.5925558999879286,False,18
11M35,23,training,10,←,left,←,0.839503999974113,True,18
11M35,24,training,10,←,left,←,1.0370725000393577,True,18
11M35,25,training,10,←,right,→,1.1406266000121832,False,18
11M35,26,training,10,↓,left,←,0.8146038999548182,False,18
11M35,27,training,10,→,no_key,no_letter,-1.0,False,18
11M35,28,training,10,←,no_key,no_letter,-1.0,False,18
11M35,29,training,10,←,down,↓,1.897475800011307,False,18
11M35,30,training,10,←,left,←,0.7295719000394456,True,18
11M35,31,training,24,↑,left,←,1.0407321999664418,False,15
11M35,32,training,48,↓,left,←,1.2562244999571703,False,15
11M35,33,training,12,↑,right,→,0.9596024999627843,False,15
11M35,34,experiment,72,←,left,←,1.002415099996142,True,15
11M35,35,experiment,180,→,right,→,0.9415275999926962,True,15
11M35,36,experiment,96,←,right,→,0.9606108000152744,False,15
11M35,37,experiment,108,←,right,→,1.0187223000102676,False,15
11M35,38,experiment,12,←,right,→,1.3683998000342399,False,15
11M35,39,experiment,156,→,left,←,0.9515330000431277,False,15
11M35,40,experiment,60,←,right,→,1.1479257000028156,False,15
11M35,41,experiment,120,↑,left,←,1.0518596000038087,False,15
11M35,42,experiment,168,←,right,→,1.111326200014446,False,15
11M35,43,experiment,24,↑,left,←,0.9263643000158481,False,15
11M35,44,experiment,48,↓,right,→,0.8969444999820553,False,15
11M35,45,experiment,132,↑,left,←,0.7640433000051416,False,15
11M35,46,experiment,180,↓,right,→,1.0479357999865897,False,15
11M35,47,experiment,144,→,right,→,1.0637586999800988,True,15
11M35,48,experiment,108,←,left,←,0.8783489000052214,True,15
11M35,49,experiment,168,→,right,→,0.641242699988652,True,15
11M35,50,experiment,36,←,right,→,1.0259814000455663,False,15
11M35,51,experiment,24,↓,right,→,0.8340883000055328,False,15
11M35,52,experiment,60,↑,left,←,0.6387738999910653,False,15
11M35,53,experiment,120,→,right,→,0.7017503000097349,True,15
11M35,54,experiment,180,→,left,←,1.464777100016363,False,15
11M35,55,experiment,132,↓,no_key,no_letter,-1.0,False,15
11M35,56,experiment,36,↓,down,↓,1.3485244999756105,True,15
11M35,57,experiment,108,←,right,→,0.957151899987366,False,15
11M35,58,experiment,120,→,right,→,1.0215833999682218,True,15
11M35,59,experiment,36,←,right,→,1.392938100034371,False,15
11M35,60,experiment,156,←,right,→,0.8208016999997199,False,15
11M35,61,experiment,168,→,left,←,0.9378107000375167,False,15
11M35,62,experiment,72,←,right,→,0.6139632000122219,False,15
11M35,63,experiment,36,←,right,→,1.3359362999908626,False,15
11M35,64,experiment,96,→,down,↓,1.3966481999959797,False,15
11M35,65,experiment,84,→,left,←,1.3320597999845631,False,15
11M35,66,experiment,48,↓,right,→,1.0369518999941647,False,15
11M35,67,experiment,144,↑,right,→,0.5748988999985158,False,15
11M35,68,experiment,84,→,no_key,no_letter,-1.0,False,15
11M35,69,experiment,108,↓,right,→,1.2837056000134908,False,15
11M35,70,experiment,12,↑,right,→,1.191885199979879,False,15
11M35,71,experiment,48,→,right,→,1.180324200016912,True,15
11M35,72,experiment,96,↓,left,←,0.9714407999999821,False,15
11M35,73,experiment,156,↓,left,←,1.0613104000221938,False,15
11M35,74,experiment,24,←,right,→,0.8341459999792278,False,15
11M35,75,experiment,48,←,right,→,0.7426758000510745,False,15
11M35,76,experiment,180,↓,right,→,0.9772750000120141,False,15
11M35,77,experiment,132,↓,left,←,0.707709199981764,False,15
11M35,78,experiment,168,→,right,→,0.9498337000259198,True,15
11M35,79,experiment,72,→,right,→,0.8644754000124522,True,15
11M35,80,experiment,12,↑,left,←,0.9800420999526978,False,15
11M35,81,experiment,72,←,left,←,0.7722123999847099,True,15
11M35,82,experiment,156,↑,right,→,0.9354091999703087,False,15
11M35,83,experiment,12,↑,left,←,1.2736321999691427,False,15
11M35,84,experiment,84,←,right,→,1.7552649999852292,False,15
11M35,85,experiment,60,↑,right,→,0.935542399995029,False,15
11M35,86,experiment,120,→,right,→,0.958595999982208,True,15
11M35,87,experiment,96,↑,no_key,no_letter,-1.0,False,15
11M35,88,experiment,144,↑,right,→,1.5115784999798052,False,15
11M35,89,experiment,144,←,no_key,no_letter,-1.0,False,15
11M35,90,experiment,84,↓,right,→,1.6924427999765612,False,15
11M35,91,experiment,132,↓,right,→,1.4866848000092432,False,15
11M35,92,experiment,60,→,right,→,0.955638799990993,True,15
11M35,93,experiment,24,↓,left,←,1.3210405999561772,False,15
11M35,94,training,96,↑,left,←,1.2312549999915063,False,16
11M35,95,training,48,→,left,←,0.9714461999828927,False,16
11M35,96,training,180,↑,no_key,no_letter,-1.0,False,16
11M35,97,experiment,72,←,left,←,1.002334700024221,True,16
11M35,98,experiment,144,↑,right,→,1.0651035999762826,False,16
11M35,99,experiment,12,↓,left,←,0.7583444000338204,False,16
11M35,100,experiment,120,→,right,→,0.9733461000141688,True,16
11M35,101,experiment,36,←,left,←,0.9903732999810018,True,16
11M35,102,experiment,36,←,left,←,0.8455004999996163,True,16
11M35,103,experiment,96,↑,right,→,1.0749514999915846,False,16
11M35,104,experiment,48,←,left,←,1.3119351000059396,True,16
11M35,105,experiment,72,↓,right,→,0.8629374000011012,False,16
11M35,106,experiment,60,↓,left,←,1.0547817000187933,False,16
11M35,107,experiment,168,↓,right,→,0.9133220000076108,False,16
11M35,108,experiment,120,→,left,←,0.8385706000262871,False,16
11M35,109,experiment,108,←,right,→,1.0616761999554,False,16
11M35,110,experiment,144,↑,right,→,0.8242275000084192,False,16
11M35,111,experiment,132,←,left,←,0.6357175000011921,True,16
11M35,112,experiment,168,→,left,←,0.7176559999934398,False,16
11M35,113,experiment,96,↓,right,→,0.9689395000459626,False,16
11M35,114,experiment,12,↑,left,←,1.1253370000049472,False,16
11M35,115,experiment,60,←,right,→,0.9366205999976955,False,16
11M35,116,experiment,24,←,right,→,0.7390536000020802,False,16
11M35,117,experiment,156,↑,right,→,0.7208917000098154,False,16
11M35,118,experiment,96,→,right,→,0.7193704999517649,True,16
11M35,119,experiment,72,↓,right,→,1.004903299966827,False,16
11M35,120,experiment,36,→,no_key,no_letter,-1.0,False,16
11M35,121,experiment,60,↑,left,←,0.7614975000033155,False,16
11M35,122,experiment,84,↓,right,→,0.8560777999809943,False,16
11M35,123,experiment,120,↑,left,←,0.9782011999632232,False,16
11M35,124,experiment,108,↓,left,←,1.0640991000109352,False,16
11M35,125,experiment,168,↓,no_key,no_letter,-1.0,False,16
11M35,126,experiment,180,↑,right,→,1.1435210999916308,False,16
11M35,127,experiment,60,↑,no_key,no_letter,-1.0,False,16
11M35,128,experiment,12,→,right,→,0.5756817999645136,True,16
11M35,129,experiment,120,↑,left,←,1.1554619999951683,False,16
11M35,130,experiment,96,→,right,→,1.0960086000268348,True,16
11M35,131,experiment,108,↓,left,←,1.048545399971772,False,16
11M35,132,experiment,180,↑,no_key,no_letter,-1.0,False,16
11M35,133,experiment,48,→,no_key,no_letter,-1.0,False,16
11M35,134,experiment,24,←,right,→,0.9031056999810971,False,16
11M35,135,experiment,24,←,left,←,0.7054250999935903,True,16
11M35,136,experiment,156,↓,left,←,1.4150264000054449,False,16
11M35,137,experiment,24,←,right,→,1.5620374000282027,False,16
11M35,138,experiment,12,←,left,←,0.8490572000155225,True,16
11M35,139,experiment,132,←,no_key,no_letter,-1.0,False,16
11M35,140,experiment,48,↑,left,←,0.937933899986092,False,16
11M35,141,experiment,156,→,left,←,0.9771699999691918,False,16
11M35,142,experiment,180,↑,left,←,1.0912858999799937,False,16
11M35,143,experiment,84,→,right,→,0.7856119999778457,True,16
11M35,144,experiment,36,↑,left,←,1.6781426999950781,False,16
11M35,145,experiment,156,→,left,←,1.0048199000302702,False,16
11M35,146,experiment,132,←,left,←,0.7686515999957919,True,16
11M35,147,experiment,180,↑,left,←,0.9567341000074521,False,16
11M35,148,experiment,168,↓,right,→,1.0770945000112988,False,16
11M35,149,experiment,132,←,left,←,1.0124665000475943,True,16
11M35,150,experiment,84,↓,left,←,0.8494590999907814,False,16
11M35,151,experiment,144,→,no_key,no_letter,-1.0,False,16
11M35,152,experiment,108,↓,left,←,1.073340799950529,False,16
11M35,153,experiment,48,→,right,→,1.254932900017593,True,16
11M35,154,experiment,84,→,right,→,0.6879218999529257,True,16
11M35,155,experiment,144,→,right,→,0.9620988999959081,True,16
11M35,156,experiment,72,→,left,←,0.7445101999910548,False,16
11M35,157,training,132,↓,no_key,no_letter,-1.0,False,17
11M35,158,training,60,↑,left,←,1.3027296000509523,False,17
11M35,159,training,12,←,left,←,1.3751697999541648,True,17
11M35,160,experiment,36,↑,left,←,1.0487128000240773,False,17
11M35,161,experiment,132,↓,left,←,1.2253840999910608,False,17
11M35,162,experiment,120,↑,left,←,1.3184344999608584,False,17
11M35,163,experiment,108,↑,up,↑,1.4036415999871679,True,17
11M35,164,experiment,144,→,left,←,1.5954247000045143,False,17
11M35,165,experiment,132,↑,right,→,1.1936629000119865,False,17
11M35,166,experiment,24,↑,no_key,no_letter,-1.0,False,17
11M35,167,experiment,24,→,right,→,0.7416543000144884,True,17
11M35,168,experiment,180,→,right,→,0.8010177999967709,True,17
11M35,169,experiment,60,←,left,←,1.0683674000320025,True,17
11M35,170,experiment,168,←,left,←,0.9358272000099532,True,17
11M35,171,experiment,144,←,left,←,0.7351414000149816,True,17
11M35,172,experiment,180,↑,left,←,1.1075832999777049,False,17
11M35,173,experiment,156,→,right,→,0.760041200031992,True,17
11M35,174,experiment,48,←,left,←,0.937217700004112,True,17
11M35,175,experiment,108,←,left,←,0.785684600006789,True,17
11M35,176,experiment,144,←,left,←,1.2391829999978654,True,17
11M35,177,experiment,72,→,left,←,0.978460299957078,False,17
11M35,178,experiment,168,↓,left,←,0.6533718999708071,False,17
11M35,179,experiment,144,↑,left,←,0.7273309000302106,False,17
11M35,180,experiment,60,←,left,←,0.9393402999849059,True,17
11M35,181,experiment,36,←,left,←,0.8980350000201724,True,17
11M35,182,experiment,72,↓,left,←,0.7013386000180617,False,17
11M35,183,experiment,96,↑,left,←,1.6977472000289708,False,17
11M35,184,experiment,36,←,left,←,0.8221122000250034,True,17
11M35,185,experiment,12,←,left,←,1.1631571999751031,True,17
11M35,186,experiment,108,→,left,←,1.0707112000091001,False,17
11M35,187,experiment,72,↓,left,←,1.089434900030028,False,17
11M35,188,experiment,156,↓,left,←,1.0771247000084259,False,17
11M35,189,experiment,48,↓,left,←,0.9706731000333093,False,17
11M35,190,experiment,168,↑,right,→,1.071092400001362,False,17
11M35,191,experiment,96,→,right,→,1.2045578000252135,True,17
11M35,192,experiment,120,→,right,→,1.185625499987509,True,17
11M35,193,experiment,12,→,left,←,1.0085132999811321,False,17
11M35,194,experiment,12,←,left,←,1.396334899996873,True,17
11M35,195,experiment,60,↑,left,←,1.0755467000417411,False,17
11M35,196,experiment,168,←,left,←,0.69948840001598,True,17
11M35,197,experiment,180,↑,no_key,no_letter,-1.0,False,17
11M35,198,experiment,180,↑,left,←,1.088947999989614,False,17
11M35,199,experiment,84,→,left,←,1.4853432000381872,False,17
11M35,200,experiment,132,↓,left,←,1.0043164999806322,False,17
11M35,201,experiment,48,→,no_key,no_letter,-1.0,False,17
11M35,202,experiment,24,↑,right,→,0.9823272000066936,False,17
11M35,203,experiment,96,↑,left,←,0.9416941999807023,False,17
11M35,204,experiment,24,↓,left,←,1.3233605000423267,False,17
11M35,205,experiment,60,↑,left,←,1.7103551999898627,False,17
11M35,206,experiment,120,←,left,←,0.8606326999724843,True,17
11M35,207,experiment,84,←,left,←,1.36118190002162,True,17
11M35,208,experiment,132,↑,up,↑,1.2685428999830037,True,17
11M35,209,experiment,72,→,right,→,0.9268355999956839,True,17
11M35,210,experiment,36,↓,right,→,0.9304369000019506,False,17
11M35,211,experiment,96,↓,up,↑,1.257617500028573,False,17
11M35,212,experiment,156,↓,left,←,1.4126816000207327,False,17
11M35,213,experiment,120,→,left,←,0.8886911000008695,False,17
11M35,214,experiment,12,↓,up,↑,1.9422920999932103,False,17
11M35,215,experiment,84,↑,up,↑,0.8995476000127383,True,17
11M35,216,experiment,48,→,right,→,1.006092499999795,True,17
11M35,217,experiment,156,←,left,←,1.8545648999861442,True,17
11M35,218,experiment,108,↑,up,↑,1.3054328000289388,True,17
11M35,219,experiment,84,↓,up,↑,1.2350070000393316,False,17
11M35,220,training,180,←,right,→,1.0944885999779217,False,18
11M35,221,training,60,↑,left,←,1.3498613000265323,False,18
11M35,222,training,108,↓,left,←,1.1517065000371076,False,18
11M35,223,experiment,96,←,right,→,1.3234997999970801,False,18
11M35,224,experiment,72,↑,right,→,1.3334047999815084,False,18
11M35,225,experiment,96,↑,right,→,1.4436653000302613,False,18
11M35,226,experiment,36,←,left,←,1.2901168999960646,True,18
11M35,227,experiment,120,↑,up,↑,1.3449426000006497,True,18
11M35,228,experiment,168,→,left,←,1.830040699976962,False,18
11M35,229,experiment,96,↓,left,←,1.3936626000213437,False,18
11M35,230,experiment,72,←,left,←,1.74980410002172,True,18
11M35,231,experiment,168,←,left,←,1.1250062999897636,True,18
11M35,232,experiment,168,↑,left,←,0.9472467000014149,False,18
11M35,233,experiment,180,↓,right,→,1.410670300014317,False,18
11M35,234,experiment,84,→,left,←,0.9290331000229344,False,18
11M35,235,experiment,120,↑,up,↑,1.296569800004363,True,18
11M35,236,experiment,24,↓,no_key,no_letter,-1.0,False,18
11M35,237,experiment,144,→,right,→,1.1594680999987759,True,18
11M35,238,experiment,120,↓,left,←,1.193720699986443,False,18
11M35,239,experiment,48,↓,up,↑,1.3270767999929376,False,18
11M35,240,experiment,12,↑,up,↑,1.363226699992083,True,18
11M35,241,experiment,156,↑,right,→,0.8384043999831192,False,18
11M35,242,experiment,108,←,right,→,0.9916709000244737,False,18
11M35,243,experiment,84,↑,up,↑,1.2565670000039972,True,18
11M35,244,experiment,156,←,left,←,0.9913813999737613,True,18
11M35,245,experiment,24,↓,right,→,0.8429451999836601,False,18
11M35,246,experiment,60,←,right,→,1.1447735999827273,False,18
11M35,247,experiment,24,→,right,→,1.1219601000193506,True,18
11M35,248,experiment,132,↓,right,→,1.1529268000158481,False,18
11M35,249,experiment,144,←,up,↑,1.1936199000338092,False,18
11M35,250,experiment,36,←,left,←,1.6892931000329554,True,18
11M35,251,experiment,60,↑,right,→,0.9457437000237405,False,18
11M35,252,experiment,48,→,right,→,0.6751168000046164,True,18
11M35,253,experiment,132,↓,right,→,0.7900824000244029,False,18
11M35,254,experiment,132,↑,up,↑,0.9635768000152893,True,18
11M35,255,experiment,72,↑,right,→,0.7382982000126503,False,18
11M35,256,experiment,60,↑,right,→,1.621763099974487,False,18
11M35,257,experiment,12,↑,down,↓,1.5186176999704912,False,18
11M35,258,experiment,180,←,up,↑,1.1272537999902852,False,18
11M35,259,experiment,36,←,right,→,0.9099493999965489,False,18
11M35,260,experiment,12,↑,up,↑,0.9685679000103846,True,18
11M35,261,experiment,144,→,down,↓,1.3445861000218429,False,18
11M35,262,experiment,180,↓,down,↓,1.3832909999764524,True,18
11M35,263,experiment,156,↑,right,→,1.3584853999782354,False,18
11M35,264,experiment,120,←,right,→,1.1051151000428945,False,18
11M35,265,experiment,72,←,right,→,1.1208243000437506,False,18
11M35,266,experiment,12,↑,down,↓,1.6915451000095345,False,18
11M35,267,experiment,108,↑,up,↑,1.5241402999963611,True,18
11M35,268,experiment,144,↑,left,←,1.7741653000121005,False,18
11M35,269,experiment,36,↑,up,↑,0.7897886999999173,True,18
11M35,270,experiment,108,↑,up,↑,1.1875965999788605,True,18
11M35,271,experiment,48,←,right,→,0.9118801000295207,False,18
11M35,272,experiment,156,←,right,→,0.9840410000178963,False,18
11M35,273,experiment,168,→,left,←,0.9394130999571644,False,18
11M35,274,experiment,84,↓,up,↑,1.3504376000491902,False,18
11M35,275,experiment,84,←,right,→,0.8900666999979876,False,18
11M35,276,experiment,48,↑,left,←,1.0511412000050768,False,18
11M35,277,experiment,24,↓,right,→,1.7516305000171997,False,18
11M35,278,experiment,180,←,up,↑,1.065374800004065,False,18
11M35,279,experiment,108,←,left,←,0.8451906999689527,True,18
11M35,280,experiment,132,←,left,←,0.9292890999931842,True,18
11M35,281,experiment,60,→,left,←,1.3020987999625504,False,18
11M35,282,experiment,96,↑,left,←,1.041097700013779,False,18
11M35,283,training,120,↓,right,→,0.9758978999452665,False,18
11M35,284,training,180,↑,up,↑,1.0092437000130303,True,18
11M35,285,training,36,→,left,←,1.1266767000197433,False,18
11M35,286,experiment,120,↓,right,→,1.171787100029178,False,18
11M35,287,experiment,96,←,left,←,0.7928730000276119,True,18
11M35,288,experiment,156,↑,left,←,1.0819482000079006,False,18
11M35,289,experiment,108,↓,left,←,1.081536400015466,False,18
11M35,290,experiment,108,↑,up,↑,0.7552566999802366,True,18
11M35,291,experiment,84,↓,no_key,no_letter,-1.0,False,18
11M35,292,experiment,108,←,left,←,0.7787845000275411,True,18
11M35,293,experiment,180,↑,up,↑,0.8377863999921829,True,18
11M35,294,experiment,96,→,left,←,1.110143700032495,False,18
11M35,295,experiment,24,↓,left,←,1.0628498999867588,False,18
11M35,296,experiment,132,←,right,→,0.8489508999628015,False,18
11M35,297,experiment,72,←,left,←,1.0959382000146434,True,18
11M35,298,experiment,132,↓,no_key,no_letter,-1.0,False,18
11M35,299,experiment,144,↑,left,←,1.153774300008081,False,18
11M35,300,experiment,108,←,right,→,0.7570532000390813,False,18
11M35,301,experiment,36,→,left,←,0.9224254000000656,False,18
11M35,302,experiment,168,↑,up,↑,1.1048087000381202,True,18
11M35,303,experiment,12,→,right,→,0.9884482000488788,True,18
11M35,304,experiment,96,↑,right,→,1.1583285999950022,False,18
11M35,305,experiment,36,←,right,→,1.0992658999748528,False,18
11M35,306,experiment,24,←,no_key,no_letter,-1.0,False,18
11M35,307,experiment,36,→,right,→,0.7541016999748535,True,18
11M35,308,experiment,12,→,right,→,0.823635800043121,True,18
11M35,309,experiment,12,→,no_key,no_letter,-1.0,False,18
11M35,310,experiment,168,↑,right,→,1.6306542999809608,False,18
11M35,311,experiment,48,↓,right,→,1.3003994000027888,False,18
11M35,312,experiment,120,↑,left,←,1.2632951000123285,False,18
11M35,313,experiment,48,←,right,→,0.7769850000040606,False,18
11M35,314,experiment,60,←,up,↑,1.128357000008691,False,18
11M35,315,experiment,60,↑,up,↑,1.1439703999785706,True,18
11M35,316,experiment,60,→,right,→,0.753761800006032,True,18
11M35,317,experiment,84,←,right,→,1.0434561999863945,False,18
11M35,318,experiment,72,←,left,←,0.9896926999790594,True,18
11M35,319,experiment,180,←,left,←,0.7818205999792553,True,18
11M35,320,experiment,180,→,left,←,0.9659370000008494,False,18
11M35,321,experiment,144,↑,left,←,1.344720099994447,False,18
11M35,322,experiment,24,↓,right,→,1.0761927000130527,False,18
11M35,323,experiment,156,↑,right,→,1.2344052999978885,False,18
11M35,324,experiment,36,←,no_key,no_letter,-1.0,False,18
11M35,325,experiment,168,↑,right,→,0.8281419999548234,False,18
11M35,326,experiment,156,→,right,→,0.9186097999918275,True,18
11M35,327,experiment,48,↑,right,→,1.0895765000022948,False,18
11M35,328,experiment,132,→,right,→,0.6952595000038855,True,18
11M35,329,experiment,120,→,left,←,0.8972752999980003,False,18
11M35,330,experiment,84,↓,right,→,1.074547199998051,False,18
11M35,331,experiment,60,↓,right,→,1.049349099979736,False,18
11M35,332,experiment,120,→,right,→,0.6854813999962062,True,18
11M35,333,experiment,72,←,right,→,0.7328675999888219,False,18
11M35,334,experiment,144,←,right,→,1.5219386999960989,False,18
11M35,335,experiment,48,↑,up,↑,1.7546670000301674,True,18
11M35,336,experiment,144,↓,right,→,0.795373999979347,False,18
11M35,337,experiment,84,←,right,→,0.8034422000055201,False,18
11M35,338,experiment,168,↓,left,←,1.0413573000114411,False,18
11M35,339,experiment,156,←,left,←,1.0587519999826327,True,18
11M35,340,experiment,96,←,right,→,0.8761238000006415,False,18
11M35,341,experiment,72,↑,left,←,1.2353781000128947,False,18
11M35,342,experiment,12,↓,right,→,0.9969240000355057,False,18
11M35,343,experiment,132,↑,down,↓,1.8418285000370815,False,18
11M35,344,experiment,24,↑,down,↓,1.098824999993667,False,18
11M35,345,experiment,180,←,down,↓,1.482089700002689,False,18
11M35,346,training,168,↓,left,←,1.3322141999960877,False,18
11M35,347,training,144,↑,up,↑,0.9774682000279427,True,18
11M35,348,training,12,→,no_key,no_letter,-1.0,False,18
11M35,349,experiment,48,→,left,←,1.1865109000355005,False,18
11M35,350,experiment,60,↑,left,←,0.9083614000119269,False,18
11M35,351,experiment,48,↑,right,→,1.0064643999794498,False,18
11M35,352,experiment,168,→,left,←,0.8414053000160493,False,18
11M35,353,experiment,72,←,left,←,0.7015373000176623,True,18
11M35,354,experiment,96,↑,left,←,1.15262479998637,False,18
11M35,355,experiment,108,↓,right,→,1.3690660000429489,False,18
11M35,356,experiment,156,←,left,←,1.1134479999891482,True,18
11M35,357,experiment,180,↓,up,↑,0.967913500033319,False,18
11M35,358,experiment,84,↑,up,↑,1.040202199947089,True,18
11M35,359,experiment,120,←,left,←,1.1147663000156172,True,18
11M35,360,experiment,12,↓,right,→,1.0553239000146277,False,18
11M35,361,experiment,24,←,left,←,0.8776498000370339,True,18
11M35,362,experiment,72,↓,left,←,0.8119670000160113,False,18
11M35,363,experiment,144,←,left,←,1.0336402999819256,True,18
11M35,364,experiment,156,→,left,←,0.8756346000009216,False,18
11M35,365,experiment,24,←,no_key,no_letter,-1.0,False,18
11M35,366,experiment,168,↑,up,↑,0.7897614000248723,True,18
11M35,367,experiment,24,←,left,←,0.6595841000089422,True,18
11M35,368,experiment,36,↓,left,←,1.0594958000001498,False,18
11M35,369,experiment,72,←,right,→,0.7747231000103056,False,18
11M35,370,experiment,132,↓,left,←,0.9630537999910302,False,18
11M35,371,experiment,120,↑,left,←,1.23058500001207,False,18
11M35,372,experiment,72,→,right,→,0.8372619999572635,True,18
11M35,373,experiment,180,←,left,←,0.8840285000042059,True,18
11M35,374,experiment,168,→,right,→,1.0782379999873228,True,18
11M35,375,experiment,84,→,left,←,0.7469615999725647,False,18
11M35,376,experiment,36,↑,left,←,0.9329740999964997,False,18
11M35,377,experiment,48,→,up,↑,1.3611696000443771,False,18
11M35,378,experiment,12,↓,left,←,1.1160432000178844,False,18
11M35,379,experiment,24,→,right,→,0.795055800001137,True,18
11M35,380,experiment,180,←,left,←,0.6752616000012495,True,18
11M35,381,experiment,48,←,right,→,0.9188660000218078,False,18
11M35,382,experiment,60,↑,right,→,0.8821914999862202,False,18
11M35,383,experiment,180,→,left,←,0.6788718999596313,False,18
11M35,384,experiment,132,←,left,←,0.5267875000135973,True,18
11M35,385,experiment,36,↑,right,→,0.9252298999927007,False,18
11M35,386,experiment,60,←,left,←,0.9254136999952607,True,18
11M35,387,experiment,108,←,left,←,0.8454333000117913,True,18
11M35,388,experiment,156,→,left,←,0.7998656000127085,False,18
11M35,389,experiment,36,↑,right,→,1.5554362999973819,False,18
11M35,390,experiment,120,←,left,←,0.7826347000082023,True,18
11M35,391,experiment,12,←,down,↓,1.3232457000412978,False,18
11M35,392,experiment,84,↑,left,←,1.1329819999518804,False,18
11M35,393,experiment,108,→,left,←,0.7018906000303105,False,18
11M35,394,experiment,144,←,left,←,0.8014421000261791,True,18
11M35,395,experiment,96,↓,left,←,1.0146379999932833,False,18
11M35,396,experiment,132,→,right,→,0.7452081000083126,True,18
11M35,397,experiment,156,↓,left,←,1.063055999984499,False,18
11M35,398,experiment,96,↑,left,←,1.0997425999958068,False,18
11M35,399,experiment,108,→,left,←,0.8608953000511974,False,18
11M35,400,experiment,144,↓,left,←,1.0320335000287741,False,18
11M35,401,experiment,12,↑,right,→,0.9283522000187077,False,18
11M35,402,experiment,120,↓,no_key,no_letter,-1.0,False,18
11M35,403,experiment,84,↓,right,→,1.3667238000198267,False,18
11M35,404,experiment,168,←,left,←,0.7456849000300281,True,18
11M35,405,experiment,144,←,left,←,0.7536509999772534,True,18
11M35,406,experiment,96,←,left,←,0.8174055000417866,True,18
11M35,407,experiment,132,↑,left,←,1.0274917000206187,False,18
11M35,408,experiment,60,↓,left,←,1.10603570000967,False,18
11M35,409,training,72,→,right,→,1.0280422999639995,True,18
11M35,410,training,12,→,right,→,0.9339086000109091,True,18
11M35,411,training,108,↓,right,→,1.45044990000315,False,18
11M35,412,experiment,12,→,right,→,1.598150700039696,True,18
11M35,413,experiment,144,←,right,→,1.1409445999888703,False,18
11M35,414,experiment,120,↑,down,↓,1.6498335999785922,False,18
11M35,415,experiment,24,←,right,→,1.0902040000073612,False,18
11M35,416,experiment,120,→,right,→,1.362669599999208,True,18
11M35,417,experiment,12,↓,left,←,1.3664362999843433,False,18
11M35,418,experiment,84,→,left,←,1.1270664000185207,False,18
11M35,419,experiment,132,↓,down,↓,1.8774885999737307,True,18
11M35,420,experiment,168,→,left,←,0.8920247000060044,False,18
11M35,421,experiment,84,↑,left,←,0.9716611999901943,False,18
11M35,422,experiment,120,↑,left,←,0.9875577000202611,False,18
11M35,423,experiment,156,←,left,←,0.8564884000224993,True,18
11M35,424,experiment,24,→,right,→,0.7883878000429831,True,18
11M35,425,experiment,108,↑,right,→,1.0631484999903478,False,18
11M35,426,experiment,72,↑,right,→,1.1514478999888524,False,18
11M35,427,experiment,132,←,right,→,1.0710124999750406,False,18
11M35,428,experiment,168,→,right,→,0.6957796000060625,True,18
11M35,429,experiment,72,↓,no_key,no_letter,-1.0,False,18
11M35,430,experiment,48,↑,right,→,1.0509085999801755,False,18
11M35,431,experiment,24,←,right,→,0.913708999985829,False,18
11M35,432,experiment,72,→,right,→,0.8101313000079244,True,18
11M35,433,experiment,96,↑,right,→,1.0040928000234999,False,18
11M35,434,experiment,156,↓,up,↑,1.3090895999921486,False,18
11M35,435,experiment,36,↓,left,←,0.8806795999989845,False,18
11M35,436,experiment,144,↓,right,→,1.1539304999751039,False,18
11M35,437,experiment,120,↓,no_key,no_letter,-1.0,False,18
11M35,438,experiment,180,→,left,←,0.00025290000485256314,False,18
11M35,439,experiment,60,↑,right,→,1.2240348999621347,False,18
11M35,440,experiment,108,→,right,→,0.7914329000050202,True,18
11M35,441,experiment,180,→,left,←,1.055805500014685,False,18
11M35,442,experiment,24,↓,left,←,0.940052599995397,False,18
11M35,443,experiment,36,↓,left,←,1.1985808000317775,False,18
11M35,444,experiment,60,↑,up,↑,1.328867000003811,True,18
11M35,445,experiment,36,←,left,←,1.0125328000285663,True,18
11M35,446,experiment,132,↓,up,↑,1.2167464999947697,False,18
11M35,447,experiment,84,↓,up,↑,1.0754842000314966,False,18
11M35,448,experiment,12,↓,up,↑,1.371816300030332,False,18
11M35,449,experiment,60,←,left,←,1.2628040999989025,True,18
11M35,450,experiment,12,↓,left,←,1.7292565999669023,False,18
11M35,451,experiment,96,←,left,←,1.2593479999923147,True,18
11M35,452,experiment,168,→,right,→,0.8185769999981858,True,18
11M35,453,experiment,60,↑,right,→,0.9844034999841824,False,18
11M35,454,experiment,168,←,left,←,1.4648330000345595,True,18
11M35,455,experiment,84,→,left,←,1.0977283000247553,False,18
11M35,456,experiment,144,↓,right,→,0.7661184999742545,False,18
11M35,457,experiment,36,←,right,→,0.9940294999978505,False,18
11M35,458,experiment,96,→,right,→,0.981565700029023,True,18
11M35,459,experiment,48,→,right,→,0.9348341000149958,True,18
11M35,460,experiment,72,↓,left,←,0.9193620000150986,False,18
11M35,461,experiment,96,←,left,←,0.9461384000023827,True,18
11M35,462,experiment,48,↑,left,←,1.0251133000128902,False,18
11M35,463,experiment,108,→,left,←,1.1163696000003256,False,18
11M35,464,experiment,156,↑,right,→,0.9472889000317082,False,18
11M35,465,experiment,144,↓,right,→,1.1384644000208937,False,18
11M35,466,experiment,180,→,right,→,0.8198759999941103,True,18
11M35,467,experiment,132,→,left,←,0.9739603000343777,False,18
11M35,468,experiment,156,↑,right,→,1.2829427999677137,False,18
11M35,469,experiment,180,↑,up,↑,1.4632270999718457,True,18
11M35,470,experiment,108,←,up,↑,1.775117399985902,False,18
11M35,471,experiment,48,↓,left,←,1.0525440000346862,False,18
11M35,472,training,60,↑,up,↑,1.0238858999800868,True,18
11M35,473,training,24,↓,right,→,0.733029399998486,False,18
11M35,474,training,156,↑,up,↑,1.016966700030025,True,18
11M35,475,experiment,168,←,left,←,0.8492133999825455,True,18
11M35,476,experiment,120,↓,left,←,1.0837700000265613,False,18
11M35,477,experiment,96,↓,left,←,1.0536889000213705,False,18
11M35,478,experiment,48,↓,up,↑,1.1142708000261337,False,18
11M35,479,experiment,36,→,right,→,1.137798500014469,True,18
11M35,480,experiment,24,→,left,←,1.134730399993714,False,18
11M35,481,experiment,60,↓,up,↑,0.9005720999557525,False,18
11M35,482,experiment,180,→,up,↑,1.1243707000394352,False,18
11M35,483,experiment,132,↓,left,←,0.9488986000069417,False,18
11M35,484,experiment,72,←,right,→,0.9588135000085458,False,18
11M35,485,experiment,132,↓,left,←,1.3976158000295982,False,18
11M35,486,experiment,156,↑,up,↑,0.7392442999989726,True,18
11M35,487,experiment,156,←,up,↑,1.185787900001742,False,18
11M35,488,experiment,96,→,up,↑,0.7952006999985315,False,18
11M35,489,experiment,72,←,left,←,0.8814515999983996,True,18
11M35,490,experiment,72,↓,down,↓,1.4919068000162952,True,18
11M35,491,experiment,24,↑,left,←,1.008837900008075,False,18
11M35,492,experiment,36,↓,up,↑,1.2253038000199012,False,18
11M35,493,experiment,144,↑,up,↑,0.7243316000094637,True,18
11M35,494,experiment,180,→,left,←,1.0702680999529548,False,18
11M35,495,experiment,84,↓,left,←,1.4944051000056788,False,18
11M35,496,experiment,72,↑,down,↓,1.545140200003516,False,18
11M35,497,experiment,12,↓,left,←,1.0299410999868996,False,18
11M35,498,experiment,60,←,left,←,0.985489500046242,True,18
11M35,499,experiment,60,→,right,→,0.8339813000056893,True,18
11M35,500,experiment,120,↑,right,→,1.2412953000166453,False,18
11M35,501,experiment,120,←,no_key,no_letter,-1.0,False,18
11M35,502,experiment,108,↓,right,→,1.1324409999651834,False,18
11M35,503,experiment,156,←,right,→,0.8749074999941513,False,18
11M35,504,experiment,96,↑,right,→,0.909890600014478,False,18
11M35,505,experiment,48,→,no_key,no_letter,-1.0,False,18
11M35,506,experiment,12,←,right,→,0.8373681999510154,False,18
11M35,507,experiment,36,←,left,←,0.597078499966301,True,18
11M35,508,experiment,180,↑,right,→,0.6247279000235721,False,18
11M35,509,experiment,36,↓,right,→,0.6879721999866888,False,18
11M35,510,experiment,144,←,right,→,0.85289089998696,False,18
11M35,511,experiment,48,→,right,→,0.5933377000037581,True,18
11M35,512,experiment,180,↓,right,→,0.8900271999882534,False,18
11M35,513,experiment,60,↓,left,←,0.930885199981276,False,18
11M35,514,experiment,156,←,left,←,0.7702914999681525,True,18
11M35,515,experiment,24,→,right,→,1.3396980999968946,True,18
11M35,516,experiment,84,↑,right,→,1.1208734000101686,False,18
11M35,517,experiment,108,↓,no_key,no_letter,-1.0,False,18
11M35,518,experiment,96,↓,right,→,1.3141245999722742,False,18
11M35,519,experiment,168,←,right,→,0.9227575000259094,False,18
11M35,520,experiment,168,→,left,←,1.0330788000137545,False,18
11M35,521,experiment,168,↓,right,→,1.1104631000198424,False,18
11M35,522,experiment,132,↓,no_key,no_letter,-1.0,False,18
11M35,523,experiment,108,↑,up,↑,1.8163763000047766,True,18
11M35,524,experiment,84,↓,right,→,0.9536329999682494,False,18
11M35,525,experiment,84,↑,right,→,1.3454865000094287,False,18
11M35,526,experiment,132,↓,left,←,1.7274362999596633,False,18
11M35,527,experiment,12,←,left,←,1.2530014999792911,True,18
11M35,528,experiment,24,→,right,→,1.2904444999876432,True,18
11M35,529,experiment,12,↓,right,→,1.05902560002869,False,18
11M35,530,experiment,144,←,left,←,1.834421299980022,True,18
11M35,531,experiment,120,←,up,↑,1.4435369999846444,False,18
11M35,532,experiment,108,→,up,↑,0.9710109999869019,False,18
11M35,533,experiment,144,↓,up,↑,1.074473799963016,False,18
11M35,534,experiment,48,↑,left,←,1.68995139998151,False,18
11M35,535,training,84,←,left,←,1.269287400005851,True,18
11M35,536,training,108,↑,left,←,1.4443965000100434,False,18
11M35,537,training,48,↑,up,↑,1.0366259000147693,True,18
11M35,538,experiment,108,↑,up,↑,0.7199867999879643,True,18
11M35,539,experiment,24,→,right,→,0.9377380000078119,True,18
11M35,540,experiment,108,↓,up,↑,1.240724199975375,False,18
11M35,541,experiment,96,↓,up,↑,1.5686005000025034,False,18
11M35,542,experiment,180,→,left,←,1.5309676000033505,False,18
11M35,543,experiment,12,→,right,→,1.2582542999880388,True,18
11M35,544,experiment,24,↑,left,←,1.2580516999587417,False,18
11M35,545,experiment,72,↑,left,←,1.6233724000048824,False,18
11M35,546,experiment,48,↑,up,↑,1.0093675999669358,True,18
11M35,547,experiment,84,↑,left,←,1.149458100029733,False,18
11M35,548,experiment,96,→,right,→,0.840478099999018,True,18
11M35,549,experiment,36,↓,down,↓,1.4599092999706045,True,18
11M35,550,experiment,60,↓,up,↑,1.157962299999781,False,18
11M35,551,experiment,108,↑,up,↑,1.193903500039596,True,18
11M35,552,experiment,108,→,right,→,0.7604324999847449,True,18
11M35,553,experiment,132,↓,right,→,1.7027089999755844,False,18
11M35,554,experiment,156,→,right,→,0.8077523999963887,True,18
11M35,555,experiment,168,↓,up,↑,1.0963237000396475,False,18
11M35,556,experiment,72,←,right,→,1.2945389000233263,False,18
11M35,557,experiment,48,→,up,↑,1.1372262999648228,False,18
11M35,558,experiment,180,←,up,↑,0.8858025000081398,False,18
11M35,559,experiment,48,→,left,←,1.0558867999934591,False,18
11M35,560,experiment,132,↑,up,↑,0.7286364000174217,True,18
11M35,561,experiment,12,←,up,↑,1.2043025000020862,False,18
11M35,562,experiment,120,↓,up,↑,1.1781984999543056,False,18
11M35,563,experiment,168,↑,up,↑,1.0763460000162013,True,18
11M35,564,experiment,84,←,right,→,0.8680042999912985,False,18
11M35,565,experiment,72,←,right,→,1.0582630999851972,False,18
11M35,566,experiment,120,↓,right,→,0.5565506999846548,False,18
11M35,567,experiment,168,→,right,→,0.7983729999978095,True,18
11M35,568,experiment,60,←,right,→,0.8196176000055857,False,18
11M35,569,experiment,12,←,right,→,1.0048379999934696,False,18
11M35,570,experiment,144,←,right,→,0.7111078000161797,False,18
11M35,571,experiment,60,←,right,→,0.9529049000120722,False,18
11M35,572,experiment,24,↑,up,↑,1.566287999972701,True,18
11M35,573,experiment,144,←,left,←,0.8633572999970056,True,18
11M35,574,experiment,156,↓,left,←,0.7373550000484101,False,18
11M35,575,experiment,156,↑,up,↑,1.7224627999821678,True,18
11M35,576,experiment,132,←,right,→,0.7761869999812916,False,18
11M35,577,experiment,180,→,right,→,1.1619127000449225,True,18
11M35,578,experiment,168,←,left,←,0.8751750000519678,True,18
11M35,579,experiment,96,←,left,←,1.7319851000211202,True,18
11M35,580,experiment,12,→,right,→,1.1377149000181817,True,18
11M35,581,experiment,144,←,right,→,1.0913513000123203,False,18
11M35,582,experiment,156,↑,left,←,0.9169711999711581,False,18
11M35,583,experiment,132,→,right,→,0.815065799979493,True,18
11M35,584,experiment,60,↓,left,←,0.9206686000106856,False,18
11M35,585,experiment,24,↓,left,←,1.07231459999457,False,18
11M35,586,experiment,36,↓,up,↑,1.9309451000299305,False,18
11M35,587,experiment,120,↑,up,↑,1.6121037999982946,True,18
11M35,588,experiment,48,↑,no_key,no_letter,-1.0,False,18
11M35,589,experiment,84,↑,left,←,1.1063320999965072,False,18
11M35,590,experiment,144,↓,down,↓,1.089544200047385,True,18
11M35,591,experiment,120,↑,up,↑,1.2128994000377133,True,18
11M35,592,experiment,36,↓,right,→,1.3381741000339389,False,18
11M35,593,experiment,96,→,up,↑,1.1957564000040293,False,18
11M35,594,experiment,84,←,left,←,1.0945059999939986,True,18
11M35,595,experiment,180,↑,right,→,1.5993738999823108,False,18
11M35,596,experiment,36,↑,up,↑,1.160498599987477,True,18
11M35,597,experiment,72,←,left,←,0.9153380999923684,True,18
11M35,598,training,72,↓,up,↑,1.252971499983687,False,18
11M35,599,training,72,↓,up,↑,1.1728984999936074,False,18
11M35,600,training,168,→,right,→,0.8679622000199743,True,18
11M35,601,experiment,108,←,up,↑,1.3659864999935962,False,18
11M35,602,experiment,84,↑,up,↑,1.341551800025627,True,18
11M35,603,experiment,36,←,left,←,0.9470693000475876,True,18
11M35,604,experiment,84,→,left,←,0.9914143000496551,False,18
11M35,605,experiment,72,↓,left,←,0.8808251000009477,False,18
11M35,606,experiment,96,↑,up,↑,1.0432170999702066,True,18
11M35,607,experiment,120,→,right,→,0.7759399000206031,True,18
11M35,608,experiment,24,→,right,→,0.7017081999802031,True,18
11M35,609,experiment,120,↑,right,→,0.9601770000299439,False,18
11M35,610,experiment,24,←,left,←,0.6398049999843352,True,18
11M35,611,experiment,60,↑,up,↑,0.8971353999804705,True,18
11M35,612,experiment,156,←,left,←,1.1860674999770708,True,18
11M35,613,experiment,168,←,left,←,0.9481506000156514,True,18
11M35,614,experiment,96,↑,left,←,1.0193195000174455,False,18
11M35,615,experiment,24,↓,up,↑,1.3004278000444174,False,18
11M35,616,experiment,108,→,up,↑,1.0813461999641731,False,18
11M35,617,experiment,12,↓,up,↑,0.9396497000125237,False,18
11M35,618,experiment,180,↓,up,↑,1.246055499999784,False,18
11M35,619,experiment,60,→,right,→,1.196740499988664,True,18
11M35,620,experiment,24,↑,right,→,1.2259340999880806,False,18
11M35,621,experiment,36,↓,right,→,0.977330100024119,False,18
11M35,622,experiment,48,←,left,←,1.3498201000038534,True,18
11M35,623,experiment,48,↑,up,↑,1.3711084999958985,True,18
11M35,624,experiment,84,↑,right,→,1.2340325000113808,False,18
11M35,625,experiment,72,↓,up,↑,1.2025877000414766,False,18
11M35,626,experiment,168,↑,up,↑,1.0151206000009552,True,18
11M35,627,experiment,132,←,right,→,0.8430355999735184,False,18
11M35,628,experiment,12,→,right,→,0.8370080000022426,True,18
11M35,629,experiment,60,↓,up,↑,1.0969034999725409,False,18
11M35,630,experiment,72,↓,up,↑,0.9149208000162616,False,18
11M35,631,experiment,120,←,up,↑,1.0458435000036843,False,18
11M35,632,experiment,72,↑,up,↑,0.8648944000015035,True,18
11M35,633,experiment,36,→,right,→,0.9610918999533169,True,18
11M35,634,experiment,144,↓,down,↓,1.3227416999870911,True,18
11M35,635,experiment,132,→,right,→,0.7983836999628693,True,18
11M35,636,experiment,144,↑,right,→,1.028077700000722,False,18
11M35,637,experiment,12,←,right,→,0.8137924000038765,False,18
11M35,638,experiment,96,→,right,→,0.5421679000137374,True,18
11M35,639,experiment,84,↑,right,→,0.9733556999708526,False,18
11M35,640,experiment,168,↑,right,→,1.0770786000066437,False,18
11M35,641,experiment,108,←,up,↑,1.3641947000287473,False,18
11M35,642,experiment,156,←,left,←,0.9911571000120603,True,18
11M35,643,experiment,36,↑,up,↑,0.711662600049749,True,18
11M35,644,experiment,12,↓,up,↑,0.978005499986466,False,18
11M35,645,experiment,132,↑,left,←,1.1209834999754094,False,18
11M35,646,experiment,180,↓,left,←,1.0003590999986045,False,18
11M35,647,experiment,48,↑,up,↑,1.0492443999974057,True,18
11M35,648,experiment,156,↑,up,↑,0.7026258999831043,True,18
11M35,649,experiment,96,→,up,↑,0.8582636999781244,False,18
11M35,650,experiment,108,↓,up,↑,0.7614336999831721,False,18
11M35,651,experiment,48,→,right,→,0.6466108000022359,True,18
11M35,652,experiment,144,↑,right,→,1.3016591000487097,False,18
11M35,653,experiment,144,↓,right,→,1.012759700010065,False,18
11M35,654,experiment,132,↑,up,↑,1.106204700015951,True,18
11M35,655,experiment,120,→,right,→,0.9674850999726914,True,18
11M35,656,experiment,156,↓,right,→,1.3460776000283659,False,18
11M35,657,experiment,60,→,right,→,0.7559943000087515,True,18
11M35,658,experiment,168,↑,right,→,0.758722200000193,False,18
11M35,659,experiment,180,→,right,→,1.0921694000135176,True,18
11M35,660,experiment,180,↑,right,→,1.014745699998457,False,18
11M35,661,training,168,↓,right,→,0.5864054999547079,False,18
11M35,662,training,36,←,right,→,0.8225042999838479,False,18
11M35,663,training,180,←,up,↑,0.9623259999789298,False,18
11M35,664,experiment,156,↑,left,←,1.153178200009279,False,18
11M35,665,experiment,180,↑,up,↑,0.8545604000100866,True,18
11M35,666,experiment,84,↑,up,↑,0.8882370999781415,True,18
11M35,667,experiment,120,→,right,→,0.7759831000003032,True,18
11M35,668,experiment,96,↓,up,↑,0.8613197999657132,False,18
11M35,669,experiment,84,→,up,↑,0.8814840000122786,False,18
11M35,670,experiment,48,↑,left,←,1.431303100020159,False,18
11M35,671,experiment,72,↓,up,↑,0.9032637000200339,False,18
11M35,672,experiment,60,↓,down,↓,1.0151722999871708,True,18
11M35,673,experiment,120,→,down,↓,1.1074908000300638,False,18
11M35,674,experiment,24,↓,down,↓,1.3893539999844506,True,18
11M35,675,experiment,12,←,down,↓,1.8781388999777846,False,18
11M35,676,experiment,96,→,right,→,1.231915200012736,True,18
11M35,677,experiment,144,↓,up,↑,1.2087750000064261,False,18
11M35,678,experiment,156,←,left,←,0.9234017999842763,True,18
11M35,679,experiment,108,↓,down,↓,1.2445162000367418,True,18
11M35,680,experiment,144,→,left,←,0.883435100025963,False,18
11M35,681,experiment,168,↓,right,→,1.0768566000042483,False,18
11M35,682,experiment,108,↑,right,→,0.9375194999738596,False,18
11M35,683,experiment,72,→,left,←,0.7673096000216901,False,18
11M35,684,experiment,24,↓,right,→,1.0098816999816336,False,18
11M35,685,experiment,12,→,right,→,1.5918976999819279,True,18
11M35,686,experiment,84,↓,right,→,1.6571960000437684,False,18
11M35,687,experiment,132,↑,right,→,1.242182900023181,False,18
11M35,688,experiment,96,↓,right,→,1.1279682000167668,False,18
11M35,689,experiment,180,→,right,→,0.7710431000450626,True,18
11M35,690,experiment,60,↑,right,→,0.7528958999901079,False,18
11M35,691,experiment,132,↑,right,→,0.8687477000057697,False,18
11M35,692,experiment,48,→,right,→,0.5668084000353701,True,18
11M35,693,experiment,120,←,left,←,1.0841866999980994,True,18
11M35,694,experiment,132,↑,left,←,1.5050805000355467,False,18
11M35,695,experiment,72,←,left,←,1.1072089000372216,True,18
11M35,696,experiment,36,→,left,←,1.5130875000031665,False,18
11M35,697,experiment,144,↓,down,↓,1.1671574999927543,True,18
11M35,698,experiment,180,→,right,→,0.8224459000048228,True,18
11M35,699,experiment,48,←,no_key,no_letter,-1.0,False,18
11M35,700,experiment,108,←,right,→,1.1399325000238605,False,18
11M35,701,experiment,168,←,left,←,0.7645604999852367,True,18
11M35,702,experiment,120,↑,right,→,1.0120802000164986,False,18
11M35,703,experiment,84,→,right,→,0.993857899971772,True,18
11M35,704,experiment,132,→,left,←,0.8259113000240177,False,18
11M35,705,experiment,36,→,right,→,0.6865174000267871,True,18
11M35,706,experiment,60,←,right,→,0.7197008000221103,False,18
11M35,707,experiment,168,→,right,→,0.7738877999945544,True,18
11M35,708,experiment,108,←,right,→,0.7264991000411101,False,18
11M35,709,experiment,144,←,right,→,1.0343062999891117,False,18
11M35,710,experiment,168,↑,right,→,1.0860508999903686,False,18
11M35,711,experiment,180,↑,right,→,1.0896749999956228,False,18
11M35,712,experiment,96,↓,right,→,1.598227400041651,False,18
11M35,713,experiment,24,←,right,→,0.9303719000308774,False,18
11M35,714,experiment,12,←,left,←,1.4698969000019133,True,18
11M35,715,experiment,36,→,left,←,1.2415737000410445,False,18
11M35,716,experiment,60,→,right,→,0.676850599993486,True,18
11M35,717,experiment,36,←,left,←,0.750081800040789,True,18
11M35,718,experiment,48,↓,left,←,0.9522395000094548,False,18
11M35,719,experiment,156,↑,right,→,1.0285529000102542,False,18
11M35,720,experiment,156,←,right,→,0.8566853000083938,False,18
11M35,721,experiment,12,↓,right,→,0.8273410999681801,False,18
11M35,722,experiment,24,↓,left,←,1.0333450000034645,False,18
11M35,723,experiment,72,←,right,→,1.0927517999662086,False,18
11M35,724,training,132,↓,left,←,1.383939100021962,False,18
11M35,725,training,48,←,right,→,1.1063037000130862,False,18
11M35,726,training,12,↑,left,←,1.000688700005412,False,18
11M35,727,experiment,96,←,left,←,0.9035665999981575,True,18
11M35,728,experiment,132,↓,left,←,1.1319310000399128,False,18
11M35,729,experiment,12,→,right,→,1.5696130999713205,True,18
11M35,730,experiment,72,←,right,→,1.424294300028123,False,18
11M35,731,experiment,120,↓,right,→,1.0474868000019342,False,18
11M35,732,experiment,60,↓,up,↑,0.9944188999943435,False,18
11M35,733,experiment,168,↑,right,→,1.3174691000021994,False,18
11M35,734,experiment,132,↑,down,↓,1.3837078000069596,False,18
11M35,735,experiment,108,←,up,↑,0.9275882999645546,False,18
11M35,736,experiment,60,←,left,←,0.9914695000043139,True,18
11M35,737,experiment,156,→,right,→,0.850091100030113,True,18
11M35,738,experiment,24,→,right,→,0.945069000008516,True,18
11M35,739,experiment,168,←,left,←,0.7661420000367798,True,18
11M35,740,experiment,84,←,up,↑,1.191464499977883,False,18
11M35,741,experiment,132,↑,left,←,0.9063356999540702,False,18
11M35,742,experiment,180,↓,right,→,0.9684220000053756,False,18
11M35,743,experiment,84,↓,right,→,0.9361821999773383,False,18
11M35,744,experiment,108,↑,right,→,1.0315750999725424,False,18
11M35,745,experiment,96,↓,right,→,0.9102501000161283,False,18
11M35,746,experiment,120,↓,up,↑,1.2040843999711797,False,18
11M35,747,experiment,60,↓,left,←,1.49866209999891,False,18
11M35,748,experiment,180,↑,right,→,1.1141539000091143,False,18
11M35,749,experiment,96,↑,right,→,0.9515688000246882,False,18
11M35,750,experiment,144,↓,down,↓,1.6856889000046067,True,18
11M35,751,experiment,60,↓,right,→,1.0248655999894254,False,18
11M35,752,experiment,48,↑,down,↓,1.0046430999645963,False,18
11M35,753,experiment,72,→,right,→,1.347761699988041,True,18
11M35,754,experiment,84,↓,down,↓,1.3204341999953613,True,18
11M35,755,experiment,48,↑,right,→,0.9697712999768555,False,18
11M35,756,experiment,84,↓,right,→,1.1632266000378877,False,18
11M35,757,experiment,156,↑,right,→,1.0433646999881603,False,18
11M35,758,experiment,144,↑,down,↓,1.3132611000328325,False,18
11M35,759,experiment,36,→,right,→,1.12134180002613,True,18
11M35,760,experiment,24,→,left,←,0.8196773999952711,False,18
11M35,761,experiment,48,↑,right,→,1.1800508999731392,False,18
11M35,762,experiment,36,←,right,→,0.8256036000093445,False,18
11M35,763,experiment,144,↑,up,↑,1.4462683000019751,True,18
11M35,764,experiment,156,↑,down,↓,1.3054359999950975,False,18
11M35,765,experiment,12,↑,right,→,1.1024148000287823,False,18
11M35,766,experiment,108,↑,right,→,1.1612767999758944,False,18
11M35,767,experiment,156,←,down,↓,1.0404796000220813,False,18
11M35,768,experiment,144,↑,right,→,0.9842640999704599,False,18
11M35,769,experiment,168,←,up,↑,1.55776389996754,False,18
11M35,770,experiment,12,↓,right,→,1.1541456999839284,False,18
11M35,771,experiment,180,↓,down,↓,1.0547779999906197,True,18
11M35,772,experiment,12,↑,no_key,no_letter,-1.0,False,18
11M35,773,experiment,24,←,left,←,1.1598744999500923,True,18
11M35,774,experiment,72,↑,left,←,0.9127289000316523,False,18
11M35,775,experiment,36,→,right,→,1.089235599967651,True,18
11M35,776,experiment,108,→,left,←,0.8092984999530017,False,18
11M35,777,experiment,96,←,left,←,0.9759682000149041,True,18
11M35,778,experiment,120,↑,left,←,0.9198922000359744,False,18
11M35,779,experiment,180,↑,left,←,1.0677884999895468,False,18
11M35,780,experiment,132,←,left,←,0.7612240000162274,True,18
11M35,781,experiment,48,→,right,→,0.677673100028187,True,18
11M35,782,experiment,24,→,right,→,0.940025300020352,True,18
11M35,783,experiment,120,↓,right,→,0.8733474999899045,False,18
11M35,784,experiment,72,←,right,→,0.8136295999865979,False,18
11M35,785,experiment,36,←,right,→,0.7350483000045642,False,18
11M35,786,experiment,168,→,right,→,0.9833978000096977,True,18
11M35,787,training,108,←,right,→,1.116800100018736,False,18
11M35,788,training,108,↓,right,→,1.0614320999593474,False,18
11M35,789,training,36,→,right,→,1.2525865999632515,True,18
11M35,790,experiment,12,↑,up,↑,1.0366251000086777,True,18
11M35,791,experiment,120,→,down,↓,1.0995266999816522,False,18
11M35,792,experiment,168,↓,down,↓,1.0554270000429824,True,18
11M35,793,experiment,24,↑,right,→,1.083479900029488,False,18
11M35,794,experiment,12,↓,right,→,1.4230256999726407,False,18
11M35,795,experiment,108,→,left,←,1.0672818999737501,False,18
11M35,796,experiment,72,↑,up,↑,0.7866234000539407,True,18
11M35,797,experiment,132,↑,up,↑,0.8251700999680907,True,18
11M35,798,experiment,120,↑,up,↑,0.76130519999424,True,18
11M35,799,experiment,120,↓,right,→,1.0636802000226453,False,18
11M35,800,experiment,24,←,left,←,0.8171370000345632,True,18
11M35,801,experiment,60,→,right,→,0.6703087000059895,True,18
11M35,802,experiment,156,←,up,↑,0.937418399960734,False,18
11M35,803,experiment,168,↓,left,←,0.9293598999502137,False,18
11M35,804,experiment,180,↑,left,←,1.013905400002841,False,18
11M35,805,experiment,24,↑,right,→,0.9077677999739535,False,18
11M35,806,experiment,60,↓,right,→,1.1042649999726564,False,18
11M35,807,experiment,48,←,left,←,0.703698199999053,True,18
11M35,808,experiment,84,←,up,↑,1.136246600013692,False,18
11M35,809,experiment,60,←,left,←,0.7520160999847576,True,18
11M35,810,experiment,180,↓,right,→,0.8762998000020161,False,18
11M35,811,experiment,168,↑,left,←,1.1474827000056393,False,18
11M35,812,experiment,156,←,left,←,0.8661519000306726,True,18
11M35,813,experiment,36,←,left,←,0.9249361999682151,True,18
11M35,814,experiment,72,←,no_key,no_letter,-1.0,False,18
11M35,815,experiment,48,←,left,←,0.963215499999933,True,18
11M35,816,experiment,120,↑,left,←,0.9762439000187442,False,18
11M35,817,experiment,132,↓,right,→,0.9671375000034459,False,18
11M35,818,experiment,108,→,right,→,0.927088399999775,True,18
11M35,819,experiment,84,↑,left,←,0.9133174999733455,False,18
11M35,820,experiment,180,↑,left,←,1.0180713000008836,False,18
11M35,821,experiment,36,↑,left,←,1.0617756999563426,False,18
11M35,822,experiment,72,←,left,←,0.9821117999963462,True,18
11M35,823,experiment,132,↓,left,←,1.68218900001375,False,18
11M35,824,experiment,96,←,right,→,0.766064399969764,False,18
11M35,825,experiment,24,↑,left,←,0.9704577000229619,False,18
11M35,826,experiment,84,↑,up,↑,0.7104531999793835,True,18
11M35,827,experiment,156,↑,up,↑,0.6664942000061274,True,18
11M35,828,experiment,144,↑,up,↑,0.9219763999572024,True,18
11M35,829,experiment,108,↓,up,↑,0.7855542000033893,False,18
11M35,830,experiment,156,←,right,→,0.9284196000080556,False,18
11M35,831,experiment,84,↓,up,↑,1.5599665000336245,False,18
11M35,832,experiment,96,→,left,←,1.6717368999961764,False,18
11M35,833,experiment,48,↑,left,←,1.3975381000200287,False,18
11M35,834,experiment,96,←,left,←,1.218577900028322,True,18
11M35,835,experiment,144,←,no_key,no_letter,-1.0,False,18
11M35,836,experiment,108,→,right,→,1.205278699984774,True,18
11M35,837,experiment,144,→,right,→,1.1195752999628894,True,18
11M35,838,experiment,12,←,right,→,1.6082515000016429,False,18
11M35,839,experiment,72,←,right,→,1.185864600003697,False,18
11M35,840,experiment,168,←,right,→,1.348704900010489,False,18
11M35,841,experiment,180,↑,right,→,1.4248286000220105,False,18
11M35,842,experiment,36,↑,left,←,1.4062526000197977,False,18
11M35,843,experiment,48,←,right,→,1.320073599985335,False,18
11M35,844,experiment,132,→,left,←,0.9251495000207797,False,18
11M35,845,experiment,36,↑,down,↓,1.3983109000255354,False,18
11M35,846,experiment,96,→,right,→,0.7893536000046879,True,18
11M35,847,experiment,60,↑,left,←,1.4626276000053622,False,18
11M35,848,experiment,12,↓,right,→,0.9696864999714307,False,18
11M35,849,experiment,144,←,down,↓,1.9507549999980256,False,18
