PART_ID,Trial_no,Trial_type,PDI,Stim_letter,Key_pressed,letter_choose,Rt,Corr,Stimulus Time
12M24,1,training,10,←,no_key,no_letter,-1.0,False,30
12M24,2,training,10,→,right,→,2.1234160996973515,True,30
12M24,3,training,10,↑,up,↑,1.0419177999719977,True,30
12M24,4,training,10,↓,down,↓,1.3822245001792908,True,30
12M24,5,training,10,↑,up,↑,0.6870498000644147,True,30
12M24,6,training,10,→,right,→,0.6713247001171112,True,30
12M24,7,training,10,→,right,→,0.45041910000145435,True,30
12M24,8,training,10,←,right,→,0.46710170013830066,False,30
12M24,9,training,10,↑,no_key,no_letter,-1.0,False,30
12M24,10,training,10,↑,up,↑,1.9265997000038624,True,30
12M24,11,training,10,→,right,→,0.583771999925375,True,30
12M24,12,training,10,→,right,→,0.6909471997059882,True,30
12M24,13,training,10,←,left,←,0.6005506999790668,True,30
12M24,14,training,10,→,right,→,0.5506248003803194,True,30
12M24,15,training,10,→,left,←,0.41726130014285445,False,30
12M24,16,training,10,←,right,→,0.6337743997573853,False,30
12M24,17,training,10,→,right,→,0.670189400203526,True,30
12M24,18,training,10,↑,up,↑,1.3627714002504945,True,30
12M24,19,training,10,←,right,→,0.6707032001577318,False,30
12M24,20,training,10,→,right,→,0.5005585001781583,True,30
12M24,21,training,10,↑,up,↑,0.5755822998471558,True,18
12M24,22,training,10,↑,up,↑,0.7978695998899639,True,18
12M24,23,training,10,↑,up,↑,0.5890991999767721,True,18
12M24,24,training,10,←,left,←,1.4657092997804284,True,18
12M24,25,training,10,↑,up,↑,0.508281399961561,True,18
12M24,26,training,10,↑,left,←,0.38391759991645813,False,18
12M24,27,training,10,←,left,←,0.43393540009856224,True,18
12M24,28,training,10,↑,right,→,0.9635391999036074,False,18
12M24,29,training,10,↓,up,↑,0.7676852000877261,False,18
12M24,30,training,10,↑,up,↑,0.4799854001030326,True,18
12M24,31,training,168,↓,left,←,0.7182752001099288,False,15
12M24,32,training,72,←,right,→,0.7490648999810219,False,15
12M24,33,training,96,↓,left,←,1.2428981000557542,False,15
12M24,34,experiment,180,↓,right,→,0.9322682996280491,False,15
12M24,35,experiment,72,→,right,→,0.7098360997624695,True,15
12M24,36,experiment,168,↓,up,↑,0.5862309001386166,False,15
12M24,37,experiment,12,↑,left,←,0.8785923002287745,False,15
12M24,38,experiment,132,→,right,→,0.5578626003116369,True,15
12M24,39,experiment,36,←,left,←,0.49721720023080707,True,15
12M24,40,experiment,36,→,up,↑,0.6465654000639915,False,15
12M24,41,experiment,168,→,left,←,0.7812888999469578,False,15
12M24,42,experiment,24,↑,right,→,0.8322303001768887,False,15
12M24,43,experiment,24,→,right,→,0.5883899996988475,True,15
12M24,44,experiment,180,←,left,←,0.5494969999417663,True,15
12M24,45,experiment,36,←,down,↓,0.8072557998821139,False,15
12M24,46,experiment,72,↓,down,↓,0.7649002997204661,True,15
12M24,47,experiment,48,↑,up,↑,0.9949223999865353,True,15
12M24,48,experiment,84,↑,left,←,0.7298395996913314,False,15
12M24,49,experiment,60,↑,up,↑,0.5417152997106314,True,15
12M24,50,experiment,144,→,right,→,0.4813546999357641,True,15
12M24,51,experiment,24,↑,up,↑,0.6663154996931553,True,15
12M24,52,experiment,132,↑,down,↓,0.9731764998286963,False,15
12M24,53,experiment,168,↓,right,→,1.3675118000246584,False,15
12M24,54,experiment,84,↑,left,←,0.5680354996584356,False,15
12M24,55,experiment,60,→,up,↑,0.5255799000151455,False,15
12M24,56,experiment,12,↓,up,↑,1.2272721999324858,False,15
12M24,57,experiment,36,→,right,→,0.6372696999460459,True,15
12M24,58,experiment,24,↑,up,↑,0.5964210000820458,True,15
12M24,59,experiment,168,↑,left,←,0.564911900088191,False,15
12M24,60,experiment,48,→,right,→,0.9049932998605072,True,15
12M24,61,experiment,156,↓,down,↓,0.916335899848491,True,15
12M24,62,experiment,48,→,right,→,0.5312254996970296,True,15
12M24,63,experiment,156,←,left,←,0.4799966998398304,True,15
12M24,64,experiment,120,←,right,→,0.46789340022951365,False,15
12M24,65,experiment,156,↓,right,→,0.6039319997653365,False,15
12M24,66,experiment,96,↓,up,↑,0.58268680004403,False,15
12M24,67,experiment,144,↓,down,↓,0.6530726999044418,True,15
12M24,68,experiment,120,→,right,→,0.5440890002064407,True,15
12M24,69,experiment,120,←,left,←,0.6563766002655029,True,15
12M24,70,experiment,132,→,right,→,0.5654116999357939,True,15
12M24,71,experiment,96,↓,up,↑,0.7359237000346184,False,15
12M24,72,experiment,108,←,right,→,0.6375184999778867,False,15
12M24,73,experiment,144,↑,left,←,0.5196449998766184,False,15
12M24,74,experiment,180,↓,down,↓,0.819605200085789,True,15
12M24,75,experiment,84,→,right,→,0.821433300152421,True,15
12M24,76,experiment,180,←,right,→,0.5963836000300944,False,15
12M24,77,experiment,120,←,right,→,0.5584852998144925,False,15
12M24,78,experiment,84,↑,up,↑,0.8012779001146555,True,15
12M24,79,experiment,156,→,right,→,0.5957463001832366,True,15
12M24,80,experiment,132,←,left,←,1.3802888002246618,True,15
12M24,81,experiment,60,↑,right,→,0.565259300172329,False,15
12M24,82,experiment,12,↓,up,↑,0.7312710997648537,False,15
12M24,83,experiment,108,→,right,→,0.5795592996291816,True,15
12M24,84,experiment,144,→,down,↓,0.7349780998192728,False,15
12M24,85,experiment,12,↓,left,←,0.7764131999574602,False,15
12M24,86,experiment,108,↑,up,↑,0.7583458996377885,True,15
12M24,87,experiment,108,←,left,←,0.8954476998187602,True,15
12M24,88,experiment,48,→,left,←,1.2610360002145171,False,15
12M24,89,experiment,60,→,right,→,0.5419555003754795,True,15
12M24,90,experiment,96,↑,up,↑,0.8148749996908009,True,15
12M24,91,experiment,96,→,left,←,0.8814143999479711,False,15
12M24,92,experiment,72,→,right,→,0.5769456000998616,True,15
12M24,93,experiment,72,↑,up,↑,0.5340062999166548,True,15
12M24,94,training,120,→,right,→,0.5620685000903904,True,16
12M24,95,training,24,←,left,←,0.5805538999848068,True,16
12M24,96,training,120,↓,down,↓,0.8173368996940553,True,16
12M24,97,experiment,60,↑,up,↑,0.6471045003272593,True,16
12M24,98,experiment,144,↑,left,←,0.40052299993112683,False,16
12M24,99,experiment,132,↓,up,↑,0.5725947003811598,False,16
12M24,100,experiment,132,↓,left,←,0.6480880999006331,False,16
12M24,101,experiment,120,→,right,→,0.5392116000875831,True,16
12M24,102,experiment,36,←,left,←,0.556559500284493,True,16
12M24,103,experiment,84,←,left,←,0.6344054001383483,True,16
12M24,104,experiment,180,←,left,←,0.5948332999832928,True,16
12M24,105,experiment,144,↓,left,←,0.7040292001329362,False,16
12M24,106,experiment,168,↓,up,↑,0.9426618996076286,False,16
12M24,107,experiment,12,↑,left,←,0.922060000244528,False,16
12M24,108,experiment,72,→,down,↓,0.9054950000718236,False,16
12M24,109,experiment,96,←,left,←,0.5221024001948535,True,16
12M24,110,experiment,132,→,right,→,0.5447672996670008,True,16
12M24,111,experiment,108,↑,up,↑,0.7977761998772621,True,16
12M24,112,experiment,180,→,right,→,0.5440234001725912,True,16
12M24,113,experiment,108,→,up,↑,0.8620388000272214,False,16
12M24,114,experiment,48,→,right,→,1.184233599808067,True,16
12M24,115,experiment,48,↑,left,←,0.9270246997475624,False,16
12M24,116,experiment,168,↑,down,↓,0.9970348998904228,False,16
12M24,117,experiment,24,←,up,↑,0.801458700094372,False,16
12M24,118,experiment,48,↑,right,→,0.7964874999597669,False,16
12M24,119,experiment,12,↓,left,←,0.7028769003227353,False,16
12M24,120,experiment,72,↓,down,↓,0.5639735995791852,True,16
12M24,121,experiment,84,↓,right,→,1.0033035995438695,False,16
12M24,122,experiment,24,→,right,→,0.7949402001686394,True,16
12M24,123,experiment,36,↑,left,←,0.9626726000569761,False,16
12M24,124,experiment,180,↓,up,↑,0.8133704997599125,False,16
12M24,125,experiment,120,↑,down,↓,0.7262484999373555,False,16
12M24,126,experiment,156,←,left,←,0.6961372997611761,True,16
12M24,127,experiment,120,↑,up,↑,0.6052601002156734,True,16
12M24,128,experiment,120,↓,down,↓,0.7357788002118468,True,16
12M24,129,experiment,48,←,left,←,0.49125179974362254,True,16
12M24,130,experiment,24,→,right,→,0.5344118000939488,True,16
12M24,131,experiment,60,←,right,→,0.5495325997471809,False,16
12M24,132,experiment,168,↓,left,←,0.48664250038564205,False,16
12M24,133,experiment,60,→,right,→,0.6090305000543594,True,16
12M24,134,experiment,72,↓,down,↓,0.692892899736762,True,16
12M24,135,experiment,60,→,right,→,0.5011816001497209,True,16
12M24,136,experiment,168,↓,down,↓,0.7159616998396814,True,16
12M24,137,experiment,36,→,up,↑,1.220518400426954,False,16
12M24,138,experiment,72,←,left,←,0.5723349996842444,True,16
12M24,139,experiment,156,→,left,←,0.51177760027349,False,16
12M24,140,experiment,156,→,right,→,0.6098422002978623,True,16
12M24,141,experiment,132,↓,down,↓,0.760274900123477,True,16
12M24,142,experiment,12,↓,left,←,1.060710099991411,False,16
12M24,143,experiment,96,←,right,→,0.8083358998410404,False,16
12M24,144,experiment,108,→,right,→,0.5267560998909175,True,16
12M24,145,experiment,24,↓,left,←,0.8038491997867823,False,16
12M24,146,experiment,96,↓,down,↓,0.6673808000050485,True,16
12M24,147,experiment,12,↓,up,↑,1.013745500240475,False,16
12M24,148,experiment,144,↓,down,↓,0.7104500001296401,True,16
12M24,149,experiment,36,↓,down,↓,0.6996674002148211,True,16
12M24,150,experiment,108,↓,right,→,0.7341117998585105,False,16
12M24,151,experiment,144,→,left,←,0.7780314004048705,False,16
12M24,152,experiment,180,←,left,←,0.5548081998713315,True,16
12M24,153,experiment,96,↑,no_key,no_letter,-1.0,False,16
12M24,154,experiment,156,←,left,←,0.6369396997615695,True,16
12M24,155,experiment,84,↑,up,↑,0.6976815001107752,True,16
12M24,156,experiment,84,←,right,→,0.583149699959904,False,16
12M24,157,training,144,↓,up,↑,0.671424999833107,False,17
12M24,158,training,60,↑,up,↑,0.5964119001291692,True,17
12M24,159,training,36,↓,down,↓,0.5782242999412119,True,17
12M24,160,experiment,120,↓,right,→,0.6219226000830531,False,17
12M24,161,experiment,108,↑,up,↑,0.6255513997748494,True,17
12M24,162,experiment,180,↓,up,↑,0.6170792998746037,False,17
12M24,163,experiment,48,←,left,←,0.498163899872452,True,17
12M24,164,experiment,60,←,right,→,0.7710522999987006,False,17
12M24,165,experiment,120,←,left,←,0.4760103998705745,True,17
12M24,166,experiment,60,←,left,←,0.46144510013982654,True,17
12M24,167,experiment,60,→,right,→,0.5506550003774464,True,17
12M24,168,experiment,156,↓,up,↑,0.6072478001005948,False,17
12M24,169,experiment,72,↓,down,↓,0.7585380002856255,True,17
12M24,170,experiment,108,↑,up,↑,0.562438199762255,True,17
12M24,171,experiment,108,→,right,→,0.4980353000573814,True,17
12M24,172,experiment,156,↓,down,↓,0.711319399997592,True,17
12M24,173,experiment,120,→,right,→,0.6861711000092328,True,17
12M24,174,experiment,72,↑,up,↑,0.6016108002513647,True,17
12M24,175,experiment,24,↑,up,↑,0.6918526003137231,True,17
12M24,176,experiment,144,↓,up,↑,0.5890740002505481,False,17
12M24,177,experiment,120,→,right,→,0.5607056003063917,True,17
12M24,178,experiment,144,→,left,←,0.41705420007929206,False,17
12M24,179,experiment,48,↑,up,↑,0.7002610000781715,True,17
12M24,180,experiment,36,↓,down,↓,0.7995810997672379,True,17
12M24,181,experiment,96,↑,right,→,0.9018562999553978,False,17
12M24,182,experiment,72,↑,up,↑,0.6258621998131275,True,17
12M24,183,experiment,36,↑,up,↑,0.8017190000973642,True,17
12M24,184,experiment,108,→,right,→,0.5720090996474028,True,17
12M24,185,experiment,12,↑,right,→,0.9045438999310136,False,17
12M24,186,experiment,96,↑,up,↑,0.5881902002729475,True,17
12M24,187,experiment,144,↓,down,↓,0.6860783998854458,True,17
12M24,188,experiment,144,↓,down,↓,0.8514757999219,True,17
12M24,189,experiment,84,←,right,→,0.6207963996566832,False,17
12M24,190,experiment,60,←,left,←,0.6928914003074169,True,17
12M24,191,experiment,36,←,up,↑,0.9313729000277817,False,17
12M24,192,experiment,96,→,right,→,0.7455158997327089,True,17
12M24,193,experiment,84,→,right,→,0.5384212997741997,True,17
12M24,194,experiment,36,←,up,↑,0.7115707001648843,False,17
12M24,195,experiment,180,↑,up,↑,0.6767112999223173,True,17
12M24,196,experiment,156,←,left,←,0.6588853998109698,True,17
12M24,197,experiment,96,→,up,↑,1.047132599633187,False,17
12M24,198,experiment,132,←,left,←,0.512930799741298,True,17
12M24,199,experiment,84,←,right,→,0.5408061002381146,False,17
12M24,200,experiment,168,↑,right,→,0.6788077000528574,False,17
12M24,201,experiment,168,→,right,→,0.5273299999535084,True,17
12M24,202,experiment,84,←,left,←,0.4171858001500368,True,17
12M24,203,experiment,180,↑,up,↑,0.4658607002347708,True,17
12M24,204,experiment,24,↓,left,←,1.0148100000806153,False,17
12M24,205,experiment,12,↓,left,←,0.9907820001244545,False,17
12M24,206,experiment,168,→,right,→,0.5421374002471566,True,17
12M24,207,experiment,180,←,left,←,0.465550699736923,True,17
12M24,208,experiment,12,→,right,→,1.0390002001076937,True,17
12M24,209,experiment,132,↓,up,↑,0.9042805000208318,False,17
12M24,210,experiment,156,←,right,→,0.5415122997947037,False,17
12M24,211,experiment,24,←,right,→,0.5097027998417616,False,17
12M24,212,experiment,132,↓,left,←,0.5167832998558879,False,17
12M24,213,experiment,168,↑,down,↓,0.5561163001693785,False,17
12M24,214,experiment,72,↓,right,→,0.8983506998047233,False,17
12M24,215,experiment,12,→,right,→,0.7895476999692619,True,17
12M24,216,experiment,48,→,left,←,0.573131600394845,False,17
12M24,217,experiment,24,↑,up,↑,0.6004471997730434,True,17
12M24,218,experiment,48,↓,down,↓,0.7045671003870666,True,17
12M24,219,experiment,132,←,left,←,0.6864986000582576,True,17
12M24,220,training,96,↑,up,↑,0.7107414002530277,True,17
12M24,221,training,96,↑,left,←,0.7110043000429869,False,17
12M24,222,training,24,←,left,←,0.5681966999545693,True,17
12M24,223,experiment,72,↓,up,↑,0.5875037997029722,False,17
12M24,224,experiment,24,←,left,←,0.6888065002858639,True,17
12M24,225,experiment,24,→,left,←,0.7231469000689685,False,17
12M24,226,experiment,48,←,left,←,0.5717490999959409,True,17
12M24,227,experiment,168,↑,up,↑,0.66823669988662,True,17
12M24,228,experiment,120,↑,up,↑,0.846414000261575,True,17
12M24,229,experiment,96,↑,up,↑,0.7499647997319698,True,17
12M24,230,experiment,48,→,left,←,0.7172918999567628,False,17
12M24,231,experiment,24,↑,up,↑,0.49548229994252324,True,17
12M24,232,experiment,144,↓,down,↓,0.6767092999070883,True,17
12M24,233,experiment,60,↓,down,↓,0.815760400146246,True,17
12M24,234,experiment,168,→,right,→,0.4806206999346614,True,17
12M24,235,experiment,156,↓,up,↑,0.7479767999611795,False,17
12M24,236,experiment,180,←,left,←,1.2227372997440398,True,17
12M24,237,experiment,12,↓,down,↓,0.774957800284028,True,17
12M24,238,experiment,12,↑,up,↑,1.1696834000758827,True,17
12M24,239,experiment,168,↓,down,↓,0.794711499940604,True,17
12M24,240,experiment,108,←,left,←,0.5573929999954998,True,17
12M24,241,experiment,156,←,right,→,0.5431278999894857,False,17
12M24,242,experiment,120,↑,left,←,0.6490159998647869,False,17
12M24,243,experiment,180,↑,left,←,0.6252915002405643,False,17
12M24,244,experiment,96,↓,down,↓,0.6461801002733409,True,17
12M24,245,experiment,144,←,left,←,0.7559607997536659,True,17
12M24,246,experiment,108,↓,left,←,0.5220770998857915,False,17
12M24,247,experiment,84,↓,down,↓,0.7796021997928619,True,17
12M24,248,experiment,48,↑,up,↑,0.9079836001619697,True,17
12M24,249,experiment,60,↓,down,↓,0.9202951998449862,True,17
12M24,250,experiment,12,→,left,←,1.0563666000962257,False,17
12M24,251,experiment,132,↑,left,←,0.9155719997361302,False,17
12M24,252,experiment,84,→,left,←,0.8638960998505354,False,17
12M24,253,experiment,36,→,up,↑,0.8042899002321064,False,17
12M24,254,experiment,12,↓,down,↓,1.234522399958223,True,17
12M24,255,experiment,132,←,left,←,0.5214522001333535,True,17
12M24,256,experiment,156,→,left,←,0.9066536002792418,False,17
12M24,257,experiment,180,↓,down,↓,0.6586933000944555,True,17
12M24,258,experiment,180,←,left,←,0.5128878001123667,True,17
12M24,259,experiment,168,→,left,←,0.5618376000784338,False,17
12M24,260,experiment,156,↑,up,↑,0.49039070028811693,True,17
12M24,261,experiment,132,←,right,→,0.9377704998478293,False,17
12M24,262,experiment,72,→,left,←,0.7747994000092149,False,17
12M24,263,experiment,144,↑,up,↑,0.5732526001520455,True,17
12M24,264,experiment,96,→,right,→,0.525757699739188,True,17
12M24,265,experiment,84,↓,down,↓,0.8151635001413524,True,17
12M24,266,experiment,36,↑,up,↑,0.7475348999723792,True,17
12M24,267,experiment,60,↑,up,↑,0.7082481998950243,True,17
12M24,268,experiment,72,←,left,←,0.5619958001188934,True,17
12M24,269,experiment,36,→,right,→,0.6676261001266539,True,17
12M24,270,experiment,96,←,left,←,0.4628515001386404,True,17
12M24,271,experiment,84,↓,down,↓,0.7954433001577854,True,17
12M24,272,experiment,108,←,left,←,1.0141894998960197,True,17
12M24,273,experiment,48,→,right,→,0.5668080998584628,True,17
12M24,274,experiment,60,→,right,→,0.5512052001431584,True,17
12M24,275,experiment,144,↓,down,↓,1.2138053998351097,True,17
12M24,276,experiment,72,↓,left,←,0.9682237999513745,False,17
12M24,277,experiment,120,→,right,→,0.5340494001284242,True,17
12M24,278,experiment,24,↓,up,↑,0.5378780998289585,False,17
12M24,279,experiment,132,→,down,↓,0.7219627001322806,False,17
12M24,280,experiment,120,←,right,→,0.5307030999101698,False,17
12M24,281,experiment,36,→,left,←,0.661897299811244,False,17
12M24,282,experiment,108,↓,up,↑,0.8425373998470604,False,17
12M24,283,training,180,←,left,←,0.5061232997104526,True,17
12M24,284,training,156,↑,up,↑,0.5596181000582874,True,17
12M24,285,training,72,↓,up,↑,0.5281024002470076,False,17
12M24,286,experiment,120,→,right,→,0.5155844995751977,True,17
12M24,287,experiment,60,←,left,←,0.49759480031207204,True,17
12M24,288,experiment,144,↑,up,↑,0.6004977002739906,True,17
12M24,289,experiment,36,↓,right,→,0.6792941000312567,False,17
12M24,290,experiment,120,←,right,→,0.4950945000164211,False,17
12M24,291,experiment,120,←,up,↑,0.5907159000635147,False,17
12M24,292,experiment,12,←,left,←,0.5688050002790987,True,17
12M24,293,experiment,132,↑,right,→,0.5465238001197577,False,17
12M24,294,experiment,24,↓,left,←,1.0696935998275876,False,17
12M24,295,experiment,36,↑,down,↓,1.144169599749148,False,17
12M24,296,experiment,132,↑,up,↑,0.616423400118947,True,17
12M24,297,experiment,108,←,left,←,0.5705042998306453,True,17
12M24,298,experiment,12,↓,down,↓,0.8211162998341024,True,17
12M24,299,experiment,72,→,left,←,0.7406645999290049,False,17
12M24,300,experiment,156,↑,up,↑,0.5930658997967839,True,17
12M24,301,experiment,60,→,right,→,0.5614479002542794,True,17
12M24,302,experiment,168,↓,up,↑,0.7448126999661326,False,17
12M24,303,experiment,84,↓,down,↓,0.8467262000776827,True,17
12M24,304,experiment,108,↓,down,↓,0.9698900002986193,True,17
12M24,305,experiment,180,↓,down,↓,1.0612130998633802,True,17
12M24,306,experiment,156,←,left,←,0.6430171998217702,True,17
12M24,307,experiment,24,←,up,↑,0.8331830999813974,False,17
12M24,308,experiment,180,↓,down,↓,0.8933581998571754,True,17
12M24,309,experiment,96,→,right,→,0.5657343999482691,True,17
12M24,310,experiment,36,↑,right,→,0.7581962002441287,False,17
12M24,311,experiment,72,→,right,→,0.7457059998996556,True,17
12M24,312,experiment,48,↑,up,↑,0.5296002998948097,True,17
12M24,313,experiment,72,←,left,←,0.7225640001706779,True,17
12M24,314,experiment,108,→,right,→,0.49142330000177026,True,17
12M24,315,experiment,108,→,right,→,0.6726063000969589,True,17
12M24,316,experiment,72,↓,down,↓,0.9304821002297103,True,17
12M24,317,experiment,96,↑,up,↑,0.7211950002238154,True,17
12M24,318,experiment,168,←,right,→,0.4917725003324449,False,17
12M24,319,experiment,144,↓,up,↑,0.8685175003483891,False,17
12M24,320,experiment,168,↑,down,↓,0.7629090999253094,False,17
12M24,321,experiment,60,→,right,→,0.5648187999613583,True,17
12M24,322,experiment,84,←,up,↑,0.620145000051707,False,17
12M24,323,experiment,168,↓,right,→,0.5363444001413882,False,17
12M24,324,experiment,36,←,left,←,0.6029727999120951,True,17
12M24,325,experiment,12,←,right,→,1.000904900021851,False,17
12M24,326,experiment,48,↑,up,↑,0.5856165001168847,True,17
12M24,327,experiment,156,←,left,←,0.6584453000687063,True,17
12M24,328,experiment,120,↓,right,→,0.6837245998904109,False,17
12M24,329,experiment,48,↓,up,↑,0.6769305001944304,False,17
12M24,330,experiment,180,←,right,→,0.7754924003966153,False,17
12M24,331,experiment,156,↓,down,↓,0.6634879000484943,True,17
12M24,332,experiment,96,↑,right,→,0.5547680002637208,False,17
12M24,333,experiment,84,→,right,→,0.6125838998705149,True,17
12M24,334,experiment,12,←,left,←,0.8039984996430576,True,17
12M24,335,experiment,144,←,right,→,0.8426900999620557,False,17
12M24,336,experiment,24,→,up,↑,1.0645528002642095,False,17
12M24,337,experiment,48,→,right,→,0.6199401998892426,True,17
12M24,338,experiment,180,←,left,←,0.6949256998486817,True,17
12M24,339,experiment,96,↓,down,↓,0.7490481999702752,True,17
12M24,340,experiment,144,↑,up,↑,0.6081395000219345,True,17
12M24,341,experiment,132,←,left,←,0.7942572999745607,True,17
12M24,342,experiment,24,←,right,→,0.8574544000439346,False,17
12M24,343,experiment,84,←,left,←,0.6053101001307368,True,17
12M24,344,experiment,60,↑,right,→,0.7003079997375607,False,17
12M24,345,experiment,132,→,right,→,0.7311577997170389,True,17
12M24,346,training,24,←,right,→,0.7798852003179491,False,17
12M24,347,training,156,→,right,→,0.5546860001049936,True,17
12M24,348,training,156,↑,up,↑,0.49779909988865256,True,17
12M24,349,experiment,72,→,right,→,0.5656983996741474,True,17
12M24,350,experiment,156,→,right,→,0.5190550996921957,True,17
12M24,351,experiment,24,↑,up,↑,0.6087286002002656,True,17
12M24,352,experiment,24,↓,down,↓,0.8417348996736109,True,17
12M24,353,experiment,168,↓,down,↓,0.8074037004262209,True,17
12M24,354,experiment,144,↓,right,→,0.4172112997621298,False,17
12M24,355,experiment,156,→,left,←,0.5303801000118256,False,17
12M24,356,experiment,84,←,right,→,0.48053979966789484,False,17
12M24,357,experiment,156,↑,up,↑,0.5973954000510275,True,17
12M24,358,experiment,96,↑,up,↑,0.5480867996811867,True,17
12M24,359,experiment,96,↓,up,↑,0.985465900041163,False,17
12M24,360,experiment,144,←,left,←,0.6967500001192093,True,17
12M24,361,experiment,132,↑,up,↑,0.9095630003139377,True,17
12M24,362,experiment,168,↓,down,↓,0.7576880999840796,True,17
12M24,363,experiment,60,↓,down,↓,0.7128249001689255,True,17
12M24,364,experiment,36,↑,up,↑,0.6771437004208565,True,17
12M24,365,experiment,24,←,left,←,0.998369200155139,True,17
12M24,366,experiment,108,↑,up,↑,0.572615799959749,True,17
12M24,367,experiment,180,←,left,←,0.6534302001819015,True,17
12M24,368,experiment,156,→,right,→,0.6161349001340568,True,17
12M24,369,experiment,108,←,left,←,0.641985600348562,True,17
12M24,370,experiment,60,↑,up,↑,0.717055699788034,True,17
12M24,371,experiment,180,↑,left,←,0.6539309998042881,False,17
12M24,372,experiment,108,→,right,→,0.5781231001019478,True,17
12M24,373,experiment,132,↓,right,→,0.7039888999424875,False,17
12M24,374,experiment,48,↑,up,↑,0.4938348000869155,True,17
12M24,375,experiment,180,→,right,→,0.6565533000975847,True,17
12M24,376,experiment,48,→,right,→,0.9155119000934064,True,17
12M24,377,experiment,72,↓,down,↓,0.7994436998851597,True,17
12M24,378,experiment,84,↓,down,↓,0.7260797000490129,True,17
12M24,379,experiment,120,↓,down,↓,0.762707700021565,True,17
12M24,380,experiment,84,↑,up,↑,0.5858680000528693,True,17
12M24,381,experiment,12,←,left,←,0.5578105999156833,True,17
12M24,382,experiment,144,→,right,→,0.6229853997938335,True,17
12M24,383,experiment,72,↑,left,←,0.7118616998195648,False,17
12M24,384,experiment,36,↑,down,↓,0.8090301002375782,False,17
12M24,385,experiment,60,→,right,→,0.6522504002787173,True,17
12M24,386,experiment,60,→,right,→,0.6368470001034439,True,17
12M24,387,experiment,108,↓,down,↓,0.6967527000233531,True,17
12M24,388,experiment,12,↓,down,↓,1.1909929998219013,True,17
12M24,389,experiment,132,←,left,←,0.5327527998015285,True,17
12M24,390,experiment,24,↓,down,↓,0.7606514999642968,True,17
12M24,391,experiment,120,↓,down,↓,0.6966837998479605,True,17
12M24,392,experiment,36,→,left,←,1.164678200148046,False,17
12M24,393,experiment,132,↓,down,↓,0.8229025998152792,True,17
12M24,394,experiment,168,→,right,→,0.7323425998911262,True,17
12M24,395,experiment,180,↑,left,←,0.5367776998318732,False,17
12M24,396,experiment,144,↑,down,↓,1.0034103002399206,False,17
12M24,397,experiment,48,←,right,→,0.5780102997086942,False,17
12M24,398,experiment,36,↓,left,←,0.7057872000150383,False,17
12M24,399,experiment,168,↓,down,↓,0.5929372999817133,True,17
12M24,400,experiment,120,→,left,←,0.4628000999800861,False,17
12M24,401,experiment,84,←,right,→,0.957904199603945,False,17
12M24,402,experiment,96,→,right,→,0.5667039998807013,True,17
12M24,403,experiment,96,←,left,←,0.814444899559021,True,17
12M24,404,experiment,12,←,right,→,0.8731459002010524,False,17
12M24,405,experiment,72,↓,down,↓,0.7581303003244102,True,17
12M24,406,experiment,48,↓,down,↓,0.9608085001818836,True,17
12M24,407,experiment,120,←,left,←,0.5882880999706686,True,17
12M24,408,experiment,12,→,left,←,1.0227965000085533,False,17
12M24,409,training,12,←,up,↑,0.7369476999156177,False,17
12M24,410,training,96,↓,down,↓,0.7484980002045631,True,17
12M24,411,training,84,←,left,←,0.5601376001723111,True,17
12M24,412,experiment,108,↑,up,↑,0.6364957997575402,True,17
12M24,413,experiment,144,→,right,→,0.5633402997627854,True,17
12M24,414,experiment,108,↓,down,↓,0.7654129997827113,True,17
12M24,415,experiment,132,↓,down,↓,0.809971199836582,True,17
12M24,416,experiment,72,←,left,←,0.5829130001366138,True,17
12M24,417,experiment,108,←,left,←,0.5846425001509488,True,17
12M24,418,experiment,36,→,left,←,0.5832747998647392,False,17
12M24,419,experiment,72,↑,right,→,0.6886634002439678,False,17
12M24,420,experiment,36,→,right,→,0.6179567999206483,True,17
12M24,421,experiment,12,↑,up,↑,0.6494742999784648,True,17
12M24,422,experiment,96,→,right,→,0.6741006998345256,True,17
12M24,423,experiment,168,↑,up,↑,0.7370190997608006,True,17
12M24,424,experiment,180,→,right,→,0.5771282999776304,True,17
12M24,425,experiment,132,↑,up,↑,0.5128478999249637,True,17
12M24,426,experiment,84,←,left,←,0.6792372995987535,True,17
12M24,427,experiment,60,→,right,→,0.5214307997375727,True,17
12M24,428,experiment,36,↑,left,←,0.5945272999815643,False,17
12M24,429,experiment,180,→,right,→,0.6091009001247585,True,17
12M24,430,experiment,48,←,left,←,0.72826710017398,True,17
12M24,431,experiment,12,→,right,→,0.7014666995964944,True,17
12M24,432,experiment,96,↓,left,←,0.6564191998913884,False,17
12M24,433,experiment,120,↓,down,↓,0.7489825002849102,True,17
12M24,434,experiment,84,→,right,→,0.7873271997086704,True,17
12M24,435,experiment,24,←,left,←,0.6027195998467505,True,17
12M24,436,experiment,168,←,left,←,0.5524029000662267,True,17
12M24,437,experiment,144,↓,down,↓,0.6806033002212644,True,17
12M24,438,experiment,12,↓,left,←,1.2020009001716971,False,17
12M24,439,experiment,120,↑,up,↑,0.8784476001746953,True,17
12M24,440,experiment,144,→,right,→,0.6718372995965183,True,17
12M24,441,experiment,84,→,right,→,0.7164892996661365,True,17
12M24,442,experiment,24,↓,left,←,0.7639978998340666,False,17
12M24,443,experiment,12,←,right,→,0.9019249998964369,False,17
12M24,444,experiment,132,→,right,→,0.5867119999602437,True,17
12M24,445,experiment,156,←,left,←,0.615368299651891,True,17
12M24,446,experiment,36,↓,right,→,1.1510348003357649,False,17
12M24,447,experiment,120,↓,down,↓,0.8510306999087334,True,17
12M24,448,experiment,60,←,left,←,0.6088002999313176,True,17
12M24,449,experiment,156,←,left,←,0.7975193997845054,True,17
12M24,450,experiment,72,↓,down,↓,0.7477802000939846,True,17
12M24,451,experiment,24,↓,down,↓,0.9921822999604046,True,17
12M24,452,experiment,168,↑,up,↑,0.4836145997978747,True,17
12M24,453,experiment,168,→,left,←,0.5631423001177609,False,17
12M24,454,experiment,84,→,left,←,0.522518000099808,False,17
12M24,455,experiment,180,↑,up,↑,0.6026767999865115,True,17
12M24,456,experiment,60,↑,left,←,0.8925723000429571,False,17
12M24,457,experiment,48,↓,down,↓,0.7297672000713646,True,17
12M24,458,experiment,96,→,right,→,0.5806863997131586,True,17
12M24,459,experiment,132,↓,up,↑,0.47842019982635975,False,17
12M24,460,experiment,24,←,down,↓,0.6544083999469876,False,17
12M24,461,experiment,48,←,right,→,0.6873079999350011,False,17
12M24,462,experiment,60,←,up,↑,0.6117020002566278,False,17
12M24,463,experiment,180,←,left,←,0.49162659980356693,True,17
12M24,464,experiment,96,↑,up,↑,0.6100335996598005,True,17
12M24,465,experiment,48,↑,up,↑,0.6239427998661995,True,17
12M24,466,experiment,120,↓,down,↓,0.691713800188154,True,17
12M24,467,experiment,72,←,left,←,0.6683112997561693,True,17
12M24,468,experiment,108,↓,up,↑,1.04448870010674,False,17
12M24,469,experiment,156,→,right,→,0.7391173001378775,True,17
12M24,470,experiment,144,→,right,→,0.49078450025990605,True,17
12M24,471,experiment,156,↑,up,↑,0.5269746999256313,True,17
12M24,472,training,72,←,right,→,0.6033963998779655,False,17
12M24,473,training,156,←,left,←,0.6657346999272704,True,17
12M24,474,training,144,→,left,←,0.41748639987781644,False,17
12M24,475,experiment,156,↑,up,↑,0.5762203997001052,True,17
12M24,476,experiment,72,↑,up,↑,0.6178981000557542,True,17
12M24,477,experiment,24,↓,up,↑,0.9575797999277711,False,17
12M24,478,experiment,36,←,left,←,0.6839693002402782,True,17
12M24,479,experiment,132,←,left,←,0.557352100033313,True,17
12M24,480,experiment,60,↑,left,←,0.5833633001893759,False,17
12M24,481,experiment,12,←,left,←,0.4521765001118183,True,17
12M24,482,experiment,144,→,right,→,0.6614445000886917,True,17
12M24,483,experiment,168,↑,up,↑,0.5220012003555894,True,17
12M24,484,experiment,180,→,right,→,0.4698131000623107,True,17
12M24,485,experiment,60,→,right,→,0.6418254999443889,True,17
12M24,486,experiment,24,→,right,→,0.5746132000349462,True,17
12M24,487,experiment,84,←,left,←,0.6057494999840856,True,17
12M24,488,experiment,72,↓,up,↑,0.7527457000687718,False,17
12M24,489,experiment,60,→,up,↑,0.8018575003370643,False,17
12M24,490,experiment,48,↓,up,↑,0.7818103996105492,False,17
12M24,491,experiment,120,↑,right,→,0.7442578002810478,False,17
12M24,492,experiment,156,↑,up,↑,0.7497445000335574,True,17
12M24,493,experiment,84,↑,up,↑,0.5190232000313699,True,17
12M24,494,experiment,12,↑,up,↑,0.6227707997895777,True,17
12M24,495,experiment,60,↓,down,↓,0.5898313000798225,True,17
12M24,496,experiment,120,↓,left,←,0.8186684004031122,False,17
12M24,497,experiment,24,←,right,→,0.8089783997274935,False,17
12M24,498,experiment,108,→,right,→,0.6410314003005624,True,17
12M24,499,experiment,108,←,right,→,0.7032838999293745,False,17
12M24,500,experiment,168,↓,down,↓,0.8919386998750269,True,17
12M24,501,experiment,72,←,left,←,0.583843800239265,True,17
12M24,502,experiment,96,←,left,←,0.5004590000025928,True,17
12M24,503,experiment,132,←,right,→,0.5136695997789502,False,17
12M24,504,experiment,72,↑,up,↑,0.5476355003193021,True,17
12M24,505,experiment,48,↓,down,↓,0.6088899001479149,True,17
12M24,506,experiment,96,→,right,→,0.9942147000692785,True,17
12M24,507,experiment,132,→,right,→,0.5847697998397052,True,17
12M24,508,experiment,120,↓,down,↓,0.7274720999412239,True,17
12M24,509,experiment,108,→,up,↑,1.0345152001827955,False,17
12M24,510,experiment,168,→,right,→,0.5185758001171052,True,17
12M24,511,experiment,48,↓,down,↓,0.7214361000806093,True,17
12M24,512,experiment,12,↓,down,↓,0.7249183999374509,True,17
12M24,513,experiment,156,←,left,←,0.7443208997137845,True,17
12M24,514,experiment,168,↓,down,↓,0.8497072998434305,True,17
12M24,515,experiment,120,→,right,→,0.6076920996420085,True,17
12M24,516,experiment,180,→,left,←,0.6945953997783363,False,17
12M24,517,experiment,48,↓,down,↓,0.7440231000073254,True,17
12M24,518,experiment,12,←,up,↑,0.9783422001637518,False,17
12M24,519,experiment,180,←,left,←,0.5704904003068805,True,17
12M24,520,experiment,36,→,right,→,0.6116467998363078,True,17
12M24,521,experiment,96,→,left,←,0.5219652997329831,False,17
12M24,522,experiment,84,←,left,←,0.5922377998940647,True,17
12M24,523,experiment,180,←,left,←,0.5394350001588464,True,17
12M24,524,experiment,144,←,left,←,0.7419451996684074,True,17
12M24,525,experiment,108,→,right,→,0.491452899761498,True,17
12M24,526,experiment,96,←,left,←,0.5250842999666929,True,17
12M24,527,experiment,24,↑,up,↑,0.9005716000683606,True,17
12M24,528,experiment,36,→,right,→,0.6387048000469804,True,17
12M24,529,experiment,84,↓,down,↓,0.7469339002855122,True,17
12M24,530,experiment,36,↓,down,↓,0.8416626998223364,True,17
12M24,531,experiment,132,→,right,→,0.5635636998340487,True,17
12M24,532,experiment,144,↓,down,↓,0.698172100353986,True,17
12M24,533,experiment,156,↓,right,→,0.684581599663943,False,17
12M24,534,experiment,144,↓,down,↓,0.727076199837029,True,17
12M24,535,training,168,→,right,→,0.5807688999921083,True,17
12M24,536,training,156,↓,left,←,0.7164149996824563,False,17
12M24,537,training,24,→,right,→,1.174087299965322,True,17
12M24,538,experiment,72,↓,down,↓,0.5778973000124097,True,17
12M24,539,experiment,156,→,up,↑,0.7252686996944249,False,17
12M24,540,experiment,48,←,left,←,0.5686353002674878,True,17
12M24,541,experiment,84,→,right,→,0.5443584998138249,True,17
12M24,542,experiment,156,←,left,←,0.5353146996349096,True,17
12M24,543,experiment,48,↓,down,↓,1.9329626997932792,True,17
12M24,544,experiment,84,↑,up,↑,0.6128911999985576,True,17
12M24,545,experiment,72,↓,down,↓,0.6475822003558278,True,17
12M24,546,experiment,144,→,right,→,1.1595808998681605,True,17
12M24,547,experiment,132,↑,up,↑,0.6267463001422584,True,17
12M24,548,experiment,180,←,left,←,0.5659173997119069,True,17
12M24,549,experiment,168,←,left,←,0.48283160012215376,True,17
12M24,550,experiment,60,↑,up,↑,0.7742778998799622,True,17
12M24,551,experiment,156,→,right,→,0.78471489995718,True,17
12M24,552,experiment,96,→,right,→,0.5505780000239611,True,17
12M24,553,experiment,60,←,right,→,0.5086185997352004,False,17
12M24,554,experiment,156,↑,left,←,0.612878399901092,False,17
12M24,555,experiment,108,→,right,→,0.6929704998619854,True,17
12M24,556,experiment,108,←,left,←,1.1423375001177192,True,17
12M24,557,experiment,60,↑,up,↑,0.7278821999207139,True,17
12M24,558,experiment,132,→,right,→,0.6630443003959954,True,17
12M24,559,experiment,72,↑,up,↑,0.8778019002638757,True,17
12M24,560,experiment,180,←,left,←,0.5858974000439048,True,17
12M24,561,experiment,60,→,right,→,0.4888742999173701,True,17
12M24,562,experiment,132,↓,down,↓,0.6952367997728288,True,17
12M24,563,experiment,120,↑,up,↑,0.7176759000867605,True,17
12M24,564,experiment,144,↑,up,↑,0.5786778000183403,True,17
12M24,565,experiment,36,→,right,→,0.707442699931562,True,17
12M24,566,experiment,12,↑,right,→,0.7902930001728237,False,17
12M24,567,experiment,96,↓,down,↓,0.799611700233072,True,17
12M24,568,experiment,168,↓,down,↓,0.801101699937135,True,17
12M24,569,experiment,108,→,right,→,0.6092292000539601,True,17
12M24,570,experiment,144,↓,down,↓,0.75569779984653,True,17
12M24,571,experiment,180,→,left,←,1.1606286000460386,False,17
12M24,572,experiment,168,↓,down,↓,0.7562748002819717,True,17
12M24,573,experiment,120,↓,down,↓,0.6135759996250272,True,17
12M24,574,experiment,84,↓,left,←,0.8210889999754727,False,17
12M24,575,experiment,36,↓,left,←,0.6551152998581529,False,17
12M24,576,experiment,72,↑,up,↑,0.7612302000634372,True,17
12M24,577,experiment,84,↓,down,↓,0.9983688001520932,True,17
12M24,578,experiment,108,→,right,→,0.5569817000068724,True,17
12M24,579,experiment,120,→,right,→,0.5452669002115726,True,17
12M24,580,experiment,96,←,left,←,0.5797696001827717,True,17
12M24,581,experiment,48,↓,down,↓,0.8669543997384608,True,17
12M24,582,experiment,12,↓,up,↑,0.7407210003584623,False,17
12M24,583,experiment,168,↑,up,↑,0.6813570000231266,True,17
12M24,584,experiment,120,←,left,←,1.5223309001885355,True,17
12M24,585,experiment,24,↓,left,←,1.1206718999892473,False,17
12M24,586,experiment,132,↓,down,↓,0.774670600425452,True,17
12M24,587,experiment,144,→,right,→,0.6028729001991451,True,17
12M24,588,experiment,96,→,right,→,0.4973915000446141,True,17
12M24,589,experiment,48,↓,down,↓,0.7235608999617398,True,17
12M24,590,experiment,180,↑,up,↑,0.6285295998677611,True,17
12M24,591,experiment,24,←,right,→,0.7188635999336839,False,17
12M24,592,experiment,36,→,up,↑,1.3279960001818836,False,17
12M24,593,experiment,36,↑,up,↑,0.672588899731636,True,17
12M24,594,experiment,12,←,left,←,0.5346860997378826,True,17
12M24,595,experiment,12,↓,down,↓,0.7433176003396511,True,17
12M24,596,experiment,24,↓,down,↓,0.6818925002589822,True,17
12M24,597,experiment,24,↓,up,↑,0.5899972999468446,False,17
12M24,598,training,96,→,right,→,0.5309317000210285,True,17
12M24,599,training,48,↓,down,↓,0.6223434996791184,True,17
12M24,600,training,168,←,left,←,0.6122385999187827,True,17
12M24,601,experiment,144,←,left,←,0.45757290022447705,True,17
12M24,602,experiment,180,↓,up,↑,0.7959082000888884,False,17
12M24,603,experiment,132,↓,down,↓,0.6446275999769568,True,17
12M24,604,experiment,36,←,right,→,0.6599359000101686,False,17
12M24,605,experiment,168,↓,down,↓,0.6503882999531925,True,17
12M24,606,experiment,72,←,left,←,0.3672210997901857,True,17
12M24,607,experiment,84,↓,down,↓,0.6640165997669101,True,17
12M24,608,experiment,84,↓,down,↓,0.5942250001244247,True,17
12M24,609,experiment,168,→,right,→,0.5334955002181232,True,17
12M24,610,experiment,48,→,right,→,0.6088597001507878,True,17
12M24,611,experiment,156,↓,down,↓,0.7374569000676274,True,17
12M24,612,experiment,72,↓,right,→,0.5394140002317727,False,17
12M24,613,experiment,132,←,left,←,0.5759018999524415,True,17
12M24,614,experiment,60,↓,up,↑,0.7773063001222908,False,17
12M24,615,experiment,96,↑,up,↑,0.7667399002239108,True,17
12M24,616,experiment,144,←,left,←,0.5277113998308778,True,17
12M24,617,experiment,132,↓,down,↓,0.6631720000877976,True,17
12M24,618,experiment,12,↓,up,↑,0.890620400197804,False,17
12M24,619,experiment,24,↑,up,↑,0.7323528998531401,True,17
12M24,620,experiment,36,→,left,←,0.7248849999159575,False,17
12M24,621,experiment,180,→,right,→,0.5993554000742733,True,17
12M24,622,experiment,180,↓,down,↓,0.7031398001126945,True,17
12M24,623,experiment,120,→,up,↑,0.7144275000318885,False,17
12M24,624,experiment,12,→,down,↓,1.0144418003037572,False,17
12M24,625,experiment,132,←,left,←,0.4527630000375211,True,17
12M24,626,experiment,144,↑,up,↑,0.9714381000958383,True,17
12M24,627,experiment,96,↓,down,↓,0.7775253001600504,True,17
12M24,628,experiment,84,→,right,→,0.5675827004015446,True,17
12M24,629,experiment,36,↓,down,↓,0.8612421001307666,True,17
12M24,630,experiment,108,↓,left,←,0.6755212000571191,False,17
12M24,631,experiment,36,↑,up,↑,0.6329944999888539,True,17
12M24,632,experiment,120,←,left,←,0.536637700162828,True,17
12M24,633,experiment,108,↑,right,→,0.7894450002349913,False,17
12M24,634,experiment,168,→,right,→,0.4525463003665209,True,17
12M24,635,experiment,72,↓,down,↓,0.681321700103581,True,17
12M24,636,experiment,84,←,up,↑,1.0462278998456895,False,17
12M24,637,experiment,120,←,right,→,0.0003658002242445946,False,17
12M24,638,experiment,48,↓,down,↓,0.659067299682647,True,17
12M24,639,experiment,96,←,left,←,0.6438303999602795,True,17
12M24,640,experiment,60,→,right,→,0.5423749000765383,True,17
12M24,641,experiment,96,←,up,↑,1.021289300173521,False,17
12M24,642,experiment,60,↑,up,↑,0.7777912998571992,True,17
12M24,643,experiment,72,↓,down,↓,0.577914500143379,True,17
12M24,644,experiment,108,←,left,←,0.9202235001139343,True,17
12M24,645,experiment,48,↓,down,↓,0.7093205000273883,True,17
12M24,646,experiment,108,↓,down,↓,0.7111709001474082,True,17
12M24,647,experiment,12,↑,up,↑,0.6598103996366262,True,17
12M24,648,experiment,120,↑,up,↑,0.5313262999989092,True,17
12M24,649,experiment,180,↓,down,↓,0.7682496001943946,True,17
12M24,650,experiment,24,↓,down,↓,1.15971660008654,True,17
12M24,651,experiment,156,↑,up,↑,0.5191701999865472,True,17
12M24,652,experiment,24,→,left,←,0.6944249998778105,False,17
12M24,653,experiment,168,↑,up,↑,0.5842212000861764,True,17
12M24,654,experiment,156,↓,up,↑,0.5384626998566091,False,17
12M24,655,experiment,144,↑,down,↓,1.6936821998097003,False,17
12M24,656,experiment,48,→,up,↑,1.1083549000322819,False,17
12M24,657,experiment,12,↑,up,↑,0.6501120002940297,True,17
12M24,658,experiment,156,→,right,→,0.7260651998221874,True,17
12M24,659,experiment,24,→,right,→,0.7999565000645816,True,17
12M24,660,experiment,60,↑,up,↑,0.4587874999269843,True,17
12M24,661,training,108,→,left,←,0.8999783997423947,False,17
12M24,662,training,132,↑,up,↑,0.5263176998123527,True,17
12M24,663,training,144,↑,up,↑,0.7283283001743257,True,17
12M24,664,experiment,24,↑,up,↑,0.5636138999834657,True,17
12M24,665,experiment,168,←,left,←,0.5191402998752892,True,17
12M24,666,experiment,132,↑,up,↑,0.5629233000800014,True,17
12M24,667,experiment,180,↓,up,↑,0.5627979002892971,False,17
12M24,668,experiment,72,↓,down,↓,0.7729540998116136,True,17
12M24,669,experiment,108,↑,left,←,0.6356584001332521,False,17
12M24,670,experiment,48,↑,up,↑,0.46243240032345057,True,17
12M24,671,experiment,156,↓,down,↓,0.7799565996974707,True,17
12M24,672,experiment,108,↓,down,↓,0.6572978999465704,True,17
12M24,673,experiment,48,↓,right,→,0.8697766000404954,False,17
12M24,674,experiment,36,↓,down,↓,0.8471061000600457,True,17
12M24,675,experiment,36,→,left,←,1.0920333000831306,False,17
12M24,676,experiment,24,↑,up,↑,0.6224857000634074,True,17
12M24,677,experiment,144,↓,down,↓,0.7061351998709142,True,17
12M24,678,experiment,84,↓,up,↑,0.5712140002287924,False,17
12M24,679,experiment,108,←,left,←,0.5649828999303281,True,17
12M24,680,experiment,96,←,left,←,0.7046881001442671,True,17
12M24,681,experiment,120,↓,down,↓,0.7545606000348926,True,17
12M24,682,experiment,132,→,right,→,0.6069938000291586,True,17
12M24,683,experiment,144,↑,up,↑,0.7527540000155568,True,17
12M24,684,experiment,144,→,up,↑,0.861891399603337,False,17
12M24,685,experiment,36,→,right,→,0.6135072000324726,True,17
12M24,686,experiment,180,←,left,←,0.6481738002039492,True,17
12M24,687,experiment,180,↑,up,↑,0.5358456000685692,True,17
12M24,688,experiment,96,↑,up,↑,0.6897606998682022,True,17
12M24,689,experiment,120,↓,down,↓,0.707948500290513,True,17
12M24,690,experiment,132,↓,down,↓,0.7657596999779344,True,17
12M24,691,experiment,72,→,right,→,0.636457399930805,True,17
12M24,692,experiment,12,↑,left,←,0.6812108000740409,False,17
12M24,693,experiment,180,←,left,←,0.5756736001931131,True,17
12M24,694,experiment,12,→,right,→,0.5819187997840345,True,17
12M24,695,experiment,168,↓,down,↓,0.6897144000977278,True,17
12M24,696,experiment,60,←,left,←,0.723214200232178,True,17
12M24,697,experiment,36,↑,right,→,1.0569452997297049,False,17
12M24,698,experiment,72,↑,up,↑,0.5776337999850512,True,17
12M24,699,experiment,132,↑,up,↑,0.5014851000159979,True,17
12M24,700,experiment,156,→,right,→,0.6435778001323342,True,17
12M24,701,experiment,108,→,right,→,0.4630594998598099,True,17
12M24,702,experiment,156,↑,up,↑,0.7877795002423227,True,17
12M24,703,experiment,168,→,right,→,0.6264378000050783,True,17
12M24,704,experiment,24,←,left,←,0.755774199962616,True,17
12M24,705,experiment,168,←,left,←,0.524025599937886,True,17
12M24,706,experiment,96,↓,down,↓,0.7543060998432338,True,17
12M24,707,experiment,12,↑,up,↑,0.623008499853313,True,17
12M24,708,experiment,84,→,right,→,0.601362899877131,True,17
12M24,709,experiment,120,→,left,←,0.8942560995928943,False,17
12M24,710,experiment,96,←,right,→,0.5738522000610828,False,17
12M24,711,experiment,24,→,left,←,0.8645318001508713,False,17
12M24,712,experiment,144,←,right,→,0.46716570015996695,False,17
12M24,713,experiment,84,→,right,→,0.4926869999617338,True,17
12M24,714,experiment,48,↑,up,↑,0.5657047000713646,True,17
12M24,715,experiment,120,↓,left,←,0.756351700052619,False,17
12M24,716,experiment,60,↓,up,↑,1.2593860998749733,False,17
12M24,717,experiment,60,←,left,←,0.6998883001506329,True,17
12M24,718,experiment,84,↑,left,←,0.7752761002629995,False,17
12M24,719,experiment,48,↓,up,↑,0.9942874000407755,False,17
12M24,720,experiment,72,→,right,→,0.5594453001394868,True,17
12M24,721,experiment,12,↑,up,↑,0.6790638002566993,True,17
12M24,722,experiment,156,←,left,←,0.6725838999263942,True,17
12M24,723,experiment,60,↓,down,↓,0.6707135997712612,True,17
12M24,724,training,36,→,left,←,1.0784245003014803,False,17
12M24,725,training,108,←,left,←,0.46301669999957085,True,17
12M24,726,training,48,←,left,←,0.6688365000300109,True,17
12M24,727,experiment,180,←,right,→,0.5591047997586429,False,17
12M24,728,experiment,108,←,left,←,0.5644542998634279,True,17
12M24,729,experiment,24,←,left,←,0.5068685002624989,True,17
12M24,730,experiment,108,→,right,→,0.5773199000395834,True,17
12M24,731,experiment,24,↑,left,←,0.5607389002107084,False,17
12M24,732,experiment,132,↓,down,↓,0.7775744004175067,True,17
12M24,733,experiment,60,←,right,→,0.513249000068754,False,17
12M24,734,experiment,60,→,up,↑,0.9345639003440738,False,17
12M24,735,experiment,96,→,right,→,0.5377752999775112,True,17
12M24,736,experiment,12,↑,right,→,1.51459230016917,False,17
12M24,737,experiment,144,↑,up,↑,0.594746199902147,True,17
12M24,738,experiment,96,→,right,→,0.510810500010848,True,17
12M24,739,experiment,96,→,right,→,0.5325432997196913,True,17
12M24,740,experiment,36,→,right,→,0.5110563999041915,True,17
12M24,741,experiment,84,↑,up,↑,0.5740188001655042,True,17
12M24,742,experiment,60,→,right,→,0.581114400178194,True,17
12M24,743,experiment,168,←,left,←,0.7767459996975958,True,17
12M24,744,experiment,48,←,left,←,0.7775997999124229,True,17
12M24,745,experiment,48,↓,up,↑,0.6390881999395788,False,17
12M24,746,experiment,156,←,left,←,0.5785430003888905,True,17
12M24,747,experiment,72,↑,up,↑,0.6409074999392033,True,17
12M24,748,experiment,24,←,left,←,0.8047617999836802,True,17
12M24,749,experiment,168,→,right,→,0.5432694996707141,True,17
12M24,750,experiment,156,←,left,←,0.5158687001094222,True,17
12M24,751,experiment,144,↑,up,↑,0.4972688998095691,True,17
12M24,752,experiment,72,←,left,←,1.139436500146985,True,17
12M24,753,experiment,168,←,left,←,0.4745022999122739,True,17
12M24,754,experiment,72,↓,down,↓,0.7613091999664903,True,17
12M24,755,experiment,120,↑,up,↑,0.5606745001859963,True,17
12M24,756,experiment,36,↓,up,↑,0.7772237998433411,False,17
12M24,757,experiment,180,↑,left,←,0.4822639999911189,False,17
12M24,758,experiment,132,↓,down,↓,0.6144682001322508,True,17
12M24,759,experiment,132,→,up,↑,1.023118400014937,False,17
12M24,760,experiment,144,→,left,←,0.5081784999929368,False,17
12M24,761,experiment,108,↓,right,→,0.863629899919033,False,17
12M24,762,experiment,48,↑,up,↑,0.7961102002300322,True,17
12M24,763,experiment,96,↓,down,↓,0.552059100009501,True,17
12M24,764,experiment,156,↑,up,↑,1.2944561997428536,True,17
12M24,765,experiment,156,←,left,←,0.7675482998602092,True,17
12M24,766,experiment,12,←,left,←,0.5613866997882724,True,17
12M24,767,experiment,120,←,left,←,0.38404469983652234,True,17
12M24,768,experiment,84,→,left,←,0.4852781002409756,False,17
12M24,769,experiment,24,←,left,←,0.5611931001767516,True,17
12M24,770,experiment,36,←,up,↑,1.0791845000348985,False,17
12M24,771,experiment,84,←,left,←,0.5737070003524423,True,17
12M24,772,experiment,84,↑,up,↑,0.6157145001925528,True,17
12M24,773,experiment,12,→,right,→,0.8213630001991987,True,17
12M24,774,experiment,36,←,left,←,0.6379971001297235,True,17
12M24,775,experiment,120,←,left,←,0.5160995996557176,True,17
12M24,776,experiment,132,←,right,→,0.5398529996164143,False,17
12M24,777,experiment,180,→,right,→,0.5899508004076779,True,17
12M24,778,experiment,48,←,left,←,0.5694363000802696,True,17
12M24,779,experiment,168,↓,up,↑,0.6954719997011125,False,17
12M24,780,experiment,144,→,right,→,0.6327455998398364,True,17
12M24,781,experiment,180,↓,right,→,0.6623420999385417,False,17
12M24,782,experiment,72,←,left,←,0.5622454998083413,True,17
12M24,783,experiment,108,↓,left,←,0.5128206997178495,False,17
12M24,784,experiment,12,←,up,↑,0.886406899895519,False,17
12M24,785,experiment,60,↓,up,↑,0.8167142001911998,False,17
12M24,786,experiment,120,←,left,←,0.5541328000836074,True,17
12M24,787,training,72,←,up,↑,0.7535919998772442,False,17
12M24,788,training,144,←,right,→,0.6064975997433066,False,17
12M24,789,training,120,←,left,←,0.6160098002292216,True,17
12M24,790,experiment,24,←,left,←,0.5195220001041889,True,17
12M24,791,experiment,72,↑,up,↑,0.5307256001979113,True,17
12M24,792,experiment,120,↑,up,↑,0.6698130001313984,True,17
12M24,793,experiment,24,↑,up,↑,0.6840764996595681,True,17
12M24,794,experiment,96,←,left,←,0.5796181997284293,True,17
12M24,795,experiment,36,↑,up,↑,0.6144671998918056,True,17
12M24,796,experiment,12,↓,up,↑,0.6881317999213934,False,17
12M24,797,experiment,24,↑,left,←,1.0115903001278639,False,17
12M24,798,experiment,168,→,right,→,0.5451466999948025,True,17
12M24,799,experiment,12,←,left,←,0.5214657001197338,True,17
12M24,800,experiment,36,→,right,→,0.6016279002651572,True,17
12M24,801,experiment,168,↓,left,←,0.7024035998620093,False,17
12M24,802,experiment,180,↓,down,↓,0.7988477000035346,True,17
12M24,803,experiment,180,↑,up,↑,0.5820357999764383,True,17
12M24,804,experiment,144,→,right,→,0.5873227999545634,True,17
12M24,805,experiment,132,→,left,←,0.5139206000603735,False,17
12M24,806,experiment,24,←,left,←,0.6854429999366403,True,17
12M24,807,experiment,48,↑,up,↑,1.1707766996696591,True,17
12M24,808,experiment,120,→,right,→,0.6187474001199007,True,17
12M24,809,experiment,84,↓,down,↓,0.7284960001707077,True,17
12M24,810,experiment,156,↓,down,↓,0.7273337999358773,True,17
12M24,811,experiment,84,→,right,→,0.5895523000508547,True,17
12M24,812,experiment,180,→,down,↓,0.991615999955684,False,17
12M24,813,experiment,120,↓,down,↓,0.719238500110805,True,17
12M24,814,experiment,108,←,left,←,0.5850895997136831,True,17
12M24,815,experiment,156,←,left,←,0.7190226996317506,True,17
12M24,816,experiment,132,↓,left,←,0.5986144999042153,False,17
12M24,817,experiment,132,↑,down,↓,0.6176092997193336,False,17
12M24,818,experiment,12,→,left,←,1.337398299947381,False,17
12M24,819,experiment,144,↑,up,↑,0.613519299775362,True,17
12M24,820,experiment,108,↑,up,↑,0.928989099804312,True,17
12M24,821,experiment,156,↑,up,↑,0.6604781998321414,True,17
12M24,822,experiment,84,↓,right,→,1.2203023000620306,False,17
12M24,823,experiment,144,→,right,→,0.7222593002952635,True,17
12M24,824,experiment,96,↑,down,↓,0.8514463999308646,False,17
12M24,825,experiment,60,↓,up,↑,0.6432739999145269,False,17
12M24,826,experiment,168,↓,up,↑,0.6364836003631353,False,17
12M24,827,experiment,60,←,left,←,0.5891276998445392,True,17
12M24,828,experiment,60,↑,up,↑,0.6262881001457572,True,17
12M24,829,experiment,48,↑,up,↑,0.5887578995898366,True,17
12M24,830,experiment,96,→,right,→,0.61120539996773,True,17
12M24,831,experiment,144,←,left,←,0.49055799981579185,True,17
12M24,832,experiment,36,↓,down,↓,0.7663837997242808,True,17
12M24,833,experiment,96,→,right,→,0.5093962997198105,True,17
12M24,834,experiment,72,←,up,↑,0.819439799990505,False,17
12M24,835,experiment,48,↓,down,↓,0.7450427999719977,True,17
12M24,836,experiment,72,↑,right,→,0.9930039998143911,False,17
12M24,837,experiment,120,←,up,↑,0.7772157997824252,False,17
12M24,838,experiment,132,↑,up,↑,0.6255264999344945,True,17
12M24,839,experiment,36,→,left,←,1.2096636998467147,False,17
12M24,840,experiment,156,→,right,→,0.5762130003422499,True,17
12M24,841,experiment,180,←,right,→,0.6465468998067081,False,17
12M24,842,experiment,60,←,right,→,0.6665105996653438,False,17
12M24,843,experiment,168,↓,down,↓,0.6493772002868354,True,17
12M24,844,experiment,84,↓,down,↓,0.7464471999555826,True,17
12M24,845,experiment,108,↓,right,→,0.755927599966526,False,17
12M24,846,experiment,108,↓,down,↓,0.7353166001848876,True,17
12M24,847,experiment,12,→,right,→,0.5442339996807277,True,17
12M24,848,experiment,48,↓,up,↑,0.7402610997669399,False,17
12M24,849,experiment,72,↑,down,↓,0.9895596001297235,False,17
