PART_ID,Trial_no,Trial_type,PDI,Stim_letter,Key_pressed,letter_choose,Rt,Corr,Stimulus Time
13K24,1,training,10,↑,no_key,no_letter,-1.0,False,30
13K24,2,training,10,→,no_key,no_letter,-1.0,False,30
13K24,3,training,10,↓,down,↓,1.009655799716711,True,30
13K24,4,training,10,↓,left,←,0.8780867997556925,False,30
13K24,5,training,10,↓,right,→,1.0286582000553608,False,30
13K24,6,training,10,←,left,←,2.1372299999929965,True,30
13K24,7,training,10,←,left,←,1.7808189000934362,True,30
13K24,8,training,10,→,right,→,2.056922399904579,True,30
13K24,9,training,10,↑,up,↑,0.9838026999495924,True,30
13K24,10,training,10,←,left,←,0.9772160002030432,True,30
13K24,11,training,10,←,left,←,0.9841647003777325,True,30
13K24,12,training,10,↑,up,↑,1.069760600104928,True,30
13K24,13,training,10,↑,up,↑,1.0190475997515023,True,30
13K24,14,training,10,↑,up,↑,0.9225300000980496,True,30
13K24,15,training,10,↑,up,↑,0.9404893000610173,True,30
13K24,16,training,10,↓,down,↓,1.0740927001461387,True,30
13K24,17,training,10,↓,down,↓,0.9397546998225152,True,30
13K24,18,training,10,↓,no_key,no_letter,-1.0,False,30
13K24,19,training,10,←,left,←,1.0063902996480465,True,30
13K24,20,training,10,↓,down,↓,0.7382435998879373,True,30
13K24,21,training,10,←,left,←,0.49424370005726814,True,18
13K24,22,training,10,↑,left,←,0.4868009998463094,False,18
13K24,23,training,10,↑,up,↑,0.6452365997247398,True,18
13K24,24,training,10,←,left,←,0.5994200999848545,True,18
13K24,25,training,10,↓,down,↓,0.698601100128144,True,18
13K24,26,training,10,↓,up,↑,1.0465413997881114,False,18
13K24,27,training,10,↑,right,→,1.2460312000475824,False,18
13K24,28,training,10,↓,down,↓,0.7256948999129236,True,18
13K24,29,training,10,←,left,←,0.683406500145793,True,18
13K24,30,training,10,→,right,→,0.518451000098139,True,18
13K24,31,training,12,→,right,→,0.6273401002399623,True,15
13K24,32,training,84,↑,left,←,0.7458011000417173,False,15
13K24,33,training,168,↓,down,↓,0.7596808997914195,True,15
13K24,34,experiment,168,→,right,→,0.6059906003065407,True,15
13K24,35,experiment,84,→,right,→,0.5537342000752687,True,15
13K24,36,experiment,12,←,left,←,1.0183447999879718,True,15
13K24,37,experiment,144,←,down,↓,1.0960225998423994,False,15
13K24,38,experiment,96,→,left,←,0.6718346001580358,False,15
13K24,39,experiment,120,→,down,↓,1.1071801004000008,False,15
13K24,40,experiment,156,↓,down,↓,0.8412883002310991,True,15
13K24,41,experiment,180,←,left,←,0.6294121001847088,True,15
13K24,42,experiment,180,↓,down,↓,0.6177779999561608,True,15
13K24,43,experiment,96,←,down,↓,0.833349300082773,False,15
13K24,44,experiment,84,←,left,←,0.5328812003135681,True,15
13K24,45,experiment,24,→,left,←,0.48711949959397316,False,15
13K24,46,experiment,24,→,right,→,0.4543230999261141,True,15
13K24,47,experiment,72,↑,up,↑,0.5424679000861943,True,15
13K24,48,experiment,48,↑,left,←,0.968336199875921,False,15
13K24,49,experiment,72,↑,up,↑,0.4800368999131024,True,15
13K24,50,experiment,168,↑,up,↑,0.9662101999856532,True,15
13K24,51,experiment,156,↓,down,↓,0.653946400154382,True,15
13K24,52,experiment,36,↑,up,↑,0.5958422999829054,True,15
13K24,53,experiment,12,←,left,←,0.44265739992260933,True,15
13K24,54,experiment,156,←,down,↓,0.6940183998085558,False,15
13K24,55,experiment,24,↓,up,↑,0.9122569002211094,False,15
13K24,56,experiment,84,→,right,→,1.2268604999408126,True,15
13K24,57,experiment,168,→,right,→,0.7981436001136899,True,15
13K24,58,experiment,96,←,left,←,0.9752464001066983,True,15
13K24,59,experiment,144,→,right,→,0.7436560997739434,True,15
13K24,60,experiment,96,→,left,←,0.937375099863857,False,15
13K24,61,experiment,168,↑,up,↑,1.0797704001888633,True,15
13K24,62,experiment,108,→,right,→,0.6563551998697221,True,15
13K24,63,experiment,132,↑,up,↑,1.2143569998443127,True,15
13K24,64,experiment,84,→,left,←,1.2977892002090812,False,15
13K24,65,experiment,180,→,right,→,0.6359108001925051,True,15
13K24,66,experiment,48,↑,up,↑,1.0801997003145516,True,15
13K24,67,experiment,120,→,down,↓,1.380946199875325,False,15
13K24,68,experiment,12,↑,down,↓,1.0094117000699043,False,15
13K24,69,experiment,132,←,up,↑,1.3270677998661995,False,15
13K24,70,experiment,156,←,left,←,0.6304011000320315,True,15
13K24,71,experiment,108,←,left,←,0.5161816002801061,True,15
13K24,72,experiment,60,↓,down,↓,0.7623793999664485,True,15
13K24,73,experiment,132,↓,down,↓,0.8620869000442326,True,15
13K24,74,experiment,72,→,down,↓,0.9306252999231219,False,15
13K24,75,experiment,72,→,right,→,0.5500772995874286,True,15
13K24,76,experiment,120,↓,down,↓,0.5591683001257479,True,15
13K24,77,experiment,108,→,right,→,0.5052422001026571,True,15
13K24,78,experiment,12,→,right,→,0.4208364998921752,True,15
13K24,79,experiment,36,→,right,→,0.3671686998568475,True,15
13K24,80,experiment,120,←,left,←,0.48639259999617934,True,15
13K24,81,experiment,60,↓,left,←,0.3840689999051392,False,15
13K24,82,experiment,60,↓,up,↑,1.2077285000123084,False,15
13K24,83,experiment,144,↓,right,→,1.2740558004006743,False,15
13K24,84,experiment,108,←,down,↓,1.0858944999054074,False,15
13K24,85,experiment,36,↑,up,↑,0.5338280000723898,True,15
13K24,86,experiment,60,↓,down,↓,0.5750432000495493,True,15
13K24,87,experiment,180,↓,up,↑,1.3327274997718632,False,15
13K24,88,experiment,48,←,left,←,0.5539664998650551,True,15
13K24,89,experiment,24,↓,up,↑,1.2684920001775026,False,15
13K24,90,experiment,132,←,left,←,0.7197044999338686,True,15
13K24,91,experiment,36,↑,up,↑,1.3253191001713276,True,15
13K24,92,experiment,48,↓,down,↓,0.6462826998904347,True,15
13K24,93,experiment,144,↑,up,↑,1.4436494000256062,True,15
13K24,94,training,132,←,left,←,0.8123395000584424,True,15
13K24,95,training,12,↓,right,→,1.0457554999738932,False,15
13K24,96,training,12,↓,down,↓,0.6248566997237504,True,15
13K24,97,experiment,48,←,left,←,0.49805970024317503,True,15
13K24,98,experiment,108,↑,up,↑,1.6395308999344707,True,15
13K24,99,experiment,84,↓,down,↓,0.8946390999481082,True,15
13K24,100,experiment,168,↓,left,←,1.2078498001210392,False,15
13K24,101,experiment,84,←,right,→,0.6926389001309872,False,15
13K24,102,experiment,48,↑,no_key,no_letter,-1.0,False,15
13K24,103,experiment,180,→,right,→,0.6851117997430265,True,15
13K24,104,experiment,108,↓,down,↓,0.8517764997668564,True,15
13K24,105,experiment,84,↓,up,↑,0.9848289000801742,False,15
13K24,106,experiment,120,↓,right,→,1.4775458998046815,False,15
13K24,107,experiment,84,↑,up,↑,0.629674700088799,True,15
13K24,108,experiment,24,↑,up,↑,1.5100686000660062,True,15
13K24,109,experiment,72,→,right,→,0.5076930997893214,True,15
13K24,110,experiment,156,→,right,→,0.4259514003060758,True,15
13K24,111,experiment,180,↑,left,←,0.531082000117749,False,15
13K24,112,experiment,96,↑,up,↑,1.4621887998655438,True,15
13K24,113,experiment,60,←,right,→,0.9639809001237154,False,15
13K24,114,experiment,108,↓,up,↑,0.9214503997936845,False,15
13K24,115,experiment,72,↑,up,↑,0.6386929000727832,True,15
13K24,116,experiment,12,←,left,←,1.509830900002271,True,15
13K24,117,experiment,180,↓,up,↑,1.2544611999765038,False,15
13K24,118,experiment,72,←,left,←,0.5673632998950779,True,15
13K24,119,experiment,108,↑,right,→,1.5195722999051213,False,15
13K24,120,experiment,36,←,left,←,0.5647261999547482,True,15
13K24,121,experiment,156,→,left,←,1.0822153999470174,False,15
13K24,122,experiment,48,↑,no_key,no_letter,-1.0,False,15
13K24,123,experiment,144,→,right,→,0.5802366002462804,True,15
13K24,124,experiment,132,←,left,←,0.9563374002464116,True,15
13K24,125,experiment,36,↑,up,↑,0.8284730999730527,True,15
13K24,126,experiment,144,→,no_key,no_letter,-1.0,False,15
13K24,127,experiment,96,↓,no_key,no_letter,-1.0,False,15
13K24,128,experiment,132,→,right,→,0.561614100355655,True,15
13K24,129,experiment,96,←,left,←,0.5760351000353694,True,15
13K24,130,experiment,12,→,right,→,0.9567269999533892,True,15
13K24,131,experiment,12,↓,down,↓,0.7010924997739494,True,15
13K24,132,experiment,36,←,left,←,0.4906637999229133,True,15
13K24,133,experiment,72,←,right,→,1.2779717999510467,False,15
13K24,134,experiment,60,←,left,←,1.1839251997880638,True,15
13K24,135,experiment,24,→,right,→,0.5364206000231206,True,15
13K24,136,experiment,168,→,right,→,0.4277649000287056,True,15
13K24,137,experiment,60,←,right,→,0.9602923998609185,False,15
13K24,138,experiment,96,→,left,←,0.9577489998191595,False,15
13K24,139,experiment,168,→,right,→,0.49777460005134344,True,15
13K24,140,experiment,132,←,left,←,1.1483705001883209,True,15
13K24,141,experiment,132,→,right,→,0.7670567003078759,True,15
13K24,142,experiment,180,←,right,→,0.6708820997737348,False,15
13K24,143,experiment,156,↓,right,→,1.5723279998637736,False,15
13K24,144,experiment,120,→,left,←,1.0350942998193204,False,15
13K24,145,experiment,168,↑,up,↑,0.6214681002311409,True,15
13K24,146,experiment,36,↑,down,↓,1.3524943999946117,False,15
13K24,147,experiment,48,←,left,←,0.8458181000314653,True,15
13K24,148,experiment,120,←,up,↑,1.3603679002262652,False,15
13K24,149,experiment,120,↓,down,↓,0.8682549996301532,True,15
13K24,150,experiment,24,→,down,↓,1.7606099997647107,False,15
13K24,151,experiment,24,↓,up,↑,1.2647262001410127,False,15
13K24,152,experiment,12,→,right,→,0.7498117997311056,True,15
13K24,153,experiment,144,→,right,→,0.6533643999136984,True,15
13K24,154,experiment,60,↑,up,↑,0.7682729000225663,True,15
13K24,155,experiment,144,↑,down,↓,1.2497288002632558,False,15
13K24,156,experiment,156,↓,down,↓,1.2274389998055995,True,15
13K24,157,training,168,←,left,←,0.6176885003224015,True,16
13K24,158,training,24,↑,up,↑,0.4404103998094797,True,16
13K24,159,training,120,↑,down,↓,0.7439363999292254,False,16
13K24,160,experiment,84,→,right,→,0.5103712999261916,True,16
13K24,161,experiment,168,↑,down,↓,0.9826440000906587,False,16
13K24,162,experiment,60,→,right,→,0.7875270000658929,True,16
13K24,163,experiment,36,←,left,←,0.516701000276953,True,16
13K24,164,experiment,144,←,left,←,0.5923537998460233,True,16
13K24,165,experiment,36,↓,down,↓,0.862464299891144,True,16
13K24,166,experiment,180,→,down,↓,0.7598198000341654,False,16
13K24,167,experiment,132,↓,down,↓,0.7801541998051107,True,16
13K24,168,experiment,84,↓,right,→,1.121776600368321,False,16
13K24,169,experiment,96,↓,down,↓,0.7303197998553514,True,16
13K24,170,experiment,144,↓,down,↓,0.6491354000754654,True,16
13K24,171,experiment,24,↓,up,↑,1.154544500168413,False,16
13K24,172,experiment,24,→,right,→,0.4897402999922633,True,16
13K24,173,experiment,120,←,left,←,0.4545416999608278,True,16
13K24,174,experiment,84,↓,down,↓,0.6898273001424968,True,16
13K24,175,experiment,156,←,left,←,0.7604272002354264,True,16
13K24,176,experiment,108,↑,up,↑,0.4878051998093724,True,16
13K24,177,experiment,12,↓,up,↑,0.5364989996887743,False,16
13K24,178,experiment,12,→,left,←,0.9081365000456572,False,16
13K24,179,experiment,132,←,left,←,0.5862313001416624,True,16
13K24,180,experiment,60,←,right,→,0.6607711999677122,False,16
13K24,181,experiment,24,←,left,←,0.5767913004383445,True,16
13K24,182,experiment,72,↓,down,↓,0.6664851997047663,True,16
13K24,183,experiment,144,←,left,←,0.676623800303787,True,16
13K24,184,experiment,96,↑,up,↑,0.7261836999095976,True,16
13K24,185,experiment,120,←,left,←,0.6803880999796093,True,16
13K24,186,experiment,60,←,right,→,0.5391824999824166,False,16
13K24,187,experiment,168,→,up,↑,1.9015739997848868,False,16
13K24,188,experiment,180,↓,up,↑,0.8176837000064552,False,16
13K24,189,experiment,108,←,left,←,0.6187839000485837,True,16
13K24,190,experiment,108,←,left,←,0.5318272998556495,True,16
13K24,191,experiment,72,←,right,→,0.7786542996764183,False,16
13K24,192,experiment,12,→,left,←,0.6229627002030611,False,16
13K24,193,experiment,168,↑,up,↑,0.7244672998785973,True,16
13K24,194,experiment,24,→,down,↓,1.2811197000555694,False,16
13K24,195,experiment,48,↑,no_key,no_letter,-1.0,False,16
13K24,196,experiment,60,←,left,←,0.5504390001296997,True,16
13K24,197,experiment,132,→,left,←,0.871743899770081,False,16
13K24,198,experiment,144,←,left,←,0.5875678001902997,True,16
13K24,199,experiment,180,→,right,→,0.4920569001697004,True,16
13K24,200,experiment,72,←,left,←,0.5212429999373853,True,16
13K24,201,experiment,36,↑,up,↑,0.9769815001636744,True,16
13K24,202,experiment,132,←,left,←,0.506523400079459,True,16
13K24,203,experiment,96,↓,left,←,0.4004982002079487,False,16
13K24,204,experiment,12,→,up,↑,1.038743699900806,False,16
13K24,205,experiment,84,←,down,↓,0.8868615999817848,False,16
13K24,206,experiment,120,↑,right,→,0.8751077996566892,False,16
13K24,207,experiment,156,←,left,←,0.8848514999262989,True,16
13K24,208,experiment,108,↓,down,↓,0.4432720001786947,True,16
13K24,209,experiment,156,←,down,↓,0.552810899913311,False,16
13K24,210,experiment,180,→,right,→,0.685635699890554,True,16
13K24,211,experiment,48,↓,down,↓,1.1450481000356376,True,16
13K24,212,experiment,96,→,right,→,0.6661136001348495,True,16
13K24,213,experiment,36,↓,no_key,no_letter,-1.0,False,16
13K24,214,experiment,48,↓,down,↓,0.8635050002485514,True,16
13K24,215,experiment,168,←,left,←,0.5011213002726436,True,16
13K24,216,experiment,72,→,right,→,0.6974359001033008,True,16
13K24,217,experiment,48,↓,down,↓,0.5049609998241067,True,16
13K24,218,experiment,156,↓,down,↓,0.5907680997624993,True,16
13K24,219,experiment,120,←,right,→,0.4467976000159979,False,16
13K24,220,training,96,→,left,←,0.7788502001203597,False,16
13K24,221,training,60,↓,right,→,0.9949822998605669,False,16
13K24,222,training,96,↑,down,↓,0.7233691001310945,False,16
13K24,223,experiment,24,←,left,←,0.5897192996926606,True,16
13K24,224,experiment,60,→,right,→,0.6462039998732507,True,16
13K24,225,experiment,84,→,right,→,0.7169325998984277,True,16
13K24,226,experiment,168,→,right,→,0.5772548001259565,True,16
13K24,227,experiment,108,→,right,→,0.7818296002224088,True,16
13K24,228,experiment,12,↓,down,↓,0.6462218998931348,True,16
13K24,229,experiment,144,←,right,→,0.6350353001616895,False,16
13K24,230,experiment,60,↑,down,↓,0.5653693000786006,False,16
13K24,231,experiment,156,↓,up,↑,0.9651136002503335,False,16
13K24,232,experiment,84,↓,down,↓,0.6365670999512076,True,16
13K24,233,experiment,180,←,right,→,0.5487767001613975,False,16
13K24,234,experiment,180,→,right,→,0.5359110999852419,True,16
13K24,235,experiment,180,↓,down,↓,0.719206899870187,True,16
13K24,236,experiment,72,↓,right,→,0.9847395000979304,False,16
13K24,237,experiment,60,→,left,←,0.5097020003013313,False,16
13K24,238,experiment,24,←,right,→,0.4786641001701355,False,16
13K24,239,experiment,12,↑,down,↓,1.352613799739629,False,16
13K24,240,experiment,132,↑,up,↑,0.6516621997579932,True,16
13K24,241,experiment,120,↓,left,←,1.8830770999193192,False,16
13K24,242,experiment,84,↑,up,↑,1.3340393002144992,True,16
13K24,243,experiment,12,←,down,↓,0.8110833000391722,False,16
13K24,244,experiment,48,←,left,←,0.5808385000564158,True,16
13K24,245,experiment,120,↓,down,↓,0.559364499989897,True,16
13K24,246,experiment,36,→,left,←,1.0688371998257935,False,16
13K24,247,experiment,144,→,right,→,0.45855840016156435,True,16
13K24,248,experiment,12,→,left,←,1.1406695996411145,False,16
13K24,249,experiment,120,↓,down,↓,0.5462738997302949,True,16
13K24,250,experiment,168,↑,up,↑,0.519092199858278,True,16
13K24,251,experiment,84,←,left,←,0.5181689001619816,True,16
13K24,252,experiment,156,←,left,←,0.608995100017637,True,16
13K24,253,experiment,72,←,right,→,0.7900056997314095,False,16
13K24,254,experiment,36,↑,down,↓,1.144611899740994,False,16
13K24,255,experiment,156,→,right,→,0.5188126000575721,True,16
13K24,256,experiment,132,→,right,→,0.7200437001883984,True,16
13K24,257,experiment,24,←,left,←,0.760703899897635,True,16
13K24,258,experiment,132,↓,down,↓,0.5940938000567257,True,16
13K24,259,experiment,96,→,right,→,0.5090306997299194,True,16
13K24,260,experiment,24,→,right,→,0.9375710999593139,True,16
13K24,261,experiment,48,↑,down,↓,1.5174062000587583,False,16
13K24,262,experiment,96,←,right,→,0.7076658997684717,False,16
13K24,263,experiment,120,↑,down,↓,1.1146133998408914,False,16
13K24,264,experiment,144,→,right,→,0.8394221998751163,True,16
13K24,265,experiment,144,↓,right,→,0.7643730998970568,False,16
13K24,266,experiment,36,→,up,↑,0.9879435999318957,False,16
13K24,267,experiment,96,←,left,←,0.6853941003791988,True,16
13K24,268,experiment,72,←,right,→,0.9001978999003768,False,16
13K24,269,experiment,108,↓,down,↓,0.5832034000195563,True,16
13K24,270,experiment,48,↓,down,↓,0.443777599837631,True,16
13K24,271,experiment,132,↓,down,↓,0.6534283999353647,True,16
13K24,272,experiment,108,↓,up,↑,0.8851703000254929,False,16
13K24,273,experiment,108,←,left,←,0.47352130012586713,True,16
13K24,274,experiment,180,↓,down,↓,0.5902018998749554,True,16
13K24,275,experiment,168,↑,up,↑,0.5231310999952257,True,16
13K24,276,experiment,48,→,right,→,0.5053130001761019,True,16
13K24,277,experiment,36,↑,down,↓,0.9207586999982595,False,16
13K24,278,experiment,60,↓,up,↑,0.9700543996877968,False,16
13K24,279,experiment,156,↑,left,←,1.2828038004226983,False,16
13K24,280,experiment,168,↓,down,↓,0.40057789999991655,True,16
13K24,281,experiment,96,←,left,←,1.2402492999099195,True,16
13K24,282,experiment,72,↓,down,↓,0.8795110997743905,True,16
13K24,283,training,96,→,right,→,0.533642299938947,True,16
13K24,284,training,12,←,left,←,0.8012589002028108,True,16
13K24,285,training,180,↑,up,↑,0.5131389000453055,True,16
13K24,286,experiment,108,←,left,←,0.7151883002370596,True,16
13K24,287,experiment,120,←,down,↓,0.7572393002919853,False,16
13K24,288,experiment,144,↓,up,↑,1.0138809001073241,False,16
13K24,289,experiment,84,←,left,←,0.47603070037439466,True,16
13K24,290,experiment,180,→,right,→,0.4952905001118779,True,16
13K24,291,experiment,120,←,left,←,0.7526730000972748,True,16
13K24,292,experiment,36,↓,down,↓,0.9083616998977959,True,16
13K24,293,experiment,60,→,down,↓,0.8349057999439538,False,16
13K24,294,experiment,180,↑,no_key,no_letter,-1.0,False,16
13K24,295,experiment,144,↓,right,→,1.8698597000911832,False,16
13K24,296,experiment,108,→,right,→,0.7373693999834359,True,16
13K24,297,experiment,60,↑,right,→,1.0885207001119852,False,16
13K24,298,experiment,60,↓,down,↓,0.9914640001952648,True,16
13K24,299,experiment,144,←,left,←,0.7090706997551024,True,16
13K24,300,experiment,120,↑,up,↑,0.8171656997874379,True,16
13K24,301,experiment,36,↑,down,↓,0.7063210997730494,False,16
13K24,302,experiment,72,→,right,→,0.6055808002129197,True,16
13K24,303,experiment,156,↑,up,↑,0.6633816999383271,True,16
13K24,304,experiment,156,→,left,←,0.5602762000635266,False,16
13K24,305,experiment,24,↑,right,→,0.7400409998372197,False,16
13K24,306,experiment,168,←,left,←,0.7533735004253685,True,16
13K24,307,experiment,60,↑,right,→,0.7515724999830127,False,16
13K24,308,experiment,96,↓,down,↓,1.0514414003118873,True,16
13K24,309,experiment,132,↑,up,↑,0.6498825000599027,True,16
13K24,310,experiment,72,←,left,←,0.5428609000518918,True,16
13K24,311,experiment,12,↓,down,↓,0.5531597002409399,True,16
13K24,312,experiment,48,↓,up,↑,0.9343954999931157,False,16
13K24,313,experiment,36,↑,right,→,1.0439035999588668,False,16
13K24,314,experiment,96,←,left,←,0.7574450001120567,True,16
13K24,315,experiment,120,↑,up,↑,0.5194162996485829,True,16
13K24,316,experiment,180,→,up,↑,0.6231331001035869,False,16
13K24,317,experiment,96,→,right,→,0.5796799003146589,True,16
13K24,318,experiment,132,→,right,→,0.7362631997093558,True,16
13K24,319,experiment,12,↑,up,↑,0.5052016000263393,True,16
13K24,320,experiment,84,↑,up,↑,0.5897307996638119,True,16
13K24,321,experiment,24,→,left,←,0.8685963996686041,False,16
13K24,322,experiment,96,→,right,→,0.45218229992315173,True,16
13K24,323,experiment,132,→,right,→,0.5207634000107646,True,16
13K24,324,experiment,36,↓,left,←,0.5141751999035478,False,16
13K24,325,experiment,144,→,right,→,0.6184593997895718,True,16
13K24,326,experiment,180,←,right,→,0.8271412001922727,False,16
13K24,327,experiment,24,↑,up,↑,0.528869700152427,True,16
13K24,328,experiment,156,↑,up,↑,0.5506551000289619,True,16
13K24,329,experiment,168,↑,down,↓,0.7821595999412239,False,16
13K24,330,experiment,24,↑,up,↑,0.492178900167346,True,16
13K24,331,experiment,48,←,left,←,0.8291723001748323,True,16
13K24,332,experiment,156,↓,up,↑,0.5454430999234319,False,16
13K24,333,experiment,108,←,left,←,0.8644112995825708,True,16
13K24,334,experiment,168,→,right,→,0.4509040000848472,True,16
13K24,335,experiment,72,→,left,←,0.49568770034238696,False,16
13K24,336,experiment,12,↑,right,→,0.9040065002627671,False,16
13K24,337,experiment,12,→,down,↓,0.8279447997920215,False,16
13K24,338,experiment,168,↓,left,←,1.0066090999171138,False,16
13K24,339,experiment,84,↓,left,←,0.8982219998724759,False,16
13K24,340,experiment,84,↓,up,↑,0.8393235998228192,False,16
13K24,341,experiment,48,→,right,→,0.5268939002417028,True,16
13K24,342,experiment,48,↑,up,↑,0.4903589002788067,True,16
13K24,343,experiment,132,→,left,←,0.5967497997917235,False,16
13K24,344,experiment,72,↑,up,↑,1.1160904001444578,True,16
13K24,345,experiment,108,↓,down,↓,0.7637218004092574,True,16
13K24,346,training,144,→,left,←,0.5522165996953845,False,17
13K24,347,training,108,→,right,→,0.586406999733299,True,17
13K24,348,training,120,→,right,→,0.5487755001522601,True,17
13K24,349,experiment,132,←,left,←,0.5642532999627292,True,17
13K24,350,experiment,120,→,right,→,0.5686311996541917,True,17
13K24,351,experiment,48,→,right,→,0.5544203999452293,True,17
13K24,352,experiment,84,↑,up,↑,0.5178430997766554,True,17
13K24,353,experiment,72,↓,down,↓,0.5572770000435412,True,17
13K24,354,experiment,48,←,up,↑,1.0075685000047088,False,17
13K24,355,experiment,180,→,right,→,0.6327526997774839,True,17
13K24,356,experiment,60,↓,down,↓,0.7943488000892103,True,17
13K24,357,experiment,48,←,left,←,0.47221870021894574,True,17
13K24,358,experiment,132,↓,down,↓,0.5779556999914348,True,17
13K24,359,experiment,60,↑,up,↑,0.8352467999793589,True,17
13K24,360,experiment,180,→,right,→,0.6640369999222457,True,17
13K24,361,experiment,60,←,left,←,0.6605859999544919,True,17
13K24,362,experiment,108,↓,down,↓,0.5525877997279167,True,17
13K24,363,experiment,180,→,right,→,0.5467685000039637,True,17
13K24,364,experiment,120,↓,left,←,0.9186432003043592,False,17
13K24,365,experiment,84,←,left,←,0.501530900131911,True,17
13K24,366,experiment,36,↑,right,→,0.6941989003680646,False,17
13K24,367,experiment,60,→,no_key,no_letter,-1.0,False,17
13K24,368,experiment,36,←,right,→,0.4637914998456836,False,17
13K24,369,experiment,156,←,left,←,0.49281199974939227,True,17
13K24,370,experiment,156,↓,down,↓,0.7512942999601364,True,17
13K24,371,experiment,108,↑,up,↑,0.8339996999129653,True,17
13K24,372,experiment,36,↑,right,→,1.3004817999899387,False,17
13K24,373,experiment,108,←,left,←,0.5111870998516679,True,17
13K24,374,experiment,48,←,right,→,0.8678763001225889,False,17
13K24,375,experiment,144,←,left,←,0.6385103999637067,True,17
13K24,376,experiment,96,↓,down,↓,0.5086337998509407,True,17
13K24,377,experiment,180,←,left,←,0.5632231002673507,True,17
13K24,378,experiment,24,→,left,←,0.7564743999391794,False,17
13K24,379,experiment,72,←,left,←,1.6867979997768998,True,17
13K24,380,experiment,96,→,right,→,0.6871850998140872,True,17
13K24,381,experiment,84,↑,up,↑,0.6752881999127567,True,17
13K24,382,experiment,168,↑,up,↑,0.5375964003615081,True,17
13K24,383,experiment,72,↓,down,↓,0.5073017999529839,True,17
13K24,384,experiment,156,→,right,→,0.6316014002077281,True,17
13K24,385,experiment,120,→,right,→,0.4173192996531725,True,17
13K24,386,experiment,84,↓,down,↓,0.692092299927026,True,17
13K24,387,experiment,96,↑,up,↑,0.680528299883008,True,17
13K24,388,experiment,24,←,right,→,0.6290241000242531,False,17
13K24,389,experiment,24,↑,up,↑,0.5393004002980888,True,17
13K24,390,experiment,144,↓,down,↓,0.6982430000789464,True,17
13K24,391,experiment,12,←,left,←,1.0859776996076107,True,17
13K24,392,experiment,12,↑,up,↑,0.6000928999856114,True,17
13K24,393,experiment,132,←,down,↓,0.8394768997095525,False,17
13K24,394,experiment,12,←,left,←,0.6413293997757137,True,17
13K24,395,experiment,168,↓,down,↓,0.806448099669069,True,17
13K24,396,experiment,144,→,right,→,0.7372479997575283,True,17
13K24,397,experiment,96,→,right,→,0.8104024999774992,True,17
13K24,398,experiment,72,→,right,→,0.8466865997761488,True,17
13K24,399,experiment,24,←,left,←,0.9744338998571038,True,17
13K24,400,experiment,132,→,left,←,0.7702003000304103,False,17
13K24,401,experiment,108,↓,down,↓,0.7729075998067856,True,17
13K24,402,experiment,168,↓,left,←,0.857991199940443,False,17
13K24,403,experiment,144,←,left,←,0.46071769995614886,True,17
13K24,404,experiment,156,→,right,→,0.8125946000218391,True,17
13K24,405,experiment,168,←,left,←,0.5573692000471056,True,17
13K24,406,experiment,120,↑,up,↑,0.589523000176996,True,17
13K24,407,experiment,36,↓,up,↑,1.0706845996901393,False,17
13K24,408,experiment,12,→,right,→,0.7078496003523469,True,17
13K24,409,training,84,←,left,←,0.7836430999450386,True,17
13K24,410,training,84,↓,down,↓,0.6864403998479247,True,17
13K24,411,training,144,→,right,→,0.6846138997934759,True,17
13K24,412,experiment,48,↓,down,↓,0.6945948000065982,True,17
13K24,413,experiment,108,↓,down,↓,0.5240954998880625,True,17
13K24,414,experiment,36,↑,down,↓,1.0126261999830604,False,17
13K24,415,experiment,144,↑,up,↑,0.7104356000199914,True,17
13K24,416,experiment,120,↓,down,↓,0.8857410997152328,True,17
13K24,417,experiment,36,↑,down,↓,0.5988854998722672,False,17
13K24,418,experiment,180,←,right,→,0.8912182999774814,False,17
13K24,419,experiment,168,←,left,←,0.9656985001638532,True,17
13K24,420,experiment,60,←,left,←,0.859368700068444,True,17
13K24,421,experiment,12,↑,right,→,0.9760704999789596,False,17
13K24,422,experiment,96,←,left,←,0.7765973000787199,True,17
13K24,423,experiment,144,←,left,←,0.6479944000020623,True,17
13K24,424,experiment,132,←,left,←,0.6786385998129845,True,17
13K24,425,experiment,84,↓,right,→,0.8123229001648724,False,17
13K24,426,experiment,84,↓,down,↓,1.0391724999062717,True,17
13K24,427,experiment,144,↓,left,←,1.1266092001460493,False,17
13K24,428,experiment,132,→,right,→,0.5862333998084068,True,17
13K24,429,experiment,96,↓,down,↓,0.5724323000758886,True,17
13K24,430,experiment,24,→,right,→,0.6033055000007153,True,17
13K24,431,experiment,96,→,right,→,0.734277100302279,True,17
13K24,432,experiment,108,→,right,→,0.5866461996920407,True,17
13K24,433,experiment,132,↑,up,↑,0.514521099627018,True,17
13K24,434,experiment,132,←,left,←,0.6807655999436975,True,17
13K24,435,experiment,156,→,left,←,0.9689381001517177,False,17
13K24,436,experiment,60,←,left,←,0.6092740003950894,True,17
13K24,437,experiment,72,↑,up,↑,1.2053032000549138,True,17
13K24,438,experiment,156,↓,down,↓,0.5870611998252571,True,17
13K24,439,experiment,72,→,left,←,0.6205088999122381,False,17
13K24,440,experiment,156,→,right,→,0.8693733001127839,True,17
13K24,441,experiment,84,→,right,→,0.840720800217241,True,17
13K24,442,experiment,168,→,right,→,0.7386600999161601,True,17
13K24,443,experiment,108,↑,down,↓,1.0328887002542615,False,17
13K24,444,experiment,156,→,right,→,0.5814773999154568,True,17
13K24,445,experiment,84,↓,left,←,0.7806692998856306,False,17
13K24,446,experiment,96,↑,up,↑,0.5266784997656941,True,17
13K24,447,experiment,180,↓,down,↓,0.5435898001305759,True,17
13K24,448,experiment,168,↓,down,↓,0.6645853999070823,True,17
13K24,449,experiment,24,↓,right,→,0.8507419996894896,False,17
13K24,450,experiment,12,↓,down,↓,1.0319071998819709,True,17
13K24,451,experiment,180,↑,up,↑,0.6557764997705817,True,17
13K24,452,experiment,12,↓,down,↓,0.9599584001116455,True,17
13K24,453,experiment,120,↑,up,↑,0.7896739998832345,True,17
13K24,454,experiment,60,←,right,→,0.9719952000305057,False,17
13K24,455,experiment,24,↑,left,←,1.06762700015679,False,17
13K24,456,experiment,48,↓,down,↓,0.8032688000239432,True,17
13K24,457,experiment,108,←,left,←,0.477437200024724,True,17
13K24,458,experiment,72,↑,up,↑,0.8119047996588051,True,17
13K24,459,experiment,120,↓,right,→,0.7711734999902546,False,17
13K24,460,experiment,144,→,right,→,0.49123889999464154,True,17
13K24,461,experiment,48,↓,down,↓,0.5902757998555899,True,17
13K24,462,experiment,60,↓,down,↓,0.4995270003564656,True,17
13K24,463,experiment,48,↑,up,↑,0.9550576000474393,True,17
13K24,464,experiment,180,↓,down,↓,0.5514519000425935,True,17
13K24,465,experiment,120,→,up,↑,1.0858167000114918,False,17
13K24,466,experiment,36,↑,down,↓,0.793900900054723,False,17
13K24,467,experiment,24,↓,down,↓,0.7261781003326178,True,17
13K24,468,experiment,36,↑,up,↑,0.612223600037396,True,17
13K24,469,experiment,168,→,up,↑,0.6562490002252162,False,17
13K24,470,experiment,12,→,right,→,1.4765235004015267,True,17
13K24,471,experiment,72,↑,up,↑,0.5695865000598133,True,17
13K24,472,training,168,↓,down,↓,0.5876611997373402,True,17
13K24,473,training,180,↓,down,↓,0.5906381001695991,True,17
13K24,474,training,168,→,right,→,0.4545784001238644,True,17
13K24,475,experiment,168,↑,up,↑,0.4004790000617504,True,17
13K24,476,experiment,72,↓,up,↑,0.3670614999718964,False,17
13K24,477,experiment,132,←,right,→,0.90106389997527,False,17
13K24,478,experiment,24,←,down,↓,0.7190403998829424,False,17
13K24,479,experiment,180,↑,up,↑,0.6748664998449385,True,17
13K24,480,experiment,12,↓,down,↓,0.4947461001574993,True,17
13K24,481,experiment,132,↑,up,↑,0.918324800208211,True,17
13K24,482,experiment,24,↓,down,↓,0.5716683003120124,True,17
13K24,483,experiment,108,→,right,→,0.7816765001043677,True,17
13K24,484,experiment,36,→,left,←,0.7618813002482057,False,17
13K24,485,experiment,144,↓,down,↓,0.5341796996071935,True,17
13K24,486,experiment,12,←,right,→,0.8107940996997058,False,17
13K24,487,experiment,108,↓,down,↓,0.646030300296843,True,17
13K24,488,experiment,156,↑,up,↑,0.5283832000568509,True,17
13K24,489,experiment,168,↑,up,↑,0.9909164998680353,True,17
13K24,490,experiment,156,→,right,→,0.7903169002383947,True,17
13K24,491,experiment,24,↑,up,↑,0.5036842003464699,True,17
13K24,492,experiment,120,→,right,→,0.47873410023748875,True,17
13K24,493,experiment,60,↑,up,↑,0.79382190015167,True,17
13K24,494,experiment,120,→,right,→,0.7037315000779927,True,17
13K24,495,experiment,132,→,right,→,0.7955932999029756,True,17
13K24,496,experiment,48,→,up,↑,1.4386254996061325,False,17
13K24,497,experiment,48,←,left,←,0.754364799708128,True,17
13K24,498,experiment,180,↑,up,↑,0.7898937999270856,True,17
13K24,499,experiment,36,↑,up,↑,0.9621144998818636,True,17
13K24,500,experiment,180,←,left,←,0.5859530000016093,True,17
13K24,501,experiment,108,↑,right,→,0.7297753999009728,False,17
13K24,502,experiment,168,↓,down,↓,0.7111455998383462,True,17
13K24,503,experiment,96,→,right,→,0.7431752998381853,True,17
13K24,504,experiment,72,→,right,→,0.49259130004793406,True,17
13K24,505,experiment,84,←,left,←,0.5923677999526262,True,17
13K24,506,experiment,24,↑,left,←,0.695817300118506,False,17
13K24,507,experiment,168,↓,down,↓,0.5878113000653684,True,17
13K24,508,experiment,144,↓,down,↓,0.5131442998535931,True,17
13K24,509,experiment,72,↑,down,↓,0.9036550000309944,False,17
13K24,510,experiment,108,↓,down,↓,0.5976546998135746,True,17
13K24,511,experiment,72,↓,right,→,1.2219998999498785,False,17
13K24,512,experiment,144,→,right,→,0.4922000002115965,True,17
13K24,513,experiment,60,↓,down,↓,0.5575029999017715,True,17
13K24,514,experiment,60,↑,up,↑,0.7177090002223849,True,17
13K24,515,experiment,12,↓,down,↓,0.6882325001060963,True,17
13K24,516,experiment,96,→,right,→,0.7103216000832617,True,17
13K24,517,experiment,180,→,right,→,0.9917999003082514,True,17
13K24,518,experiment,48,↓,down,↓,0.5460995999164879,True,17
13K24,519,experiment,120,→,right,→,0.417282999958843,True,17
13K24,520,experiment,96,↓,right,→,1.0239981999620795,False,17
13K24,521,experiment,96,↓,down,↓,0.6116684000007808,True,17
13K24,522,experiment,156,→,right,→,0.7535763001069427,True,17
13K24,523,experiment,12,↑,right,→,1.2484145001508296,False,17
13K24,524,experiment,48,↑,up,↑,0.9006428001448512,True,17
13K24,525,experiment,36,←,left,←,0.9528843001462519,True,17
13K24,526,experiment,84,←,right,→,0.7360307001508772,False,17
13K24,527,experiment,144,←,left,←,0.5470141000114381,True,17
13K24,528,experiment,84,←,right,→,0.5274044000543654,False,17
13K24,529,experiment,156,→,right,→,0.6771840997971594,True,17
13K24,530,experiment,60,↑,left,←,0.9820711999200284,False,17
13K24,531,experiment,36,→,right,→,0.8045173999853432,True,17
13K24,532,experiment,120,←,left,←,0.619194199796766,True,17
13K24,533,experiment,132,→,right,→,1.3319132002070546,True,17
13K24,534,experiment,84,↑,up,↑,0.7821321003139019,True,17
13K24,535,training,120,←,left,←,0.48372010001912713,True,17
13K24,536,training,96,→,right,→,0.7701340997591615,True,17
13K24,537,training,144,↑,right,→,0.6411991999484599,False,17
13K24,538,experiment,168,→,left,←,0.5568945999257267,False,17
13K24,539,experiment,96,→,right,→,0.4937867000699043,True,17
13K24,540,experiment,120,↑,up,↑,0.7875812998972833,True,17
13K24,541,experiment,24,→,right,→,0.6988212000578642,True,17
13K24,542,experiment,12,↓,down,↓,0.5814693998545408,True,17
13K24,543,experiment,144,→,right,→,0.6093045002780855,True,17
13K24,544,experiment,108,←,left,←,0.6156411999836564,True,17
13K24,545,experiment,84,↓,down,↓,1.5467999000102282,True,17
13K24,546,experiment,156,←,left,←,0.7024632999673486,True,17
13K24,547,experiment,72,↑,up,↑,0.4739274000748992,True,17
13K24,548,experiment,60,←,left,←,1.0926278000697494,True,17
13K24,549,experiment,36,→,right,→,0.5686980998143554,True,17
13K24,550,experiment,168,↑,up,↑,0.925501000136137,True,17
13K24,551,experiment,36,←,left,←,0.7091247998178005,True,17
13K24,552,experiment,132,→,right,→,0.7007170999422669,True,17
13K24,553,experiment,60,↓,down,↓,0.6976677998900414,True,17
13K24,554,experiment,144,←,left,←,0.8729791999794543,True,17
13K24,555,experiment,156,↑,up,↑,0.8688874002546072,True,17
13K24,556,experiment,48,↑,up,↑,0.4169994997791946,True,17
13K24,557,experiment,84,→,right,→,1.289295599795878,True,17
13K24,558,experiment,96,↑,up,↑,0.48250750033184886,True,17
13K24,559,experiment,96,←,left,←,0.7972261998802423,True,17
13K24,560,experiment,12,↑,right,→,1.331496600061655,False,17
13K24,561,experiment,108,→,right,→,0.5401016999967396,True,17
13K24,562,experiment,168,←,left,←,0.7759563997387886,True,17
13K24,563,experiment,60,↑,up,↑,0.6978615000844002,True,17
13K24,564,experiment,60,←,left,←,0.653719799593091,True,17
13K24,565,experiment,84,↓,up,↑,1.1477242996916175,False,17
13K24,566,experiment,84,↓,down,↓,0.8880276000127196,True,17
13K24,567,experiment,132,→,right,→,0.9361343001946807,True,17
13K24,568,experiment,132,←,left,←,0.6039494997821748,True,17
13K24,569,experiment,144,↑,up,↑,0.5361481001600623,True,17
13K24,570,experiment,72,←,left,←,0.6600692002102733,True,17
13K24,571,experiment,120,↑,up,↑,0.872972599696368,True,17
13K24,572,experiment,144,↑,down,↓,0.9988273996859789,False,17
13K24,573,experiment,36,↓,down,↓,0.8630065000616014,True,17
13K24,574,experiment,120,↓,down,↓,0.4523736000992358,True,17
13K24,575,experiment,48,→,left,←,0.7451168997213244,False,17
13K24,576,experiment,24,↓,down,↓,0.5106377997435629,True,17
13K24,577,experiment,180,←,down,↓,0.7377768000587821,False,17
13K24,578,experiment,48,←,left,←,0.5387217998504639,True,17
13K24,579,experiment,72,↓,right,→,0.7571784001775086,False,17
13K24,580,experiment,156,↑,up,↑,0.5623245001770556,True,17
13K24,581,experiment,108,←,left,←,0.459188099950552,True,17
13K24,582,experiment,132,↓,up,↑,0.8234576000832021,False,17
13K24,583,experiment,120,↓,down,↓,0.7276711002923548,True,17
13K24,584,experiment,180,↓,down,↓,0.754324299748987,True,17
13K24,585,experiment,36,←,left,←,0.5067694997414947,True,17
13K24,586,experiment,12,←,left,←,0.6164775001816452,True,17
13K24,587,experiment,180,↓,down,↓,0.6286713001318276,True,17
13K24,588,experiment,168,→,right,→,0.5864265998825431,True,17
13K24,589,experiment,156,↑,right,→,0.9863141002133489,False,17
13K24,590,experiment,12,→,left,←,0.7727904999628663,False,17
13K24,591,experiment,108,↓,down,↓,0.6403999999165535,True,17
13K24,592,experiment,180,←,left,←,0.6082174000330269,True,17
13K24,593,experiment,24,↑,down,↓,1.4550331002101302,False,17
13K24,594,experiment,96,→,right,→,0.7813384998589754,True,17
13K24,595,experiment,24,↓,down,↓,0.5118770003318787,True,17
13K24,596,experiment,48,↑,down,↓,0.7851797002367675,False,17
13K24,597,experiment,72,←,left,←,0.8385227001272142,True,17
13K24,598,training,168,←,left,←,0.7100106002762914,True,17
13K24,599,training,36,→,right,→,0.8621849003247917,True,17
13K24,600,training,24,↓,left,←,0.41731439996510744,False,17
13K24,601,experiment,24,↑,up,↑,0.6353023997507989,True,17
13K24,602,experiment,156,↓,down,↓,0.7368971998803318,True,17
13K24,603,experiment,36,←,down,↓,1.658749499823898,False,17
13K24,604,experiment,108,←,left,←,0.688742300029844,True,17
13K24,605,experiment,168,→,left,←,1.045932900160551,False,17
13K24,606,experiment,180,↑,down,↓,0.931455499958247,False,17
13K24,607,experiment,168,←,right,→,0.7837338000535965,False,17
13K24,608,experiment,48,→,left,←,0.7147265998646617,False,17
13K24,609,experiment,120,←,left,←,0.45284860022366047,True,17
13K24,610,experiment,96,←,left,←,0.602020500227809,True,17
13K24,611,experiment,108,↓,right,→,0.6622325996868312,False,17
13K24,612,experiment,108,←,left,←,0.7058772002346814,True,17
13K24,613,experiment,96,↑,left,←,0.7501977998763323,False,17
13K24,614,experiment,12,→,right,→,0.5043822997249663,True,17
13K24,615,experiment,120,→,right,→,0.5666117002256215,True,17
13K24,616,experiment,24,↓,down,↓,0.523938000202179,True,17
13K24,617,experiment,156,↓,down,↓,0.6698798001743853,True,17
13K24,618,experiment,24,↑,down,↓,0.522664699703455,False,17
13K24,619,experiment,132,←,right,→,0.7230229997076094,False,17
13K24,620,experiment,108,←,left,←,0.6361122000962496,True,17
13K24,621,experiment,180,↑,up,↑,0.7908533997833729,True,17
13K24,622,experiment,36,←,left,←,0.5442278999835253,True,17
13K24,623,experiment,144,→,right,→,0.7503274995833635,True,17
13K24,624,experiment,144,←,left,←,0.583500400185585,True,17
13K24,625,experiment,72,←,left,←,0.7004789002239704,True,17
13K24,626,experiment,96,→,left,←,0.8166657998226583,False,17
13K24,627,experiment,156,→,left,←,0.6338599999435246,False,17
13K24,628,experiment,60,↑,up,↑,0.49751790007576346,True,17
13K24,629,experiment,84,↑,up,↑,0.9102610000409186,True,17
13K24,630,experiment,24,→,left,←,0.5995839000679553,False,17
13K24,631,experiment,180,↓,up,↑,0.6384233999997377,False,17
13K24,632,experiment,96,→,right,→,0.5266513000242412,True,17
13K24,633,experiment,84,↑,up,↑,0.58882230008021,True,17
13K24,634,experiment,168,←,down,↓,0.9202431999146938,False,17
13K24,635,experiment,84,↓,down,↓,0.5570491999387741,True,17
13K24,636,experiment,144,←,left,←,0.5670841000974178,True,17
13K24,637,experiment,144,↓,down,↓,0.7181049999780953,True,17
13K24,638,experiment,36,→,right,→,0.4908354002982378,True,17
13K24,639,experiment,132,←,left,←,0.6377782002091408,True,17
13K24,640,experiment,156,↑,up,↑,0.8032745998352766,True,17
13K24,641,experiment,12,→,right,→,0.9695536000654101,True,17
13K24,642,experiment,60,↓,down,↓,0.5379817001521587,True,17
13K24,643,experiment,168,←,left,←,0.6046912004239857,True,17
13K24,644,experiment,48,↓,right,→,1.7041491996496916,False,17
13K24,645,experiment,72,↑,right,→,0.8938875002786517,False,17
13K24,646,experiment,132,↑,right,→,0.8992662997916341,False,17
13K24,647,experiment,60,→,right,→,0.4958903002552688,True,17
13K24,648,experiment,132,↓,down,↓,0.506651499774307,True,17
13K24,649,experiment,60,→,left,←,0.7917804000899196,False,17
13K24,650,experiment,48,←,left,←,0.5599213996902108,True,17
13K24,651,experiment,72,↑,up,↑,0.7822199002839625,True,17
13K24,652,experiment,120,↑,down,↓,0.7658019000664353,False,17
13K24,653,experiment,180,↓,right,→,0.8498459002003074,False,17
13K24,654,experiment,36,↑,left,←,0.7385082002729177,False,17
13K24,655,experiment,84,↑,down,↓,1.0541833001188934,False,17
13K24,656,experiment,12,↑,right,→,1.0296760997734964,False,17
13K24,657,experiment,72,→,right,→,0.6326276999898255,True,17
13K24,658,experiment,48,↑,right,→,0.8536889003589749,False,17
13K24,659,experiment,120,↓,down,↓,0.5831107003614306,True,17
13K24,660,experiment,12,↑,down,↓,1.0574319995939732,False,17
13K24,661,training,108,↑,left,←,0.7446955000050366,False,18
13K24,662,training,144,↑,up,↑,0.7960715000517666,True,18
13K24,663,training,132,↑,up,↑,0.6423005000688136,True,18
13K24,664,experiment,96,↓,left,←,0.6239396999590099,False,18
13K24,665,experiment,48,↓,left,←,0.7823208998888731,False,18
13K24,666,experiment,48,↓,down,↓,0.7387765999883413,True,18
13K24,667,experiment,60,→,left,←,0.5088287000544369,False,18
13K24,668,experiment,144,↑,up,↑,0.685861200094223,True,18
13K24,669,experiment,36,→,left,←,0.5490220002830029,False,18
13K24,670,experiment,12,↓,down,↓,0.8405919000506401,True,18
13K24,671,experiment,48,↓,up,↑,1.2719751000404358,False,18
13K24,672,experiment,120,↑,down,↓,1.1339171999134123,False,18
13K24,673,experiment,72,↓,down,↓,0.7248541000299156,True,18
13K24,674,experiment,156,↓,down,↓,0.5209201998077333,True,18
13K24,675,experiment,12,←,left,←,0.6160334004089236,True,18
13K24,676,experiment,12,↓,down,↓,1.6308614001609385,True,18
13K24,677,experiment,12,↓,down,↓,1.2039061998948455,True,18
13K24,678,experiment,60,→,right,→,0.6752521996386349,True,18
13K24,679,experiment,168,↑,up,↑,0.6681041996926069,True,18
13K24,680,experiment,84,↓,right,→,0.7838170998729765,False,18
13K24,681,experiment,144,→,right,→,0.668682100251317,True,18
13K24,682,experiment,72,→,right,→,0.8750960999168456,True,18
13K24,683,experiment,108,↓,left,←,0.9041196000762284,False,18
13K24,684,experiment,60,→,right,→,0.7311955001205206,True,18
13K24,685,experiment,84,↓,down,↓,0.5937717999331653,True,18
13K24,686,experiment,132,↑,up,↑,0.7655671997927129,True,18
13K24,687,experiment,60,↓,down,↓,0.6997333997860551,True,18
13K24,688,experiment,96,↓,right,→,0.7673496003262699,False,18
13K24,689,experiment,24,↓,down,↓,0.6434053997509181,True,18
13K24,690,experiment,132,→,right,→,0.6103763999417424,True,18
13K24,691,experiment,168,↑,up,↑,0.6004947000183165,True,18
13K24,692,experiment,24,↓,left,←,1.4072695998474956,False,18
13K24,693,experiment,120,↑,up,↑,0.816515099722892,True,18
13K24,694,experiment,132,↓,down,↓,0.7106180996634066,True,18
13K24,695,experiment,108,←,right,→,0.810864900238812,False,18
13K24,696,experiment,84,↓,down,↓,0.7313622999936342,True,18
13K24,697,experiment,36,↑,up,↑,0.6315703000873327,True,18
13K24,698,experiment,108,←,down,↓,0.8191655999980867,False,18
13K24,699,experiment,144,↓,up,↑,0.7929186001420021,False,18
13K24,700,experiment,72,←,left,←,0.8195559997111559,True,18
13K24,701,experiment,108,↑,up,↑,0.553231599740684,True,18
13K24,702,experiment,180,↓,down,↓,0.5464324001222849,True,18
13K24,703,experiment,96,↓,left,←,0.9447137000970542,False,18
13K24,704,experiment,168,↓,right,→,0.7121969000436366,False,18
13K24,705,experiment,144,↓,down,↓,0.737529800273478,True,18
13K24,706,experiment,156,←,left,←,0.6138721001334488,True,18
13K24,707,experiment,120,↑,down,↓,0.627385700121522,False,18
13K24,708,experiment,156,←,left,←,0.683474799618125,True,18
13K24,709,experiment,180,↓,left,←,0.8050564997829497,False,18
13K24,710,experiment,120,→,right,→,0.7064033998176455,True,18
13K24,711,experiment,180,↓,down,↓,0.6096461000852287,True,18
13K24,712,experiment,156,↓,right,→,0.8084614002145827,False,18
13K24,713,experiment,84,↑,right,→,0.7473520999774337,False,18
13K24,714,experiment,24,→,right,→,0.661591200158,True,18
13K24,715,experiment,132,↑,up,↑,0.6370414001867175,True,18
13K24,716,experiment,36,↓,down,↓,0.7585509000346065,True,18
13K24,717,experiment,24,←,left,←,0.41712210001423955,True,18
13K24,718,experiment,36,→,right,→,0.4812361001968384,True,18
13K24,719,experiment,48,→,right,→,0.774860399775207,True,18
13K24,720,experiment,96,←,left,←,0.7525138999335468,True,18
13K24,721,experiment,168,↓,down,↓,0.7289709001779556,True,18
13K24,722,experiment,72,→,right,→,0.6565410997718573,True,18
13K24,723,experiment,180,→,left,←,0.8281139996834099,False,18
13K24,724,training,132,↑,left,←,0.9500536997802556,False,18
13K24,725,training,12,←,left,←,0.5771397999487817,True,18
13K24,726,training,168,←,left,←,1.4472831999883056,True,18
13K24,727,experiment,48,←,left,←,0.7751739001832902,True,18
13K24,728,experiment,60,→,right,→,0.6388095999136567,True,18
13K24,729,experiment,144,→,right,→,0.7620557998307049,True,18
13K24,730,experiment,180,↓,left,←,0.8378287996165454,False,18
13K24,731,experiment,12,↓,down,↓,0.6063155001029372,True,18
13K24,732,experiment,72,→,right,→,0.8443728997372091,True,18
13K24,733,experiment,72,←,left,←,0.8860700000077486,True,18
13K24,734,experiment,84,→,right,→,0.6761018000543118,True,18
13K24,735,experiment,96,→,right,→,0.7950840000994503,True,18
13K24,736,experiment,156,←,left,←,0.8433170998468995,True,18
13K24,737,experiment,156,→,right,→,0.8444237001240253,True,18
13K24,738,experiment,180,↑,up,↑,0.6377920997329056,True,18
13K24,739,experiment,120,↓,up,↑,1.0324403000995517,False,18
13K24,740,experiment,144,↓,down,↓,0.9506463999859989,True,18
13K24,741,experiment,132,↓,up,↑,0.8983633001334965,False,18
13K24,742,experiment,60,↓,down,↓,0.9193197996355593,True,18
13K24,743,experiment,132,→,right,→,0.9018288003280759,True,18
13K24,744,experiment,108,←,left,←,0.8515103999525309,True,18
13K24,745,experiment,144,↓,down,↓,0.7131523997522891,True,18
13K24,746,experiment,144,←,left,←,1.0265877996571362,True,18
13K24,747,experiment,24,↑,right,→,0.8162247003056109,False,18
13K24,748,experiment,96,→,right,→,0.8469181000255048,True,18
13K24,749,experiment,108,→,right,→,0.9678432997316122,True,18
13K24,750,experiment,12,→,right,→,1.1112703997641802,True,18
13K24,751,experiment,96,←,left,←,1.0355897997505963,True,18
13K24,752,experiment,24,←,left,←,0.9021823997609317,True,18
13K24,753,experiment,24,→,right,→,0.6280235000886023,True,18
13K24,754,experiment,24,→,right,→,0.936198899988085,True,18
13K24,755,experiment,156,→,right,→,0.7610928998328745,True,18
13K24,756,experiment,168,↓,down,↓,0.7791845998726785,True,18
13K24,757,experiment,72,←,down,↓,1.164063200354576,False,18
13K24,758,experiment,84,→,up,↑,1.214525899849832,False,18
13K24,759,experiment,132,↑,up,↑,0.6533944001421332,True,18
13K24,760,experiment,120,←,left,←,1.1149694002233446,True,18
13K24,761,experiment,48,→,right,→,0.8049571998417377,True,18
13K24,762,experiment,168,←,left,←,0.7770000998862088,True,18
13K24,763,experiment,168,↓,down,↓,0.4959698999300599,True,18
13K24,764,experiment,108,↑,down,↓,0.7678502001799643,False,18
13K24,765,experiment,132,←,right,→,0.849505600053817,False,18
13K24,766,experiment,96,←,left,←,0.8680269001051784,True,18
13K24,767,experiment,180,↑,up,↑,0.7020724997855723,True,18
13K24,768,experiment,120,←,left,←,0.5392863000743091,True,18
13K24,769,experiment,84,→,right,→,0.7782860998995602,True,18
13K24,770,experiment,48,←,left,←,0.48194630024954677,True,18
13K24,771,experiment,120,↓,down,↓,0.7831896003335714,True,18
13K24,772,experiment,36,↑,up,↑,0.6917384001426399,True,18
13K24,773,experiment,60,←,left,←,0.7305471999570727,True,18
13K24,774,experiment,108,→,right,→,0.8957531000487506,True,18
13K24,775,experiment,156,↑,up,↑,0.6345337997190654,True,18
13K24,776,experiment,60,↓,down,↓,0.4970061997883022,True,18
13K24,777,experiment,180,←,left,←,0.7579224002547562,True,18
13K24,778,experiment,12,→,left,←,0.9017916000448167,False,18
13K24,779,experiment,36,→,right,→,0.7069883001968265,True,18
13K24,780,experiment,48,↓,down,↓,0.6725344997830689,True,18
13K24,781,experiment,168,→,right,→,0.7895593997091055,True,18
13K24,782,experiment,36,↓,left,←,1.1769411000423133,False,18
13K24,783,experiment,72,↑,up,↑,0.8501269002445042,True,18
13K24,784,experiment,84,↓,down,↓,0.699040099978447,True,18
13K24,785,experiment,12,↓,left,←,0.9710291996598244,False,18
13K24,786,experiment,36,↓,down,↓,0.5459806001745164,True,18
13K24,787,training,72,↑,down,↓,0.6841635997407138,False,18
13K24,788,training,84,←,left,←,0.4982670000754297,True,18
13K24,789,training,84,↓,down,↓,0.660852300003171,True,18
13K24,790,experiment,120,←,left,←,0.5062790000811219,True,18
13K24,791,experiment,180,↓,down,↓,0.7207520003430545,True,18
13K24,792,experiment,12,←,left,←,0.5802261000499129,True,18
13K24,793,experiment,168,→,right,→,0.6829025000333786,True,18
13K24,794,experiment,60,←,left,←,0.6258694999851286,True,18
13K24,795,experiment,12,↑,right,→,0.757891499903053,False,18
13K24,796,experiment,36,←,left,←,0.6902590002864599,True,18
13K24,797,experiment,48,←,left,←,0.9673546003177762,True,18
13K24,798,experiment,144,↓,down,↓,0.8607089002616704,True,18
13K24,799,experiment,72,↑,up,↑,0.991372600197792,True,18
13K24,800,experiment,108,←,left,←,0.944611799903214,True,18
13K24,801,experiment,96,←,left,←,0.8453262001276016,True,18
13K24,802,experiment,72,←,right,→,0.8508744002319872,False,18
13K24,803,experiment,24,↑,down,↓,0.9131859000772238,False,18
13K24,804,experiment,156,→,right,→,0.9338537002913654,True,18
13K24,805,experiment,96,↓,down,↓,0.5441974001005292,True,18
13K24,806,experiment,180,←,down,↓,0.7067132000811398,False,18
13K24,807,experiment,60,↓,down,↓,1.4347027000039816,True,18
13K24,808,experiment,144,↓,down,↓,0.7269179997965693,True,18
13K24,809,experiment,180,↑,up,↑,1.045055799651891,True,18
13K24,810,experiment,24,←,right,→,0.9095728998072445,False,18
13K24,811,experiment,132,→,right,→,0.7215088000521064,True,18
13K24,812,experiment,72,↓,down,↓,0.8048183000646532,True,18
13K24,813,experiment,36,↑,right,→,0.8713122997432947,False,18
13K24,814,experiment,132,↓,down,↓,0.7190413000062108,True,18
13K24,815,experiment,72,→,left,←,0.6373650999739766,False,18
13K24,816,experiment,120,←,right,→,0.8357495996169746,False,18
13K24,817,experiment,24,←,left,←,1.103924199938774,True,18
13K24,818,experiment,108,→,left,←,1.1637634998187423,False,18
13K24,819,experiment,156,↑,down,↓,0.6444959999062121,False,18
13K24,820,experiment,120,↓,down,↓,0.6763539002276957,True,18
13K24,821,experiment,84,↓,up,↑,1.0533837000839412,False,18
13K24,822,experiment,168,↑,right,→,1.257187900133431,False,18
13K24,823,experiment,108,←,left,←,1.1835957998409867,True,18
13K24,824,experiment,84,↑,down,↓,0.8234711000695825,False,18
13K24,825,experiment,12,↓,down,↓,0.5865446999669075,True,18
13K24,826,experiment,168,←,left,←,0.9733547000214458,True,18
13K24,827,experiment,48,→,left,←,0.8193401996977627,False,18
13K24,828,experiment,84,←,left,←,0.8765544001944363,True,18
13K24,829,experiment,24,→,right,→,0.5420359000563622,True,18
13K24,830,experiment,144,←,up,↑,1.281415699981153,False,18
13K24,831,experiment,156,→,right,→,0.826195300091058,True,18
13K24,832,experiment,48,↓,down,↓,0.9152613999322057,True,18
13K24,833,experiment,132,→,right,→,0.7199886003509164,True,18
13K24,834,experiment,168,↓,right,→,0.6959850997664034,False,18
13K24,835,experiment,60,→,right,→,0.5837096003815532,True,18
13K24,836,experiment,36,→,no_key,no_letter,-1.0,False,18
13K24,837,experiment,96,←,left,←,0.7943527000024915,True,18
13K24,838,experiment,180,↓,down,↓,0.5849237996153533,True,18
13K24,839,experiment,132,↓,down,↓,0.8639159998856485,True,18
13K24,840,experiment,108,↑,right,→,0.6864351001568139,False,18
13K24,841,experiment,84,→,right,→,0.5804627002216876,True,18
13K24,842,experiment,156,←,right,→,0.628766699694097,False,18
13K24,843,experiment,96,↑,left,←,1.3997709001414478,False,18
13K24,844,experiment,48,↓,down,↓,0.6779698999598622,True,18
13K24,845,experiment,60,↓,right,→,0.7545869997702539,False,18
13K24,846,experiment,12,→,right,→,0.6537186000496149,True,18
13K24,847,experiment,36,↑,down,↓,0.6979697998613119,False,18
13K24,848,experiment,144,↓,down,↓,0.520989699754864,True,18
13K24,849,experiment,120,→,up,↑,1.898052899632603,False,18
