PART_ID,Trial_no,Trial_type,PDI,Stim_letter,Key_pressed,letter_choose,Rt,Corr,Stimulus Time
14K21,1,training,10,↓,no_key,no_letter,-1.0,False,30
14K21,2,training,10,→,right,→,1.624857300426811,True,30
14K21,3,training,10,↓,down,↓,1.013473500031978,True,30
14K21,4,training,10,↑,up,↑,0.9550999002531171,True,30
14K21,5,training,10,←,left,←,1.5610697995871305,True,30
14K21,6,training,10,←,left,←,0.7628425001166761,True,30
14K21,7,training,10,↓,down,↓,0.8751952000893652,True,30
14K21,8,training,10,←,left,←,0.6336579998023808,True,30
14K21,9,training,10,↑,up,↑,0.8976500001735985,True,30
14K21,10,training,10,←,left,←,0.6172072999179363,True,30
14K21,11,training,10,↑,up,↑,0.8962869001552463,True,30
14K21,12,training,10,→,right,→,1.5495547000318766,True,30
14K21,13,training,10,→,right,→,0.6994708999991417,True,30
14K21,14,training,10,→,right,→,0.5833064997568727,True,30
14K21,15,training,10,←,left,←,1.2497469000518322,True,30
14K21,16,training,10,↑,up,↑,0.8689027996733785,True,30
14K21,17,training,10,↓,down,↓,0.9304750002920628,True,30
14K21,18,training,10,↓,down,↓,0.7172332000918686,True,30
14K21,19,training,10,↑,up,↑,0.9289959003217518,True,30
14K21,20,training,10,↓,down,↓,0.5503845000639558,True,30
14K21,21,training,10,←,left,←,1.1889406996779144,True,18
14K21,22,training,10,→,right,→,0.9523531999439001,True,18
14K21,23,training,10,↑,up,↑,0.7626986000686884,True,18
14K21,24,training,10,→,down,↓,0.963353700004518,False,18
14K21,25,training,10,←,left,←,0.77215959969908,True,18
14K21,26,training,10,↑,up,↑,1.025817200075835,True,18
14K21,27,training,10,↓,up,↑,0.8588254996575415,False,18
14K21,28,training,10,←,left,←,0.9470494999550283,True,18
14K21,29,training,10,↑,up,↑,0.9220865000970662,True,18
14K21,30,training,10,↑,up,↑,0.5440810001455247,True,18
14K21,31,training,12,↑,up,↑,0.5198261998593807,True,15
14K21,32,training,168,↓,up,↑,0.9463812001049519,False,15
14K21,33,training,60,←,left,←,0.926261099986732,True,15
14K21,34,experiment,168,↑,up,↑,0.7933310996741056,True,15
14K21,35,experiment,48,↑,right,→,1.4398122001439333,False,15
14K21,36,experiment,24,←,left,←,0.8909495999105275,True,15
14K21,37,experiment,120,↓,down,↓,1.1083443998359144,True,15
14K21,38,experiment,180,↓,down,↓,0.7058488000184298,True,15
14K21,39,experiment,60,↓,down,↓,0.6402626996859908,True,15
14K21,40,experiment,180,←,left,←,0.9431040002964437,True,15
14K21,41,experiment,132,←,left,←,0.8622240996919572,True,15
14K21,42,experiment,168,→,right,→,0.6577697996981442,True,15
14K21,43,experiment,108,↓,down,↓,0.6683992999605834,True,15
14K21,44,experiment,24,←,left,←,1.107140100095421,True,15
14K21,45,experiment,72,←,left,←,0.8860153001733124,True,15
14K21,46,experiment,36,←,left,←,0.7632434996776283,True,15
14K21,47,experiment,96,↓,down,↓,0.7012416999787092,True,15
14K21,48,experiment,180,→,left,←,0.8833821001462638,False,15
14K21,49,experiment,36,↓,left,←,0.6869299998506904,False,15
14K21,50,experiment,120,↓,down,↓,0.6983173000626266,True,15
14K21,51,experiment,12,←,left,←,0.6645541000179946,True,15
14K21,52,experiment,24,↑,down,↓,0.7850939999334514,False,15
14K21,53,experiment,156,↓,down,↓,0.9084009998477995,True,15
14K21,54,experiment,156,↑,down,↓,0.5771957999095321,False,15
14K21,55,experiment,36,→,right,→,0.8278673002496362,True,15
14K21,56,experiment,72,↑,up,↑,0.6605827999301255,True,15
14K21,57,experiment,156,↑,down,↓,0.8338291998952627,False,15
14K21,58,experiment,96,→,right,→,0.6187260998412967,True,15
14K21,59,experiment,96,→,right,→,0.43988610012456775,True,15
14K21,60,experiment,60,→,left,←,0.9472354003228247,False,15
14K21,61,experiment,72,↓,down,↓,0.6541848001070321,True,15
14K21,62,experiment,132,→,left,←,0.920703699812293,False,15
14K21,63,experiment,84,↑,right,→,0.6816746001131833,False,15
14K21,64,experiment,156,↓,down,↓,0.542134199757129,True,15
14K21,65,experiment,48,↑,left,←,1.1272014998830855,False,15
14K21,66,experiment,72,↑,no_key,no_letter,-1.0,False,15
14K21,67,experiment,144,↑,down,↓,0.8065692000091076,False,15
14K21,68,experiment,108,←,left,←,0.8738584998063743,True,15
14K21,69,experiment,120,↓,down,↓,0.5978995002806187,True,15
14K21,70,experiment,60,→,left,←,0.8369722999632359,False,15
14K21,71,experiment,144,→,left,←,1.1797861000522971,False,15
14K21,72,experiment,24,↓,down,↓,0.6324371001683176,True,15
14K21,73,experiment,144,↑,down,↓,0.6705494998022914,False,15
14K21,74,experiment,144,→,left,←,0.8199706999585032,False,15
14K21,75,experiment,48,←,down,↓,0.8910833997651935,False,15
14K21,76,experiment,180,↓,down,↓,0.6645211996510625,True,15
14K21,77,experiment,108,←,left,←,0.7193821999244392,True,15
14K21,78,experiment,60,↑,up,↑,0.4728000001050532,True,15
14K21,79,experiment,12,→,right,→,0.8439833000302315,True,15
14K21,80,experiment,132,↓,down,↓,0.6189860999584198,True,15
14K21,81,experiment,12,←,left,←,0.8681323998607695,True,15
14K21,82,experiment,96,←,left,←,0.8120297999121249,True,15
14K21,83,experiment,168,←,left,←,0.7674748999997973,True,15
14K21,84,experiment,132,→,right,→,0.8863717000931501,True,15
14K21,85,experiment,84,←,left,←,0.5494670998305082,True,15
14K21,86,experiment,36,→,right,→,0.901853000279516,True,15
14K21,87,experiment,84,↑,no_key,no_letter,-1.0,False,15
14K21,88,experiment,108,←,left,←,0.7302905996330082,True,15
14K21,89,experiment,168,↓,down,↓,0.6183656002394855,True,15
14K21,90,experiment,120,↓,left,←,0.48193070013076067,False,15
14K21,91,experiment,84,←,left,←,0.5740050999447703,True,15
14K21,92,experiment,12,→,left,←,0.6709418999962509,False,15
14K21,93,experiment,48,↓,down,↓,0.8599867997691035,True,15
14K21,94,training,144,↑,down,↓,0.8652234999462962,False,15
14K21,95,training,180,←,right,→,0.9655639999546111,False,15
14K21,96,training,132,↑,down,↓,0.6156297996640205,False,15
14K21,97,experiment,108,→,right,→,1.6969568002969027,True,15
14K21,98,experiment,180,←,left,←,0.8536835997365415,True,15
14K21,99,experiment,156,↓,down,↓,0.6140554002486169,True,15
14K21,100,experiment,36,→,right,→,0.6355872000567615,True,15
14K21,101,experiment,108,↓,down,↓,0.4677252001129091,True,15
14K21,102,experiment,132,←,left,←,0.6037381999194622,True,15
14K21,103,experiment,48,→,no_key,no_letter,-1.0,False,15
14K21,104,experiment,60,↓,down,↓,0.6130057000555098,True,15
14K21,105,experiment,48,→,right,→,0.46031530015170574,True,15
14K21,106,experiment,96,↑,down,↓,0.7060466003604233,False,15
14K21,107,experiment,156,↓,down,↓,0.5982730998657644,True,15
14K21,108,experiment,24,↑,no_key,no_letter,-1.0,False,15
14K21,109,experiment,36,←,left,←,1.0699227997101843,True,15
14K21,110,experiment,24,←,left,←,0.9938242002390325,True,15
14K21,111,experiment,108,→,right,→,0.5971554997377098,True,15
14K21,112,experiment,48,→,right,→,1.1448093000799417,True,15
14K21,113,experiment,144,↑,down,↓,0.8242960995994508,False,15
14K21,114,experiment,36,↑,up,↑,0.5138066001236439,True,15
14K21,115,experiment,168,↑,up,↑,0.565860899630934,True,15
14K21,116,experiment,72,→,right,→,0.5443144999444485,True,15
14K21,117,experiment,12,→,right,→,0.5086920000612736,True,15
14K21,118,experiment,12,→,right,→,0.6408703001216054,True,15
14K21,119,experiment,120,→,right,→,0.6573038999922574,True,15
14K21,120,experiment,132,←,left,←,1.0637175999581814,True,15
14K21,121,experiment,60,↑,up,↑,0.48392989998683333,True,15
14K21,122,experiment,144,→,right,→,0.5753637002781034,True,15
14K21,123,experiment,84,↓,left,←,1.0686756996437907,False,15
14K21,124,experiment,168,↓,down,↓,0.5929462001658976,True,15
14K21,125,experiment,180,↓,down,↓,0.702711199875921,True,15
14K21,126,experiment,180,→,left,←,1.3539130999706686,False,15
14K21,127,experiment,144,↓,down,↓,0.6849994999356568,True,15
14K21,128,experiment,60,→,left,←,0.9967801999300718,False,15
14K21,129,experiment,72,←,left,←,0.7698952001519501,True,15
14K21,130,experiment,96,→,right,→,0.5071337004192173,True,15
14K21,131,experiment,36,→,right,→,0.5280357003211975,True,15
14K21,132,experiment,156,←,left,←,0.9091139999218285,True,15
14K21,133,experiment,120,←,left,←,0.731325900182128,True,15
14K21,134,experiment,72,→,left,←,0.6465113000012934,False,15
14K21,135,experiment,84,↓,right,→,0.7149267001077533,False,15
14K21,136,experiment,12,↑,down,↓,1.435740000102669,False,15
14K21,137,experiment,84,↑,up,↑,0.5506265996955335,True,15
14K21,138,experiment,24,←,left,←,0.5893526999279857,True,15
14K21,139,experiment,156,↓,up,↑,0.6469951001927257,False,15
14K21,140,experiment,108,↓,down,↓,0.5891689001582563,True,15
14K21,141,experiment,132,↓,down,↓,0.4491627002134919,True,15
14K21,142,experiment,24,→,left,←,0.849651399999857,False,15
14K21,143,experiment,12,↓,down,↓,0.42645510006695986,True,15
14K21,144,experiment,96,↓,down,↓,0.6058441000059247,True,15
14K21,145,experiment,120,→,down,↓,0.3672544998116791,False,15
14K21,146,experiment,180,↓,left,←,0.9504454000853002,False,15
14K21,147,experiment,96,↓,down,↓,0.9220736999996006,True,15
14K21,148,experiment,168,→,left,←,0.8069090000353754,False,15
14K21,149,experiment,48,←,left,←,0.6828848998993635,True,15
14K21,150,experiment,84,←,left,←,0.6604996998794377,True,15
14K21,151,experiment,144,↓,down,↓,0.8729791999794543,True,15
14K21,152,experiment,120,→,left,←,0.6008313000202179,False,15
14K21,153,experiment,132,↑,up,↑,0.5408335002139211,True,15
14K21,154,experiment,60,↓,down,↓,0.4785682000219822,True,15
14K21,155,experiment,72,←,left,←,0.5751272002235055,True,15
14K21,156,experiment,168,←,left,←,0.8360826000571251,True,15
14K21,157,training,108,↓,down,↓,0.528260599821806,True,15
14K21,158,training,168,↑,up,↑,0.6239821999333799,True,15
14K21,159,training,168,↓,down,↓,0.5486413999460638,True,15
14K21,160,experiment,132,↓,down,↓,0.8780073998495936,True,15
14K21,161,experiment,24,↑,down,↓,0.6381868002936244,False,15
14K21,162,experiment,72,→,down,↓,0.8567474000155926,False,15
14K21,163,experiment,36,↑,down,↓,0.712754899635911,False,15
14K21,164,experiment,48,←,left,←,0.9090289999730885,True,15
14K21,165,experiment,120,↓,down,↓,0.5827430998906493,True,15
14K21,166,experiment,36,←,left,←,0.7465086001902819,True,15
14K21,167,experiment,12,↑,down,↓,1.1096605998463929,False,15
14K21,168,experiment,156,→,right,→,0.9007657999172807,True,15
14K21,169,experiment,24,→,right,→,0.6121891997754574,True,15
14K21,170,experiment,12,→,right,→,0.5099112996831536,True,15
14K21,171,experiment,72,→,right,→,0.42381499987095594,True,15
14K21,172,experiment,96,↑,up,↑,0.785977799911052,True,15
14K21,173,experiment,48,↓,down,↓,0.7248219000175595,True,15
14K21,174,experiment,84,↑,up,↑,0.4638865999877453,True,15
14K21,175,experiment,168,←,left,←,0.8989458000287414,True,15
14K21,176,experiment,180,↓,down,↓,0.8586607002653182,True,15
14K21,177,experiment,180,→,right,→,0.8659169003367424,True,15
14K21,178,experiment,12,↑,down,↓,1.1255967998877168,False,15
14K21,179,experiment,156,←,left,←,0.9643484000116587,True,15
14K21,180,experiment,168,↑,up,↑,0.5496295001357794,True,15
14K21,181,experiment,60,↑,up,↑,0.48194919992238283,True,15
14K21,182,experiment,96,↓,down,↓,0.790611700154841,True,15
14K21,183,experiment,180,↓,down,↓,0.5630646999925375,True,15
14K21,184,experiment,120,←,left,←,0.790561500005424,True,15
14K21,185,experiment,108,←,left,←,0.648169900290668,True,15
14K21,186,experiment,48,→,left,←,0.7248831000179052,False,15
14K21,187,experiment,132,←,left,←,0.6415230999700725,True,15
14K21,188,experiment,132,↓,down,↓,0.49459350015968084,True,15
14K21,189,experiment,108,←,left,←,0.6334890001453459,True,15
14K21,190,experiment,84,←,left,←,0.7001753998920321,True,15
14K21,191,experiment,72,↓,down,↓,0.782160900067538,True,15
14K21,192,experiment,132,←,left,←,0.9757819999940693,True,15
14K21,193,experiment,108,→,right,→,0.9315923000685871,True,15
14K21,194,experiment,144,→,left,←,0.7351355003193021,False,15
14K21,195,experiment,12,↓,down,↓,0.5546112000010908,True,15
14K21,196,experiment,36,↓,down,↓,0.4786415998823941,True,15
14K21,197,experiment,36,↑,left,←,1.0738689000718296,False,15
14K21,198,experiment,84,←,left,←,0.7265737000852823,True,15
14K21,199,experiment,168,←,left,←,0.6557913003489375,True,15
14K21,200,experiment,144,→,right,→,0.936204600147903,True,15
14K21,201,experiment,60,↑,up,↑,0.6118167000822723,True,15
14K21,202,experiment,96,↓,down,↓,0.4678706997074187,True,15
14K21,203,experiment,156,←,left,←,0.6769463000819087,True,15
14K21,204,experiment,108,→,right,→,0.9270266001112759,True,15
14K21,205,experiment,60,→,right,→,0.5686289998702705,True,15
14K21,206,experiment,168,→,no_key,no_letter,-1.0,False,15
14K21,207,experiment,156,↑,up,↑,0.6185380998067558,True,15
14K21,208,experiment,96,→,right,→,0.5119608999229968,True,15
14K21,209,experiment,144,↓,up,↑,0.8175884000957012,False,15
14K21,210,experiment,144,←,right,→,0.6541198999620974,False,15
14K21,211,experiment,72,←,left,←,0.6792391003109515,True,15
14K21,212,experiment,24,←,left,←,0.47491389978677034,True,15
14K21,213,experiment,48,→,right,→,0.6591833997517824,True,15
14K21,214,experiment,60,↓,down,↓,0.5413545998744667,True,15
14K21,215,experiment,84,←,right,→,0.7066531996242702,False,15
14K21,216,experiment,24,↑,right,→,0.8072651997208595,False,15
14K21,217,experiment,180,←,right,→,0.7243709997273982,False,15
14K21,218,experiment,120,←,right,→,0.716196299996227,False,15
14K21,219,experiment,120,←,left,←,0.5845810999162495,True,15
14K21,220,training,72,↑,right,→,0.8253350998274982,False,15
14K21,221,training,96,↓,down,↓,0.48987859999760985,True,15
14K21,222,training,36,→,left,←,0.7226231996901333,False,15
14K21,223,experiment,12,↑,left,←,0.5911781000904739,False,15
14K21,224,experiment,168,→,right,→,0.6466779001057148,True,15
14K21,225,experiment,156,↑,up,↑,0.6396902999840677,True,15
14K21,226,experiment,84,←,right,→,0.4909743997268379,False,15
14K21,227,experiment,96,↓,down,↓,0.5162617000751197,True,15
14K21,228,experiment,72,↑,right,→,0.5033041997812688,False,15
14K21,229,experiment,108,↑,up,↑,0.5157158998772502,True,15
14K21,230,experiment,96,←,right,→,0.8256394998170435,False,15
14K21,231,experiment,168,↓,down,↓,0.5968406000174582,True,15
14K21,232,experiment,72,←,right,→,0.7506814999505877,False,15
14K21,233,experiment,120,↓,no_key,no_letter,-1.0,False,15
14K21,234,experiment,108,←,down,↓,0.49861969985067844,False,15
14K21,235,experiment,12,→,right,→,0.754001600202173,True,15
14K21,236,experiment,144,←,right,→,0.5349460002034903,False,15
14K21,237,experiment,96,→,right,→,0.5072062998078763,True,15
14K21,238,experiment,180,↓,right,→,0.6920956997200847,False,15
14K21,239,experiment,60,↑,up,↑,0.6323583000339568,True,15
14K21,240,experiment,120,↓,down,↓,0.5922770998440683,True,15
14K21,241,experiment,12,↓,down,↓,0.6261490001343191,True,15
14K21,242,experiment,156,↓,down,↓,0.6294595003128052,True,15
14K21,243,experiment,24,→,up,↑,0.7593189999461174,False,15
14K21,244,experiment,48,↑,down,↓,0.5141543000936508,False,15
14K21,245,experiment,72,↓,down,↓,0.5363530996255577,True,15
14K21,246,experiment,132,↑,up,↑,0.5089858998544514,True,15
14K21,247,experiment,120,↓,down,↓,0.5388465998694301,True,15
14K21,248,experiment,156,←,down,↓,0.5537604000419378,False,15
14K21,249,experiment,144,↑,up,↑,0.4996974002569914,True,15
14K21,250,experiment,12,→,no_key,no_letter,-1.0,False,15
14K21,251,experiment,132,←,left,←,0.8419901002198458,True,15
14K21,252,experiment,36,↑,up,↑,0.6362251001410186,True,15
14K21,253,experiment,24,←,left,←,0.5799983004108071,True,15
14K21,254,experiment,180,←,right,→,1.3201652998104692,False,15
14K21,255,experiment,24,←,left,←,1.1204828997142613,True,15
14K21,256,experiment,60,←,left,←,0.5082135000266135,True,15
14K21,257,experiment,132,→,left,←,0.553878900129348,False,15
14K21,258,experiment,168,←,left,←,0.562804099638015,True,15
14K21,259,experiment,36,↓,down,↓,0.6241929996758699,True,15
14K21,260,experiment,72,↓,right,→,0.6060859002172947,False,15
14K21,261,experiment,168,←,left,←,0.6291056997142732,True,15
14K21,262,experiment,156,↓,down,↓,0.6326542999595404,True,15
14K21,263,experiment,48,→,right,→,0.8074870998971164,True,15
14K21,264,experiment,132,←,right,→,0.8478001998737454,False,15
14K21,265,experiment,96,↑,down,↓,0.6413076003082097,False,15
14K21,266,experiment,180,←,down,↓,0.9633545000106096,False,15
14K21,267,experiment,144,←,left,←,0.8901089997962117,True,15
14K21,268,experiment,48,←,left,←,0.8821111000142992,True,15
14K21,269,experiment,60,→,right,→,0.6238850001245737,True,15
14K21,270,experiment,84,↓,right,→,0.654833999928087,False,15
14K21,271,experiment,84,↑,up,↑,0.616977000143379,True,15
14K21,272,experiment,108,↑,down,↓,0.6724411998875439,False,15
14K21,273,experiment,36,→,left,←,0.680997199844569,False,15
14K21,274,experiment,144,↑,down,↓,0.7685992997139692,False,15
14K21,275,experiment,36,↑,up,↑,0.5092809000052512,True,15
14K21,276,experiment,48,↓,down,↓,0.5138032999821007,True,15
14K21,277,experiment,24,↓,down,↓,0.5301595996133983,True,15
14K21,278,experiment,84,→,right,→,0.5779240997508168,True,15
14K21,279,experiment,108,↑,up,↑,0.6480121002532542,True,15
14K21,280,experiment,60,↑,down,↓,0.6495739999227226,False,15
14K21,281,experiment,180,→,up,↑,0.6610655998811126,False,15
14K21,282,experiment,120,→,left,←,0.6153837000019848,False,15
14K21,283,training,180,←,left,←,0.5714610000140965,True,16
14K21,284,training,180,↓,down,↓,0.45216980017721653,True,16
14K21,285,training,48,↓,no_key,no_letter,-1.0,False,16
14K21,286,experiment,168,←,left,←,1.1262052999809384,True,16
14K21,287,experiment,48,↑,up,↑,0.8022471000440419,True,16
14K21,288,experiment,36,←,up,↑,0.8627675999887288,False,16
14K21,289,experiment,180,→,right,→,0.8565016998909414,True,16
14K21,290,experiment,156,↑,up,↑,0.812722499947995,True,16
14K21,291,experiment,72,↑,up,↑,1.042682799976319,True,16
14K21,292,experiment,108,←,left,←,0.718856300227344,True,16
14K21,293,experiment,156,→,right,→,0.8113498999737203,True,16
14K21,294,experiment,144,↓,up,↑,0.9305393001995981,False,16
14K21,295,experiment,72,←,left,←,0.8465684000402689,True,16
14K21,296,experiment,12,←,right,→,0.7192036001943052,False,16
14K21,297,experiment,60,↑,up,↑,0.45897960010915995,True,16
14K21,298,experiment,84,←,left,←,0.4698828002437949,True,16
14K21,299,experiment,96,→,right,→,0.4867651998065412,True,16
14K21,300,experiment,96,↓,down,↓,0.4694737000390887,True,16
14K21,301,experiment,36,→,right,→,0.5991813000291586,True,16
14K21,302,experiment,24,→,right,→,0.49218810023739934,True,16
14K21,303,experiment,180,↑,up,↑,0.5871533998288214,True,16
14K21,304,experiment,96,↓,down,↓,0.5529590002261102,True,16
14K21,305,experiment,132,↓,right,→,0.654562400188297,False,16
14K21,306,experiment,12,↑,up,↑,0.792077399790287,True,16
14K21,307,experiment,24,←,right,→,0.7086534998379648,False,16
14K21,308,experiment,168,←,left,←,0.6542537002824247,True,16
14K21,309,experiment,48,←,right,→,0.6687933998182416,False,16
14K21,310,experiment,72,↑,up,↑,0.5021150996908545,True,16
14K21,311,experiment,120,↑,left,←,0.48130530025810003,False,16
14K21,312,experiment,156,→,right,→,0.7663786001503468,True,16
14K21,313,experiment,132,→,right,→,0.8202494997531176,True,16
14K21,314,experiment,60,↓,down,↓,0.5661613997071981,True,16
14K21,315,experiment,108,↓,right,→,0.944690499920398,False,16
14K21,316,experiment,84,↓,down,↓,0.5685808002017438,True,16
14K21,317,experiment,120,→,right,→,0.5660278000868857,True,16
14K21,318,experiment,84,←,left,←,0.5358776999637485,True,16
14K21,319,experiment,108,↑,down,↓,0.5799520001746714,False,16
14K21,320,experiment,84,↓,down,↓,0.4737944002263248,True,16
14K21,321,experiment,48,↓,right,→,0.6671331999823451,False,16
14K21,322,experiment,132,→,right,→,0.6753691001795232,True,16
14K21,323,experiment,24,↑,down,↓,0.8961207000538707,False,16
14K21,324,experiment,168,←,down,↓,0.7766055995598435,False,16
14K21,325,experiment,156,↓,right,→,0.8056947998702526,False,16
14K21,326,experiment,144,↓,down,↓,0.6707353997044265,True,16
14K21,327,experiment,168,↓,up,↑,0.5905238999985158,False,16
14K21,328,experiment,12,←,right,→,0.8811814999207854,False,16
14K21,329,experiment,12,←,left,←,0.6638393998146057,True,16
14K21,330,experiment,60,↓,down,↓,0.7623432003892958,True,16
14K21,331,experiment,96,↑,up,↑,0.6200470998883247,True,16
14K21,332,experiment,24,↓,down,↓,0.6141290999948978,True,16
14K21,333,experiment,48,↑,up,↑,0.6220456003211439,True,16
14K21,334,experiment,180,→,right,→,0.5495291999541223,True,16
14K21,335,experiment,36,↑,down,↓,0.8540099002420902,False,16
14K21,336,experiment,120,←,down,↓,0.6495272996835411,False,16
14K21,337,experiment,180,←,left,←,0.5811882000416517,True,16
14K21,338,experiment,60,↓,down,↓,0.4719007001258433,True,16
14K21,339,experiment,72,↓,left,←,0.6272020000033081,False,16
14K21,340,experiment,144,↓,down,↓,0.4650066001340747,True,16
14K21,341,experiment,132,↑,down,↓,0.4975681002251804,False,16
14K21,342,experiment,108,←,down,↓,0.5162021000869572,False,16
14K21,343,experiment,36,→,right,→,0.5765338996425271,True,16
14K21,344,experiment,144,→,right,→,0.4936187001876533,True,16
14K21,345,experiment,120,→,right,→,0.4588362998329103,True,16
14K21,346,training,120,↑,up,↑,0.5906086000613868,True,16
14K21,347,training,144,↓,down,↓,0.463986000046134,True,16
14K21,348,training,132,↓,down,↓,0.44612379977479577,True,16
14K21,349,experiment,96,↑,down,↓,0.5073023000732064,False,16
14K21,350,experiment,84,↓,down,↓,0.510652800090611,True,16
14K21,351,experiment,180,↑,up,↑,0.6519213998690248,True,16
14K21,352,experiment,72,←,right,→,0.7738454998470843,False,16
14K21,353,experiment,12,↑,no_key,no_letter,-1.0,False,16
14K21,354,experiment,168,←,left,←,1.2464160001836717,True,16
14K21,355,experiment,84,↓,down,↓,0.769813499879092,True,16
14K21,356,experiment,132,↓,down,↓,0.8595070000737906,True,16
14K21,357,experiment,24,↓,up,↑,1.4016896998509765,False,16
14K21,358,experiment,60,↓,down,↓,0.8444250002503395,True,16
14K21,359,experiment,24,→,left,←,0.8312528999522328,False,16
14K21,360,experiment,96,←,left,←,0.7001811997033656,True,16
14K21,361,experiment,132,→,left,←,0.8053222000598907,False,16
14K21,362,experiment,144,→,right,→,0.7297571999952197,True,16
14K21,363,experiment,36,↑,up,↑,0.7739675999619067,True,16
14K21,364,experiment,24,↑,up,↑,0.7890055999159813,True,16
14K21,365,experiment,84,←,left,←,0.6941198999993503,True,16
14K21,366,experiment,72,↓,down,↓,0.8333572996780276,True,16
14K21,367,experiment,168,↓,down,↓,0.7701113000512123,True,16
14K21,368,experiment,72,↑,left,←,0.822838599793613,False,16
14K21,369,experiment,120,↑,up,↑,0.7514802999794483,True,16
14K21,370,experiment,144,→,left,←,1.005899800453335,False,16
14K21,371,experiment,108,↓,down,↓,0.9767032000236213,True,16
14K21,372,experiment,84,↓,down,↓,0.942451000213623,True,16
14K21,373,experiment,120,←,left,←,0.8005832997150719,True,16
14K21,374,experiment,180,↓,up,↑,0.7888044002465904,False,16
14K21,375,experiment,12,←,no_key,no_letter,-1.0,False,16
14K21,376,experiment,156,↑,up,↑,0.6519463998265564,True,16
14K21,377,experiment,72,↑,up,↑,0.9915261999703944,True,16
14K21,378,experiment,48,↑,left,←,1.1191016999073327,False,16
14K21,379,experiment,108,→,right,→,1.0478129000402987,True,16
14K21,380,experiment,156,↓,up,↑,1.1452006003819406,False,16
14K21,381,experiment,180,←,right,→,0.8811537995934486,False,16
14K21,382,experiment,36,↓,left,←,1.229663799982518,False,16
14K21,383,experiment,36,←,left,←,0.7126227002590895,True,16
14K21,384,experiment,12,→,right,→,0.8593804002739489,True,16
14K21,385,experiment,108,←,left,←,0.9099297001957893,True,16
14K21,386,experiment,96,→,left,←,0.669932700227946,False,16
14K21,387,experiment,168,→,left,←,0.706309899687767,False,16
14K21,388,experiment,132,←,left,←,0.8232052000239491,True,16
14K21,389,experiment,144,↑,up,↑,0.7145445998758078,True,16
14K21,390,experiment,144,↑,up,↑,0.6269390000961721,True,16
14K21,391,experiment,108,→,left,←,0.6976565001532435,False,16
14K21,392,experiment,48,→,right,→,0.6631463002413511,True,16
14K21,393,experiment,156,↑,up,↑,0.51813879981637,True,16
14K21,394,experiment,24,↓,down,↓,0.5562852001748979,True,16
14K21,395,experiment,48,←,left,←,0.6770554999820888,True,16
14K21,396,experiment,96,←,left,←,0.6156466999091208,True,16
14K21,397,experiment,36,↓,down,↓,0.7679467997513711,True,16
14K21,398,experiment,60,←,left,←,0.545319200027734,True,16
14K21,399,experiment,120,↑,left,←,0.5463016000576317,False,16
14K21,400,experiment,156,↓,down,↓,0.5375048001296818,True,16
14K21,401,experiment,60,→,left,←,0.8490158999338746,False,16
14K21,402,experiment,60,→,right,→,0.7308143000118434,True,16
14K21,403,experiment,180,→,right,→,0.4341106000356376,True,16
14K21,404,experiment,168,↑,up,↑,0.6110656000673771,True,16
14K21,405,experiment,132,→,right,→,0.4568030000664294,True,16
14K21,406,experiment,12,↑,down,↓,0.9960210002027452,False,16
14K21,407,experiment,48,↓,down,↓,0.5992024997249246,True,16
14K21,408,experiment,120,←,left,←,0.6314878999255598,True,16
14K21,409,training,120,↑,up,↑,0.8276732000522316,True,16
14K21,410,training,120,←,left,←,0.8057495001703501,True,16
14K21,411,training,36,↑,up,↑,0.7995128999464214,True,16
14K21,412,experiment,12,↓,down,↓,0.9717851998284459,True,16
14K21,413,experiment,180,→,right,→,0.7419320000335574,True,16
14K21,414,experiment,48,↓,up,↑,0.7706041997298598,False,16
14K21,415,experiment,72,↑,down,↓,0.7407619999721646,False,16
14K21,416,experiment,108,↑,up,↑,0.5040851002559066,True,16
14K21,417,experiment,144,→,right,→,0.6829575998708606,True,16
14K21,418,experiment,60,→,right,→,1.049834500066936,True,16
14K21,419,experiment,120,→,right,→,0.8817392997443676,True,16
14K21,420,experiment,60,←,left,←,0.7226539999246597,True,16
14K21,421,experiment,48,↓,down,↓,0.6266989000141621,True,16
14K21,422,experiment,132,→,up,↑,0.9177957000210881,False,16
14K21,423,experiment,24,↓,down,↓,1.0262535000219941,True,16
14K21,424,experiment,120,↑,up,↑,0.659633600153029,True,16
14K21,425,experiment,108,→,right,→,0.7749895001761615,True,16
14K21,426,experiment,132,→,right,→,1.0619470002129674,True,16
14K21,427,experiment,12,↑,right,→,0.7499420000240207,False,16
14K21,428,experiment,84,↓,no_key,no_letter,-1.0,False,16
14K21,429,experiment,120,↓,right,→,0.7352815000340343,False,16
14K21,430,experiment,36,←,left,←,0.6196921998634934,True,16
14K21,431,experiment,72,↓,down,↓,0.6604383001103997,True,16
14K21,432,experiment,84,→,right,→,0.9270131001248956,True,16
14K21,433,experiment,156,→,right,→,0.5179920997470617,True,16
14K21,434,experiment,36,→,right,→,0.48653839994221926,True,16
14K21,435,experiment,156,→,right,→,0.5307261003181338,True,16
14K21,436,experiment,168,↑,up,↑,0.6633293000049889,True,16
14K21,437,experiment,96,←,right,→,0.6003160001710057,False,16
14K21,438,experiment,168,↑,up,↑,0.4847789001651108,True,16
14K21,439,experiment,108,→,right,→,0.6347102001309395,True,16
14K21,440,experiment,144,←,left,←,0.6181910997256637,True,16
14K21,441,experiment,132,→,right,→,0.861181799788028,True,16
14K21,442,experiment,144,↑,right,→,0.5767883001826704,False,16
14K21,443,experiment,24,←,down,↓,0.7018520999699831,False,16
14K21,444,experiment,96,↓,no_key,no_letter,-1.0,False,16
14K21,445,experiment,24,↑,up,↑,0.5852009002119303,True,16
14K21,446,experiment,12,→,right,→,0.6780507997609675,True,16
14K21,447,experiment,12,↓,down,↓,0.5808943998999894,True,16
14K21,448,experiment,24,←,left,←,0.5531985997222364,True,16
14K21,449,experiment,180,↓,right,→,0.5685149999335408,False,16
14K21,450,experiment,156,→,right,→,0.7428167001344264,True,16
14K21,451,experiment,96,→,right,→,0.6431943001225591,True,16
14K21,452,experiment,60,↑,up,↑,0.46957700001075864,True,16
14K21,453,experiment,96,↑,down,↓,0.36717010010033846,False,16
14K21,454,experiment,60,→,right,→,0.2839194997213781,True,16
14K21,455,experiment,168,↑,up,↑,0.3170677996240556,True,16
14K21,456,experiment,108,↑,right,→,0.6511626001447439,False,16
14K21,457,experiment,72,←,right,→,0.6244916999712586,False,16
14K21,458,experiment,144,↓,down,↓,0.5196576002053916,True,16
14K21,459,experiment,180,↑,up,↑,0.26718039996922016,True,16
14K21,460,experiment,36,↑,no_key,no_letter,-1.0,False,16
14K21,461,experiment,84,←,up,↑,0.5368405999615788,False,16
14K21,462,experiment,132,→,down,↓,0.4006690001115203,False,16
14K21,463,experiment,168,←,left,←,0.6564591000787914,True,16
14K21,464,experiment,156,←,right,→,0.7675323998555541,False,16
14K21,465,experiment,48,↓,down,↓,0.6611579000018537,True,16
14K21,466,experiment,36,→,up,↑,0.5293656000867486,False,16
14K21,467,experiment,48,←,left,←,0.6416442999616265,True,16
14K21,468,experiment,72,↓,down,↓,1.4904144001193345,True,16
14K21,469,experiment,120,←,left,←,0.5495206001214683,True,16
14K21,470,experiment,84,↓,down,↓,0.45289620012044907,True,16
14K21,471,experiment,180,↓,right,→,0.5823936001397669,False,16
14K21,472,training,96,↓,right,→,0.9022884997539222,False,16
14K21,473,training,156,↓,right,→,0.5034235999919474,False,16
14K21,474,training,12,↑,down,↓,0.6437494000419974,False,16
14K21,475,experiment,24,↓,up,↑,0.4860060000792146,False,16
14K21,476,experiment,156,←,right,→,0.5265919999219477,False,16
14K21,477,experiment,72,←,left,←,0.545609500259161,True,16
14K21,478,experiment,12,←,right,→,0.6491203000769019,False,16
14K21,479,experiment,120,→,no_key,no_letter,-1.0,False,16
14K21,480,experiment,120,↑,up,↑,0.5610309997573495,True,16
14K21,481,experiment,84,↓,down,↓,0.6906080995686352,True,16
14K21,482,experiment,96,←,left,←,0.6168160000815988,True,16
14K21,483,experiment,180,→,left,←,0.5362328002229333,False,16
14K21,484,experiment,48,←,left,←,0.7939188000746071,True,16
14K21,485,experiment,48,←,left,←,0.570085700135678,True,16
14K21,486,experiment,144,→,left,←,0.4674056996591389,False,16
14K21,487,experiment,108,←,left,←,0.6334352996200323,True,16
14K21,488,experiment,168,←,left,←,0.5104920002631843,True,16
14K21,489,experiment,36,→,right,→,0.5471209003590047,True,16
14K21,490,experiment,144,←,left,←,0.5404143999330699,True,16
14K21,491,experiment,24,↓,down,↓,1.58223249996081,True,16
14K21,492,experiment,168,↑,up,↑,0.5907112001441419,True,16
14K21,493,experiment,84,↓,down,↓,0.4425947000272572,True,16
14K21,494,experiment,48,↑,up,↑,0.49136990029364824,True,16
14K21,495,experiment,180,↑,up,↑,1.0208970997482538,True,16
14K21,496,experiment,108,↓,down,↓,0.5075083998963237,True,16
14K21,497,experiment,24,↑,up,↑,0.6000283998437226,True,16
14K21,498,experiment,60,↑,up,↑,0.5138494996353984,True,16
14K21,499,experiment,72,→,right,→,0.5659279003739357,True,16
14K21,500,experiment,132,←,left,←,0.5917621003463864,True,16
14K21,501,experiment,72,↑,up,↑,0.5106099001131952,True,16
14K21,502,experiment,48,↑,left,←,0.5214344998821616,False,16
14K21,503,experiment,132,↑,up,↑,0.5270885997451842,True,16
14K21,504,experiment,12,→,right,→,0.5079509001225233,True,16
14K21,505,experiment,156,↑,up,↑,0.44292439986020327,True,16
14K21,506,experiment,144,→,no_key,no_letter,-1.0,False,16
14K21,507,experiment,96,↓,right,→,0.5208431999199092,False,16
14K21,508,experiment,108,←,left,←,0.6474060001783073,True,16
14K21,509,experiment,60,↑,up,↑,0.5889544999226928,True,16
14K21,510,experiment,12,→,down,↓,0.4941057995893061,False,16
14K21,511,experiment,144,←,left,←,0.5930011998862028,True,16
14K21,512,experiment,180,←,left,←,0.5494486000388861,True,16
14K21,513,experiment,96,↑,up,↑,0.5827581002376974,True,16
14K21,514,experiment,156,↓,left,←,0.5669412999413908,False,16
14K21,515,experiment,36,→,right,→,0.7130946000106633,True,16
14K21,516,experiment,96,→,right,→,0.5149811999872327,True,16
14K21,517,experiment,168,↑,up,↑,0.5617061997763813,True,16
14K21,518,experiment,84,→,left,←,0.568219699896872,False,16
14K21,519,experiment,60,↓,down,↓,0.6990447998978198,True,16
14K21,520,experiment,24,←,down,↓,0.7703535999171436,False,16
14K21,521,experiment,132,↑,right,→,0.3501873002387583,False,16
14K21,522,experiment,120,←,right,→,0.25043809972703457,False,16
14K21,523,experiment,60,→,right,→,0.539894400164485,True,16
14K21,524,experiment,12,→,left,←,0.7381170000880957,False,16
14K21,525,experiment,120,←,left,←,0.6100801001302898,True,16
14K21,526,experiment,72,↓,down,↓,0.5522874002344906,True,16
14K21,527,experiment,168,↓,down,↓,0.7452523000538349,True,16
14K21,528,experiment,36,→,left,←,0.6295847999863327,False,16
14K21,529,experiment,108,↓,left,←,0.7034531002864242,False,16
14K21,530,experiment,36,←,down,↓,0.49544019997119904,False,16
14K21,531,experiment,132,→,left,←,0.5199786000885069,False,16
14K21,532,experiment,180,→,up,↑,1.063795399852097,False,16
14K21,533,experiment,84,↑,up,↑,0.5561983999796212,True,16
14K21,534,experiment,156,↑,up,↑,0.564185599796474,True,16
14K21,535,training,156,←,left,←,0.691257799975574,True,16
14K21,536,training,48,←,right,→,0.4652284001931548,False,16
14K21,537,training,168,↓,right,→,0.48496100027114153,False,16
14K21,538,experiment,96,←,left,←,0.5271004000678658,True,16
14K21,539,experiment,132,←,left,←,0.5460007996298373,True,16
14K21,540,experiment,180,↑,right,→,0.6620836998336017,False,16
14K21,541,experiment,168,↓,left,←,0.550625600386411,False,16
14K21,542,experiment,36,↓,down,↓,0.5137743996456265,True,16
14K21,543,experiment,156,↑,left,←,0.5498385997489095,False,16
14K21,544,experiment,180,↑,up,↑,0.5642784000374377,True,16
14K21,545,experiment,84,→,left,←,0.5887302001938224,False,16
14K21,546,experiment,48,→,left,←,0.5460874997079372,False,16
14K21,547,experiment,12,←,left,←,0.5984542001970112,True,16
14K21,548,experiment,108,↓,up,↑,0.6132667995989323,False,16
14K21,549,experiment,36,←,left,←,0.676261099986732,True,16
14K21,550,experiment,24,↓,no_key,no_letter,-1.0,False,16
14K21,551,experiment,24,→,right,→,0.5685825999826193,True,16
14K21,552,experiment,156,↑,down,↓,0.49584290012717247,False,16
14K21,553,experiment,84,→,left,←,0.7404467999003828,False,16
14K21,554,experiment,108,←,left,←,0.5417301999405026,True,16
14K21,555,experiment,60,↓,no_key,no_letter,-1.0,False,16
14K21,556,experiment,60,→,left,←,0.8979440000839531,False,16
14K21,557,experiment,168,↑,up,↑,0.7171764997765422,True,16
14K21,558,experiment,24,↓,down,↓,0.5549507001414895,True,16
14K21,559,experiment,12,↑,up,↑,0.515359400305897,True,16
14K21,560,experiment,168,←,left,←,0.6371906995773315,True,16
14K21,561,experiment,72,↓,down,↓,1.017319600097835,True,16
14K21,562,experiment,180,↑,up,↑,0.9175096000544727,True,16
14K21,563,experiment,144,→,left,←,0.5283802999183536,False,16
14K21,564,experiment,24,↓,down,↓,0.47503039985895157,True,16
14K21,565,experiment,144,→,left,←,0.5979903000406921,False,16
14K21,566,experiment,84,←,left,←,0.6856814003549516,True,16
14K21,567,experiment,108,↑,down,↓,0.7217720998451114,False,16
14K21,568,experiment,120,←,left,←,0.6012974004261196,True,16
14K21,569,experiment,156,↓,down,↓,0.45124860014766455,True,16
14K21,570,experiment,36,→,right,→,0.6142317000776529,True,16
14K21,571,experiment,132,←,left,←,0.6116168997250497,True,16
14K21,572,experiment,48,→,right,→,0.5469402000308037,True,16
14K21,573,experiment,48,↓,down,↓,0.4709698003716767,True,16
14K21,574,experiment,60,←,up,↑,0.36716429982334375,False,16
14K21,575,experiment,72,→,right,→,0.4717640997841954,True,16
14K21,576,experiment,60,↓,left,←,0.5201796996407211,False,16
14K21,577,experiment,12,←,down,↓,0.5295719997957349,False,16
14K21,578,experiment,156,←,left,←,0.895579700358212,True,16
14K21,579,experiment,72,→,left,←,0.8251745002344251,False,16
14K21,580,experiment,48,↓,up,↑,1.1098171998746693,False,16
14K21,581,experiment,96,↑,up,↑,0.5396960000507534,True,16
14K21,582,experiment,168,↑,up,↑,0.4561821003444493,True,16
14K21,583,experiment,36,←,left,←,0.6754008000716567,True,16
14K21,584,experiment,120,↓,down,↓,0.6606586002744734,True,16
14K21,585,experiment,96,↑,up,↑,0.7438495997339487,True,16
14K21,586,experiment,96,↑,up,↑,0.8557091001421213,True,16
14K21,587,experiment,108,↑,up,↑,0.5734365000389516,True,16
14K21,588,experiment,120,↓,up,↑,0.5627248999662697,False,16
14K21,589,experiment,132,↑,down,↓,0.5043926001526415,False,16
14K21,590,experiment,120,←,left,←,0.7679086998105049,True,16
14K21,591,experiment,12,↓,left,←,1.4599771001376212,False,16
14K21,592,experiment,72,↑,up,↑,0.8582517001777887,True,16
14K21,593,experiment,144,→,right,→,0.7208850001916289,True,16
14K21,594,experiment,84,→,right,→,0.7099713003262877,True,16
14K21,595,experiment,132,←,left,←,0.814952400047332,True,16
14K21,596,experiment,144,←,left,←,0.7585543999448419,True,16
14K21,597,experiment,180,↑,up,↑,0.8507389002479613,True,16
14K21,598,training,12,↓,up,↑,0.8706590998917818,False,16
14K21,599,training,60,←,left,←,0.7242561997845769,True,16
14K21,600,training,108,↑,up,↑,0.5056075998581946,True,16
14K21,601,experiment,120,↑,no_key,no_letter,-1.0,False,16
14K21,602,experiment,156,↑,up,↑,0.6182685000821948,True,16
14K21,603,experiment,84,↓,up,↑,0.5203118999488652,False,16
14K21,604,experiment,24,→,right,→,0.675172499846667,True,16
14K21,605,experiment,180,↓,down,↓,0.576613700017333,True,16
14K21,606,experiment,156,←,left,←,0.6659655999392271,True,16
14K21,607,experiment,120,←,down,↓,0.5208562002517283,False,16
14K21,608,experiment,144,↑,up,↑,1.0161664998158813,True,16
14K21,609,experiment,180,↓,down,↓,0.6689402000047266,True,16
14K21,610,experiment,12,←,no_key,no_letter,-1.0,False,16
14K21,611,experiment,60,←,down,↓,0.5279790996573865,False,16
14K21,612,experiment,36,↑,left,←,0.5350301996804774,False,16
14K21,613,experiment,132,↓,up,↑,0.7371049001812935,False,16
14K21,614,experiment,168,←,left,←,1.014274399727583,True,16
14K21,615,experiment,48,→,right,→,0.7904246998950839,True,16
14K21,616,experiment,12,←,no_key,no_letter,-1.0,False,16
14K21,617,experiment,180,→,left,←,1.140531999990344,False,16
14K21,618,experiment,72,←,left,←,0.6444911998696625,True,16
14K21,619,experiment,84,←,left,←,0.6839956999756396,True,16
14K21,620,experiment,36,↑,up,↑,0.8030664999969304,True,16
14K21,621,experiment,168,↑,up,↑,0.906115900259465,True,16
14K21,622,experiment,108,→,right,→,0.761011800263077,True,16
14K21,623,experiment,156,→,left,←,0.6980154002085328,False,16
14K21,624,experiment,72,→,left,←,0.6109155998565257,False,16
14K21,625,experiment,108,↑,up,↑,0.48143939999863505,True,16
14K21,626,experiment,144,←,left,←,0.8125689001753926,True,16
14K21,627,experiment,168,→,right,→,0.7081464999355376,True,16
14K21,628,experiment,132,↑,up,↑,0.8542471998371184,True,16
14K21,629,experiment,72,→,left,←,0.5860619000159204,False,16
14K21,630,experiment,108,←,left,←,0.5274164001457393,True,16
14K21,631,experiment,96,←,left,←,0.4916586000472307,True,16
14K21,632,experiment,180,↑,no_key,no_letter,-1.0,False,16
14K21,633,experiment,36,←,left,←,0.6729505998082459,True,16
14K21,634,experiment,24,←,left,←,0.5919582997448742,True,16
14K21,635,experiment,168,↑,left,←,0.6207202998921275,False,16
14K21,636,experiment,24,←,down,↓,0.5979705001227558,False,16
14K21,637,experiment,12,←,no_key,no_letter,-1.0,False,16
14K21,638,experiment,60,→,up,↑,0.6021455000154674,False,16
14K21,639,experiment,120,↑,up,↑,0.499628699850291,True,16
14K21,640,experiment,84,↓,up,↑,0.5361053002998233,False,16
14K21,641,experiment,36,↓,down,↓,0.7613694001920521,True,16
14K21,642,experiment,12,←,left,←,0.599294999614358,True,16
14K21,643,experiment,48,↑,up,↑,0.7092798002995551,True,16
14K21,644,experiment,72,↑,down,↓,0.560786200221628,False,16
14K21,645,experiment,96,↓,down,↓,0.48796619987115264,True,16
14K21,646,experiment,48,→,right,→,0.5823479001410306,True,16
14K21,647,experiment,60,→,right,→,0.5333324996754527,True,16
14K21,648,experiment,132,↑,down,↓,0.5754839000292122,False,16
14K21,649,experiment,48,↑,up,↑,0.5966173997148871,True,16
14K21,650,experiment,24,←,left,←,0.6133225997909904,True,16
14K21,651,experiment,96,←,left,←,0.5688694003038108,True,16
14K21,652,experiment,60,↑,up,↑,0.5235816999338567,True,16
14K21,653,experiment,96,↓,right,→,0.47644530003890395,False,16
14K21,654,experiment,156,←,down,↓,0.5433056000620127,False,16
14K21,655,experiment,144,↑,up,↑,0.5170646999031305,True,16
14K21,656,experiment,84,→,right,→,0.6728675998747349,True,16
14K21,657,experiment,144,↑,right,→,0.5500225001014769,False,16
14K21,658,experiment,120,←,left,←,0.5729263001121581,True,16
14K21,659,experiment,108,←,left,←,0.6068464000709355,True,16
14K21,660,experiment,132,↑,up,↑,0.5016467999666929,True,16
14K21,661,training,120,←,right,→,0.4494018000550568,False,16
14K21,662,training,60,←,left,←,0.5693510002456605,True,16
14K21,663,training,108,↑,up,↑,0.6511119999922812,True,16
14K21,664,experiment,84,→,right,→,0.5753240003250539,True,16
14K21,665,experiment,156,↑,up,↑,0.5473847999237478,True,16
14K21,666,experiment,48,↑,up,↑,0.5252991002053022,True,16
14K21,667,experiment,60,←,left,←,0.6032267999835312,True,16
14K21,668,experiment,168,→,left,←,0.4639051998965442,False,16
14K21,669,experiment,144,↑,up,↑,0.7075848001986742,True,16
14K21,670,experiment,144,→,left,←,0.505305000115186,False,16
14K21,671,experiment,36,↑,down,↓,0.5336249000392854,False,16
14K21,672,experiment,120,→,up,↑,1.9214773001149297,False,16
14K21,673,experiment,132,←,left,←,0.5913901003077626,True,16
14K21,674,experiment,120,→,right,→,0.849393299780786,True,16
14K21,675,experiment,36,↑,up,↑,0.8840537997893989,True,16
14K21,676,experiment,156,←,left,←,0.6749247000552714,True,16
14K21,677,experiment,36,→,down,↓,1.2769154999405146,False,16
14K21,678,experiment,60,↑,up,↑,0.4842460001818836,True,16
14K21,679,experiment,108,→,left,←,0.6591443000361323,False,16
14K21,680,experiment,132,↑,up,↑,0.4841526998206973,True,16
14K21,681,experiment,108,→,left,←,0.6198165998794138,False,16
14K21,682,experiment,168,↓,down,↓,0.49355330038815737,True,16
14K21,683,experiment,48,←,left,←,0.9337619002908468,True,16
14K21,684,experiment,144,←,left,←,0.5640333001501858,True,16
14K21,685,experiment,96,→,left,←,0.5396777000278234,False,16
14K21,686,experiment,180,→,left,←,0.5885862996801734,False,16
14K21,687,experiment,48,↓,down,↓,0.6301202001050115,True,16
14K21,688,experiment,96,→,right,→,0.7955732997506857,True,16
14K21,689,experiment,132,→,left,←,0.5545155997388065,False,16
14K21,690,experiment,60,←,left,←,0.5828521000221372,True,16
14K21,691,experiment,72,↑,up,↑,0.6162105002440512,True,16
14K21,692,experiment,156,←,left,←,0.7106247995980084,True,16
14K21,693,experiment,72,↓,left,←,0.49794969987124205,False,16
14K21,694,experiment,180,→,left,←,0.4972982001490891,False,16
14K21,695,experiment,72,←,left,←,0.494539599865675,True,16
14K21,696,experiment,168,↑,left,←,1.617369799874723,False,16
14K21,697,experiment,12,→,left,←,1.0021862997673452,False,16
14K21,698,experiment,24,↓,down,↓,0.5859527997672558,True,16
14K21,699,experiment,108,↑,left,←,0.5161617998965085,False,16
14K21,700,experiment,132,↑,up,↑,1.2678979998454452,True,16
14K21,701,experiment,156,↑,up,↑,0.4659642996266484,True,16
14K21,702,experiment,168,↑,down,↓,0.5724665997549891,False,16
14K21,703,experiment,108,↓,down,↓,0.5283522000536323,True,16
14K21,704,experiment,24,↓,down,↓,1.3944211998023093,True,16
14K21,705,experiment,12,←,down,↓,0.8912522001191974,False,16
14K21,706,experiment,60,↑,no_key,no_letter,-1.0,False,16
14K21,707,experiment,96,←,left,←,0.580008199904114,True,16
14K21,708,experiment,180,↓,down,↓,0.5301359998993576,True,16
14K21,709,experiment,24,→,left,←,0.8450629003345966,False,16
14K21,710,experiment,84,→,left,←,0.5467379000037909,False,16
14K21,711,experiment,96,→,right,→,0.574057400226593,True,16
14K21,712,experiment,120,↑,up,↑,0.5049307001754642,True,16
14K21,713,experiment,48,↓,left,←,0.6438930002041161,False,16
14K21,714,experiment,84,↑,up,↑,0.6134092002175748,True,16
14K21,715,experiment,84,↓,left,←,0.5922163999639452,False,16
14K21,716,experiment,72,↑,left,←,0.5528070000000298,False,16
14K21,717,experiment,12,→,down,↓,1.2223087004385889,False,16
14K21,718,experiment,120,←,up,↑,0.5899233999662101,False,16
14K21,719,experiment,144,←,left,←,0.642833299934864,True,16
14K21,720,experiment,180,→,right,→,0.5709179998375475,True,16
14K21,721,experiment,24,→,right,→,0.7640440003015101,True,16
14K21,722,experiment,36,←,no_key,no_letter,-1.0,False,16
14K21,723,experiment,12,↑,down,↓,1.129855299834162,False,16
14K21,724,training,156,↑,down,↓,0.5495090996846557,False,17
14K21,725,training,108,←,right,→,0.5093140001408756,False,17
14K21,726,training,12,←,right,→,0.6911496999673545,False,17
14K21,727,experiment,12,←,left,←,0.7265694001689553,True,17
14K21,728,experiment,84,↓,down,↓,0.6121819000691175,True,17
14K21,729,experiment,96,↑,up,↑,0.45234670024365187,True,17
14K21,730,experiment,96,↓,left,←,0.5379598997533321,False,17
14K21,731,experiment,84,←,left,←,0.520204400178045,True,17
14K21,732,experiment,132,↓,down,↓,0.5310130002908409,True,17
14K21,733,experiment,72,←,left,←,0.546493399888277,True,17
14K21,734,experiment,36,←,left,←,0.631353700067848,True,17
14K21,735,experiment,96,→,right,→,0.5926222996786237,True,17
14K21,736,experiment,168,↑,down,↓,0.7690630001015961,False,17
14K21,737,experiment,108,↑,down,↓,0.6751562003046274,False,17
14K21,738,experiment,48,←,left,←,0.5792069998569787,True,17
14K21,739,experiment,132,↓,left,←,0.6667138999328017,False,17
14K21,740,experiment,168,→,left,←,0.5298994998447597,False,17
14K21,741,experiment,60,↓,down,↓,0.8205602997913957,True,17
14K21,742,experiment,12,→,right,→,0.5784883997403085,True,17
14K21,743,experiment,48,↑,down,↓,0.7479932000860572,False,17
14K21,744,experiment,120,←,no_key,no_letter,-1.0,False,17
14K21,745,experiment,24,↓,left,←,0.669927999842912,False,17
14K21,746,experiment,72,↓,down,↓,0.5083058001473546,True,17
14K21,747,experiment,156,←,up,↑,0.45953180035576224,False,17
14K21,748,experiment,108,←,left,←,0.5041085998527706,True,17
14K21,749,experiment,180,↓,down,↓,0.48752429988235235,True,17
14K21,750,experiment,180,←,left,←,0.6187998997047544,True,17
14K21,751,experiment,72,→,left,←,0.5954435998573899,False,17
14K21,752,experiment,12,↓,no_key,no_letter,-1.0,False,17
14K21,753,experiment,48,→,left,←,0.40078649995848536,False,17
14K21,754,experiment,84,←,left,←,0.4508116999641061,True,17
14K21,755,experiment,108,→,right,→,0.4171347999945283,True,17
14K21,756,experiment,108,→,left,←,0.7177687003277242,False,17
14K21,757,experiment,144,↑,right,→,0.35051980009302497,False,17
14K21,758,experiment,156,←,right,→,0.3672913000918925,False,17
14K21,759,experiment,144,↑,right,→,0.5421765996143222,False,17
14K21,760,experiment,168,←,left,←,0.8457216001115739,True,17
14K21,761,experiment,84,←,left,←,0.5832735998556018,True,17
14K21,762,experiment,24,↑,no_key,no_letter,-1.0,False,17
14K21,763,experiment,60,→,right,→,0.7104291999712586,True,17
14K21,764,experiment,120,→,right,→,0.7028948003426194,True,17
14K21,765,experiment,180,→,left,←,1.0615467000752687,False,17
14K21,766,experiment,48,↑,up,↑,0.7737245997413993,True,17
14K21,767,experiment,144,↓,up,↑,0.7953419000841677,False,17
14K21,768,experiment,60,→,left,←,0.5853371997363865,False,17
14K21,769,experiment,168,↓,down,↓,0.5405894001014531,True,17
14K21,770,experiment,156,←,left,←,0.5414478001184762,True,17
14K21,771,experiment,36,→,right,→,0.7795404000207782,True,17
14K21,772,experiment,12,↓,down,↓,0.7301946999505162,True,17
14K21,773,experiment,24,→,right,→,0.7343842997215688,True,17
14K21,774,experiment,132,←,left,←,0.4959149998612702,True,17
14K21,775,experiment,96,←,left,←,0.5880109998397529,True,17
14K21,776,experiment,36,→,left,←,0.4624760998412967,False,17
14K21,777,experiment,72,→,right,→,0.4559809002093971,True,17
14K21,778,experiment,180,↑,down,↓,0.6583341001532972,False,17
14K21,779,experiment,36,↓,left,←,0.477808500174433,False,17
14K21,780,experiment,144,←,left,←,0.6188880000263453,True,17
14K21,781,experiment,120,←,left,←,0.5549673000350595,True,17
14K21,782,experiment,120,←,left,←,0.6313145002350211,True,17
14K21,783,experiment,132,→,left,←,1.5341439000330865,False,17
14K21,784,experiment,60,→,right,→,0.7309269001707435,True,17
14K21,785,experiment,24,←,left,←,0.6508665001019835,True,17
14K21,786,experiment,156,→,right,→,0.48859550012275577,True,17
14K21,787,training,168,→,right,→,0.7396425004117191,True,17
14K21,788,training,120,↓,down,↓,0.7507401998154819,True,17
14K21,789,training,132,↑,down,↓,0.6354395998641849,False,17
14K21,790,experiment,48,→,right,→,0.5126348999328911,True,17
14K21,791,experiment,144,↑,up,↑,1.0014527002349496,True,17
14K21,792,experiment,144,↓,down,↓,0.5759926000609994,True,17
14K21,793,experiment,84,↑,up,↑,0.3667643000371754,True,17
14K21,794,experiment,132,→,right,→,0.5943216998130083,True,17
14K21,795,experiment,36,↑,right,→,0.7179272999055684,False,17
14K21,796,experiment,72,↑,down,↓,0.3670552996918559,False,17
14K21,797,experiment,96,→,left,←,0.6674592001363635,False,17
14K21,798,experiment,48,←,right,→,0.801763900090009,False,17
14K21,799,experiment,120,↓,up,↑,0.7163704000413418,False,17
14K21,800,experiment,108,↓,up,↑,0.7533916998654604,False,17
14K21,801,experiment,132,←,left,←,0.6696083000861108,True,17
14K21,802,experiment,72,←,left,←,0.6140975998714566,True,17
14K21,803,experiment,60,↑,up,↑,0.5843866001814604,True,17
14K21,804,experiment,120,↓,down,↓,0.5604079002514482,True,17
14K21,805,experiment,120,→,left,←,0.6701973001472652,False,17
14K21,806,experiment,108,→,right,→,0.41724370000883937,True,17
14K21,807,experiment,84,←,down,↓,0.5166882001794875,False,17
14K21,808,experiment,72,→,right,→,0.41706900019198656,True,17
14K21,809,experiment,168,←,left,←,0.9195675002411008,True,17
14K21,810,experiment,120,↓,down,↓,0.7189764999784529,True,17
14K21,811,experiment,156,↓,down,↓,0.7872489001601934,True,17
14K21,812,experiment,60,↓,up,↑,1.340016699861735,False,17
14K21,813,experiment,180,→,right,→,0.5888680000789464,True,17
14K21,814,experiment,108,←,left,←,0.6527140000835061,True,17
14K21,815,experiment,180,↑,up,↑,0.830770299769938,True,17
14K21,816,experiment,132,←,right,→,0.8361023999750614,False,17
14K21,817,experiment,168,↑,up,↑,0.5695719998329878,True,17
14K21,818,experiment,12,→,right,→,1.5193105000071228,True,17
14K21,819,experiment,36,↑,right,→,1.0326397996395826,False,17
14K21,820,experiment,156,←,left,←,0.5487639000639319,True,17
14K21,821,experiment,24,↓,right,→,1.105605499818921,False,17
14K21,822,experiment,48,←,left,←,0.999826299957931,True,17
14K21,823,experiment,144,↑,up,↑,0.8220563000068069,True,17
14K21,824,experiment,156,↓,down,↓,0.9159194999374449,True,17
14K21,825,experiment,12,←,no_key,no_letter,-1.0,False,17
14K21,826,experiment,144,→,right,→,0.8232014998793602,True,17
14K21,827,experiment,84,↑,up,↑,0.9434577999636531,True,17
14K21,828,experiment,132,↑,right,→,0.6605100999586284,False,17
14K21,829,experiment,96,↓,right,→,0.6487051001749933,False,17
14K21,830,experiment,48,→,right,→,0.6063336003571749,True,17
14K21,831,experiment,108,→,right,→,0.4172315001487732,True,17
14K21,832,experiment,24,↓,down,↓,1.1640548999421299,True,17
14K21,833,experiment,96,↑,up,↑,0.5962990000844002,True,17
14K21,834,experiment,60,←,left,←,0.6132371001876891,True,17
14K21,835,experiment,96,↓,right,→,0.544620200060308,False,17
14K21,836,experiment,84,↑,right,→,0.5575541998259723,False,17
14K21,837,experiment,12,↓,down,↓,1.1702803997322917,True,17
14K21,838,experiment,24,←,left,←,0.5371420998126268,True,17
14K21,839,experiment,36,←,left,←,0.4676413000561297,True,17
14K21,840,experiment,24,↓,down,↓,0.5846530999988317,True,17
14K21,841,experiment,12,↓,left,←,1.0943196997977793,False,17
14K21,842,experiment,60,↑,up,↑,0.5492716999724507,True,17
14K21,843,experiment,36,→,right,→,0.6436998001299798,True,17
14K21,844,experiment,72,→,down,↓,0.31718239979818463,False,17
14K21,845,experiment,180,↓,up,↑,0.5603487999178469,False,17
14K21,846,experiment,156,←,down,↓,0.8150311000645161,False,17
14K21,847,experiment,168,↑,right,→,0.31703680008649826,False,17
14K21,848,experiment,168,←,right,→,0.6355400998145342,False,17
14K21,849,experiment,180,↑,right,→,0.4877176000736654,False,17
