PART_ID,Trial_no,Trial_type,PDI,Stim_letter,Key_pressed,letter_choose,Rt,Corr,Stimulus Time
15M20,1,training,10,←,left,←,0.6004809001460671,True,30
15M20,2,training,10,→,no_key,no_letter,-1.0,False,30
15M20,3,training,10,↓,down,↓,0.7283804002217948,True,30
15M20,4,training,10,→,right,→,0.8537926999852061,True,30
15M20,5,training,10,↓,down,↓,0.6978501998819411,True,30
15M20,6,training,10,←,left,←,0.6912404000759125,True,30
15M20,7,training,10,→,right,→,0.9034266001544893,True,30
15M20,8,training,10,←,left,←,0.6339921997860074,True,30
15M20,9,training,10,↑,up,↑,0.7757803001441061,True,30
15M20,10,training,10,↑,up,↑,0.7739949999377131,True,30
15M20,11,training,10,↓,down,↓,1.8642986002378166,True,30
15M20,12,training,10,←,left,←,0.7846198999322951,True,30
15M20,13,training,10,←,left,←,1.16231709998101,True,30
15M20,14,training,10,↑,no_key,no_letter,-1.0,False,30
15M20,15,training,10,←,left,←,0.5842569000087678,True,30
15M20,16,training,10,→,no_key,no_letter,-1.0,False,30
15M20,17,training,10,↓,up,↑,1.269830800127238,False,30
15M20,18,training,10,←,left,←,0.5003742002882063,True,30
15M20,19,training,10,→,no_key,no_letter,-1.0,False,30
15M20,20,training,10,→,right,→,0.6337270997464657,True,30
15M20,21,training,10,←,left,←,0.5167956999503076,True,18
15M20,22,training,10,→,right,→,0.5654374002479017,True,18
15M20,23,training,10,→,right,→,0.3839589999988675,True,18
15M20,24,training,10,↓,down,↓,0.5640081004239619,True,18
15M20,25,training,10,←,left,←,0.5394567996263504,True,18
15M20,26,training,10,↑,up,↑,0.5251821000128984,True,18
15M20,27,training,10,→,right,→,0.5399368000216782,True,18
15M20,28,training,10,↑,up,↑,0.5056051001884043,True,18
15M20,29,training,10,→,right,→,0.6333148996345699,True,18
15M20,30,training,10,←,left,←,0.48251580027863383,True,18
15M20,31,training,120,↓,down,↓,0.6441009002737701,True,15
15M20,32,training,12,←,right,→,0.9158834000118077,False,15
15M20,33,training,168,←,down,↓,0.7902140999212861,False,15
15M20,34,experiment,156,↓,up,↑,0.7762767001986504,False,15
15M20,35,experiment,168,←,left,←,0.6452929000370204,True,15
15M20,36,experiment,120,↑,up,↑,0.5294492999091744,True,15
15M20,37,experiment,36,→,down,↓,0.8224342996254563,False,15
15M20,38,experiment,108,←,right,→,0.7139539001509547,False,15
15M20,39,experiment,60,←,left,←,0.6179215000011027,True,15
15M20,40,experiment,72,←,left,←,0.7638401002623141,True,15
15M20,41,experiment,12,←,right,→,0.894673699978739,False,15
15M20,42,experiment,180,↑,up,↑,0.5519924000836909,True,15
15M20,43,experiment,168,↑,down,↓,0.7330954000353813,False,15
15M20,44,experiment,168,↓,down,↓,0.6591704003512859,True,15
15M20,45,experiment,36,↑,down,↓,0.9068995998241007,False,15
15M20,46,experiment,96,↓,down,↓,0.6207600003108382,True,15
15M20,47,experiment,180,→,right,→,0.6357545000500977,True,15
15M20,48,experiment,24,→,left,←,1.1077380999922752,False,15
15M20,49,experiment,132,→,right,→,0.6199178998358548,True,15
15M20,50,experiment,132,↓,down,↓,0.6265375004149973,True,15
15M20,51,experiment,144,↓,down,↓,0.572803100105375,True,15
15M20,52,experiment,84,↑,up,↑,1.0706994999200106,True,15
15M20,53,experiment,120,←,left,←,0.6264839000068605,True,15
15M20,54,experiment,156,↓,down,↓,0.6560517000034451,True,15
15M20,55,experiment,84,↑,down,↓,0.7237808001227677,False,15
15M20,56,experiment,120,→,right,→,0.7156484997831285,True,15
15M20,57,experiment,12,←,up,↑,0.9970734999515116,False,15
15M20,58,experiment,144,↑,up,↑,0.570711700245738,True,15
15M20,59,experiment,24,←,left,←,1.1994024999439716,True,15
15M20,60,experiment,108,↑,up,↑,0.5938110998831689,True,15
15M20,61,experiment,132,↑,down,↓,1.2808954999782145,False,15
15M20,62,experiment,84,↑,up,↑,0.6972759999334812,True,15
15M20,63,experiment,24,←,left,←,0.6091089998371899,True,15
15M20,64,experiment,96,↑,left,←,0.9502083999104798,False,15
15M20,65,experiment,12,→,right,→,1.1965201999992132,True,15
15M20,66,experiment,180,←,left,←,0.5078203999437392,True,15
15M20,67,experiment,156,→,right,→,0.6136087998747826,True,15
15M20,68,experiment,72,↓,left,←,1.0864988001994789,False,15
15M20,69,experiment,60,↑,down,↓,0.6285365000367165,False,15
15M20,70,experiment,132,→,right,→,0.943599599879235,True,15
15M20,71,experiment,48,←,left,←,0.6452764999121428,True,15
15M20,72,experiment,144,↑,up,↑,0.8086191997863352,True,15
15M20,73,experiment,72,←,left,←,0.6038456996902823,True,15
15M20,74,experiment,144,←,left,←,0.5503782997839153,True,15
15M20,75,experiment,108,↑,up,↑,0.6132756997831166,True,15
15M20,76,experiment,60,↑,down,↓,0.6032793996855617,False,15
15M20,77,experiment,72,→,left,←,0.640894299838692,False,15
15M20,78,experiment,12,→,left,←,1.1874115001410246,False,15
15M20,79,experiment,168,↓,down,↓,0.5982331996783614,True,15
15M20,80,experiment,24,←,left,←,0.5781910000368953,True,15
15M20,81,experiment,96,↑,down,↓,0.7878887001425028,False,15
15M20,82,experiment,36,←,left,←,0.6025278000161052,True,15
15M20,83,experiment,156,↓,down,↓,0.7240297002717853,True,15
15M20,84,experiment,36,↑,up,↑,0.823239500168711,True,15
15M20,85,experiment,96,←,left,←,0.5602937000803649,True,15
15M20,86,experiment,60,↓,down,↓,0.6330599002540112,True,15
15M20,87,experiment,120,→,left,←,0.7069120998494327,False,15
15M20,88,experiment,48,→,left,←,0.6797584998421371,False,15
15M20,89,experiment,48,↓,down,↓,0.6363413999788463,True,15
15M20,90,experiment,48,←,left,←,0.6266882000491023,True,15
15M20,91,experiment,180,←,left,←,0.5686912997625768,True,15
15M20,92,experiment,108,↓,down,↓,0.6025533997453749,True,15
15M20,93,experiment,84,←,left,←,1.4983783001080155,True,15
15M20,94,training,36,←,left,←,0.7932373997755349,True,15
15M20,95,training,180,←,left,←,0.8839573999866843,True,15
15M20,96,training,156,↓,down,↓,0.6464467998594046,True,15
15M20,97,experiment,24,←,up,↑,0.8742376998998225,False,15
15M20,98,experiment,72,←,left,←,0.5434038997627795,True,15
15M20,99,experiment,24,→,left,←,0.7677414999343455,False,15
15M20,100,experiment,36,→,left,←,0.7930616000667214,False,15
15M20,101,experiment,168,↑,up,↑,0.6578806000761688,True,15
15M20,102,experiment,48,→,right,→,1.803761599585414,True,15
15M20,103,experiment,144,←,left,←,0.5705120000056922,True,15
15M20,104,experiment,96,↑,down,↓,0.7280362001620233,False,15
15M20,105,experiment,60,↓,down,↓,0.6815185998566449,True,15
15M20,106,experiment,120,↑,up,↑,0.7241281997412443,True,15
15M20,107,experiment,36,→,left,←,0.5872562997974455,False,15
15M20,108,experiment,36,↑,up,↑,0.960196599829942,True,15
15M20,109,experiment,96,←,left,←,0.5966320000588894,True,15
15M20,110,experiment,108,↓,up,↑,0.7733048000372946,False,15
15M20,111,experiment,156,↓,down,↓,0.7059361999854445,True,15
15M20,112,experiment,24,↓,up,↑,0.9166913996450603,False,15
15M20,113,experiment,144,←,left,←,0.5939162001013756,True,15
15M20,114,experiment,132,→,up,↑,1.1695718998089433,False,15
15M20,115,experiment,24,↓,up,↑,0.9888924001716077,False,15
15M20,116,experiment,132,←,left,←,0.6148173003457487,True,15
15M20,117,experiment,48,↑,up,↑,0.8436730001121759,True,15
15M20,118,experiment,60,↓,up,↑,0.9040210000239313,False,15
15M20,119,experiment,72,↓,down,↓,0.5736803002655506,True,15
15M20,120,experiment,180,↓,down,↓,0.7039557001553476,True,15
15M20,121,experiment,84,→,left,←,0.5545024001039565,False,15
15M20,122,experiment,156,→,right,→,0.616898600012064,True,15
15M20,123,experiment,168,↑,up,↑,0.7039145999588072,True,15
15M20,124,experiment,156,↑,up,↑,0.6004350003786385,True,15
15M20,125,experiment,60,↑,up,↑,0.5816579000093043,True,15
15M20,126,experiment,12,↓,up,↑,0.7983162999153137,False,15
15M20,127,experiment,108,↓,up,↑,1.3068009000271559,False,15
15M20,128,experiment,180,→,right,→,0.6944911000318825,True,15
15M20,129,experiment,120,↓,down,↓,0.6589274001307786,True,15
15M20,130,experiment,60,↓,left,←,1.0865861000493169,False,15
15M20,131,experiment,144,↓,up,↑,0.5570271001197398,False,15
15M20,132,experiment,84,↓,down,↓,0.7912628999911249,True,15
15M20,133,experiment,96,→,right,→,0.8597521004267037,True,15
15M20,134,experiment,48,↓,down,↓,0.7878407002426684,True,15
15M20,135,experiment,12,←,right,→,0.7526965998113155,False,15
15M20,136,experiment,168,←,left,←,0.61309659993276,True,15
15M20,137,experiment,180,←,left,←,0.5764413001015782,True,15
15M20,138,experiment,84,→,right,→,0.6634681997820735,True,15
15M20,139,experiment,180,←,right,→,0.7763073001988232,False,15
15M20,140,experiment,72,↑,up,↑,0.6679464001208544,True,15
15M20,141,experiment,96,←,left,←,0.5250995000824332,True,15
15M20,142,experiment,132,↓,down,↓,0.6529708998277783,True,15
15M20,143,experiment,156,→,left,←,0.9127221996895969,False,15
15M20,144,experiment,120,←,left,←,0.7078753998503089,True,15
15M20,145,experiment,108,↓,down,↓,0.6424622000195086,True,15
15M20,146,experiment,48,←,left,←,0.516629799734801,True,15
15M20,147,experiment,36,←,left,←,0.5636999001726508,True,15
15M20,148,experiment,12,→,right,→,0.621041199658066,True,15
15M20,149,experiment,144,←,left,←,0.553319999948144,True,15
15M20,150,experiment,168,→,right,→,0.6107446998357773,True,15
15M20,151,experiment,72,→,left,←,0.5485013998113573,False,15
15M20,152,experiment,12,↓,down,↓,0.7591853998601437,True,15
15M20,153,experiment,120,←,left,←,0.4519792995415628,True,15
15M20,154,experiment,108,↑,up,↑,0.6728524002246559,True,15
15M20,155,experiment,132,↓,down,↓,0.7017877004109323,True,15
15M20,156,experiment,84,↓,down,↓,0.8009211998432875,True,15
15M20,157,training,156,←,left,←,0.49483019998297095,True,15
15M20,158,training,84,↑,right,→,0.8214877001009881,False,15
15M20,159,training,48,→,right,→,0.6538013000972569,True,15
15M20,160,experiment,48,↓,down,↓,0.6329256002791226,True,15
15M20,161,experiment,120,→,right,→,0.5654603000730276,True,15
15M20,162,experiment,96,←,left,←,0.4409720003604889,True,15
15M20,163,experiment,132,←,left,←,0.42969399970024824,True,15
15M20,164,experiment,84,→,right,→,0.7998353997245431,True,15
15M20,165,experiment,36,←,right,→,0.6931799999438226,False,15
15M20,166,experiment,132,↑,up,↑,0.6309388000518084,True,15
15M20,167,experiment,168,↓,down,↓,0.6792858000844717,True,15
15M20,168,experiment,96,↓,down,↓,0.6272470001131296,True,15
15M20,169,experiment,108,↑,up,↑,0.688155900221318,True,15
15M20,170,experiment,132,←,left,←,0.6315975999459624,True,15
15M20,171,experiment,48,←,left,←,0.900299500208348,True,15
15M20,172,experiment,156,↓,down,↓,0.6143706999719143,True,15
15M20,173,experiment,96,↓,down,↓,0.610330100171268,True,15
15M20,174,experiment,180,↓,down,↓,0.5086868000216782,True,15
15M20,175,experiment,156,→,left,←,0.5827887998893857,False,15
15M20,176,experiment,36,←,left,←,1.058333800174296,True,15
15M20,177,experiment,24,↓,down,↓,0.6317473002709448,True,15
15M20,178,experiment,120,→,left,←,0.44672559993341565,False,15
15M20,179,experiment,144,↑,down,↓,0.9286945997737348,False,15
15M20,180,experiment,36,↑,up,↑,1.87566679995507,True,15
15M20,181,experiment,108,→,right,→,0.5861610001884401,True,15
15M20,182,experiment,24,↑,up,↑,0.7035937998443842,True,15
15M20,183,experiment,144,←,left,←,0.6525901998393238,True,15
15M20,184,experiment,60,→,left,←,0.8331793998368084,False,15
15M20,185,experiment,24,↓,left,←,1.3970002001151443,False,15
15M20,186,experiment,156,→,right,→,0.4572580996900797,True,15
15M20,187,experiment,84,↑,up,↑,0.6572819999419153,True,15
15M20,188,experiment,168,↓,down,↓,0.6355090001598,True,15
15M20,189,experiment,168,↓,left,←,1.1447756998240948,False,15
15M20,190,experiment,72,↑,up,↑,0.7366153001785278,True,15
15M20,191,experiment,12,↑,up,↑,0.6189136998727918,True,15
15M20,192,experiment,108,→,right,→,0.563827000092715,True,15
15M20,193,experiment,132,→,left,←,0.780594099778682,False,15
15M20,194,experiment,12,→,left,←,0.7530886000022292,False,15
15M20,195,experiment,12,←,right,→,0.7888742000795901,False,15
15M20,196,experiment,180,←,left,←,1.0513577000238001,True,15
15M20,197,experiment,60,←,left,←,0.9961560000665486,True,15
15M20,198,experiment,48,↑,up,↑,0.9896769002079964,True,15
15M20,199,experiment,72,→,right,→,0.5525089004077017,True,15
15M20,200,experiment,12,←,right,→,0.6278438000008464,False,15
15M20,201,experiment,180,↓,up,↑,0.7295526997186244,False,15
15M20,202,experiment,144,↓,down,↓,0.61923209996894,True,15
15M20,203,experiment,72,↓,down,↓,0.9477786002680659,True,15
15M20,204,experiment,24,↑,up,↑,0.8329571997746825,True,15
15M20,205,experiment,120,←,right,→,0.7458059000782669,False,15
15M20,206,experiment,144,→,left,←,0.8823154997080564,False,15
15M20,207,experiment,180,↓,down,↓,0.6656666998751462,True,15
15M20,208,experiment,120,↑,up,↑,0.6118486998602748,True,15
15M20,209,experiment,60,↓,down,↓,0.647017499897629,True,15
15M20,210,experiment,96,↓,down,↓,0.7001752997748554,True,15
15M20,211,experiment,156,←,right,→,0.6775910002179444,False,15
15M20,212,experiment,60,↓,down,↓,0.9091251003555954,True,15
15M20,213,experiment,48,→,right,→,0.7724512000568211,True,15
15M20,214,experiment,72,←,left,←,0.6307355999015272,True,15
15M20,215,experiment,108,↑,up,↑,0.6656537996605039,True,15
15M20,216,experiment,36,→,right,→,0.8558159000240266,True,15
15M20,217,experiment,84,↓,up,↑,0.6648379000835121,False,15
15M20,218,experiment,168,↓,right,→,0.5099578001536429,False,15
15M20,219,experiment,84,↓,down,↓,0.6588327996432781,True,15
15M20,220,training,168,→,left,←,1.0202659997157753,False,15
15M20,221,training,156,→,left,←,0.7165839998051524,False,15
15M20,222,training,168,↓,down,↓,0.7686979998834431,True,15
15M20,223,experiment,120,↓,up,↑,0.8116546999663115,False,15
15M20,224,experiment,24,↑,right,→,1.2189658000133932,False,15
15M20,225,experiment,12,↑,up,↑,0.7767423000186682,True,15
15M20,226,experiment,12,↓,down,↓,0.46338959969580173,True,15
15M20,227,experiment,168,→,left,←,0.7159524001181126,False,15
15M20,228,experiment,60,↑,up,↑,0.6501159002073109,True,15
15M20,229,experiment,156,↓,down,↓,0.7114314995706081,True,15
15M20,230,experiment,72,→,right,→,0.6256698002107441,True,15
15M20,231,experiment,84,↓,down,↓,0.6452413001097739,True,15
15M20,232,experiment,168,←,left,←,0.8284088000655174,True,15
15M20,233,experiment,36,↑,up,↑,0.6368593997322023,True,15
15M20,234,experiment,180,←,left,←,0.6878486000932753,True,15
15M20,235,experiment,36,↑,up,↑,0.6470204000361264,True,15
15M20,236,experiment,168,↓,up,↑,0.8343978002667427,False,15
15M20,237,experiment,156,←,left,←,0.542136499658227,True,15
15M20,238,experiment,120,↓,down,↓,0.7789908996783197,True,15
15M20,239,experiment,180,↑,up,↑,0.5102683999575675,True,15
15M20,240,experiment,120,↓,down,↓,0.6244459999725223,True,15
15M20,241,experiment,156,↑,up,↑,0.6927614999003708,True,15
15M20,242,experiment,96,↓,up,↑,0.7061552000232041,False,15
15M20,243,experiment,132,↑,up,↑,0.7193591999821365,True,15
15M20,244,experiment,144,→,left,←,0.5048972996883094,False,15
15M20,245,experiment,84,←,left,←,0.59765430027619,True,15
15M20,246,experiment,12,←,right,→,0.6108155003748834,False,15
15M20,247,experiment,24,↑,up,↑,0.5266325999982655,True,15
15M20,248,experiment,108,↓,down,↓,0.6122989999130368,True,15
15M20,249,experiment,60,←,left,←,0.5612252997234464,True,15
15M20,250,experiment,84,↑,up,↑,0.7049094997346401,True,15
15M20,251,experiment,144,↑,left,←,0.7871946999803185,False,15
15M20,252,experiment,72,↑,down,↓,0.7947106002829969,False,15
15M20,253,experiment,132,↑,up,↑,0.5019907001405954,True,15
15M20,254,experiment,108,←,left,←,0.6607209001667798,True,15
15M20,255,experiment,24,↓,right,→,1.0424913000315428,False,15
15M20,256,experiment,48,→,right,→,0.6745609999634326,True,15
15M20,257,experiment,96,↓,left,←,0.8279913999140263,False,15
15M20,258,experiment,24,→,right,→,0.686668099835515,True,15
15M20,259,experiment,156,←,right,→,0.6162169999442995,False,15
15M20,260,experiment,36,↓,down,↓,0.6691459999419749,True,15
15M20,261,experiment,48,←,right,→,0.5708042001351714,False,15
15M20,262,experiment,48,←,left,←,0.46459619980305433,True,15
15M20,263,experiment,72,←,right,→,0.4672197001054883,False,15
15M20,264,experiment,144,←,left,←,0.6369146001525223,True,15
15M20,265,experiment,48,←,left,←,0.7724591996520758,True,15
15M20,266,experiment,96,←,left,←,0.6585066998377442,True,15
15M20,267,experiment,120,→,left,←,0.6954287998378277,False,15
15M20,268,experiment,168,→,right,→,0.5332373999990523,True,15
15M20,269,experiment,36,→,left,←,0.5748040000908077,False,15
15M20,270,experiment,144,↑,up,↑,0.784181599970907,True,15
15M20,271,experiment,72,→,right,→,0.6389148002490401,True,15
15M20,272,experiment,180,↑,up,↑,0.5785284000448883,True,15
15M20,273,experiment,132,→,right,→,0.8694945001043379,True,15
15M20,274,experiment,96,→,left,←,0.6448895996436477,False,15
15M20,275,experiment,180,↑,left,←,0.7176983002573252,False,15
15M20,276,experiment,12,↓,up,↑,0.9807051001116633,False,15
15M20,277,experiment,108,↓,up,↑,0.6487118001095951,False,15
15M20,278,experiment,84,↑,up,↑,0.6345990002155304,True,15
15M20,279,experiment,60,↑,up,↑,0.6615776997059584,True,15
15M20,280,experiment,132,←,left,←,0.543697000015527,True,15
15M20,281,experiment,60,→,left,←,1.1560635999776423,False,15
15M20,282,experiment,108,↑,up,↑,0.6423395997844636,True,15
15M20,283,training,96,→,right,→,0.6781108998693526,True,15
15M20,284,training,144,←,left,←,0.6114316997118294,True,15
15M20,285,training,48,↓,up,↑,0.6710774996317923,False,15
15M20,286,experiment,48,←,left,←,0.6141077000647783,True,15
15M20,287,experiment,180,→,right,→,0.5715955998748541,True,15
15M20,288,experiment,144,→,right,→,0.5250547998584807,True,15
15M20,289,experiment,108,←,left,←,0.5133932996541262,True,15
15M20,290,experiment,12,↑,up,↑,0.6623448003083467,True,15
15M20,291,experiment,180,↓,down,↓,0.6142061999998987,True,15
15M20,292,experiment,120,↓,down,↓,0.5724690998904407,True,15
15M20,293,experiment,108,←,left,←,0.9683369002304971,True,15
15M20,294,experiment,36,↓,down,↓,1.0796648999676108,True,15
15M20,295,experiment,24,←,left,←,0.5725202998146415,True,15
15M20,296,experiment,48,←,left,←,0.4489269000478089,True,15
15M20,297,experiment,168,↑,down,↓,0.7156516998074949,False,15
15M20,298,experiment,180,↓,down,↓,0.7143099000677466,True,15
15M20,299,experiment,12,↓,down,↓,0.6502736997790635,True,15
15M20,300,experiment,156,↓,down,↓,0.5922119999304414,True,15
15M20,301,experiment,144,→,right,→,0.5558012002147734,True,15
15M20,302,experiment,36,↓,up,↑,0.9646116001531482,False,15
15M20,303,experiment,72,→,left,←,0.5782515001483262,False,15
15M20,304,experiment,96,←,left,←,0.6022662003524601,True,15
15M20,305,experiment,168,→,right,→,0.6754276999272406,True,15
15M20,306,experiment,108,←,left,←,0.6647882000543177,True,15
15M20,307,experiment,108,↑,down,↓,0.618487199768424,False,15
15M20,308,experiment,132,↑,up,↑,0.6739882999099791,True,15
15M20,309,experiment,84,→,left,←,0.6720592002384365,False,15
15M20,310,experiment,168,↓,down,↓,0.5660970001481473,True,15
15M20,311,experiment,24,←,left,←,0.8696196000091732,True,15
15M20,312,experiment,132,→,right,→,1.133125300053507,True,15
15M20,313,experiment,60,←,left,←,0.5922736995853484,True,15
15M20,314,experiment,60,↓,down,↓,0.7156083998270333,True,15
15M20,315,experiment,132,←,left,←,0.5337580000050366,True,15
15M20,316,experiment,96,←,left,←,0.5772095997817814,True,15
15M20,317,experiment,96,↓,down,↓,0.7014239002019167,True,15
15M20,318,experiment,156,→,right,→,0.5614231997169554,True,15
15M20,319,experiment,36,↓,down,↓,0.6066837003454566,True,15
15M20,320,experiment,120,↓,down,↓,0.5548034999519587,True,15
15M20,321,experiment,60,↓,down,↓,0.7130195000208914,True,15
15M20,322,experiment,36,→,right,→,0.6129789999686182,True,15
15M20,323,experiment,84,↓,down,↓,0.6296609998680651,True,15
15M20,324,experiment,156,→,right,→,0.6070809997618198,True,15
15M20,325,experiment,48,↑,left,←,0.9576316000893712,False,15
15M20,326,experiment,24,←,left,←,0.6058932999148965,True,15
15M20,327,experiment,72,→,left,←,0.44826600002124906,False,15
15M20,328,experiment,72,→,left,←,0.6525913001969457,False,15
15M20,329,experiment,24,↑,down,↓,0.663217700086534,False,15
15M20,330,experiment,168,←,down,↓,1.0403820998035371,False,15
15M20,331,experiment,12,↓,no_key,no_letter,-1.0,False,15
15M20,332,experiment,72,↑,up,↑,0.7344828997738659,True,15
15M20,333,experiment,84,↑,up,↑,0.6822550999931991,True,15
15M20,334,experiment,84,→,right,→,0.7403496997430921,True,15
15M20,335,experiment,156,→,right,→,0.6081678001210093,True,15
15M20,336,experiment,96,↓,left,←,0.9687729999423027,False,15
15M20,337,experiment,12,→,left,←,0.869026499800384,False,15
15M20,338,experiment,120,→,left,←,0.7020046999678016,False,15
15M20,339,experiment,60,↑,up,↑,0.7702126000076532,True,15
15M20,340,experiment,180,↑,up,↑,0.586183600127697,True,15
15M20,341,experiment,48,↓,up,↑,0.6861404995433986,False,15
15M20,342,experiment,120,↑,down,↓,0.9917072001844645,False,15
15M20,343,experiment,144,↑,up,↑,0.42264469992369413,True,15
15M20,344,experiment,144,→,right,→,0.820386300329119,True,15
15M20,345,experiment,132,←,up,↑,0.8072517002001405,False,15
15M20,346,training,36,↑,up,↑,0.6476548998616636,True,15
15M20,347,training,48,←,up,↑,0.7379681002348661,False,15
15M20,348,training,168,←,left,←,0.5399333001114428,True,15
15M20,349,experiment,96,←,left,←,0.4620901998132467,True,15
15M20,350,experiment,48,←,left,←,0.6321113999001682,True,15
15M20,351,experiment,36,←,left,←,0.7024426995776594,True,15
15M20,352,experiment,168,←,left,←,0.5152308996766806,True,15
15M20,353,experiment,180,↑,up,↑,0.5784188001416624,True,15
15M20,354,experiment,60,←,left,←,0.5831979000940919,True,15
15M20,355,experiment,132,←,left,←,0.46793749975040555,True,15
15M20,356,experiment,132,←,left,←,0.7662523998878896,True,15
15M20,357,experiment,12,↓,left,←,1.1230108002200723,False,15
15M20,358,experiment,12,↑,up,↑,0.4695216999389231,True,15
15M20,359,experiment,108,→,left,←,0.46641340013593435,False,15
15M20,360,experiment,24,←,left,←,0.5454652002081275,True,15
15M20,361,experiment,96,↓,down,↓,0.7228421000763774,True,15
15M20,362,experiment,84,↓,down,↓,0.7445020996965468,True,15
15M20,363,experiment,168,↑,up,↑,0.5440088999457657,True,15
15M20,364,experiment,108,→,right,→,0.8693232000805438,True,15
15M20,365,experiment,120,←,left,←,0.5550828999839723,True,15
15M20,366,experiment,60,←,left,←,0.585389600135386,True,15
15M20,367,experiment,48,→,left,←,0.8029922000132501,False,15
15M20,368,experiment,108,→,right,→,0.7731729000806808,True,15
15M20,369,experiment,36,→,right,→,0.6580958003178239,True,15
15M20,370,experiment,156,↑,up,↑,0.7090354999527335,True,15
15M20,371,experiment,120,↑,up,↑,0.715604200027883,True,15
15M20,372,experiment,156,→,right,→,0.593992399983108,True,15
15M20,373,experiment,60,→,left,←,0.5931637999601662,False,15
15M20,374,experiment,84,↑,up,↑,0.6184323001652956,True,15
15M20,375,experiment,144,↑,up,↑,0.6390045997686684,True,15
15M20,376,experiment,168,↓,down,↓,0.653993799816817,True,15
15M20,377,experiment,144,↓,up,↑,0.5623996001668274,False,15
15M20,378,experiment,156,→,left,←,0.7867767997086048,False,15
15M20,379,experiment,156,←,left,←,0.5521626998670399,True,15
15M20,380,experiment,60,↑,down,↓,0.7080331998877227,False,15
15M20,381,experiment,72,↓,up,↑,0.6125401998870075,False,15
15M20,382,experiment,72,↓,down,↓,0.6666876003146172,True,15
15M20,383,experiment,168,↓,down,↓,0.7381134000606835,True,15
15M20,384,experiment,96,→,left,←,0.6960634998977184,False,15
15M20,385,experiment,84,←,right,→,0.6397496000863612,False,15
15M20,386,experiment,144,↑,up,↑,0.6288232002407312,True,15
15M20,387,experiment,72,↓,up,↑,0.6942496001720428,False,15
15M20,388,experiment,24,↓,down,↓,1.0611271997913718,True,15
15M20,389,experiment,180,↑,up,↑,0.6040090001188219,True,15
15M20,390,experiment,120,←,up,↑,0.6015389999374747,False,15
15M20,391,experiment,180,→,left,←,0.8006703997962177,False,15
15M20,392,experiment,12,←,left,←,0.7562640998512506,True,15
15M20,393,experiment,24,↑,up,↑,0.5919257998466492,True,15
15M20,394,experiment,36,↑,up,↑,0.790811900049448,True,15
15M20,395,experiment,120,→,right,→,0.7261334997601807,True,15
15M20,396,experiment,24,←,left,←,0.485071400180459,True,15
15M20,397,experiment,132,→,left,←,0.7885849000886083,False,15
15M20,398,experiment,12,←,left,←,0.5305657000280917,True,15
15M20,399,experiment,36,←,right,→,0.9483340000733733,False,15
15M20,400,experiment,108,←,left,←,0.6200890000909567,True,15
15M20,401,experiment,96,←,left,←,0.6640588999725878,True,15
15M20,402,experiment,48,↓,down,↓,0.6947192000225186,True,15
15M20,403,experiment,72,→,right,→,0.5053721000440419,True,15
15M20,404,experiment,144,→,right,→,0.6702920999377966,True,15
15M20,405,experiment,48,↓,down,↓,0.773847300093621,True,15
15M20,406,experiment,132,→,right,→,0.5615427996963263,True,15
15M20,407,experiment,180,↑,left,←,0.5541952000930905,False,15
15M20,408,experiment,84,↑,up,↑,0.668613700196147,True,15
15M20,409,training,60,→,right,→,0.5145363002084196,True,15
15M20,410,training,48,↑,up,↑,0.5801411001011729,True,15
15M20,411,training,24,↓,down,↓,0.4675352997146547,True,15
15M20,412,experiment,120,↑,up,↑,0.5288058998994529,True,15
15M20,413,experiment,12,↑,up,↑,0.9389090002514422,True,15
15M20,414,experiment,72,↓,up,↑,0.48154750000685453,False,15
15M20,415,experiment,60,↑,up,↑,0.5534398001618683,True,15
15M20,416,experiment,132,←,right,→,0.44305079989135265,False,15
15M20,417,experiment,72,↑,left,←,0.8024390004575253,False,15
15M20,418,experiment,24,↓,down,↓,0.9095848998986185,True,15
15M20,419,experiment,108,←,left,←,0.5472772996872663,True,15
15M20,420,experiment,96,→,left,←,0.6609999998472631,False,15
15M20,421,experiment,84,↑,up,↑,0.5734109999611974,True,15
15M20,422,experiment,48,←,left,←,0.6878474000841379,True,15
15M20,423,experiment,24,→,left,←,0.6945763002149761,False,15
15M20,424,experiment,60,↑,up,↑,0.6012332001700997,True,15
15M20,425,experiment,48,→,left,←,0.6519867000170052,False,15
15M20,426,experiment,120,↓,down,↓,0.5875972001813352,True,15
15M20,427,experiment,12,↓,down,↓,1.0331183997914195,True,15
15M20,428,experiment,156,↑,up,↑,0.5855737002566457,True,15
15M20,429,experiment,108,←,left,←,0.6588062001392245,True,15
15M20,430,experiment,84,↓,down,↓,0.5837897001765668,True,15
15M20,431,experiment,120,←,left,←,0.4459317000582814,True,15
15M20,432,experiment,36,→,left,←,0.6821807003580034,False,15
15M20,433,experiment,60,↓,down,↓,0.609400600194931,True,15
15M20,434,experiment,144,→,left,←,0.5591613999567926,False,15
15M20,435,experiment,180,↑,up,↑,0.5801150002516806,True,15
15M20,436,experiment,12,→,down,↓,0.9197817002423108,False,15
15M20,437,experiment,48,←,no_key,no_letter,-1.0,False,15
15M20,438,experiment,156,←,left,←,0.47917359974235296,True,15
15M20,439,experiment,96,←,left,←,0.6443115998990834,True,15
15M20,440,experiment,132,←,left,←,0.6137774996459484,True,15
15M20,441,experiment,120,↓,left,←,0.6407107999548316,False,15
15M20,442,experiment,168,←,left,←,0.5299980002455413,True,15
15M20,443,experiment,108,→,left,←,0.6313070999458432,False,15
15M20,444,experiment,84,↓,down,↓,0.5352777997031808,True,15
15M20,445,experiment,36,→,right,→,0.6366519997827709,True,15
15M20,446,experiment,72,←,left,←,0.7980208997614682,True,15
15M20,447,experiment,156,→,left,←,1.4807334998622537,False,15
15M20,448,experiment,180,↑,up,↑,0.6856479998677969,True,15
15M20,449,experiment,180,→,left,←,0.43715499993413687,False,15
15M20,450,experiment,180,↑,up,↑,0.6450776997953653,True,15
15M20,451,experiment,144,→,left,←,0.5185157000087202,False,15
15M20,452,experiment,48,←,left,←,0.5774431000463665,True,15
15M20,453,experiment,132,→,right,→,0.6774013000540435,True,15
15M20,454,experiment,84,←,left,←,0.5751316999085248,True,15
15M20,455,experiment,96,↓,down,↓,0.6279736999422312,True,15
15M20,456,experiment,144,→,right,→,0.6248443000949919,True,15
15M20,457,experiment,72,←,left,←,0.7764177997596562,True,15
15M20,458,experiment,108,←,left,←,0.6077742003835738,True,15
15M20,459,experiment,60,←,left,←,0.7939208000898361,True,15
15M20,460,experiment,168,→,left,←,0.6073913001455367,False,15
15M20,461,experiment,168,←,left,←,0.5979936998337507,True,15
15M20,462,experiment,12,↓,down,↓,0.7322514001280069,True,15
15M20,463,experiment,24,↓,down,↓,0.5566279999911785,True,15
15M20,464,experiment,144,←,left,←,0.9269320000894368,True,15
15M20,465,experiment,156,←,left,←,0.43623899994418025,True,15
15M20,466,experiment,36,←,left,←,0.7991217998787761,True,15
15M20,467,experiment,132,↑,up,↑,0.6337575996294618,True,15
15M20,468,experiment,168,→,left,←,0.7170583000406623,False,15
15M20,469,experiment,36,↑,up,↑,0.47229009959846735,True,15
15M20,470,experiment,96,→,left,←,0.6238529002293944,False,15
15M20,471,experiment,24,↑,up,↑,0.690679999999702,True,15
15M20,472,training,84,↓,up,↑,0.7742940001189709,False,15
15M20,473,training,168,←,down,↓,0.9175066999159753,False,15
15M20,474,training,132,↑,down,↓,0.5527665000408888,False,15
15M20,475,experiment,24,→,right,→,0.7773881000466645,True,15
15M20,476,experiment,132,→,left,←,0.6696008997969329,False,15
15M20,477,experiment,48,←,left,←,0.6742210001684725,True,15
15M20,478,experiment,180,→,right,→,0.6092910999432206,True,15
15M20,479,experiment,84,←,left,←,0.5249474998563528,True,15
15M20,480,experiment,72,↓,down,↓,0.5632616002112627,True,15
15M20,481,experiment,156,↑,down,↓,0.6784912999719381,False,15
15M20,482,experiment,168,←,left,←,0.537013300228864,True,15
15M20,483,experiment,144,↑,down,↓,0.5276624001562595,False,15
15M20,484,experiment,156,→,right,→,0.5959393000230193,True,15
15M20,485,experiment,48,←,left,←,0.752479700371623,True,15
15M20,486,experiment,108,←,left,←,0.4474218999966979,True,15
15M20,487,experiment,60,↑,up,↑,0.5563437999226153,True,15
15M20,488,experiment,108,→,left,←,0.6440044003538787,False,15
15M20,489,experiment,12,→,left,←,0.8999034999869764,False,15
15M20,490,experiment,36,←,left,←,0.5484266001731157,True,15
15M20,491,experiment,156,↓,down,↓,0.5532676000148058,True,15
15M20,492,experiment,144,→,right,→,0.5818280000239611,True,15
15M20,493,experiment,24,↑,up,↑,0.5886045000515878,True,15
15M20,494,experiment,48,↑,up,↑,0.5688886996358633,True,15
15M20,495,experiment,84,←,left,←,0.6799070001579821,True,15
15M20,496,experiment,48,↑,up,↑,0.636082099750638,True,15
15M20,497,experiment,168,←,left,←,0.5687263002619147,True,15
15M20,498,experiment,72,↑,down,↓,0.7158089000731707,False,15
15M20,499,experiment,24,→,right,→,0.6142074000090361,True,15
15M20,500,experiment,180,↑,up,↑,0.696786199696362,True,15
15M20,501,experiment,96,→,right,→,0.6296888003125787,True,15
15M20,502,experiment,12,→,right,→,0.48073840001598,True,15
15M20,503,experiment,96,↑,left,←,1.1648281002417207,False,15
15M20,504,experiment,12,→,left,←,0.5743548003956676,False,15
15M20,505,experiment,132,↑,left,←,0.6031384998932481,False,15
15M20,506,experiment,84,←,left,←,0.5440785000100732,True,15
15M20,507,experiment,84,↓,left,←,0.5361176999285817,False,15
15M20,508,experiment,72,←,left,←,0.5624245000071824,True,15
15M20,509,experiment,156,↑,up,↑,0.7800705996342003,True,15
15M20,510,experiment,144,↓,up,↑,0.6561202998273075,False,15
15M20,511,experiment,108,←,left,←,0.5694635999388993,True,15
15M20,512,experiment,36,↑,up,↑,0.6101863998919725,True,15
15M20,513,experiment,132,↑,up,↑,0.7449123002588749,True,15
15M20,514,experiment,12,↓,up,↑,1.0423564999364316,False,15
15M20,515,experiment,96,←,left,←,0.5712743997573853,True,15
15M20,516,experiment,36,→,up,↑,0.9410361000336707,False,15
15M20,517,experiment,120,→,left,←,0.744254999794066,False,15
15M20,518,experiment,120,←,right,→,0.8389528999105096,False,15
15M20,519,experiment,36,→,left,←,1.0670040999539196,False,15
15M20,520,experiment,180,→,right,→,0.5871056001633406,True,15
15M20,521,experiment,168,↓,right,→,0.5953008001670241,False,15
15M20,522,experiment,180,←,left,←,0.49218140030279756,True,15
15M20,523,experiment,24,←,left,←,0.5488169998861849,True,15
15M20,524,experiment,168,↓,left,←,0.7080263001844287,False,15
15M20,525,experiment,108,←,left,←,0.4350789999589324,True,15
15M20,526,experiment,60,↑,left,←,0.7178704002872109,False,15
15M20,527,experiment,144,↓,down,↓,0.9455555998720229,True,15
15M20,528,experiment,60,↑,up,↑,0.5788215999491513,True,15
15M20,529,experiment,60,→,right,→,0.4921300997957587,True,15
15M20,530,experiment,132,↑,up,↑,1.066411199979484,True,15
15M20,531,experiment,120,↓,up,↑,0.8196860002353787,False,15
15M20,532,experiment,72,↓,down,↓,0.658016299828887,True,15
15M20,533,experiment,96,→,right,→,0.606872099917382,True,15
15M20,534,experiment,120,→,right,→,0.6465889001265168,True,15
15M20,535,training,36,↓,right,→,0.7391852997243404,False,15
15M20,536,training,108,↑,up,↑,0.5264636999927461,True,15
15M20,537,training,24,↑,up,↑,0.6877985000610352,True,15
15M20,538,experiment,132,↑,up,↑,0.5956699997186661,True,15
15M20,539,experiment,132,↑,up,↑,0.5583307002671063,True,15
15M20,540,experiment,132,↑,up,↑,0.4954602997750044,True,15
15M20,541,experiment,72,↑,up,↑,0.48281809967011213,True,15
15M20,542,experiment,144,←,left,←,0.5658125998452306,True,15
15M20,543,experiment,120,→,right,→,0.7528270999900997,True,15
15M20,544,experiment,60,→,left,←,0.5429942002519965,False,15
15M20,545,experiment,168,↑,up,↑,0.5403155996464193,True,15
15M20,546,experiment,120,↑,up,↑,0.4813010999932885,True,15
15M20,547,experiment,132,↓,down,↓,0.6622322001494467,True,15
15M20,548,experiment,156,→,left,←,0.6529656001366675,False,15
15M20,549,experiment,24,↓,down,↓,0.6539268000051379,True,15
15M20,550,experiment,84,↓,down,↓,0.6091427002102137,True,15
15M20,551,experiment,108,→,right,→,1.001965899951756,True,15
15M20,552,experiment,168,←,down,↓,1.0308194998651743,False,15
15M20,553,experiment,96,→,right,→,0.5899630999192595,True,15
15M20,554,experiment,12,↓,down,↓,0.8929162002168596,True,15
15M20,555,experiment,12,↓,up,↑,0.7642063000239432,False,15
15M20,556,experiment,36,→,right,→,0.7041993997991085,True,15
15M20,557,experiment,156,←,left,←,0.5995335001498461,True,15
15M20,558,experiment,180,↓,down,↓,0.5893971999175847,True,15
15M20,559,experiment,48,↓,down,↓,0.6835044999606907,True,15
15M20,560,experiment,36,↓,down,↓,0.7117463001050055,True,15
15M20,561,experiment,84,↑,up,↑,0.5755814001895487,True,15
15M20,562,experiment,168,←,left,←,0.5995557000860572,True,15
15M20,563,experiment,48,←,left,←,0.5525541002862155,True,15
15M20,564,experiment,24,←,left,←,0.5940264002420008,True,15
15M20,565,experiment,96,→,left,←,0.7483772998675704,False,15
15M20,566,experiment,12,↓,down,↓,0.7392617003060877,True,15
15M20,567,experiment,72,→,right,→,0.5759088001213968,True,15
15M20,568,experiment,24,↑,down,↓,0.7186728999949992,False,15
15M20,569,experiment,120,←,left,←,0.5822573998011649,True,15
15M20,570,experiment,48,→,right,→,0.7494506002403796,True,15
15M20,571,experiment,60,↑,down,↓,0.6491632000543177,False,15
15M20,572,experiment,156,→,left,←,0.4369449997320771,False,15
15M20,573,experiment,72,↓,down,↓,0.5903262998908758,True,15
15M20,574,experiment,144,→,right,→,0.6992078996263444,True,15
15M20,575,experiment,168,←,left,←,0.6401920998468995,True,15
15M20,576,experiment,108,→,right,→,0.6545152999460697,True,15
15M20,577,experiment,48,↑,down,↓,0.5912844999693334,False,15
15M20,578,experiment,180,↓,down,↓,0.5481403996236622,True,15
15M20,579,experiment,108,↓,left,←,1.3047658000141382,False,15
15M20,580,experiment,180,↓,down,↓,0.516637499909848,True,15
15M20,581,experiment,84,↑,up,↑,0.6585264997556806,True,15
15M20,582,experiment,84,→,right,→,0.6554348999634385,True,15
15M20,583,experiment,36,↓,down,↓,0.601513999979943,True,15
15M20,584,experiment,24,←,left,←,0.8739188998006284,True,15
15M20,585,experiment,156,←,left,←,0.6691397000104189,True,15
15M20,586,experiment,12,→,right,→,0.9377573998644948,True,15
15M20,587,experiment,144,↓,down,↓,0.5604640999808908,True,15
15M20,588,experiment,144,↑,down,↓,0.6315577998757362,False,15
15M20,589,experiment,96,→,right,→,0.7954778000712395,True,15
15M20,590,experiment,72,↓,down,↓,0.6047553000971675,True,15
15M20,591,experiment,108,↓,down,↓,0.5667000999674201,True,15
15M20,592,experiment,120,←,right,→,0.7911101998761296,False,15
15M20,593,experiment,36,→,right,→,0.50049850018695,True,15
15M20,594,experiment,60,↓,down,↓,0.5838138000108302,True,15
15M20,595,experiment,180,↑,down,↓,0.5753836999647319,False,15
15M20,596,experiment,60,←,down,↓,0.6211680001579225,False,15
15M20,597,experiment,96,↑,down,↓,0.5378736997954547,False,15
15M20,598,training,180,→,right,→,0.6101862001232803,True,15
15M20,599,training,84,→,right,→,0.7185287000611424,True,15
15M20,600,training,96,↓,down,↓,0.686497500166297,True,15
15M20,601,experiment,144,↓,down,↓,0.7885453999042511,True,15
15M20,602,experiment,168,←,left,←,0.8208694001659751,True,15
15M20,603,experiment,156,←,left,←,0.5095796999521554,True,15
15M20,604,experiment,180,↓,down,↓,0.7439259998500347,True,15
15M20,605,experiment,72,↑,down,↓,0.5868617999367416,False,15
15M20,606,experiment,24,←,left,←,0.6270469003356993,True,15
15M20,607,experiment,168,→,down,↓,0.7967996997758746,False,15
15M20,608,experiment,108,↓,down,↓,0.5766892000101507,True,15
15M20,609,experiment,144,→,right,→,0.5819300999864936,True,15
15M20,610,experiment,180,←,left,←,0.580706300213933,True,15
15M20,611,experiment,96,↓,down,↓,0.5770032000727952,True,15
15M20,612,experiment,12,↓,down,↓,0.5324611002579331,True,15
15M20,613,experiment,72,↑,down,↓,0.6434025000780821,False,15
15M20,614,experiment,48,↑,up,↑,0.6149369003251195,True,15
15M20,615,experiment,168,↓,down,↓,0.6365844998508692,True,15
15M20,616,experiment,120,←,left,←,0.5876313000917435,True,15
15M20,617,experiment,72,↓,down,↓,0.6692046001553535,True,15
15M20,618,experiment,120,←,left,←,0.5085505000315607,True,15
15M20,619,experiment,12,←,right,→,1.3043613997288048,False,15
15M20,620,experiment,24,←,left,←,0.5050427997484803,True,15
15M20,621,experiment,96,↑,down,↓,0.6171621000394225,False,15
15M20,622,experiment,84,→,left,←,0.5561767001636326,False,15
15M20,623,experiment,156,←,left,←,0.4274912001565099,True,15
15M20,624,experiment,60,↓,down,↓,0.6103598000481725,True,15
15M20,625,experiment,36,←,left,←,1.0692519000731409,True,15
15M20,626,experiment,24,↓,down,↓,0.5276164002716541,True,15
15M20,627,experiment,24,↓,up,↑,0.6411284999921918,False,15
15M20,628,experiment,120,←,left,←,0.5741465003229678,True,15
15M20,629,experiment,72,←,left,←,0.5027161999605596,True,15
15M20,630,experiment,60,→,left,←,0.8654944999143481,False,15
15M20,631,experiment,60,↑,up,↑,0.5090502998791635,True,15
15M20,632,experiment,108,→,left,←,0.6177685996517539,False,15
15M20,633,experiment,132,↑,down,↓,1.0970300999470055,False,15
15M20,634,experiment,84,→,left,←,0.6922812000848353,False,15
15M20,635,experiment,84,←,left,←,0.5224687000736594,True,15
15M20,636,experiment,12,←,right,→,0.7889701002277434,False,15
15M20,637,experiment,84,→,left,←,0.5057557998225093,False,15
15M20,638,experiment,108,↑,up,↑,0.7118470002897084,True,15
15M20,639,experiment,132,↓,down,↓,0.708565799985081,True,15
15M20,640,experiment,36,←,left,←,0.6579730999656022,True,15
15M20,641,experiment,60,↓,down,↓,0.6033457000739872,True,15
15M20,642,experiment,48,←,left,←,0.5870765000581741,True,15
15M20,643,experiment,156,→,left,←,1.0742946001701057,False,15
15M20,644,experiment,132,↑,up,↑,0.6152778002433479,True,15
15M20,645,experiment,180,↑,up,↑,0.8405553000047803,True,15
15M20,646,experiment,36,↓,left,←,1.068169199861586,False,15
15M20,647,experiment,180,→,left,←,0.5678089996799827,False,15
15M20,648,experiment,96,←,left,←,0.487045600079,True,15
15M20,649,experiment,48,←,left,←,0.6379925003275275,True,15
15M20,650,experiment,132,→,left,←,0.509097300004214,False,15
15M20,651,experiment,96,↓,down,↓,0.6462807999923825,True,15
15M20,652,experiment,156,←,left,←,0.6972922002896667,True,15
15M20,653,experiment,108,←,left,←,0.4968313998542726,True,15
15M20,654,experiment,36,→,left,←,0.4818599000573158,False,15
15M20,655,experiment,144,↓,down,↓,0.7212793999351561,True,15
15M20,656,experiment,120,←,left,←,0.5076572000980377,True,15
15M20,657,experiment,144,←,left,←,0.5338817001320422,True,15
15M20,658,experiment,168,↓,down,↓,0.5416084001772106,True,15
15M20,659,experiment,12,↑,down,↓,0.5351061001420021,False,15
15M20,660,experiment,48,→,left,←,0.693472099956125,False,15
15M20,661,training,180,↓,down,↓,0.7903303997591138,True,15
15M20,662,training,144,←,right,→,0.7393732997588813,False,15
15M20,663,training,120,↑,up,↑,0.542425099760294,True,15
15M20,664,experiment,24,←,left,←,0.6116042998619378,True,15
15M20,665,experiment,108,↑,up,↑,0.634151500184089,True,15
15M20,666,experiment,156,↑,up,↑,0.60477240011096,True,15
15M20,667,experiment,60,→,left,←,0.9257239000871778,False,15
15M20,668,experiment,84,↑,up,↑,0.5582782998681068,True,15
15M20,669,experiment,96,←,right,→,0.6207785997539759,False,15
15M20,670,experiment,144,↓,up,↑,0.6365245999768376,False,15
15M20,671,experiment,36,↓,up,↑,0.5258541000075638,False,15
15M20,672,experiment,72,→,right,→,0.6148498998954892,True,15
15M20,673,experiment,180,↑,up,↑,0.5628432999365032,True,15
15M20,674,experiment,60,→,left,←,0.7321407999843359,False,15
15M20,675,experiment,120,↑,up,↑,0.912268300075084,True,15
15M20,676,experiment,48,←,left,←,0.49969839956611395,True,15
15M20,677,experiment,120,↑,up,↑,0.5137078003026545,True,15
15M20,678,experiment,48,←,left,←,0.6653905003331602,True,15
15M20,679,experiment,36,↑,up,↑,0.580761699937284,True,15
15M20,680,experiment,96,←,left,←,0.5797609002329409,True,15
15M20,681,experiment,120,↓,up,↑,0.645392999984324,False,15
15M20,682,experiment,132,→,left,←,0.56944809993729,False,15
15M20,683,experiment,72,→,left,←,0.8609547996893525,False,15
15M20,684,experiment,168,↑,up,↑,0.45604810025542974,True,15
15M20,685,experiment,144,↑,up,↑,0.5035790000110865,True,15
15M20,686,experiment,60,←,left,←,0.5125365001149476,True,15
15M20,687,experiment,120,↓,up,↑,0.5339784002862871,False,15
15M20,688,experiment,24,↓,up,↑,0.5251711001619697,False,15
15M20,689,experiment,84,→,left,←,0.6729461001232266,False,15
15M20,690,experiment,24,↑,up,↑,0.4734710999764502,True,15
15M20,691,experiment,168,↑,up,↑,0.47121729981154203,True,15
15M20,692,experiment,72,←,left,←,0.49601720040664077,True,15
15M20,693,experiment,12,↓,up,↑,0.5183933000080287,False,15
15M20,694,experiment,144,↑,up,↑,0.45070300018414855,True,15
15M20,695,experiment,36,→,right,→,0.4276417000219226,True,15
15M20,696,experiment,12,↑,up,↑,0.6149168000556529,True,15
15M20,697,experiment,108,↑,up,↑,0.4992937003262341,True,15
15M20,698,experiment,132,←,left,←,0.4795291000045836,True,15
15M20,699,experiment,24,↑,left,←,0.5791597003117204,False,15
15M20,700,experiment,84,↑,up,↑,0.4490495999343693,True,15
15M20,701,experiment,12,←,left,←,1.0055291000753641,True,15
15M20,702,experiment,72,↓,up,↑,0.7040308001451194,False,15
15M20,703,experiment,96,↓,down,↓,0.6640312001109123,True,15
15M20,704,experiment,156,→,up,↑,0.7984771002084017,False,15
15M20,705,experiment,168,↓,up,↑,0.8058793996460736,False,15
15M20,706,experiment,156,←,left,←,0.5034211003221571,True,15
15M20,707,experiment,168,→,left,←,0.5986468996852636,False,15
15M20,708,experiment,180,←,left,←,0.5331083000637591,True,15
15M20,709,experiment,132,↓,up,↑,0.8708176999352872,False,15
15M20,710,experiment,12,↓,left,←,0.9090324002318084,False,15
15M20,711,experiment,84,↓,down,↓,0.7035858002491295,True,15
15M20,712,experiment,96,↑,up,↑,0.47164939995855093,True,15
15M20,713,experiment,180,←,left,←,0.5223068003542721,True,15
15M20,714,experiment,144,↓,up,↑,0.568884199950844,False,15
15M20,715,experiment,108,↑,up,↑,0.4862850997596979,True,15
15M20,716,experiment,156,↓,down,↓,0.550982799846679,True,15
15M20,717,experiment,36,↑,up,↑,0.6059824000112712,True,15
15M20,718,experiment,48,↓,down,↓,0.7402976001612842,True,15
15M20,719,experiment,132,↓,up,↑,0.7113720001652837,False,15
15M20,720,experiment,48,↓,up,↑,0.6524102999828756,False,15
15M20,721,experiment,180,→,left,←,0.47358829993754625,False,15
15M20,722,experiment,108,↓,left,←,0.8121755998581648,False,15
15M20,723,experiment,60,↓,down,↓,0.6068416996859014,True,15
15M20,724,training,60,→,left,←,1.3508725999854505,False,15
15M20,725,training,24,←,left,←,0.6859220000915229,True,15
15M20,726,training,84,←,left,←,0.5932620000094175,True,15
15M20,727,experiment,180,←,left,←,0.838701999746263,True,15
15M20,728,experiment,120,↓,down,↓,0.8203011001460254,True,15
15M20,729,experiment,132,→,left,←,0.46033399971202016,False,15
15M20,730,experiment,36,↓,left,←,0.5940970000810921,False,15
15M20,731,experiment,36,↑,up,↑,0.5698947999626398,True,15
15M20,732,experiment,72,←,up,↑,0.7291651000268757,False,15
15M20,733,experiment,108,←,left,←,0.6148081999272108,True,15
15M20,734,experiment,132,→,left,←,0.4555826000869274,False,15
15M20,735,experiment,24,↓,down,↓,0.8131463997997344,True,15
15M20,736,experiment,96,↑,up,↑,0.5026408997364342,True,15
15M20,737,experiment,168,←,left,←,0.5297969998791814,True,15
15M20,738,experiment,180,↓,down,↓,0.6393359997309744,True,15
15M20,739,experiment,84,↑,left,←,0.84164800029248,False,15
15M20,740,experiment,180,←,left,←,0.45528570003807545,True,15
15M20,741,experiment,108,→,right,→,0.5469621000811458,True,15
15M20,742,experiment,132,→,right,→,1.069377699866891,True,15
15M20,743,experiment,60,↑,up,↑,0.5830780998803675,True,15
15M20,744,experiment,96,→,right,→,0.5112522998824716,True,15
15M20,745,experiment,48,↑,up,↑,0.543418699875474,True,15
15M20,746,experiment,96,↓,down,↓,0.6331742997281253,True,15
15M20,747,experiment,48,←,left,←,0.5123566999100149,True,15
15M20,748,experiment,84,↓,down,↓,0.6459392001852393,True,15
15M20,749,experiment,48,←,left,←,0.4973846999928355,True,15
15M20,750,experiment,60,↓,down,↓,0.7229964002035558,True,15
15M20,751,experiment,12,→,right,→,0.7745848000049591,True,15
15M20,752,experiment,12,←,left,←,1.0165980998426676,True,15
15M20,753,experiment,120,←,left,←,0.4350348999723792,True,15
15M20,754,experiment,24,←,no_key,no_letter,-1.0,False,15
15M20,755,experiment,120,→,left,←,1.6643905998207629,False,15
15M20,756,experiment,36,↑,down,↓,0.682039299979806,False,15
15M20,757,experiment,60,←,left,←,0.5185253997333348,True,15
15M20,758,experiment,132,↑,down,↓,0.6349313003011048,False,15
15M20,759,experiment,108,↑,up,↑,0.6017247997224331,True,15
15M20,760,experiment,12,↓,down,↓,0.5397660001181066,True,15
15M20,761,experiment,84,→,left,←,0.5455509000457823,False,15
15M20,762,experiment,156,←,left,←,0.5188237000256777,True,15
15M20,763,experiment,108,↑,up,↑,0.5108042000792921,True,15
15M20,764,experiment,72,←,left,←,0.5131736998446286,True,15
15M20,765,experiment,36,←,left,←,0.637092299759388,True,15
15M20,766,experiment,168,↑,up,↑,0.564329800195992,True,15
15M20,767,experiment,156,↓,down,↓,0.5978211998008192,True,15
15M20,768,experiment,48,↓,down,↓,0.5701688001863658,True,15
15M20,769,experiment,156,↓,down,↓,0.6372567000798881,True,15
15M20,770,experiment,168,←,left,←,0.3838794999755919,True,15
15M20,771,experiment,84,→,right,→,0.5910362997092307,True,15
15M20,772,experiment,96,→,right,→,0.601729900110513,True,15
15M20,773,experiment,144,↑,left,←,1.0112744001671672,False,15
15M20,774,experiment,144,↑,up,↑,0.5625439998693764,True,15
15M20,775,experiment,12,↑,up,↑,1.7763788001611829,True,15
15M20,776,experiment,180,→,right,→,1.1980095002800226,True,15
15M20,777,experiment,72,↓,down,↓,0.5894555998966098,True,15
15M20,778,experiment,24,↑,up,↑,0.5452355002053082,True,15
15M20,779,experiment,24,←,left,←,0.8344694999977946,True,15
15M20,780,experiment,120,↓,down,↓,0.5620471998117864,True,15
15M20,781,experiment,72,→,down,↓,0.787151699885726,False,15
15M20,782,experiment,144,↓,down,↓,0.6439454997889698,True,15
15M20,783,experiment,156,↓,down,↓,0.6268803002312779,True,15
15M20,784,experiment,144,←,left,←,0.5939937997609377,True,15
15M20,785,experiment,60,↑,up,↑,0.5151390000246465,True,15
15M20,786,experiment,168,→,left,←,0.5543828997761011,False,15
15M20,787,training,48,→,right,→,0.6018308997154236,True,15
15M20,788,training,12,→,right,→,0.4924921002238989,True,15
15M20,789,training,48,→,right,→,0.4842954999767244,True,15
15M20,790,experiment,60,←,left,←,0.4328951998613775,True,15
15M20,791,experiment,24,→,left,←,0.4306168002076447,False,15
15M20,792,experiment,84,↑,up,↑,0.63521150033921,True,15
15M20,793,experiment,12,←,left,←,0.5992204998619854,True,15
15M20,794,experiment,168,→,right,→,0.5683983997441828,True,15
15M20,795,experiment,132,←,left,←,0.4611877999268472,True,15
15M20,796,experiment,96,←,left,←,0.4533430999144912,True,15
15M20,797,experiment,36,↓,up,↑,0.64870909973979,False,15
15M20,798,experiment,60,↓,left,←,0.4499435997568071,False,15
15M20,799,experiment,72,↑,up,↑,0.4893753002397716,True,15
15M20,800,experiment,156,←,left,←,0.811281000263989,True,15
15M20,801,experiment,36,←,left,←,0.6081929001957178,True,15
15M20,802,experiment,12,↑,up,↑,0.5915840002708137,True,15
15M20,803,experiment,72,↑,up,↑,0.48111410019919276,True,15
15M20,804,experiment,168,→,right,→,0.5409503998234868,True,15
15M20,805,experiment,24,→,left,←,0.8302591000683606,False,15
15M20,806,experiment,24,→,left,←,0.5405735997483134,False,15
15M20,807,experiment,180,←,left,←,0.5559829999692738,True,15
15M20,808,experiment,60,↓,down,↓,0.6385881998576224,True,15
15M20,809,experiment,168,↑,up,↑,0.4263891000300646,True,15
15M20,810,experiment,180,→,left,←,0.7472699997015297,False,15
15M20,811,experiment,36,→,left,←,0.5814554002135992,False,15
15M20,812,experiment,144,←,left,←,0.45842629997059703,True,15
15M20,813,experiment,120,↓,up,↑,0.5312548000365496,False,15
15M20,814,experiment,84,↑,up,↑,1.0236272001639009,True,15
15M20,815,experiment,96,→,left,←,0.6244112001731992,False,15
15M20,816,experiment,48,↓,up,↑,0.46459069987758994,False,15
15M20,817,experiment,156,↓,down,↓,0.791945000179112,True,15
15M20,818,experiment,156,↓,down,↓,0.6754008997231722,True,15
15M20,819,experiment,72,←,left,←,0.7156806997954845,True,15
15M20,820,experiment,120,←,left,←,0.4695880003273487,True,15
15M20,821,experiment,180,←,left,←,0.3672667001374066,True,15
15M20,822,experiment,108,→,left,←,0.5571922999806702,False,15
15M20,823,experiment,36,↓,down,↓,0.5854858001694083,True,15
15M20,824,experiment,84,↑,down,↓,1.5328207002021372,False,15
15M20,825,experiment,72,↑,up,↑,0.596341600175947,True,15
15M20,826,experiment,108,↓,down,↓,0.6175231002271175,True,15
15M20,827,experiment,12,→,right,→,0.6295016002841294,True,15
15M20,828,experiment,132,→,left,←,0.42790740029886365,False,15
15M20,829,experiment,84,↓,down,↓,0.5548161999322474,True,15
15M20,830,experiment,156,↑,down,↓,0.5557166999205947,False,15
15M20,831,experiment,120,→,left,←,0.6137674003839493,False,15
15M20,832,experiment,108,←,left,←,0.5806078999303281,True,15
15M20,833,experiment,48,→,left,←,0.5270955003798008,False,15
15M20,834,experiment,132,↑,up,↑,0.6515445001423359,True,15
15M20,835,experiment,48,→,left,←,0.509383900091052,False,15
15M20,836,experiment,132,↓,down,↓,0.5469029997475445,True,15
15M20,837,experiment,48,←,left,←,0.46191189996898174,True,15
15M20,838,experiment,12,←,left,←,0.4829636001959443,True,15
15M20,839,experiment,144,↑,up,↑,0.6045953999273479,True,15
15M20,840,experiment,144,↑,down,↓,0.6186422999016941,False,15
15M20,841,experiment,24,↑,down,↓,0.5343430996872485,False,15
15M20,842,experiment,120,→,left,←,0.4202155997045338,False,15
15M20,843,experiment,96,↓,up,↑,0.5824647997505963,False,15
15M20,844,experiment,144,↑,up,↑,0.6246043997816741,True,15
15M20,845,experiment,60,←,left,←,0.5794031000696123,True,15
15M20,846,experiment,108,←,left,←,0.5673982002772391,True,15
15M20,847,experiment,180,→,left,←,0.46658769994974136,False,15
15M20,848,experiment,168,←,left,←,0.4701483999378979,True,15
15M20,849,experiment,96,↓,left,←,0.7821607999503613,False,15
