PART_ID,Trial_no,Trial_type,PDI,Stim_letter,Key_pressed,letter_choose,Rt,Corr,Stimulus Time
16K31,1,training,10,←,right,→,1.8415398999932222,False,30
16K31,2,training,10,↓,down,↓,1.519111800007522,True,30
16K31,3,training,10,↑,up,↑,1.0142660000128672,True,30
16K31,4,training,10,←,right,→,1.9256898000021465,False,30
16K31,5,training,10,→,right,→,0.6771088999812491,True,30
16K31,6,training,10,←,left,←,1.2012047999887727,True,30
16K31,7,training,10,↑,up,↑,1.2539034999790601,True,30
16K31,8,training,10,↑,up,↑,1.111059800023213,True,30
16K31,9,training,10,↓,down,↓,1.233412200002931,True,30
16K31,10,training,10,↓,down,↓,1.237477399990894,True,30
16K31,11,training,10,←,left,←,1.0145972999744117,True,30
16K31,12,training,10,↓,down,↓,1.075896299968008,True,30
16K31,13,training,10,↓,down,↓,1.1498966999934055,True,30
16K31,14,training,10,↓,down,↓,1.2166468999930657,True,30
16K31,15,training,10,→,down,↓,1.1430087000480853,False,30
16K31,16,training,10,↓,down,↓,1.069040699978359,True,30
16K31,17,training,10,↓,down,↓,1.092130700009875,True,30
16K31,18,training,10,←,left,←,0.8567955999751575,True,30
16K31,19,training,10,←,left,←,1.0175559000344947,True,30
16K31,20,training,10,↓,down,↓,1.1179714999743737,True,30
16K31,21,training,10,→,left,←,1.2035942999646068,False,18
16K31,22,training,10,↑,up,↑,0.7287610999774188,True,18
16K31,23,training,10,←,left,←,0.6784419000032358,True,18
16K31,24,training,10,→,down,↓,0.8042428999906406,False,18
16K31,25,training,10,↓,down,↓,0.6928380000172183,True,18
16K31,26,training,10,→,right,→,0.7684676999924704,True,18
16K31,27,training,10,→,right,→,0.7170809000381269,True,18
16K31,28,training,10,↓,left,←,0.9699617000296712,False,18
16K31,29,training,10,←,left,←,0.8091077000135556,True,18
16K31,30,training,10,↑,up,↑,0.7324973000213504,True,18
16K31,31,training,108,↓,down,↓,0.6603629000019282,True,15
16K31,32,training,120,→,right,→,0.9620989999966696,True,15
16K31,33,training,60,↑,right,→,1.0680390000343323,False,15
16K31,34,experiment,132,→,left,←,1.398049900017213,False,15
16K31,35,experiment,48,←,left,←,1.0686890999786556,True,15
16K31,36,experiment,144,↓,down,↓,1.024293199996464,True,15
16K31,37,experiment,36,↑,down,↓,0.799205899995286,False,15
16K31,38,experiment,24,↑,down,↓,0.9649130000034347,False,15
16K31,39,experiment,120,↓,left,←,0.9394943000515923,False,15
16K31,40,experiment,168,↓,down,↓,1.1514275999506935,True,15
16K31,41,experiment,60,←,down,↓,1.3154774999711663,False,15
16K31,42,experiment,180,←,left,←,0.7562739999848418,True,15
16K31,43,experiment,180,↑,left,←,1.026682699972298,False,15
16K31,44,experiment,108,↑,no_key,no_letter,-1.0,False,15
16K31,45,experiment,120,↓,left,←,0.9590374999679625,False,15
16K31,46,experiment,132,←,left,←,0.7598167000105605,True,15
16K31,47,experiment,144,←,left,←,0.9679066999815404,True,15
16K31,48,experiment,120,↓,left,←,0.975200799992308,False,15
16K31,49,experiment,84,←,left,←,1.7255966999800876,True,15
16K31,50,experiment,48,←,left,←,0.6760741000180133,True,15
16K31,51,experiment,36,↑,up,↑,0.987155899987556,True,15
16K31,52,experiment,48,→,right,→,1.022864899947308,True,15
16K31,53,experiment,84,→,left,←,0.8866012000362389,False,15
16K31,54,experiment,72,←,right,→,1.3878509000060149,False,15
16K31,55,experiment,156,↑,up,↑,0.7707085000001825,True,15
16K31,56,experiment,12,↓,up,↑,1.1887068999931216,False,15
16K31,57,experiment,132,←,left,←,1.0391390000004321,True,15
16K31,58,experiment,132,↓,up,↑,0.8951708999811672,False,15
16K31,59,experiment,180,←,left,←,0.6873610999900848,True,15
16K31,60,experiment,168,↓,left,←,0.981548199953977,False,15
16K31,61,experiment,120,←,left,←,0.5900606999639422,True,15
16K31,62,experiment,48,→,left,←,0.6578373999800533,False,15
16K31,63,experiment,108,↑,right,→,0.8227651999914087,False,15
16K31,64,experiment,96,→,left,←,0.7998595000244677,False,15
16K31,65,experiment,96,←,left,←,0.9513878999860026,True,15
16K31,66,experiment,36,→,right,→,0.7213140000239946,True,15
16K31,67,experiment,60,→,up,↑,0.8257691999897361,False,15
16K31,68,experiment,24,↓,down,↓,1.0779395999852568,True,15
16K31,69,experiment,72,→,right,→,0.6313233000109904,True,15
16K31,70,experiment,108,←,left,←,0.6628581000259146,True,15
16K31,71,experiment,84,←,left,←,0.7207897999905981,True,15
16K31,72,experiment,24,←,left,←,0.7394256999832578,True,15
16K31,73,experiment,108,→,right,→,0.5407735999906436,True,15
16K31,74,experiment,96,↓,down,↓,1.051641199970618,True,15
16K31,75,experiment,12,↑,up,↑,1.3813001999515109,True,15
16K31,76,experiment,12,←,left,←,0.6390292000141926,True,15
16K31,77,experiment,168,↓,right,→,1.0298338000429794,False,15
16K31,78,experiment,12,↑,up,↑,0.9551691000233404,True,15
16K31,79,experiment,72,←,left,←,0.4873194000101648,True,15
16K31,80,experiment,24,→,right,→,0.7467446000082418,True,15
16K31,81,experiment,156,→,right,→,0.5227244999841787,True,15
16K31,82,experiment,156,↑,up,↑,1.4540377999655902,True,15
16K31,83,experiment,72,↓,right,→,0.969398999994155,False,15
16K31,84,experiment,60,↓,right,→,0.8353764999774285,False,15
16K31,85,experiment,60,↓,down,↓,0.9983118000091054,True,15
16K31,86,experiment,144,←,right,→,1.114646400033962,False,15
16K31,87,experiment,156,←,left,←,0.8332552000065334,True,15
16K31,88,experiment,144,→,left,←,0.7527991000097245,False,15
16K31,89,experiment,168,↑,up,↑,1.2648309000069275,True,15
16K31,90,experiment,180,←,left,←,0.7360117000062019,True,15
16K31,91,experiment,84,→,left,←,0.9647535000112839,False,15
16K31,92,experiment,36,→,right,→,0.999229299952276,True,15
16K31,93,experiment,96,↓,left,←,0.853703000000678,False,15
16K31,94,training,72,↓,left,←,1.2558123999624513,False,16
16K31,95,training,156,↓,down,↓,1.0460223999689333,True,16
16K31,96,training,48,→,right,→,0.6790311000077054,True,16
16K31,97,experiment,12,↓,down,↓,0.7259484000387602,True,16
16K31,98,experiment,120,↓,down,↓,1.0070923999883235,True,16
16K31,99,experiment,24,↓,left,←,0.9202639000141062,False,16
16K31,100,experiment,48,↓,left,←,0.846164199989289,False,16
16K31,101,experiment,120,↑,left,←,1.120264799974393,False,16
16K31,102,experiment,96,→,right,→,0.732487500004936,True,16
16K31,103,experiment,96,←,left,←,1.3429296999820508,True,16
16K31,104,experiment,60,↑,down,↓,1.26048830000218,False,16
16K31,105,experiment,96,↓,right,→,1.3378820999641903,False,16
16K31,106,experiment,144,←,left,←,0.955999800004065,True,16
16K31,107,experiment,72,←,left,←,0.6358644999563694,True,16
16K31,108,experiment,180,→,right,→,1.2271898000035435,True,16
16K31,109,experiment,72,→,right,→,0.5285349999903701,True,16
16K31,110,experiment,60,↑,up,↑,1.1300506999832578,True,16
16K31,111,experiment,132,→,left,←,0.851299200032372,False,16
16K31,112,experiment,24,→,right,→,0.5628377000102773,True,16
16K31,113,experiment,36,↑,up,↑,1.1723849999834783,True,16
16K31,114,experiment,96,↓,left,←,1.0664676000014879,False,16
16K31,115,experiment,108,←,left,←,0.8750467000063509,True,16
16K31,116,experiment,72,↓,left,←,0.8257334000081755,False,16
16K31,117,experiment,144,←,left,←,0.7867117999703623,True,16
16K31,118,experiment,84,↑,up,↑,0.7027174000395462,True,16
16K31,119,experiment,48,↑,up,↑,0.5874089000280946,True,16
16K31,120,experiment,180,→,left,←,0.8483055999968201,False,16
16K31,121,experiment,156,↓,up,↑,0.7059380999999121,False,16
16K31,122,experiment,180,→,left,←,0.7215523999766447,False,16
16K31,123,experiment,120,↑,up,↑,0.44376809999812394,True,16
16K31,124,experiment,48,↑,right,→,0.7793872999609448,False,16
16K31,125,experiment,168,→,up,↑,0.9421337000094354,False,16
16K31,126,experiment,168,←,up,↑,0.8690366999944672,False,16
16K31,127,experiment,84,→,right,→,0.6644109999760985,True,16
16K31,128,experiment,108,←,left,←,0.7393087999662384,True,16
16K31,129,experiment,120,←,left,←,0.9248995000380091,True,16
16K31,130,experiment,144,↓,left,←,0.8607336999848485,False,16
16K31,131,experiment,180,↑,up,↑,0.8411129000014625,True,16
16K31,132,experiment,108,↑,right,→,0.9221635999856517,False,16
16K31,133,experiment,156,↓,up,↑,0.8910818000440486,False,16
16K31,134,experiment,60,→,left,←,0.8699918999918737,False,16
16K31,135,experiment,168,→,left,←,1.0660394000005908,False,16
16K31,136,experiment,36,→,up,↑,1.3318951000110246,False,16
16K31,137,experiment,12,↑,up,↑,0.7361717000021599,True,16
16K31,138,experiment,60,←,left,←,0.8056164999725297,True,16
16K31,139,experiment,24,→,left,←,1.0609307999839075,False,16
16K31,140,experiment,156,↑,left,←,0.9820675000082701,False,16
16K31,141,experiment,108,↓,down,↓,1.1858052000170574,True,16
16K31,142,experiment,132,↓,down,↓,0.7687241999665275,True,16
16K31,143,experiment,24,←,left,←,0.8089689000044018,True,16
16K31,144,experiment,36,→,down,↓,1.125947599997744,False,16
16K31,145,experiment,12,↑,down,↓,1.2957707000314258,False,16
16K31,146,experiment,156,→,right,→,0.6704623000114225,True,16
16K31,147,experiment,132,↓,down,↓,0.9205306000076234,True,16
16K31,148,experiment,144,←,left,←,0.7525868999655358,True,16
16K31,149,experiment,12,↑,left,←,0.8784977000323124,False,16
16K31,150,experiment,168,↑,up,↑,0.9232208000030369,True,16
16K31,151,experiment,48,←,left,←,1.0321819999953732,True,16
16K31,152,experiment,84,→,right,→,0.8460498999920674,True,16
16K31,153,experiment,36,↑,right,→,0.7899501000065356,False,16
16K31,154,experiment,132,→,right,→,0.6780277999932878,True,16
16K31,155,experiment,72,→,left,←,0.9591324999928474,False,16
16K31,156,experiment,84,↑,up,↑,1.179234399984125,True,16
16K31,157,training,36,→,up,↑,1.349905500013847,False,17
16K31,158,training,60,→,right,→,0.7901612000423484,True,17
16K31,159,training,168,←,left,←,0.889950199984014,True,17
16K31,160,experiment,168,←,left,←,0.8571867999853566,True,17
16K31,161,experiment,36,↓,right,→,1.214155399997253,False,17
16K31,162,experiment,48,←,no_key,no_letter,-1.0,False,17
16K31,163,experiment,180,↑,up,↑,0.8798582999734208,True,17
16K31,164,experiment,60,↓,down,↓,1.1539049999555573,True,17
16K31,165,experiment,120,←,left,←,0.7459495000075549,True,17
16K31,166,experiment,48,←,left,←,0.5952807000139728,True,17
16K31,167,experiment,60,←,right,→,1.21011990000261,False,17
16K31,168,experiment,12,↓,right,→,1.0494445000076666,False,17
16K31,169,experiment,72,↑,up,↑,0.4634776000166312,True,17
16K31,170,experiment,132,↑,up,↑,1.0717869000509381,True,17
16K31,171,experiment,48,→,right,→,0.7355955999810249,True,17
16K31,172,experiment,108,←,left,←,0.7259439000044949,True,17
16K31,173,experiment,72,↓,down,↓,0.8863992000115104,True,17
16K31,174,experiment,96,↓,down,↓,1.0776130000012927,True,17
16K31,175,experiment,132,←,left,←,0.7450540999998339,True,17
16K31,176,experiment,36,↓,down,↓,0.9124027999932878,True,17
16K31,177,experiment,168,←,left,←,0.7384860000456683,True,17
16K31,178,experiment,156,←,right,→,1.0633052000193857,False,17
16K31,179,experiment,156,↑,up,↑,0.853984399989713,True,17
16K31,180,experiment,72,↑,left,←,1.2235085999709554,False,17
16K31,181,experiment,96,↑,right,→,0.9458977999747731,False,17
16K31,182,experiment,144,↑,left,←,0.8575667999684811,False,17
16K31,183,experiment,12,↓,up,↑,0.9559358000406064,False,17
16K31,184,experiment,144,↓,down,↓,1.010026000032667,True,17
16K31,185,experiment,60,↓,down,↓,0.9499553000205196,True,17
16K31,186,experiment,72,←,left,←,0.6453283000155352,True,17
16K31,187,experiment,120,↓,down,↓,0.8931112000136636,True,17
16K31,188,experiment,180,→,right,→,0.7201987000298686,True,17
16K31,189,experiment,24,↑,down,↓,0.9657772000064142,False,17
16K31,190,experiment,84,↓,left,←,1.3415426000137813,False,17
16K31,191,experiment,144,→,right,→,0.6781154000200331,True,17
16K31,192,experiment,36,↑,right,→,0.9329612999572419,False,17
16K31,193,experiment,108,↓,down,↓,0.8883863000082783,True,17
16K31,194,experiment,108,↑,left,←,1.2544157999800518,False,17
16K31,195,experiment,24,↓,down,↓,0.9390492000384256,True,17
16K31,196,experiment,120,↓,down,↓,0.8941027999971993,True,17
16K31,197,experiment,156,→,right,→,1.1382304000435397,True,17
16K31,198,experiment,36,←,left,←,0.924413500004448,True,17
16K31,199,experiment,24,←,left,←,0.8361231000162661,True,17
16K31,200,experiment,132,→,left,←,1.3146943000028841,False,17
16K31,201,experiment,12,→,right,→,0.6892710000392981,True,17
16K31,202,experiment,24,→,right,→,0.795201700006146,True,17
16K31,203,experiment,108,↓,left,←,1.028749399993103,False,17
16K31,204,experiment,96,→,right,→,0.7244787000236101,True,17
16K31,205,experiment,156,←,left,←,0.8637659000232816,True,17
16K31,206,experiment,180,→,right,→,0.7839556999970227,True,17
16K31,207,experiment,132,→,right,→,0.4936398999998346,True,17
16K31,208,experiment,84,↓,down,↓,0.9813109000097029,True,17
16K31,209,experiment,144,↑,up,↑,0.7661195000400767,True,17
16K31,210,experiment,84,↓,down,↓,0.8795221999753267,True,17
16K31,211,experiment,168,←,left,←,0.7177530999761075,True,17
16K31,212,experiment,84,↓,right,→,0.9705053000361659,False,17
16K31,213,experiment,168,←,left,←,0.7632650000159629,True,17
16K31,214,experiment,120,↓,left,←,1.365541499981191,False,17
16K31,215,experiment,96,←,left,←,0.7587365999934264,True,17
16K31,216,experiment,180,↓,left,←,0.8399835000163876,False,17
16K31,217,experiment,48,↓,down,↓,0.9889915999956429,True,17
16K31,218,experiment,60,↓,down,↓,0.7907525000046007,True,17
16K31,219,experiment,12,←,down,↓,1.738014700007625,False,17
16K31,220,training,120,→,right,→,1.2746684000012465,True,17
16K31,221,training,180,→,right,→,0.8620912000187673,True,17
16K31,222,training,24,←,left,←,0.8374393999692984,True,17
16K31,223,experiment,48,→,right,→,0.6637486999970861,True,17
16K31,224,experiment,84,→,right,→,1.0631888000061736,True,17
16K31,225,experiment,96,←,left,←,0.7180954000214115,True,17
16K31,226,experiment,36,←,left,←,0.5612123999744654,True,17
16K31,227,experiment,36,→,left,←,0.9277558000176214,False,17
16K31,228,experiment,120,↑,up,↑,0.6241155999596231,True,17
16K31,229,experiment,24,↓,down,↓,1.0104946999927051,True,17
16K31,230,experiment,36,↑,up,↑,0.8264027999830432,True,17
16K31,231,experiment,24,→,right,→,0.647826400003396,True,17
16K31,232,experiment,84,←,left,←,1.0319677999941632,True,17
16K31,233,experiment,24,→,right,→,0.767143799981568,True,17
16K31,234,experiment,108,←,left,←,0.7345971000031568,True,17
16K31,235,experiment,180,→,right,→,0.7033940000110306,True,17
16K31,236,experiment,156,↑,left,←,0.7969407999771647,False,17
16K31,237,experiment,144,→,right,→,0.7656339000095613,True,17
16K31,238,experiment,12,↑,left,←,0.7118200000259094,False,17
16K31,239,experiment,48,↓,down,↓,1.1038278000196442,True,17
16K31,240,experiment,144,↑,down,↓,1.1268198000034317,False,17
16K31,241,experiment,108,↑,up,↑,0.9325730999698862,True,17
16K31,242,experiment,96,↓,down,↓,1.473463200032711,True,17
16K31,243,experiment,12,←,right,→,1.501387500029523,False,17
16K31,244,experiment,72,←,left,←,1.1356876000063494,True,17
16K31,245,experiment,72,←,left,←,0.8003967999829911,True,17
16K31,246,experiment,120,←,left,←,0.7015040999976918,True,17
16K31,247,experiment,120,←,left,←,0.6926918000099249,True,17
16K31,248,experiment,60,↓,left,←,0.8638131999759935,False,17
16K31,249,experiment,72,→,right,→,0.6383960000239313,True,17
16K31,250,experiment,84,←,left,←,1.025352299970109,True,17
16K31,251,experiment,168,→,left,←,0.6498581999912858,False,17
16K31,252,experiment,180,→,right,→,0.7512066000490449,True,17
16K31,253,experiment,72,←,left,←,0.5943293999880552,True,17
16K31,254,experiment,48,↓,down,↓,1.0365549999987707,True,17
16K31,255,experiment,84,→,right,→,0.6635071999626234,True,17
16K31,256,experiment,168,↑,down,↓,1.0916921000462025,False,17
16K31,257,experiment,36,←,down,↓,1.0413321999949403,False,17
16K31,258,experiment,156,↑,up,↑,0.6059852999751456,True,17
16K31,259,experiment,60,↓,down,↓,0.8008672000141814,True,17
16K31,260,experiment,168,→,right,→,0.6706805999856442,True,17
16K31,261,experiment,144,↓,down,↓,1.177926300035324,True,17
16K31,262,experiment,180,↑,up,↑,0.6293915000278503,True,17
16K31,263,experiment,12,↑,up,↑,0.6705752999987453,True,17
16K31,264,experiment,180,←,left,←,0.7163722999976017,True,17
16K31,265,experiment,156,←,left,←,0.943880699982401,True,17
16K31,266,experiment,60,↓,down,↓,0.8475538000348024,True,17
16K31,267,experiment,132,↑,right,→,1.0748652999754995,False,17
16K31,268,experiment,96,↓,left,←,1.1754774999571964,False,17
16K31,269,experiment,132,↓,down,↓,0.8306149000418372,True,17
16K31,270,experiment,132,↓,left,←,1.213331000006292,False,17
16K31,271,experiment,108,↓,down,↓,1.482987699972,True,17
16K31,272,experiment,168,←,left,←,0.6973936999565922,True,17
16K31,273,experiment,48,→,right,→,0.6663827000302263,True,17
16K31,274,experiment,156,↓,down,↓,0.7451398999546655,True,17
16K31,275,experiment,60,↓,down,↓,0.7348278000135906,True,17
16K31,276,experiment,144,↑,up,↑,0.6319636999978684,True,17
16K31,277,experiment,12,→,right,→,1.0335694999666885,True,17
16K31,278,experiment,132,↑,left,←,0.746476000000257,False,17
16K31,279,experiment,24,↓,down,↓,0.7497901000315323,True,17
16K31,280,experiment,120,↓,down,↓,0.9495992999873124,True,17
16K31,281,experiment,108,←,down,↓,0.887137999990955,False,17
16K31,282,experiment,96,↑,up,↑,0.8155440000118688,True,17
16K31,283,training,24,→,right,→,0.9515589000075124,True,17
16K31,284,training,12,←,left,←,0.704305800027214,True,17
16K31,285,training,12,↓,down,↓,0.8169658000115305,True,17
16K31,286,experiment,72,↑,up,↑,0.7115202999557368,True,17
16K31,287,experiment,24,↑,up,↑,0.4854645000305027,True,17
16K31,288,experiment,120,↑,up,↑,0.511632300040219,True,17
16K31,289,experiment,132,↓,down,↓,0.756131700007245,True,17
16K31,290,experiment,36,→,up,↑,1.3683097999892198,False,17
16K31,291,experiment,96,→,down,↓,1.2551942999707535,False,17
16K31,292,experiment,12,←,up,↑,0.7941048000357114,False,17
16K31,293,experiment,168,←,left,←,0.7902194000198506,True,17
16K31,294,experiment,132,↓,down,↓,0.8349121999926865,True,17
16K31,295,experiment,12,→,right,→,0.7846407000324689,True,17
16K31,296,experiment,132,←,right,→,0.8928424000041559,False,17
16K31,297,experiment,108,↓,down,↓,0.8190636999788694,True,17
16K31,298,experiment,108,←,down,↓,1.1323451999924146,False,17
16K31,299,experiment,36,→,right,→,0.7682875999598764,True,17
16K31,300,experiment,84,→,down,↓,0.8894850999931805,False,17
16K31,301,experiment,180,↑,down,↓,0.9686435000039637,False,17
16K31,302,experiment,156,↓,down,↓,0.8905445999698713,True,17
16K31,303,experiment,84,←,left,←,0.8623664000188,True,17
16K31,304,experiment,144,←,left,←,0.7665226000244729,True,17
16K31,305,experiment,168,↑,up,↑,0.6016254000132903,True,17
16K31,306,experiment,84,→,right,→,0.8945888000307605,True,17
16K31,307,experiment,144,←,left,←,0.6630579000338912,True,17
16K31,308,experiment,120,→,right,→,0.5841020999941975,True,17
16K31,309,experiment,24,↑,up,↑,1.1320683000376448,True,17
16K31,310,experiment,48,↑,up,↑,0.7467252000351436,True,17
16K31,311,experiment,156,↓,down,↓,1.1169314999715425,True,17
16K31,312,experiment,48,→,left,←,0.8439192000078037,False,17
16K31,313,experiment,48,↓,up,↑,0.7483574000070803,False,17
16K31,314,experiment,96,↑,up,↑,1.1933658000198193,True,17
16K31,315,experiment,60,→,right,→,0.5769562000059523,True,17
16K31,316,experiment,72,←,left,←,0.7916210999828763,True,17
16K31,317,experiment,96,→,right,→,0.6213006000034511,True,17
16K31,318,experiment,168,←,left,←,0.8546961999963969,True,17
16K31,319,experiment,60,←,right,→,1.0059933999436907,False,17
16K31,320,experiment,84,←,left,←,0.8835345000261441,True,17
16K31,321,experiment,144,↓,left,←,0.8054233000148088,False,17
16K31,322,experiment,180,↓,left,←,0.7794506999780424,False,17
16K31,323,experiment,120,←,left,←,0.7744435999775305,True,17
16K31,324,experiment,36,↓,left,←,1.1239968999871053,False,17
16K31,325,experiment,72,↑,right,→,0.8964858000399545,False,17
16K31,326,experiment,72,↑,up,↑,0.6694428999908268,True,17
16K31,327,experiment,60,↑,up,↑,0.7075687000178732,True,17
16K31,328,experiment,108,↓,down,↓,0.7930799999739975,True,17
16K31,329,experiment,12,↓,down,↓,0.7652958999969997,True,17
16K31,330,experiment,180,↓,down,↓,0.7146582999848761,True,17
16K31,331,experiment,180,↑,up,↑,0.5092897999566048,True,17
16K31,332,experiment,96,←,left,←,0.9782983000040986,True,17
16K31,333,experiment,36,↓,left,←,0.8750342999701388,False,17
16K31,334,experiment,156,↑,left,←,0.701964300009422,False,17
16K31,335,experiment,108,→,right,→,1.1168678000103682,True,17
16K31,336,experiment,24,←,left,←,1.1753303000004962,True,17
16K31,337,experiment,144,↓,down,↓,0.6923247999511659,True,17
16K31,338,experiment,48,↓,down,↓,0.7384479000465944,True,17
16K31,339,experiment,156,↓,down,↓,0.6928271999931894,True,17
16K31,340,experiment,24,↓,right,→,1.0200443999492563,False,17
16K31,341,experiment,168,←,left,←,0.6844895000103861,True,17
16K31,342,experiment,132,→,left,←,0.7874392000376247,False,17
16K31,343,experiment,60,→,down,↓,0.9269319999730214,False,17
16K31,344,experiment,120,←,left,←,0.7152080000378191,True,17
16K31,345,experiment,12,↓,down,↓,0.8292731000110507,True,17
16K31,346,training,60,→,left,←,0.8654788000276312,False,17
16K31,347,training,84,→,left,←,0.7406341999885626,False,17
16K31,348,training,48,↓,right,→,1.4090314999921247,False,17
16K31,349,experiment,36,←,left,←,0.658972899953369,True,17
16K31,350,experiment,180,↑,up,↑,1.150580000015907,True,17
16K31,351,experiment,144,→,right,→,0.7626246000290848,True,17
16K31,352,experiment,24,↑,up,↑,0.5842666999669746,True,17
16K31,353,experiment,120,↓,down,↓,0.9983087999862619,True,17
16K31,354,experiment,24,←,up,↑,1.0910336999804713,False,17
16K31,355,experiment,24,↓,down,↓,1.3863034999812953,True,17
16K31,356,experiment,12,↑,up,↑,0.8763140999944881,True,17
16K31,357,experiment,144,↓,down,↓,0.8698647000128403,True,17
16K31,358,experiment,96,↑,up,↑,0.4556344000156969,True,17
16K31,359,experiment,72,←,left,←,0.7045836999895982,True,17
16K31,360,experiment,180,↓,down,↓,1.0929116000188515,True,17
16K31,361,experiment,48,←,left,←,0.5872070000041276,True,17
16K31,362,experiment,156,↑,up,↑,0.6019247999647632,True,17
16K31,363,experiment,72,↓,up,↑,0.8219410000019707,False,17
16K31,364,experiment,108,→,right,→,0.5738511999952607,True,17
16K31,365,experiment,144,↓,down,↓,1.1089886000263505,True,17
16K31,366,experiment,132,←,right,→,0.9122501999954693,False,17
16K31,367,experiment,156,↓,up,↑,0.8762547000078484,False,17
16K31,368,experiment,132,↑,up,↑,0.6886641000164673,True,17
16K31,369,experiment,168,↑,up,↑,0.661051300005056,True,17
16K31,370,experiment,36,→,up,↑,0.8789772000163794,False,17
16K31,371,experiment,168,←,left,←,0.665707400010433,True,17
16K31,372,experiment,84,↑,up,↑,0.5839126000064425,True,17
16K31,373,experiment,12,←,no_key,no_letter,-1.0,False,17
16K31,374,experiment,84,↓,up,↑,1.3768043000018224,False,17
16K31,375,experiment,108,←,right,→,0.8496826000045985,False,17
16K31,376,experiment,48,←,left,←,0.5636944000143558,True,17
16K31,377,experiment,144,→,no_key,no_letter,-1.0,False,17
16K31,378,experiment,12,↓,down,↓,1.021100000012666,True,17
16K31,379,experiment,120,→,right,→,0.7015879999962635,True,17
16K31,380,experiment,168,↑,up,↑,0.6668455000035465,True,17
16K31,381,experiment,132,←,left,←,0.6678113999660127,True,17
16K31,382,experiment,36,←,left,←,0.5588114999700338,True,17
16K31,383,experiment,96,←,left,←,0.46663789998274297,True,17
16K31,384,experiment,180,→,right,→,0.4904437999939546,True,17
16K31,385,experiment,84,→,right,→,0.6555435000336729,True,17
16K31,386,experiment,72,→,right,→,0.4534731000312604,True,17
16K31,387,experiment,24,→,right,→,0.4171447999542579,True,17
16K31,388,experiment,48,→,right,→,0.666762100008782,True,17
16K31,389,experiment,60,↓,right,→,1.1490349000087008,False,17
16K31,390,experiment,12,←,left,←,0.7163375000236556,True,17
16K31,391,experiment,48,↓,right,→,0.7336612000362948,False,17
16K31,392,experiment,96,↑,left,←,0.8601421000203118,False,17
16K31,393,experiment,156,←,left,←,0.6333056999719702,True,17
16K31,394,experiment,96,←,left,←,0.610761099960655,True,17
16K31,395,experiment,60,↓,down,↓,0.842981600027997,True,17
16K31,396,experiment,180,↑,left,←,1.544589500001166,False,17
16K31,397,experiment,60,↓,down,↓,0.7320372000103816,True,17
16K31,398,experiment,108,←,left,←,0.5398216000176035,True,17
16K31,399,experiment,120,→,right,→,0.6324356999830343,True,17
16K31,400,experiment,60,←,left,←,1.0369828999973834,True,17
16K31,401,experiment,108,↓,up,↑,0.8614133999799378,False,17
16K31,402,experiment,84,→,right,→,0.7326964000239968,True,17
16K31,403,experiment,36,↑,up,↑,0.5300258999923244,True,17
16K31,404,experiment,156,↓,down,↓,0.6917307000258006,True,17
16K31,405,experiment,72,←,left,←,1.242161899979692,True,17
16K31,406,experiment,120,←,left,←,0.6963097000261769,True,17
16K31,407,experiment,168,↑,right,→,0.5598603999824263,False,17
16K31,408,experiment,132,↓,down,↓,0.9632544000050984,True,17
16K31,409,training,180,↓,up,↑,1.204746100003831,False,17
16K31,410,training,60,→,right,→,1.0823879000381567,True,17
16K31,411,training,84,→,right,→,0.5706295999698341,True,17
16K31,412,experiment,132,→,right,→,0.7641168999834917,True,17
16K31,413,experiment,24,←,left,←,0.6211946000112221,True,17
16K31,414,experiment,144,↑,up,↑,0.573291499982588,True,17
16K31,415,experiment,96,↓,up,↑,0.7947309999726713,False,17
16K31,416,experiment,36,↑,up,↑,0.4936407000059262,True,17
16K31,417,experiment,108,←,left,←,0.6509884999832138,True,17
16K31,418,experiment,24,←,left,←,0.758832799969241,True,17
16K31,419,experiment,180,↓,down,↓,0.794080599967856,True,17
16K31,420,experiment,24,→,left,←,0.8814988000085577,False,17
16K31,421,experiment,96,→,left,←,0.5983113999827765,False,17
16K31,422,experiment,48,↑,up,↑,0.7626758000114933,True,17
16K31,423,experiment,108,↓,down,↓,1.160619799979031,True,17
16K31,424,experiment,120,→,right,→,1.2133304000017233,True,17
16K31,425,experiment,180,→,right,→,0.6407755999825895,True,17
16K31,426,experiment,72,↑,down,↓,1.2162889000028372,False,17
16K31,427,experiment,12,←,left,←,0.704154799983371,True,17
16K31,428,experiment,168,↓,down,↓,0.7865752000361681,True,17
16K31,429,experiment,48,↓,down,↓,1.031339100038167,True,17
16K31,430,experiment,96,↓,left,←,0.8714368999935687,False,17
16K31,431,experiment,84,→,down,↓,0.8709034000057727,False,17
16K31,432,experiment,108,←,left,←,0.773010200005956,True,17
16K31,433,experiment,24,↑,left,←,0.6867262999876402,False,17
16K31,434,experiment,132,↓,down,↓,1.0806212999741547,True,17
16K31,435,experiment,144,→,right,→,0.734997600025963,True,17
16K31,436,experiment,156,←,left,←,0.6620382000110112,True,17
16K31,437,experiment,12,←,left,←,0.6503741999622434,True,17
16K31,438,experiment,72,←,up,↑,1.4527554000378586,False,17
16K31,439,experiment,144,←,left,←,0.6420541999978013,True,17
16K31,440,experiment,60,←,left,←,0.6136270000133663,True,17
16K31,441,experiment,84,→,right,→,0.5766461999737658,True,17
16K31,442,experiment,96,←,left,←,0.8084204000188038,True,17
16K31,443,experiment,156,↓,left,←,0.9632954000262544,False,17
16K31,444,experiment,72,←,left,←,0.5464186999597587,True,17
16K31,445,experiment,120,↑,up,↑,0.612933799973689,True,17
16K31,446,experiment,72,↓,left,←,0.8483184999786317,False,17
16K31,447,experiment,144,←,left,←,0.6299244000110775,True,17
16K31,448,experiment,132,←,left,←,0.5121253000106663,True,17
16K31,449,experiment,120,↓,left,←,0.7074102000333369,False,17
16K31,450,experiment,168,↓,down,↓,1.0215326999896206,True,17
16K31,451,experiment,168,→,right,→,0.6104234000085853,True,17
16K31,452,experiment,84,←,right,→,1.1403563000494614,False,17
16K31,453,experiment,36,→,right,→,0.565704700013157,True,17
16K31,454,experiment,48,→,right,→,0.4005998999928124,True,17
16K31,455,experiment,84,←,right,→,0.6475901000085287,False,17
16K31,456,experiment,36,←,left,←,0.5900716999894939,True,17
16K31,457,experiment,12,↑,up,↑,0.5794657000224106,True,17
16K31,458,experiment,12,↓,down,↓,0.7160748000023887,True,17
16K31,459,experiment,132,↓,down,↓,1.2873226000228897,True,17
16K31,460,experiment,180,←,left,←,0.6934328000061214,True,17
16K31,461,experiment,156,→,left,←,1.109619399998337,False,17
16K31,462,experiment,180,→,left,←,0.9689128000172786,False,17
16K31,463,experiment,60,→,right,→,0.5795153999933973,True,17
16K31,464,experiment,108,↓,up,↑,0.8162175999605097,False,17
16K31,465,experiment,48,↓,right,→,0.886627400002908,False,17
16K31,466,experiment,36,↑,up,↑,0.5842130000237375,True,17
16K31,467,experiment,60,←,left,←,0.7515289000002667,True,17
16K31,468,experiment,168,←,left,←,0.6762758999830112,True,17
16K31,469,experiment,60,↑,up,↑,0.5232088000047952,True,17
16K31,470,experiment,120,↑,up,↑,0.6659081999678165,True,17
16K31,471,experiment,156,↓,up,↑,0.7538931000162847,False,17
16K31,472,training,24,↑,up,↑,0.6244428000063635,True,17
16K31,473,training,180,↑,up,↑,0.6595524000003934,True,17
16K31,474,training,60,↑,up,↑,0.5102081000222825,True,17
16K31,475,experiment,144,↓,down,↓,0.829086699988693,True,17
16K31,476,experiment,24,←,left,←,0.5502348000300117,True,17
16K31,477,experiment,96,←,left,←,0.6334004999953322,True,17
16K31,478,experiment,132,↑,right,→,0.9556533999857493,False,17
16K31,479,experiment,132,←,left,←,0.5193897999706678,True,17
16K31,480,experiment,180,←,left,←,0.7727162999799475,True,17
16K31,481,experiment,36,↓,left,←,0.7738286000094377,False,17
16K31,482,experiment,120,←,left,←,0.6440294999629259,True,17
16K31,483,experiment,60,↑,left,←,0.7125850999727845,False,17
16K31,484,experiment,180,→,left,←,0.770946099946741,False,17
16K31,485,experiment,180,←,no_key,no_letter,-1.0,False,17
16K31,486,experiment,24,↓,left,←,0.7368532000109553,False,17
16K31,487,experiment,24,↑,left,←,1.0535717999446206,False,17
16K31,488,experiment,168,→,right,→,0.6257180999964476,True,17
16K31,489,experiment,60,→,right,→,0.7702332999906503,True,17
16K31,490,experiment,72,↓,down,↓,0.9170345999882556,True,17
16K31,491,experiment,48,←,left,←,0.7510503000230528,True,17
16K31,492,experiment,96,↓,down,↓,0.8164592999964952,True,17
16K31,493,experiment,12,←,left,←,0.7436343000154011,True,17
16K31,494,experiment,84,←,down,↓,1.0059739000280388,False,17
16K31,495,experiment,48,←,left,←,0.5900014000362717,True,17
16K31,496,experiment,108,↑,up,↑,1.0051792999729514,True,17
16K31,497,experiment,72,→,down,↓,0.8248502000351436,False,17
16K31,498,experiment,156,→,right,→,0.601395700010471,True,17
16K31,499,experiment,144,↑,up,↑,0.5270351999788545,True,17
16K31,500,experiment,132,↑,up,↑,0.7892188000259921,True,17
16K31,501,experiment,36,→,up,↑,1.3969159999978729,False,17
16K31,502,experiment,84,←,up,↑,1.3086990999872796,False,17
16K31,503,experiment,36,→,right,→,0.4760608000215143,True,17
16K31,504,experiment,72,↑,up,↑,0.4003255999996327,True,17
16K31,505,experiment,60,↑,up,↑,0.4619482000125572,True,17
16K31,506,experiment,168,↓,down,↓,0.8760690000490285,True,17
16K31,507,experiment,144,←,right,→,1.1356222999747843,False,17
16K31,508,experiment,120,←,left,←,0.932049100054428,True,17
16K31,509,experiment,84,→,right,→,0.5708565000095405,True,17
16K31,510,experiment,60,←,left,←,0.7679195000091568,True,17
16K31,511,experiment,36,↑,up,↑,0.6101011999999173,True,17
16K31,512,experiment,156,↓,down,↓,0.7758727000327781,True,17
16K31,513,experiment,48,←,left,←,0.6288747999933548,True,17
16K31,514,experiment,144,↓,down,↓,0.7625048999907449,True,17
16K31,515,experiment,12,←,left,←,0.6998088000109419,True,17
16K31,516,experiment,168,→,down,↓,1.4287422000197694,False,17
16K31,517,experiment,108,↓,down,↓,1.0223437000531703,True,17
16K31,518,experiment,72,↓,right,→,1.028590100002475,False,17
16K31,519,experiment,120,→,right,→,0.5036187999648973,True,17
16K31,520,experiment,96,↑,down,↓,0.9946187000023201,False,17
16K31,521,experiment,120,↑,up,↑,1.0339462999836542,True,17
16K31,522,experiment,132,↓,down,↓,0.7331988000078127,True,17
16K31,523,experiment,84,↓,down,↓,1.3138226000010036,True,17
16K31,524,experiment,96,→,right,→,0.6256913000252098,True,17
16K31,525,experiment,156,↑,up,↑,0.7374452999792993,True,17
16K31,526,experiment,156,→,right,→,0.6681497000390664,True,17
16K31,527,experiment,48,↑,up,↑,0.4853249999578111,True,17
16K31,528,experiment,108,←,left,←,0.502497699984815,True,17
16K31,529,experiment,12,←,left,←,1.143809900037013,True,17
16K31,530,experiment,180,↓,left,←,0.8302346999989823,False,17
16K31,531,experiment,24,↓,down,↓,0.7215752999763936,True,17
16K31,532,experiment,168,↑,up,↑,0.8711605999851599,True,17
16K31,533,experiment,12,←,left,←,0.8128790000337176,True,17
16K31,534,experiment,108,←,left,←,0.7819741000421345,True,17
16K31,535,training,120,↓,left,←,1.2647115999716334,False,17
16K31,536,training,48,↓,down,↓,0.7164893999579363,True,17
16K31,537,training,120,←,left,←,0.701813499967102,True,17
16K31,538,experiment,156,←,left,←,0.7845509999897331,True,17
16K31,539,experiment,132,→,right,→,0.6543504999717698,True,17
16K31,540,experiment,36,→,right,→,0.6298077000537887,True,17
16K31,541,experiment,144,←,right,→,0.757715699961409,False,17
16K31,542,experiment,72,↓,up,↑,1.8414137999643572,False,17
16K31,543,experiment,180,↑,up,↑,0.6355396999861114,True,17
16K31,544,experiment,12,↑,up,↑,0.5414270000183024,True,17
16K31,545,experiment,144,→,right,→,0.7610309000010602,True,17
16K31,546,experiment,108,↑,up,↑,0.6625443999655545,True,17
16K31,547,experiment,48,←,left,←,0.5998696000315249,True,17
16K31,548,experiment,120,→,right,→,0.8312983000068925,True,17
16K31,549,experiment,96,↑,up,↑,0.5019946999964304,True,17
16K31,550,experiment,168,↑,up,↑,0.5024591999826953,True,17
16K31,551,experiment,12,→,up,↑,1.0665145000093617,False,17
16K31,552,experiment,60,↑,right,→,0.6253795000375248,False,17
16K31,553,experiment,84,↓,left,←,0.6810091999941505,False,17
16K31,554,experiment,144,↓,down,↓,0.8394686999963596,True,17
16K31,555,experiment,60,↑,down,↓,0.8995372999925166,False,17
16K31,556,experiment,36,←,left,←,0.5790755999623798,True,17
16K31,557,experiment,108,←,left,←,0.671675999998115,True,17
16K31,558,experiment,48,↓,down,↓,0.6691444999887608,True,17
16K31,559,experiment,72,→,right,→,0.5402233999921009,True,17
16K31,560,experiment,12,→,right,→,0.46112409996567294,True,17
16K31,561,experiment,180,↑,right,→,0.7687888000509702,False,17
16K31,562,experiment,132,→,right,→,0.6815413000294939,True,17
16K31,563,experiment,120,↑,down,↓,1.1312906999955885,False,17
16K31,564,experiment,156,←,left,←,0.7647719000233337,True,17
16K31,565,experiment,24,↓,up,↑,0.7587839000043459,False,17
16K31,566,experiment,144,↑,up,↑,0.5709092000033706,True,17
16K31,567,experiment,180,→,up,↑,0.9534954000264406,False,17
16K31,568,experiment,84,↑,up,↑,0.45796540001174435,True,17
16K31,569,experiment,84,↑,up,↑,1.9214017000049353,True,17
16K31,570,experiment,72,↓,down,↓,0.822255100007169,True,17
16K31,571,experiment,24,↓,down,↓,0.7536815000348724,True,17
16K31,572,experiment,36,↓,down,↓,0.8037371000391431,True,17
16K31,573,experiment,108,↓,down,↓,1.3111694999970496,True,17
16K31,574,experiment,168,↓,up,↑,1.0856904999818653,False,17
16K31,575,experiment,48,←,left,←,0.6281678000232205,True,17
16K31,576,experiment,120,↓,down,↓,0.8374432999989949,True,17
16K31,577,experiment,132,↓,down,↓,0.9648549000266939,True,17
16K31,578,experiment,108,↑,down,↓,0.9478445000131615,False,17
16K31,579,experiment,24,↑,up,↑,0.6846290999674238,True,17
16K31,580,experiment,60,↓,down,↓,0.8207067000330426,True,17
16K31,581,experiment,96,↓,down,↓,0.867571099952329,True,17
16K31,582,experiment,60,↑,down,↓,1.0629905000096187,False,17
16K31,583,experiment,156,→,right,→,0.8211421000305563,True,17
16K31,584,experiment,96,→,right,→,0.5530387000180781,True,17
16K31,585,experiment,180,←,left,←,0.8109116000123322,True,17
16K31,586,experiment,96,↓,down,↓,0.7447288999683224,True,17
16K31,587,experiment,84,↓,down,↓,0.6744928000262007,True,17
16K31,588,experiment,12,←,right,→,0.7996783999842592,False,17
16K31,589,experiment,36,←,down,↓,0.6710977999609895,False,17
16K31,590,experiment,120,↓,down,↓,0.810210499970708,True,17
16K31,591,experiment,132,←,left,←,0.8870137000340037,True,17
16K31,592,experiment,168,→,right,→,0.798091700009536,True,17
16K31,593,experiment,168,↓,down,↓,0.6876270000357181,True,17
16K31,594,experiment,24,←,down,↓,1.735453500004951,False,17
16K31,595,experiment,156,←,left,←,1.0978912999853492,True,17
16K31,596,experiment,48,↑,up,↑,1.3435612000175752,True,17
16K31,597,experiment,72,←,left,←,0.6730477000237443,True,17
16K31,598,training,132,←,left,←,1.0248193999868818,True,17
16K31,599,training,72,↓,up,↑,1.2321190999937244,False,17
16K31,600,training,132,→,right,→,0.6120578999980353,True,17
16K31,601,experiment,180,↑,up,↑,0.5923390000243671,True,17
16K31,602,experiment,168,→,right,→,0.5411516999593005,True,17
16K31,603,experiment,60,→,right,→,0.45296000002417713,True,17
16K31,604,experiment,108,←,left,←,0.7511006999993697,True,17
16K31,605,experiment,24,↓,left,←,1.3144876000005752,False,17
16K31,606,experiment,168,↑,left,←,0.5508709999849088,False,17
16K31,607,experiment,180,→,right,→,0.5408866000361741,True,17
16K31,608,experiment,96,↓,up,↑,0.6185136999702081,False,17
16K31,609,experiment,72,↑,up,↑,0.6173722000094131,True,17
16K31,610,experiment,84,↑,down,↓,0.5007999999797903,False,17
16K31,611,experiment,108,←,left,←,0.6248481000075117,True,17
16K31,612,experiment,120,→,right,→,0.4639976000180468,True,17
16K31,613,experiment,108,↑,up,↑,0.7027984000160359,True,17
16K31,614,experiment,156,↓,up,↑,0.773985999985598,False,17
16K31,615,experiment,156,→,up,↑,0.6071091999765486,False,17
16K31,616,experiment,72,←,left,←,0.5969888999825343,True,17
16K31,617,experiment,156,→,right,→,0.47726630000397563,True,17
16K31,618,experiment,108,↓,up,↑,0.7342570999753661,False,17
16K31,619,experiment,24,↓,left,←,0.6833277000114322,False,17
16K31,620,experiment,144,←,left,←,0.6863285999861546,True,17
16K31,621,experiment,132,↑,left,←,0.6675887000164948,False,17
16K31,622,experiment,84,↑,left,←,0.6993306999793276,False,17
16K31,623,experiment,60,↑,up,↑,1.6941594000090845,True,17
16K31,624,experiment,36,↓,down,↓,0.7982248999760486,True,17
16K31,625,experiment,132,↓,down,↓,0.7195175000233576,True,17
16K31,626,experiment,12,↑,down,↓,1.4168791999691166,False,17
16K31,627,experiment,48,→,left,←,0.9026626999839209,False,17
16K31,628,experiment,96,←,left,←,0.567317400011234,True,17
16K31,629,experiment,12,→,right,→,0.4877299999934621,True,17
16K31,630,experiment,72,↑,right,→,0.7332896000007167,False,17
16K31,631,experiment,24,←,left,←,0.6748877000063658,True,17
16K31,632,experiment,12,←,left,←,0.5709769999957643,True,17
16K31,633,experiment,168,←,left,←,0.8841068000183441,True,17
16K31,634,experiment,12,←,left,←,0.5200750000076368,True,17
16K31,635,experiment,120,→,right,→,0.5174695000168867,True,17
16K31,636,experiment,48,←,left,←,0.537410200049635,True,17
16K31,637,experiment,60,→,right,→,0.4888037999626249,True,17
16K31,638,experiment,96,↑,left,←,0.7382207000046037,False,17
16K31,639,experiment,24,→,no_key,no_letter,-1.0,False,17
16K31,640,experiment,36,→,right,→,0.5942762000486255,True,17
16K31,641,experiment,72,↓,left,←,0.5211105000344105,False,17
16K31,642,experiment,84,↑,up,↑,0.4939204000402242,True,17
16K31,643,experiment,120,↓,up,↑,0.8362947999848984,False,17
16K31,644,experiment,60,←,left,←,0.7420967000070959,True,17
16K31,645,experiment,168,↑,up,↑,0.8963342999923043,True,17
16K31,646,experiment,156,→,right,→,0.7241670999792404,True,17
16K31,647,experiment,36,→,no_key,no_letter,-1.0,False,17
16K31,648,experiment,48,→,right,→,0.6123043000116013,True,17
16K31,649,experiment,84,↑,right,→,0.9136427999474108,False,17
16K31,650,experiment,36,↓,up,↑,0.8060384999844246,False,17
16K31,651,experiment,180,↓,down,↓,0.8046417000005022,True,17
16K31,652,experiment,96,→,right,→,0.5578776999609545,True,17
16K31,653,experiment,132,↓,down,↓,0.7130892999703065,True,17
16K31,654,experiment,180,↑,right,→,1.2678745000157505,False,17
16K31,655,experiment,48,←,left,←,0.6832928999792784,True,17
16K31,656,experiment,144,↑,left,←,0.6519522999878973,False,17
16K31,657,experiment,144,↓,down,↓,0.7773325999733061,True,17
16K31,658,experiment,120,←,left,←,0.6588524000253528,True,17
16K31,659,experiment,132,←,left,←,0.47252680000383407,True,17
16K31,660,experiment,144,→,right,→,0.4173225999693386,True,17
16K31,661,training,84,↑,up,↑,0.9373123000259511,True,17
16K31,662,training,168,←,left,←,0.8327768000308424,True,17
16K31,663,training,60,↑,up,↑,0.6907287000212818,True,17
16K31,664,experiment,48,←,up,↑,0.8802238999633119,False,17
16K31,665,experiment,24,←,up,↑,0.9098325000377372,False,17
16K31,666,experiment,120,↓,up,↑,0.6593114999704994,False,17
16K31,667,experiment,96,↑,up,↑,0.8455034000216983,True,17
16K31,668,experiment,84,→,left,←,0.8603261000243947,False,17
16K31,669,experiment,48,↓,down,↓,0.8903239999781363,True,17
16K31,670,experiment,132,←,left,←,0.821038999943994,True,17
16K31,671,experiment,132,←,down,↓,0.8139267000369728,False,17
16K31,672,experiment,132,→,right,→,0.744164300034754,True,17
16K31,673,experiment,180,↓,down,↓,0.8134268000139855,True,17
16K31,674,experiment,12,←,left,←,0.77094550000038,True,17
16K31,675,experiment,180,↑,down,↓,1.0272319999639876,False,17
16K31,676,experiment,108,↑,down,↓,0.8231169999926351,False,17
16K31,677,experiment,36,↓,down,↓,0.9222652000025846,True,17
16K31,678,experiment,24,→,right,→,0.703032199991867,True,17
16K31,679,experiment,60,↓,down,↓,0.6996602000435814,True,17
16K31,680,experiment,24,↓,down,↓,0.8605086000170559,True,17
16K31,681,experiment,180,→,right,→,0.5086960999760777,True,17
16K31,682,experiment,60,→,down,↓,1.3409807999851182,False,17
16K31,683,experiment,120,↑,up,↑,0.6385351000353694,True,17
16K31,684,experiment,96,↑,no_key,no_letter,-1.0,False,17
16K31,685,experiment,120,↑,up,↑,0.7442408000351861,True,17
16K31,686,experiment,84,↑,up,↑,0.695328600006178,True,17
16K31,687,experiment,84,→,down,↓,1.0599552000057884,False,17
16K31,688,experiment,156,←,up,↑,0.8706049000029452,False,17
16K31,689,experiment,36,→,up,↑,0.801635600044392,False,17
16K31,690,experiment,24,↑,right,→,0.6387221000040881,False,17
16K31,691,experiment,12,↓,right,→,0.6983015000005253,False,17
16K31,692,experiment,60,→,right,→,0.49543850001646206,True,17
16K31,693,experiment,72,←,right,→,0.6364654999924824,False,17
16K31,694,experiment,36,←,right,→,0.6385157000040635,False,17
16K31,695,experiment,144,↓,up,↑,1.0981493000290357,False,17
16K31,696,experiment,84,↑,up,↑,1.7005750000244007,True,17
16K31,697,experiment,168,↓,up,↑,0.7596952000167221,False,17
16K31,698,experiment,168,←,up,↑,0.6338131999946199,False,17
16K31,699,experiment,108,↑,up,↑,0.6249306999961846,True,17
16K31,700,experiment,72,↓,up,↑,0.7100715000415221,False,17
16K31,701,experiment,72,↑,up,↑,0.5674656999763101,True,17
16K31,702,experiment,168,↑,up,↑,0.5090906000114046,True,17
16K31,703,experiment,144,→,up,↑,0.7115732000092976,False,17
16K31,704,experiment,36,↓,up,↑,0.5208775000064634,False,17
16K31,705,experiment,108,↑,up,↑,0.5856754999840632,True,17
16K31,706,experiment,96,←,left,←,0.5987754999659956,True,17
16K31,707,experiment,144,→,right,→,0.6780291000031866,True,17
16K31,708,experiment,156,→,right,→,0.6565365000278689,True,17
16K31,709,experiment,132,→,right,→,0.6167896999977529,True,17
16K31,710,experiment,108,↓,right,→,0.576802299998235,False,17
16K31,711,experiment,180,←,left,←,0.6318221000256017,True,17
16K31,712,experiment,168,←,left,←,0.5223841000115499,True,17
16K31,713,experiment,48,↓,down,↓,0.817160899983719,True,17
16K31,714,experiment,72,←,left,←,0.5010586000280455,True,17
16K31,715,experiment,96,→,right,→,0.5713836000068113,True,17
16K31,716,experiment,156,←,left,←,0.4780685000005178,True,17
16K31,717,experiment,156,↓,left,←,0.677115100028459,False,17
16K31,718,experiment,144,←,left,←,0.5743574000080116,True,17
16K31,719,experiment,60,↑,left,←,0.7664287000079639,False,17
16K31,720,experiment,48,↓,down,↓,0.8171670000301674,True,17
16K31,721,experiment,120,←,left,←,0.6070078999619,True,17
16K31,722,experiment,12,↓,down,↓,0.7262891000136733,True,17
16K31,723,experiment,12,←,left,←,0.6800830999854952,True,17
16K31,724,training,156,→,right,→,0.5688590999925509,True,18
16K31,725,training,132,↑,right,→,0.8215173999778926,False,18
16K31,726,training,108,↑,up,↑,0.5165614999714307,True,18
16K31,727,experiment,48,↑,up,↑,0.5018509000074118,True,18
16K31,728,experiment,108,↑,up,↑,1.2747528000036255,True,18
16K31,729,experiment,96,→,right,→,0.5317117000231519,True,18
16K31,730,experiment,108,↓,up,↑,0.7999749000300653,False,18
16K31,731,experiment,156,↑,up,↑,0.660464399959892,True,18
16K31,732,experiment,168,←,up,↑,0.6295674000284635,False,18
16K31,733,experiment,24,↓,up,↑,0.6972436999785714,False,18
16K31,734,experiment,180,←,right,→,0.6912906000507064,False,18
16K31,735,experiment,96,→,right,→,0.5046263000112958,True,18
16K31,736,experiment,60,↓,right,→,0.6822383999824524,False,18
16K31,737,experiment,144,↓,down,↓,0.9036257999832742,True,18
16K31,738,experiment,12,↑,up,↑,0.7382634000387043,True,18
16K31,739,experiment,96,↓,down,↓,0.5715048999991268,True,18
16K31,740,experiment,24,↑,up,↑,0.851589200028684,True,18
16K31,741,experiment,132,↓,down,↓,0.7977157999994233,True,18
16K31,742,experiment,144,↓,down,↓,0.7273668000125326,True,18
16K31,743,experiment,60,↓,down,↓,1.019696599978488,True,18
16K31,744,experiment,84,←,left,←,0.6349008000106551,True,18
16K31,745,experiment,24,↑,down,↓,1.0517199000460096,False,18
16K31,746,experiment,108,↑,down,↓,0.867194999998901,False,18
16K31,747,experiment,144,↓,right,→,0.7273258999921381,False,18
16K31,748,experiment,180,←,left,←,0.7278357000323012,True,18
16K31,749,experiment,60,↑,up,↑,0.8002164000063203,True,18
16K31,750,experiment,24,→,left,←,0.6621604000101797,False,18
16K31,751,experiment,12,↓,right,→,0.5928491000086069,False,18
16K31,752,experiment,72,↑,left,←,0.9960159999900497,False,18
16K31,753,experiment,84,↑,up,↑,1.2940746000385843,True,18
16K31,754,experiment,108,↓,down,↓,0.8859127000323497,True,18
16K31,755,experiment,36,→,right,→,0.9046471999608912,True,18
16K31,756,experiment,132,↑,down,↓,0.9297247999929823,False,18
16K31,757,experiment,156,→,right,→,0.5114179999800399,True,18
16K31,758,experiment,36,→,right,→,0.5085525000467896,True,18
16K31,759,experiment,132,↑,up,↑,0.6816290999995545,True,18
16K31,760,experiment,120,↓,down,↓,0.8584095000405796,True,18
16K31,761,experiment,84,→,right,→,0.5728788999840617,True,18
16K31,762,experiment,168,←,right,→,0.7815707000554539,False,18
16K31,763,experiment,48,←,left,←,0.8688844999996945,True,18
16K31,764,experiment,72,↓,down,↓,0.9599555000313558,True,18
16K31,765,experiment,12,↑,up,↑,0.785643000039272,True,18
16K31,766,experiment,36,↓,left,←,0.901112399995327,False,18
16K31,767,experiment,156,↑,down,↓,0.9579734000144526,False,18
16K31,768,experiment,96,↓,down,↓,0.8184906999813393,True,18
16K31,769,experiment,60,↓,up,↑,0.8733664000174031,False,18
16K31,770,experiment,156,↑,up,↑,0.5969043999793939,True,18
16K31,771,experiment,120,←,left,←,0.7433278999524191,True,18
16K31,772,experiment,48,→,right,→,0.5075550000183284,True,18
16K31,773,experiment,180,↑,right,→,0.8289958999957889,False,18
16K31,774,experiment,84,↓,down,↓,0.7619842000422068,True,18
16K31,775,experiment,120,↓,down,↓,1.0043910999665968,True,18
16K31,776,experiment,72,↓,down,↓,0.9072815999970771,True,18
16K31,777,experiment,72,→,right,→,1.063656899961643,True,18
16K31,778,experiment,144,→,right,→,0.6477002999745309,True,18
16K31,779,experiment,12,↓,right,→,0.9296794999972917,False,18
16K31,780,experiment,48,↑,left,←,0.8818918999750167,False,18
16K31,781,experiment,132,↓,down,↓,0.6225434999796562,True,18
16K31,782,experiment,168,→,right,→,0.6748231999808922,True,18
16K31,783,experiment,180,←,down,↓,1.0154410999966785,False,18
16K31,784,experiment,168,→,right,→,0.753891600004863,True,18
16K31,785,experiment,120,→,right,→,0.5611539999954402,True,18
16K31,786,experiment,36,→,right,→,0.4861745000234805,True,18
16K31,787,training,144,→,right,→,0.4963287999853492,True,18
16K31,788,training,156,←,left,←,0.9362496000248939,True,18
16K31,789,training,108,→,right,→,0.4909703000448644,True,18
16K31,790,experiment,156,↓,down,↓,1.079002499987837,True,18
16K31,791,experiment,132,↑,right,→,0.6730863000266254,False,18
16K31,792,experiment,24,→,right,→,0.476640899956692,True,18
16K31,793,experiment,72,↑,up,↑,0.6614370999741368,True,18
16K31,794,experiment,72,↑,up,↑,0.5212290000054054,True,18
16K31,795,experiment,156,←,left,←,0.8201769000152126,True,18
16K31,796,experiment,120,↓,down,↓,1.0070334000047296,True,18
16K31,797,experiment,132,↑,up,↑,0.6420420000213198,True,18
16K31,798,experiment,120,↓,down,↓,1.2036363999941386,True,18
16K31,799,experiment,36,↑,down,↓,0.8807910999748856,False,18
16K31,800,experiment,144,←,left,←,0.9250286999740638,True,18
16K31,801,experiment,108,→,left,←,1.077322400000412,False,18
16K31,802,experiment,96,→,right,→,0.6081493000383489,True,18
16K31,803,experiment,48,→,right,→,0.48568969999905676,True,18
16K31,804,experiment,84,→,left,←,0.6345298999804072,False,18
16K31,805,experiment,96,↑,up,↑,0.5077430999954231,True,18
16K31,806,experiment,24,↑,up,↑,0.7000163000193425,True,18
16K31,807,experiment,48,↓,down,↓,0.7263654000125825,True,18
16K31,808,experiment,168,→,right,→,0.7356211000005715,True,18
16K31,809,experiment,156,→,right,→,0.7356726000434719,True,18
16K31,810,experiment,84,→,no_key,no_letter,-1.0,False,18
16K31,811,experiment,12,↑,right,→,1.1704137999913655,False,18
16K31,812,experiment,36,↑,up,↑,0.5338611000333913,True,18
16K31,813,experiment,180,→,right,→,0.7983278999454342,True,18
16K31,814,experiment,72,→,right,→,0.8962664999999106,True,18
16K31,815,experiment,12,↑,up,↑,0.5760951000265777,True,18
16K31,816,experiment,72,↓,left,←,0.7545518000260927,False,18
16K31,817,experiment,144,↑,up,↑,0.5285009000217542,True,18
16K31,818,experiment,108,→,right,→,0.5075209999922663,True,18
16K31,819,experiment,96,←,right,→,0.4841737999813631,False,18
16K31,820,experiment,36,↑,up,↑,0.6171109999995679,True,18
16K31,821,experiment,48,←,left,←,0.7042946000001393,True,18
16K31,822,experiment,132,↑,up,↑,0.6072948000510223,True,18
16K31,823,experiment,60,→,up,↑,0.6792099999729544,False,18
16K31,824,experiment,144,↓,down,↓,0.8025198999675922,True,18
16K31,825,experiment,120,↑,up,↑,0.7970314999693073,True,18
16K31,826,experiment,84,↑,left,←,0.7799421999952756,False,18
16K31,827,experiment,60,↑,up,↑,0.5353801000164822,True,18
16K31,828,experiment,108,←,left,←,0.593725299986545,True,18
16K31,829,experiment,96,↓,down,↓,0.9861271000117995,True,18
16K31,830,experiment,168,↑,up,↑,0.5005390000296757,True,18
16K31,831,experiment,180,←,left,←,0.539636800007429,True,18
16K31,832,experiment,84,↑,up,↑,0.48839050001697615,True,18
16K31,833,experiment,48,↓,up,↑,0.8846821999759413,False,18
16K31,834,experiment,12,→,right,→,0.7047786000184715,True,18
16K31,835,experiment,108,↑,up,↑,0.3841402999823913,True,18
16K31,836,experiment,120,→,right,→,0.6268064000178128,True,18
16K31,837,experiment,12,↓,down,↓,0.7804069999838248,True,18
16K31,838,experiment,60,→,right,→,0.6016789999557659,True,18
16K31,839,experiment,156,→,right,→,0.5273575999890454,True,18
16K31,840,experiment,24,↑,up,↑,0.5381801999756135,True,18
16K31,841,experiment,168,→,right,→,0.7224323999835178,True,18
16K31,842,experiment,24,↓,down,↓,0.7923668000148609,True,18
16K31,843,experiment,36,↓,up,↑,0.680291099997703,False,18
16K31,844,experiment,180,↓,right,→,1.0083953000139445,False,18
16K31,845,experiment,144,↑,up,↑,0.532326299988199,True,18
16K31,846,experiment,180,←,up,↑,0.7836561999865808,False,18
16K31,847,experiment,60,←,left,←,1.1158190999994986,True,18
16K31,848,experiment,168,→,right,→,0.6979719999944791,True,18
16K31,849,experiment,132,→,right,→,0.4681185000226833,True,18
