PART_ID,Trial_no,Trial_type,PDI,Stim_letter,Key_pressed,letter_choose,Rt,Corr,Stimulus Time
17K30,1,training,10,↑,no_key,no_letter,-1.0,False,30
17K30,2,training,10,→,no_key,no_letter,-1.0,False,30
17K30,3,training,10,←,no_key,no_letter,-1.0,False,30
17K30,4,training,10,←,left,←,1.5441935998387635,True,30
17K30,5,training,10,←,left,←,1.0192224998027086,True,30
17K30,6,training,10,↑,right,→,1.4441568003967404,False,30
17K30,7,training,10,←,left,←,0.7754973000846803,True,30
17K30,8,training,10,←,left,←,0.8867247998714447,True,30
17K30,9,training,10,↑,up,↑,1.3264950001612306,True,30
17K30,10,training,10,→,right,→,0.9791598999872804,True,30
17K30,11,training,10,↓,down,↓,1.8917652000673115,True,30
17K30,12,training,10,←,left,←,0.9111696998588741,True,30
17K30,13,training,10,←,right,→,1.607348999939859,False,30
17K30,14,training,10,→,right,→,1.1871782001107931,True,30
17K30,15,training,10,←,right,→,1.880802100058645,False,30
17K30,16,training,10,→,right,→,1.1927996999584138,True,30
17K30,17,training,10,↑,down,↓,1.4493713998235762,False,30
17K30,18,training,10,←,left,←,0.9119351003319025,True,30
17K30,19,training,10,→,right,→,1.012719599995762,True,30
17K30,20,training,10,↓,down,↓,1.112904699984938,True,30
17K30,21,training,10,↓,right,→,1.1216436000540853,False,18
17K30,22,training,10,←,left,←,1.2333883997052908,True,18
17K30,23,training,10,←,left,←,0.8743111002258956,True,18
17K30,24,training,10,↑,right,→,1.26526670018211,False,18
17K30,25,training,10,→,right,→,1.0984578002244234,True,18
17K30,26,training,10,↑,down,↓,1.2228402998298407,False,18
17K30,27,training,10,→,left,←,1.5318233999423683,False,18
17K30,28,training,10,↓,down,↓,1.05612050043419,True,18
17K30,29,training,10,↑,right,→,1.1399107002653182,False,18
17K30,30,training,10,↓,down,↓,0.8462651004083455,True,18
17K30,31,training,180,↑,left,←,1.4706457001157105,False,15
17K30,32,training,168,→,left,←,1.1570571004413068,False,15
17K30,33,training,120,↑,up,↑,1.1358537999913096,True,15
17K30,34,experiment,72,→,right,→,0.8728244001977146,True,15
17K30,35,experiment,132,↑,up,↑,1.587693499866873,True,15
17K30,36,experiment,60,↑,no_key,no_letter,-1.0,False,15
17K30,37,experiment,108,↑,down,↓,1.3957255999557674,False,15
17K30,38,experiment,156,←,right,→,0.9843296003527939,False,15
17K30,39,experiment,156,↑,right,→,0.9939823998138309,False,15
17K30,40,experiment,180,←,left,←,1.221675000153482,True,15
17K30,41,experiment,144,↓,right,→,1.1846260000020266,False,15
17K30,42,experiment,144,→,right,→,0.8506512995809317,True,15
17K30,43,experiment,144,→,left,←,1.0482842000201344,False,15
17K30,44,experiment,48,↑,right,→,1.0523320999927819,False,15
17K30,45,experiment,72,↓,right,→,0.8297866997309029,False,15
17K30,46,experiment,180,→,right,→,0.779653100296855,True,15
17K30,47,experiment,132,↑,right,→,0.8639936000108719,False,15
17K30,48,experiment,132,←,right,→,1.0363301001489162,False,15
17K30,49,experiment,84,↑,left,←,1.0754089998081326,False,15
17K30,50,experiment,180,↑,right,→,1.0172745999880135,False,15
17K30,51,experiment,36,↓,left,←,1.2447143997997046,False,15
17K30,52,experiment,168,↑,right,→,0.9648576998151839,False,15
17K30,53,experiment,144,↑,left,←,0.9284030999988317,False,15
17K30,54,experiment,96,↓,right,→,1.032184099778533,False,15
17K30,55,experiment,96,→,right,→,0.9782954999245703,True,15
17K30,56,experiment,60,↑,up,↑,1.2229911000467837,True,15
17K30,57,experiment,36,↓,down,↓,0.8987954999320209,True,15
17K30,58,experiment,48,←,right,→,0.9858494000509381,False,15
17K30,59,experiment,168,↑,no_key,no_letter,-1.0,False,15
17K30,60,experiment,24,←,left,←,1.4640894001349807,True,15
17K30,61,experiment,60,↑,up,↑,1.1715533002279699,True,15
17K30,62,experiment,24,↑,right,→,1.1976742004044354,False,15
17K30,63,experiment,12,↑,right,→,1.1238155998289585,False,15
17K30,64,experiment,120,←,left,←,0.974337600171566,True,15
17K30,65,experiment,48,→,right,→,1.0576781001873314,True,15
17K30,66,experiment,168,←,right,→,0.6650083004496992,False,15
17K30,67,experiment,72,←,right,→,0.7141498001292348,False,15
17K30,68,experiment,72,→,right,→,0.907205400057137,True,15
17K30,69,experiment,84,↓,left,←,0.9189760000444949,False,15
17K30,70,experiment,156,→,right,→,0.565680299885571,True,15
17K30,71,experiment,108,↑,no_key,no_letter,-1.0,False,15
17K30,72,experiment,60,↓,right,→,0.7254523001611233,False,15
17K30,73,experiment,84,←,left,←,0.9294849000871181,True,15
17K30,74,experiment,36,↓,right,→,0.8327762996777892,False,15
17K30,75,experiment,120,↓,right,→,0.7276414996013045,False,15
17K30,76,experiment,120,↓,right,→,0.8449764000251889,False,15
17K30,77,experiment,12,←,left,←,1.0508109000511467,True,15
17K30,78,experiment,108,←,right,→,0.350435100030154,False,15
17K30,79,experiment,96,←,left,←,0.6583445998840034,True,15
17K30,80,experiment,120,↑,up,↑,1.6454429998993874,True,15
17K30,81,experiment,132,←,left,←,1.3756432998925447,True,15
17K30,82,experiment,96,→,right,→,0.9594499999657273,True,15
17K30,83,experiment,12,→,right,→,1.1447693002410233,True,15
17K30,84,experiment,36,↓,down,↓,1.8085558000020683,True,15
17K30,85,experiment,168,←,left,←,1.2616881001740694,True,15
17K30,86,experiment,24,↓,left,←,0.931714799720794,False,15
17K30,87,experiment,48,↑,down,↓,1.819926000200212,False,15
17K30,88,experiment,24,→,up,↑,1.2458636998198926,False,15
17K30,89,experiment,84,↓,left,←,1.5735100000165403,False,15
17K30,90,experiment,156,↑,left,←,0.7614311003126204,False,15
17K30,91,experiment,180,→,right,→,0.9035073998384178,True,15
17K30,92,experiment,12,↑,no_key,no_letter,-1.0,False,15
17K30,93,experiment,108,↓,right,→,0.8259115000255406,False,15
17K30,94,training,108,↑,left,←,0.8944050003774464,False,16
17K30,95,training,96,←,right,→,1.4362583998590708,False,16
17K30,96,training,84,→,left,←,1.151649400126189,False,16
17K30,97,experiment,60,→,right,→,0.8809670996852219,True,16
17K30,98,experiment,144,↓,right,→,1.0762939001433551,False,16
17K30,99,experiment,36,↑,down,↓,1.3596306000836194,False,16
17K30,100,experiment,60,↓,left,←,1.0057594999670982,False,16
17K30,101,experiment,132,↑,up,↑,1.0333292996510863,True,16
17K30,102,experiment,72,↑,down,↓,1.308174300007522,False,16
17K30,103,experiment,132,←,down,↓,1.7971995999105275,False,16
17K30,104,experiment,84,→,right,→,1.1925238999538124,True,16
17K30,105,experiment,24,→,no_key,no_letter,-1.0,False,16
17K30,106,experiment,180,←,left,←,0.9637583000585437,True,16
17K30,107,experiment,144,↑,down,↓,1.5700893001630902,False,16
17K30,108,experiment,180,↑,left,←,1.1115860003046691,False,16
17K30,109,experiment,24,↓,left,←,1.2593230996280909,False,16
17K30,110,experiment,84,→,right,→,1.0323878997005522,True,16
17K30,111,experiment,84,↓,down,↓,0.9682429004460573,True,16
17K30,112,experiment,144,←,left,←,0.892166200093925,True,16
17K30,113,experiment,36,←,left,←,0.8388247000984848,True,16
17K30,114,experiment,108,→,down,↓,1.5703146001324058,False,16
17K30,115,experiment,108,↑,right,→,1.1477916999720037,False,16
17K30,116,experiment,108,↑,left,←,1.337724500335753,False,16
17K30,117,experiment,120,→,no_key,no_letter,-1.0,False,16
17K30,118,experiment,144,↑,up,↑,1.0432997001335025,True,16
17K30,119,experiment,168,→,right,→,0.8819359000772238,True,16
17K30,120,experiment,120,↑,down,↓,1.4780077999457717,False,16
17K30,121,experiment,96,←,right,→,0.9418299999088049,False,16
17K30,122,experiment,156,←,left,←,0.8710012999363244,True,16
17K30,123,experiment,48,←,no_key,no_letter,-1.0,False,16
17K30,124,experiment,12,←,left,←,1.295510099735111,True,16
17K30,125,experiment,108,→,right,→,1.1036966000683606,True,16
17K30,126,experiment,132,↓,no_key,no_letter,-1.0,False,16
17K30,127,experiment,96,↑,up,↑,0.9330263999290764,True,16
17K30,128,experiment,72,→,right,→,0.7564594000577927,True,16
17K30,129,experiment,96,←,left,←,0.8863333999179304,True,16
17K30,130,experiment,60,←,left,←,1.2902253000065684,True,16
17K30,131,experiment,12,←,left,←,0.7433620998635888,True,16
17K30,132,experiment,156,→,right,→,0.7448300998657942,True,16
17K30,133,experiment,168,↓,down,↓,1.48839239962399,True,16
17K30,134,experiment,60,←,right,→,0.8799215001054108,False,16
17K30,135,experiment,72,←,up,↑,1.4994771000929177,False,16
17K30,136,experiment,72,↑,no_key,no_letter,-1.0,False,16
17K30,137,experiment,96,→,left,←,1.319491600152105,False,16
17K30,138,experiment,48,→,no_key,no_letter,-1.0,False,16
17K30,139,experiment,12,→,right,→,0.8886492000892758,True,16
17K30,140,experiment,168,→,left,←,1.1976292999461293,False,16
17K30,141,experiment,48,↑,up,↑,1.2873885999433696,True,16
17K30,142,experiment,12,→,right,→,0.9435328999534249,True,16
17K30,143,experiment,156,↑,no_key,no_letter,-1.0,False,16
17K30,144,experiment,180,→,right,→,0.9645973001606762,True,16
17K30,145,experiment,36,←,left,←,0.9913229998201132,True,16
17K30,146,experiment,48,↓,up,↑,0.9880103999748826,False,16
17K30,147,experiment,180,↓,down,↓,1.7547444999217987,True,16
17K30,148,experiment,84,↑,no_key,no_letter,-1.0,False,16
17K30,149,experiment,168,←,up,↑,1.5007726000621915,False,16
17K30,150,experiment,132,↓,up,↑,0.8926971000619233,False,16
17K30,151,experiment,156,←,down,↓,1.3057458000257611,False,16
17K30,152,experiment,24,→,up,↑,1.3250537998974323,False,16
17K30,153,experiment,120,↑,up,↑,1.227851599920541,True,16
17K30,154,experiment,120,↑,left,←,1.0973791000433266,False,16
17K30,155,experiment,36,↓,no_key,no_letter,-1.0,False,16
17K30,156,experiment,24,↑,right,→,1.2533823000267148,False,16
17K30,157,training,24,←,left,←,1.1675320998765528,True,17
17K30,158,training,72,↓,up,↑,1.0801257998682559,False,17
17K30,159,training,180,←,left,←,0.9311534003354609,True,17
17K30,160,experiment,72,↑,up,↑,0.8211894002743065,True,17
17K30,161,experiment,36,←,right,→,1.0832430999726057,False,17
17K30,162,experiment,84,←,down,↓,1.1399927996098995,False,17
17K30,163,experiment,12,→,right,→,0.7960152002051473,True,17
17K30,164,experiment,60,←,left,←,0.9635097999125719,True,17
17K30,165,experiment,24,↑,left,←,1.4607711997814476,False,17
17K30,166,experiment,180,↑,up,↑,0.8232436999678612,True,17
17K30,167,experiment,96,↑,left,←,0.93902189983055,False,17
17K30,168,experiment,72,↑,right,→,0.9330716002732515,False,17
17K30,169,experiment,36,←,left,←,0.6492630997672677,True,17
17K30,170,experiment,24,↑,up,↑,0.8210980999283493,True,17
17K30,171,experiment,48,→,left,←,0.8424613000825047,False,17
17K30,172,experiment,60,→,left,←,1.1347623001784086,False,17
17K30,173,experiment,144,↑,up,↑,1.2648847000673413,True,17
17K30,174,experiment,168,→,left,←,0.31676930002868176,False,17
17K30,175,experiment,168,→,no_key,no_letter,-1.0,False,17
17K30,176,experiment,156,↑,up,↑,1.104309200309217,True,17
17K30,177,experiment,84,↓,up,↑,1.1388224996626377,False,17
17K30,178,experiment,48,↓,no_key,no_letter,-1.0,False,17
17K30,179,experiment,60,←,left,←,1.248188499826938,True,17
17K30,180,experiment,120,→,left,←,1.0320861996151507,False,17
17K30,181,experiment,36,←,right,→,1.012417699676007,False,17
17K30,182,experiment,156,←,left,←,0.9575678999535739,True,17
17K30,183,experiment,180,↓,down,↓,0.7764679999090731,True,17
17K30,184,experiment,72,↑,down,↓,1.3967597000300884,False,17
17K30,185,experiment,120,←,left,←,0.7556338999420404,True,17
17K30,186,experiment,144,→,no_key,no_letter,-1.0,False,17
17K30,187,experiment,132,↓,down,↓,1.2998252999968827,True,17
17K30,188,experiment,84,←,left,←,0.7620739997364581,True,17
17K30,189,experiment,120,↓,down,↓,0.6776266000233591,True,17
17K30,190,experiment,72,←,left,←,0.7473233002237976,True,17
17K30,191,experiment,156,↑,down,↓,1.1484655998647213,False,17
17K30,192,experiment,120,→,left,←,1.0550410998985171,False,17
17K30,193,experiment,108,→,right,→,0.8718646001070738,True,17
17K30,194,experiment,12,→,right,→,0.7272331002168357,True,17
17K30,195,experiment,12,←,down,↓,0.8447088999673724,False,17
17K30,196,experiment,36,↓,down,↓,1.0852743000723422,True,17
17K30,197,experiment,144,↓,down,↓,0.7346391999162734,True,17
17K30,198,experiment,108,↑,up,↑,0.7868232000619173,True,17
17K30,199,experiment,168,↓,down,↓,0.8178143999539316,True,17
17K30,200,experiment,144,←,right,→,0.9402024997398257,False,17
17K30,201,experiment,96,↑,down,↓,1.0477983001619577,False,17
17K30,202,experiment,132,←,down,↓,1.068089900072664,False,17
17K30,203,experiment,180,↓,down,↓,0.9815547000616789,True,17
17K30,204,experiment,48,←,down,↓,0.9994738004170358,False,17
17K30,205,experiment,132,↑,up,↑,0.6879610000178218,True,17
17K30,206,experiment,24,←,left,←,1.0401441999711096,True,17
17K30,207,experiment,96,↑,left,←,0.6037657996639609,False,17
17K30,208,experiment,48,↑,left,←,1.6837295000441372,False,17
17K30,209,experiment,132,↓,no_key,no_letter,-1.0,False,17
17K30,210,experiment,60,←,no_key,no_letter,-1.0,False,17
17K30,211,experiment,24,↑,up,↑,1.0702611999586225,True,17
17K30,212,experiment,96,↓,left,←,0.909648499917239,False,17
17K30,213,experiment,156,←,left,←,1.415841399691999,True,17
17K30,214,experiment,108,←,left,←,0.7336428998969495,True,17
17K30,215,experiment,168,→,left,←,0.781324400100857,False,17
17K30,216,experiment,180,←,up,↑,1.262847799807787,False,17
17K30,217,experiment,108,↑,down,↓,0.9712524996139109,False,17
17K30,218,experiment,84,→,down,↓,0.769549900200218,False,17
17K30,219,experiment,12,↓,up,↑,1.1435555000789464,False,17
17K30,220,training,96,→,right,→,0.9727139002643526,True,18
17K30,221,training,132,↓,down,↓,0.7944703004322946,True,18
17K30,222,training,168,↓,down,↓,0.670868500135839,True,18
17K30,223,experiment,168,↑,up,↑,0.6681700996123254,True,18
17K30,224,experiment,60,→,right,→,0.6639306000433862,True,18
17K30,225,experiment,72,↓,down,↓,0.6025827997364104,True,18
17K30,226,experiment,120,←,left,←,1.1164102996699512,True,18
17K30,227,experiment,168,→,right,→,0.98173200013116,True,18
17K30,228,experiment,168,↓,right,→,0.8805861999280751,False,18
17K30,229,experiment,156,→,down,↓,1.2092203004285693,False,18
17K30,230,experiment,144,↓,up,↑,1.2531125000678003,False,18
17K30,231,experiment,180,→,right,→,1.0563223003409803,True,18
17K30,232,experiment,180,↓,up,↑,1.2351962001994252,False,18
17K30,233,experiment,12,↑,down,↓,1.2970088999718428,False,18
17K30,234,experiment,72,↑,up,↑,1.4627476995810866,True,18
17K30,235,experiment,72,↑,left,←,1.2982221995480359,False,18
17K30,236,experiment,144,↑,up,↑,0.9183481996878982,True,18
17K30,237,experiment,108,↓,no_key,no_letter,-1.0,False,18
17K30,238,experiment,180,↑,right,→,1.1381803997792304,False,18
17K30,239,experiment,48,→,no_key,no_letter,-1.0,False,18
17K30,240,experiment,24,↓,down,↓,0.965537500102073,True,18
17K30,241,experiment,180,←,up,↑,1.5338015998713672,False,18
17K30,242,experiment,60,←,no_key,no_letter,-1.0,False,18
17K30,243,experiment,96,↑,no_key,no_letter,-1.0,False,18
17K30,244,experiment,108,↓,no_key,no_letter,-1.0,False,18
17K30,245,experiment,24,↓,no_key,no_letter,-1.0,False,18
17K30,246,experiment,60,→,right,→,0.9499180000275373,True,18
17K30,247,experiment,156,↓,right,→,1.0834164000116289,False,18
17K30,248,experiment,96,↓,down,↓,1.059530499856919,True,18
17K30,249,experiment,132,↓,no_key,no_letter,-1.0,False,18
17K30,250,experiment,48,→,right,→,0.8617483000271022,True,18
17K30,251,experiment,84,↓,down,↓,1.3751948000863194,True,18
17K30,252,experiment,12,↑,right,→,1.455998099874705,False,18
17K30,253,experiment,108,←,right,→,1.035502899903804,False,18
17K30,254,experiment,72,←,left,←,1.360808600205928,True,18
17K30,255,experiment,144,←,left,←,0.9075167998671532,True,18
17K30,256,experiment,48,→,right,→,0.8979310998693109,True,18
17K30,257,experiment,156,↓,down,↓,0.8493106001988053,True,18
17K30,258,experiment,108,→,left,←,1.2935807998292148,False,18
17K30,259,experiment,60,↓,left,←,1.6516960998997092,False,18
17K30,260,experiment,36,→,down,↓,1.8217001999728382,False,18
17K30,261,experiment,84,←,up,↑,1.2810003003105521,False,18
17K30,262,experiment,132,↑,down,↓,1.3214890998788178,False,18
17K30,263,experiment,84,←,right,→,1.1714008999988437,False,18
17K30,264,experiment,36,←,up,↑,1.6347794998437166,False,18
17K30,265,experiment,96,↑,left,←,1.2245821002870798,False,18
17K30,266,experiment,120,↓,left,←,1.6628095000050962,False,18
17K30,267,experiment,48,↑,up,↑,1.2652449999004602,True,18
17K30,268,experiment,96,→,right,→,1.0472511001862586,True,18
17K30,269,experiment,12,↓,down,↓,0.9589157002046704,True,18
17K30,270,experiment,84,←,right,→,0.9164502001367509,False,18
17K30,271,experiment,132,→,right,→,1.018884800374508,True,18
17K30,272,experiment,36,→,no_key,no_letter,-1.0,False,18
17K30,273,experiment,120,←,right,→,0.8099947003647685,False,18
17K30,274,experiment,24,↑,up,↑,1.0657351999543607,True,18
17K30,275,experiment,156,↑,left,←,1.127450400032103,False,18
17K30,276,experiment,168,↓,right,→,1.2974015004001558,False,18
17K30,277,experiment,132,→,no_key,no_letter,-1.0,False,18
17K30,278,experiment,120,←,left,←,1.0627950998023152,True,18
17K30,279,experiment,144,→,right,→,1.1865381002426147,True,18
17K30,280,experiment,12,↓,right,→,0.9986644997261465,False,18
17K30,281,experiment,36,↑,up,↑,1.0712620001286268,True,18
17K30,282,experiment,24,→,down,↓,1.4476292002946138,False,18
17K30,283,training,72,←,left,←,0.891803199891001,True,18
17K30,284,training,12,↓,down,↓,0.7628399999812245,True,18
17K30,285,training,144,→,right,→,0.7831621998921037,True,18
17K30,286,experiment,84,↓,down,↓,0.8903711000457406,True,18
17K30,287,experiment,96,→,left,←,0.8296121000312269,False,18
17K30,288,experiment,120,↑,up,↑,1.2096360004507005,True,18
17K30,289,experiment,60,↑,up,↑,0.7438134998083115,True,18
17K30,290,experiment,156,←,left,←,0.9333139997906983,True,18
17K30,291,experiment,132,↓,down,↓,0.8417472001165152,True,18
17K30,292,experiment,168,↓,down,↓,1.0314429998397827,True,18
17K30,293,experiment,132,→,down,↓,1.1972934999503195,False,18
17K30,294,experiment,72,→,up,↑,0.9519863999448717,False,18
17K30,295,experiment,180,↑,right,→,1.0062748999334872,False,18
17K30,296,experiment,12,↑,down,↓,1.3421750999987125,False,18
17K30,297,experiment,144,↓,up,↑,1.403568500187248,False,18
17K30,298,experiment,96,↓,up,↑,0.7360248998738825,False,18
17K30,299,experiment,24,↓,up,↑,1.321338600013405,False,18
17K30,300,experiment,60,↓,down,↓,0.8477198998443782,True,18
17K30,301,experiment,36,↓,down,↓,1.1793542997911572,True,18
17K30,302,experiment,36,←,left,←,0.9757290999405086,True,18
17K30,303,experiment,96,↓,down,↓,0.7972575998865068,True,18
17K30,304,experiment,120,↑,right,→,0.902707299683243,False,18
17K30,305,experiment,72,↓,down,↓,0.9626253000460565,True,18
17K30,306,experiment,180,←,right,→,0.8834335999563336,False,18
17K30,307,experiment,48,↓,down,↓,0.6637512003071606,True,18
17K30,308,experiment,132,←,right,→,1.1643751999363303,False,18
17K30,309,experiment,144,↓,left,←,1.1923131002113223,False,18
17K30,310,experiment,132,↓,down,↓,0.7244221996515989,True,18
17K30,311,experiment,144,←,right,→,0.7521779998205602,False,18
17K30,312,experiment,108,←,left,←,0.744879599660635,True,18
17K30,313,experiment,60,↓,left,←,1.001475099939853,False,18
17K30,314,experiment,180,↓,left,←,0.8392485002987087,False,18
17K30,315,experiment,156,↓,down,↓,0.934792899992317,True,18
17K30,316,experiment,24,←,left,←,1.2656319001689553,True,18
17K30,317,experiment,156,←,right,→,1.4278754000551999,False,18
17K30,318,experiment,72,↑,up,↑,1.492851700168103,True,18
17K30,319,experiment,36,↓,left,←,0.8792686997912824,False,18
17K30,320,experiment,48,↓,down,↓,1.672210999764502,True,18
17K30,321,experiment,168,→,right,→,0.8963411999866366,True,18
17K30,322,experiment,180,↓,left,←,0.8806205000728369,False,18
17K30,323,experiment,12,↑,down,↓,0.9975805999711156,False,18
17K30,324,experiment,156,↑,down,↓,0.9837442003190517,False,18
17K30,325,experiment,48,→,right,→,1.0155895999632776,True,18
17K30,326,experiment,36,↓,up,↑,1.063800200354308,False,18
17K30,327,experiment,84,↓,left,←,1.0555006000213325,False,18
17K30,328,experiment,12,←,left,←,0.708073400426656,True,18
17K30,329,experiment,168,↑,right,→,0.8775977999903262,False,18
17K30,330,experiment,108,↑,up,↑,1.3443853999488056,True,18
17K30,331,experiment,72,↑,down,↓,0.9925494999624789,False,18
17K30,332,experiment,120,→,right,→,0.9629244999960065,True,18
17K30,333,experiment,84,↑,left,←,1.0506434999406338,False,18
17K30,334,experiment,48,↑,down,↓,0.9392872997559607,False,18
17K30,335,experiment,108,←,left,←,1.0331720998510718,True,18
17K30,336,experiment,108,↑,up,↑,1.797401700168848,True,18
17K30,337,experiment,24,↓,left,←,0.895197999663651,False,18
17K30,338,experiment,96,↑,left,←,0.7135762996040285,False,18
17K30,339,experiment,144,↑,up,↑,0.6949179000221193,True,18
17K30,340,experiment,168,↑,down,↓,1.3254949999973178,False,18
17K30,341,experiment,60,←,right,→,0.7236914001405239,False,18
17K30,342,experiment,84,→,right,→,0.5538947996683419,True,18
17K30,343,experiment,12,↑,right,→,1.0796004999428988,False,18
17K30,344,experiment,24,↓,right,→,1.5506827998906374,False,18
17K30,345,experiment,120,↓,down,↓,0.7018846999853849,True,18
17K30,346,training,48,↓,right,→,0.8746905997395515,False,18
17K30,347,training,108,↑,up,↑,1.0633800001814961,True,18
17K30,348,training,12,←,right,→,0.8423621002584696,False,18
17K30,349,experiment,168,→,right,→,0.995998099911958,True,18
17K30,350,experiment,36,←,down,↓,0.9676159997470677,False,18
17K30,351,experiment,12,→,left,←,1.306780599988997,False,18
17K30,352,experiment,48,↓,down,↓,1.1593830003403127,True,18
17K30,353,experiment,72,↑,no_key,no_letter,-1.0,False,18
17K30,354,experiment,84,←,down,↓,0.9541112002916634,False,18
17K30,355,experiment,120,←,right,→,1.1390733001753688,False,18
17K30,356,experiment,156,↓,down,↓,1.0668950998224318,True,18
17K30,357,experiment,132,←,left,←,1.062582700047642,True,18
17K30,358,experiment,168,↑,up,↑,0.998407700099051,True,18
17K30,359,experiment,120,→,left,←,1.0010130000300705,False,18
17K30,360,experiment,108,↓,left,←,0.7970692003145814,False,18
17K30,361,experiment,132,↓,down,↓,0.7959051998332143,True,18
17K30,362,experiment,144,↑,up,↑,0.8551703998818994,True,18
17K30,363,experiment,132,↓,down,↓,0.8905850001610816,True,18
17K30,364,experiment,180,↑,up,↑,0.7361584999598563,True,18
17K30,365,experiment,132,↓,down,↓,0.9773144000209868,True,18
17K30,366,experiment,108,↓,down,↓,0.6643090001307428,True,18
17K30,367,experiment,144,↓,down,↓,0.902156800031662,True,18
17K30,368,experiment,168,←,up,↑,1.3238357999362051,False,18
17K30,369,experiment,12,↑,no_key,no_letter,-1.0,False,18
17K30,370,experiment,48,→,right,→,1.0923624001443386,True,18
17K30,371,experiment,24,↓,down,↓,0.7515042000450194,True,18
17K30,372,experiment,120,↑,down,↓,0.7538608000613749,False,18
17K30,373,experiment,24,↑,up,↑,0.7329166997224092,True,18
17K30,374,experiment,12,←,left,←,1.0896255997940898,True,18
17K30,375,experiment,72,←,left,←,0.7637688000686467,True,18
17K30,376,experiment,168,↓,right,→,0.8735686000436544,False,18
17K30,377,experiment,72,↓,up,↑,0.8160733999684453,False,18
17K30,378,experiment,120,←,left,←,0.7969562001526356,True,18
17K30,379,experiment,24,→,right,→,0.801501200068742,True,18
17K30,380,experiment,96,→,right,→,0.6789116999134421,True,18
17K30,381,experiment,60,↓,no_key,no_letter,-1.0,False,18
17K30,382,experiment,12,↑,up,↑,0.6702558998949826,True,18
17K30,383,experiment,36,↓,down,↓,1.1060899002477527,True,18
17K30,384,experiment,180,↑,up,↑,0.7503626998513937,True,18
17K30,385,experiment,144,←,right,→,0.7559512001462281,False,18
17K30,386,experiment,180,←,right,→,0.7118902001529932,False,18
17K30,387,experiment,36,→,left,←,1.1334112999029458,False,18
17K30,388,experiment,156,←,left,←,0.8454060000367463,True,18
17K30,389,experiment,144,↑,up,↑,0.7611340000294149,True,18
17K30,390,experiment,96,→,left,←,0.8912859000265598,False,18
17K30,391,experiment,96,→,right,→,1.2335943998768926,True,18
17K30,392,experiment,84,←,left,←,0.8784977998584509,True,18
17K30,393,experiment,108,↑,up,↑,0.7216256000101566,True,18
17K30,394,experiment,60,↑,down,↓,1.203218899667263,False,18
17K30,395,experiment,156,→,right,→,1.451084699947387,True,18
17K30,396,experiment,156,←,left,←,0.7775289001874626,True,18
17K30,397,experiment,108,←,right,→,1.2124847997911274,False,18
17K30,398,experiment,48,↑,up,↑,0.8024905999191105,True,18
17K30,399,experiment,84,↑,up,↑,0.9370421003550291,True,18
17K30,400,experiment,60,→,right,→,0.8285592999309301,True,18
17K30,401,experiment,48,↓,down,↓,0.8397854999639094,True,18
17K30,402,experiment,180,↑,up,↑,0.7688902001827955,True,18
17K30,403,experiment,96,↓,down,↓,0.7572474000044167,True,18
17K30,404,experiment,84,→,right,→,0.7576445997692645,True,18
17K30,405,experiment,24,←,left,←,1.0619705999270082,True,18
17K30,406,experiment,72,←,left,←,1.0300719998776913,True,18
17K30,407,experiment,60,→,left,←,1.3889306001365185,False,18
17K30,408,experiment,36,↓,left,←,1.1576088001020253,False,18
17K30,409,training,24,→,right,→,1.1491192998364568,True,18
17K30,410,training,156,→,right,→,1.2024977002292871,True,18
17K30,411,training,84,↓,up,↑,0.8942637997679412,False,18
17K30,412,experiment,180,←,right,→,0.7055530999787152,False,18
17K30,413,experiment,12,←,right,→,0.9752952000126243,False,18
17K30,414,experiment,72,↓,down,↓,0.7610101001337171,True,18
17K30,415,experiment,144,→,right,→,0.8307749996893108,True,18
17K30,416,experiment,72,↑,down,↓,0.9018696998246014,False,18
17K30,417,experiment,24,↓,down,↓,0.6997708999551833,True,18
17K30,418,experiment,84,↓,up,↑,1.0456938999705017,False,18
17K30,419,experiment,48,↓,down,↓,0.7773875002749264,True,18
17K30,420,experiment,132,↑,down,↓,0.9479160998016596,False,18
17K30,421,experiment,48,←,left,←,0.9141330998390913,True,18
17K30,422,experiment,108,↓,up,↑,0.8266251999884844,False,18
17K30,423,experiment,108,←,left,←,0.747490200214088,True,18
17K30,424,experiment,132,←,left,←,0.6769372001290321,True,18
17K30,425,experiment,132,←,left,←,1.0501104001887143,True,18
17K30,426,experiment,168,←,left,←,0.7874749000184238,True,18
17K30,427,experiment,156,→,right,→,1.4391140001825988,True,18
17K30,428,experiment,60,↑,up,↑,0.7825738000683486,True,18
17K30,429,experiment,156,→,right,→,0.8811439001001418,True,18
17K30,430,experiment,180,←,left,←,0.8668634998612106,True,18
17K30,431,experiment,48,→,left,←,1.162268599960953,False,18
17K30,432,experiment,132,↑,up,↑,0.8040675004012883,True,18
17K30,433,experiment,144,↑,down,↓,1.0096288002096117,False,18
17K30,434,experiment,84,←,left,←,0.767340499907732,True,18
17K30,435,experiment,24,↓,right,→,1.182483300101012,False,18
17K30,436,experiment,120,↑,up,↑,0.8266528001986444,True,18
17K30,437,experiment,60,←,left,←,0.8369703995995224,True,18
17K30,438,experiment,120,→,right,→,0.8477404001168907,True,18
17K30,439,experiment,12,↑,left,←,1.0376098002307117,False,18
17K30,440,experiment,120,←,right,→,0.9587454996071756,False,18
17K30,441,experiment,36,↓,left,←,1.2486594999209046,False,18
17K30,442,experiment,96,→,up,↑,1.1990881999954581,False,18
17K30,443,experiment,168,↑,right,→,0.8712785001844168,False,18
17K30,444,experiment,168,→,down,↓,1.390270299743861,False,18
17K30,445,experiment,24,↓,no_key,no_letter,-1.0,False,18
17K30,446,experiment,24,↓,down,↓,1.5581160001456738,True,18
17K30,447,experiment,72,→,right,→,0.9490897003561258,True,18
17K30,448,experiment,60,↓,right,→,1.258475000038743,False,18
17K30,449,experiment,36,→,no_key,no_letter,-1.0,False,18
17K30,450,experiment,96,↑,up,↑,1.189835799857974,True,18
17K30,451,experiment,72,→,right,→,1.0145032000727952,True,18
17K30,452,experiment,48,←,left,←,1.2267775000073016,True,18
17K30,453,experiment,144,↓,down,↓,0.8641343000344932,True,18
17K30,454,experiment,96,↓,down,↓,0.6975358999334276,True,18
17K30,455,experiment,12,↓,right,→,0.9818037999793887,False,18
17K30,456,experiment,36,↓,down,↓,0.7435881001874804,True,18
17K30,457,experiment,144,↓,down,↓,0.6191281001083553,True,18
17K30,458,experiment,120,→,right,→,0.6758809001185,True,18
17K30,459,experiment,84,→,left,←,1.158893400337547,False,18
17K30,460,experiment,108,→,right,→,0.6031595002859831,True,18
17K30,461,experiment,156,→,right,→,0.6788988998159766,True,18
17K30,462,experiment,36,↓,down,↓,0.8715790999121964,True,18
17K30,463,experiment,96,↓,up,↑,1.2737146001309156,False,18
17K30,464,experiment,180,↓,left,←,1.0145034003071487,False,18
17K30,465,experiment,168,→,right,→,0.8947017001919448,True,18
17K30,466,experiment,180,←,left,←,0.9499252997338772,True,18
17K30,467,experiment,84,→,right,→,0.9023997997865081,True,18
17K30,468,experiment,12,→,left,←,0.9340767995454371,False,18
17K30,469,experiment,60,←,left,←,0.7108681998215616,True,18
17K30,470,experiment,108,↓,down,↓,0.8567567998543382,True,18
17K30,471,experiment,156,←,right,→,0.8845183001831174,False,18
17K30,472,training,36,↑,up,↑,0.9827061998657882,True,18
17K30,473,training,156,→,left,←,0.8107219003140926,False,18
17K30,474,training,60,↑,up,↑,0.724880600348115,True,18
17K30,475,experiment,180,→,left,←,0.6572059998288751,False,18
17K30,476,experiment,24,→,right,→,0.811330699827522,True,18
17K30,477,experiment,144,←,left,←,0.8190926001407206,True,18
17K30,478,experiment,96,←,left,←,0.7641990003176033,True,18
17K30,479,experiment,132,↑,up,↑,0.6036831997334957,True,18
17K30,480,experiment,120,↓,down,↓,0.6127317999489605,True,18
17K30,481,experiment,156,→,right,→,0.7514663999900222,True,18
17K30,482,experiment,84,→,down,↓,1.0525592998601496,False,18
17K30,483,experiment,120,↑,up,↑,0.9720808998681605,True,18
17K30,484,experiment,72,↑,up,↑,0.6964038996957242,True,18
17K30,485,experiment,108,↑,right,→,0.9315975997596979,False,18
17K30,486,experiment,144,←,left,←,1.0587618998251855,True,18
17K30,487,experiment,48,←,left,←,0.6955372001975775,True,18
17K30,488,experiment,168,↑,left,←,0.6023523001931608,False,18
17K30,489,experiment,180,←,right,→,0.9203876000829041,False,18
17K30,490,experiment,132,↑,down,↓,0.9807078000158072,False,18
17K30,491,experiment,120,←,left,←,0.9196914001367986,True,18
17K30,492,experiment,36,↓,right,→,1.053805399686098,False,18
17K30,493,experiment,168,↑,up,↑,1.2197286998853087,True,18
17K30,494,experiment,60,↑,down,↓,1.021562600042671,False,18
17K30,495,experiment,48,↓,left,←,0.9835346001200378,False,18
17K30,496,experiment,60,↑,up,↑,0.8302981997840106,True,18
17K30,497,experiment,156,→,right,→,0.9650837001390755,True,18
17K30,498,experiment,12,↑,down,↓,1.1979947001673281,False,18
17K30,499,experiment,144,↓,no_key,no_letter,-1.0,False,18
17K30,500,experiment,60,↑,up,↑,0.6767509002238512,True,18
17K30,501,experiment,36,↓,up,↑,1.0708111999556422,False,18
17K30,502,experiment,84,↓,down,↓,1.2230167998932302,True,18
17K30,503,experiment,156,↓,down,↓,0.8314102999866009,True,18
17K30,504,experiment,120,↓,right,→,0.9019179004244506,False,18
17K30,505,experiment,12,→,right,→,0.9332061000168324,True,18
17K30,506,experiment,144,←,down,↓,1.0473025999963284,False,18
17K30,507,experiment,72,↑,right,→,0.8391875000670552,False,18
17K30,508,experiment,132,↑,left,←,1.200503199826926,False,18
17K30,509,experiment,108,↓,left,←,0.7083792998455465,False,18
17K30,510,experiment,24,↓,down,↓,1.040349599905312,True,18
17K30,511,experiment,108,→,left,←,0.6539896000176668,False,18
17K30,512,experiment,96,↓,right,→,1.1184312999248505,False,18
17K30,513,experiment,72,←,left,←,0.8498153002001345,True,18
17K30,514,experiment,12,←,left,←,0.8454780001193285,True,18
17K30,515,experiment,84,↑,no_key,no_letter,-1.0,False,18
17K30,516,experiment,168,←,left,←,0.9969991999678314,True,18
17K30,517,experiment,72,→,left,←,0.7463376997038722,False,18
17K30,518,experiment,12,↑,no_key,no_letter,-1.0,False,18
17K30,519,experiment,132,↓,no_key,no_letter,-1.0,False,18
17K30,520,experiment,24,→,no_key,no_letter,-1.0,False,18
17K30,521,experiment,48,→,right,→,1.2622118997387588,True,18
17K30,522,experiment,96,↑,no_key,no_letter,-1.0,False,18
17K30,523,experiment,180,↓,no_key,no_letter,-1.0,False,18
17K30,524,experiment,108,→,no_key,no_letter,-1.0,False,18
17K30,525,experiment,36,↓,no_key,no_letter,-1.0,False,18
17K30,526,experiment,168,↑,down,↓,1.4485801998525858,False,18
17K30,527,experiment,24,↓,no_key,no_letter,-1.0,False,18
17K30,528,experiment,156,←,no_key,no_letter,-1.0,False,18
17K30,529,experiment,96,↑,up,↑,1.5817543002776802,True,18
17K30,530,experiment,36,↓,no_key,no_letter,-1.0,False,18
17K30,531,experiment,60,↓,up,↑,1.7628008997999132,False,18
17K30,532,experiment,48,↑,no_key,no_letter,-1.0,False,18
17K30,533,experiment,84,←,no_key,no_letter,-1.0,False,18
17K30,534,experiment,180,→,right,→,0.9144338998012245,True,18
17K30,535,training,120,←,left,←,0.8741488000378013,True,18
17K30,536,training,144,→,right,→,1.0149726998060942,True,18
17K30,537,training,48,→,left,←,1.0479719997383654,False,18
17K30,538,experiment,24,↓,right,→,0.8609867999330163,False,18
17K30,539,experiment,24,↑,up,↑,0.871650299988687,True,18
17K30,540,experiment,84,→,right,→,0.6660270001739264,True,18
17K30,541,experiment,84,↑,up,↑,0.8174886996857822,True,18
17K30,542,experiment,156,→,left,←,0.9309852002188563,False,18
17K30,543,experiment,36,→,left,←,0.5937951002269983,False,18
17K30,544,experiment,24,↓,down,↓,0.9008947000838816,True,18
17K30,545,experiment,60,←,left,←,0.8355107000097632,True,18
17K30,546,experiment,36,←,left,←,1.3481797999702394,True,18
17K30,547,experiment,120,↓,down,↓,0.8931868001818657,True,18
17K30,548,experiment,36,↓,down,↓,0.8546083001419902,True,18
17K30,549,experiment,108,→,right,→,1.1859858999960124,True,18
17K30,550,experiment,24,←,right,→,0.8146236999891698,False,18
17K30,551,experiment,120,←,left,←,1.294499000068754,True,18
17K30,552,experiment,12,↓,down,↓,0.8736156998202205,True,18
17K30,553,experiment,96,↓,up,↑,1.5518596000038087,False,18
17K30,554,experiment,12,←,left,←,0.9548293999396265,True,18
17K30,555,experiment,168,↓,down,↓,0.7402889002114534,True,18
17K30,556,experiment,144,←,left,←,0.7718750997446477,True,18
17K30,557,experiment,156,←,left,←,0.7543767001479864,True,18
17K30,558,experiment,12,↓,down,↓,0.8057781998068094,True,18
17K30,559,experiment,180,→,left,←,0.7732488000765443,False,18
17K30,560,experiment,48,↑,left,←,1.0454043000936508,False,18
17K30,561,experiment,120,↓,down,↓,0.7559480001218617,True,18
17K30,562,experiment,180,←,no_key,no_letter,-1.0,False,18
17K30,563,experiment,72,↓,down,↓,0.7246439000591636,True,18
17K30,564,experiment,180,←,left,←,1.281579100061208,True,18
17K30,565,experiment,48,↓,down,↓,0.7935854997485876,True,18
17K30,566,experiment,132,↓,down,↓,0.8143633999861777,True,18
17K30,567,experiment,132,←,left,←,0.8756661000661552,True,18
17K30,568,experiment,96,↓,left,←,0.8959887996315956,False,18
17K30,569,experiment,168,↓,no_key,no_letter,-1.0,False,18
17K30,570,experiment,120,←,no_key,no_letter,-1.0,False,18
17K30,571,experiment,84,←,no_key,no_letter,-1.0,False,18
17K30,572,experiment,156,←,right,→,1.053534499835223,False,18
17K30,573,experiment,72,↓,down,↓,0.7601346001029015,True,18
17K30,574,experiment,36,↓,down,↓,0.652061800006777,True,18
17K30,575,experiment,60,↓,down,↓,0.636601799633354,True,18
17K30,576,experiment,108,↓,down,↓,0.9265944003127515,True,18
17K30,577,experiment,144,←,left,←,0.7121683000586927,True,18
17K30,578,experiment,132,↑,down,↓,0.8901050998829305,False,18
17K30,579,experiment,60,↑,down,↓,0.7142206998541951,False,18
17K30,580,experiment,96,→,no_key,no_letter,-1.0,False,18
17K30,581,experiment,168,←,left,←,1.042169500142336,True,18
17K30,582,experiment,156,←,left,←,1.2421411997638643,True,18
17K30,583,experiment,72,↑,up,↑,0.7690476002171636,True,18
17K30,584,experiment,168,←,left,←,0.7221274999901652,True,18
17K30,585,experiment,48,→,right,→,0.8386168000288308,True,18
17K30,586,experiment,84,→,down,↓,1.7462311000563204,False,18
17K30,587,experiment,108,↓,up,↑,0.9527806001715362,False,18
17K30,588,experiment,132,↑,up,↑,0.6894463002681732,True,18
17K30,589,experiment,96,←,left,←,0.7916482998989522,True,18
17K30,590,experiment,180,→,right,→,0.8704420998692513,True,18
17K30,591,experiment,60,↓,down,↓,0.8028963999822736,True,18
17K30,592,experiment,48,↑,up,↑,0.6367425001226366,True,18
17K30,593,experiment,144,←,left,←,0.7192114996723831,True,18
17K30,594,experiment,144,→,left,←,0.6446074000559747,False,18
17K30,595,experiment,72,→,right,→,1.0085934000089765,True,18
17K30,596,experiment,108,↓,right,→,0.6151912999339402,False,18
17K30,597,experiment,12,↑,down,↓,0.8388475999236107,False,18
17K30,598,training,48,←,left,←,1.0325805000029504,True,18
17K30,599,training,48,→,right,→,0.8611631998792291,True,18
17K30,600,training,36,↑,up,↑,1.0863520000129938,True,18
17K30,601,experiment,84,↓,no_key,no_letter,-1.0,False,18
17K30,602,experiment,48,←,left,←,1.146027300041169,True,18
17K30,603,experiment,24,→,left,←,1.1014233999885619,False,18
17K30,604,experiment,96,←,right,→,1.0665639000944793,False,18
17K30,605,experiment,24,↓,down,↓,1.0775914997793734,True,18
17K30,606,experiment,168,↓,right,→,1.8252215003594756,False,18
17K30,607,experiment,36,↑,up,↑,1.0453897998668253,True,18
17K30,608,experiment,96,↓,down,↓,0.8105174000374973,True,18
17K30,609,experiment,132,→,right,→,1.100100599694997,True,18
17K30,610,experiment,108,↑,up,↑,1.3405376002192497,True,18
17K30,611,experiment,60,↑,down,↓,1.0771933002397418,False,18
17K30,612,experiment,48,↑,up,↑,0.77485609985888,True,18
17K30,613,experiment,60,↑,no_key,no_letter,-1.0,False,18
17K30,614,experiment,48,←,right,→,1.0956167001277208,False,18
17K30,615,experiment,132,↑,up,↑,0.7991897999309003,True,18
17K30,616,experiment,168,↓,down,↓,0.799851999618113,True,18
17K30,617,experiment,84,→,right,→,0.8778570001013577,True,18
17K30,618,experiment,180,←,left,←,1.0330397998914123,True,18
17K30,619,experiment,156,←,left,←,0.7284760000184178,True,18
17K30,620,experiment,24,→,right,→,0.9358548996970057,True,18
17K30,621,experiment,156,↑,up,↑,0.9039620999246836,True,18
17K30,622,experiment,108,↓,down,↓,0.9885268998332322,True,18
17K30,623,experiment,12,↑,left,←,1.1194436997175217,False,18
17K30,624,experiment,156,↑,down,↓,1.4562928001396358,False,18
17K30,625,experiment,12,→,no_key,no_letter,-1.0,False,18
17K30,626,experiment,144,→,left,←,0.7758410000242293,False,18
17K30,627,experiment,132,←,right,→,1.0163811002857983,False,18
17K30,628,experiment,180,←,left,←,0.7948741000145674,True,18
17K30,629,experiment,180,→,no_key,no_letter,-1.0,False,18
17K30,630,experiment,48,→,left,←,1.2803980000317097,False,18
17K30,631,experiment,24,↓,no_key,no_letter,-1.0,False,18
17K30,632,experiment,168,→,right,→,1.0084538999944925,True,18
17K30,633,experiment,96,←,right,→,1.1592982998117805,False,18
17K30,634,experiment,96,→,left,←,0.6610813997685909,False,18
17K30,635,experiment,120,↑,left,←,1.1576027004048228,False,18
17K30,636,experiment,120,←,up,↑,1.3231518999673426,False,18
17K30,637,experiment,168,←,right,→,1.0075798998586833,False,18
17K30,638,experiment,132,↑,up,↑,0.7914311001077294,True,18
17K30,639,experiment,72,←,right,→,0.7305497000925243,False,18
17K30,640,experiment,72,→,left,←,0.6654583998024464,False,18
17K30,641,experiment,60,←,left,←,0.7121588001027703,True,18
17K30,642,experiment,120,→,left,←,0.5997950998134911,False,18
17K30,643,experiment,156,→,left,←,0.6626519998535514,False,18
17K30,644,experiment,36,↑,up,↑,0.9915110003203154,True,18
17K30,645,experiment,12,↓,up,↑,0.7553560002706945,False,18
17K30,646,experiment,72,→,right,→,0.7236941996961832,True,18
17K30,647,experiment,84,↑,up,↑,0.880931300111115,True,18
17K30,648,experiment,84,↓,up,↑,0.7217803997918963,False,18
17K30,649,experiment,36,←,left,←,0.9802788998931646,True,18
17K30,650,experiment,108,←,down,↓,1.5761834001168609,False,18
17K30,651,experiment,36,↓,up,↑,1.03839399991557,False,18
17K30,652,experiment,72,→,left,←,0.8839774001389742,False,18
17K30,653,experiment,144,↓,down,↓,0.9729162002913654,True,18
17K30,654,experiment,120,←,left,←,0.7187147997319698,True,18
17K30,655,experiment,60,←,no_key,no_letter,-1.0,False,18
17K30,656,experiment,108,←,left,←,1.6216963999904692,True,18
17K30,657,experiment,144,↓,left,←,1.211893499828875,False,18
17K30,658,experiment,144,↑,left,←,1.114475800190121,False,18
17K30,659,experiment,12,↑,no_key,no_letter,-1.0,False,18
17K30,660,experiment,180,↓,up,↑,0.9131128001026809,False,18
17K30,661,training,168,→,right,→,1.8770286003127694,True,18
17K30,662,training,156,→,right,→,0.7077504997141659,True,18
17K30,663,training,108,→,right,→,0.9380510002374649,True,18
17K30,664,experiment,48,→,right,→,0.7121502999216318,True,18
17K30,665,experiment,144,←,right,→,1.0339807998389006,False,18
17K30,666,experiment,156,←,left,←,0.7064610999077559,True,18
17K30,667,experiment,24,→,left,←,0.6490368000231683,False,18
17K30,668,experiment,36,←,left,←,1.1936567001976073,True,18
17K30,669,experiment,36,←,left,←,0.7660194002091885,True,18
17K30,670,experiment,168,←,left,←,1.038937000092119,True,18
17K30,671,experiment,108,↓,up,↑,1.0021887999027967,False,18
17K30,672,experiment,60,↑,up,↑,0.6857189000584185,True,18
17K30,673,experiment,108,↓,up,↑,0.8299683998338878,False,18
17K30,674,experiment,108,↑,up,↑,0.8006207998842001,True,18
17K30,675,experiment,120,↑,up,↑,0.8475255002267659,True,18
17K30,676,experiment,84,←,left,←,0.7680689003318548,True,18
17K30,677,experiment,180,↓,down,↓,1.0852366997860372,True,18
17K30,678,experiment,24,↓,up,↑,0.5457147001288831,False,18
17K30,679,experiment,84,↓,up,↑,0.6829302003607154,False,18
17K30,680,experiment,156,↑,up,↑,0.7705394001677632,True,18
17K30,681,experiment,60,↓,down,↓,0.9465152998454869,True,18
17K30,682,experiment,132,→,right,→,0.8506822003982961,True,18
17K30,683,experiment,132,↓,up,↑,0.7496488001197577,False,18
17K30,684,experiment,96,←,right,→,0.8886322998441756,False,18
17K30,685,experiment,12,↑,left,←,1.1096266000531614,False,18
17K30,686,experiment,120,→,left,←,0.758855199906975,False,18
17K30,687,experiment,72,→,right,→,0.8451117002405226,True,18
17K30,688,experiment,144,↑,up,↑,0.8387942002154887,True,18
17K30,689,experiment,48,←,left,←,1.2418128000572324,True,18
17K30,690,experiment,24,→,right,→,0.8812955999746919,True,18
17K30,691,experiment,156,←,right,→,0.7300819996744394,False,18
17K30,692,experiment,180,→,right,→,1.2520755999721587,True,18
17K30,693,experiment,120,→,left,←,0.9239784996025264,False,18
17K30,694,experiment,144,→,no_key,no_letter,-1.0,False,18
17K30,695,experiment,84,↑,down,↓,1.2283016997389495,False,18
17K30,696,experiment,132,→,right,→,0.7196947000920773,True,18
17K30,697,experiment,144,↓,right,→,0.8935632999055088,False,18
17K30,698,experiment,108,→,right,→,0.7804215997457504,True,18
17K30,699,experiment,36,↑,up,↑,1.5162502997554839,True,18
17K30,700,experiment,96,↑,right,→,0.8168421001173556,False,18
17K30,701,experiment,60,↑,up,↑,0.9380654999986291,True,18
17K30,702,experiment,12,←,left,←,0.8993577002547681,True,18
17K30,703,experiment,36,↓,down,↓,0.9923547999933362,True,18
17K30,704,experiment,12,↓,down,↓,0.7848216998390853,True,18
17K30,705,experiment,72,←,right,→,1.4623865000903606,False,18
17K30,706,experiment,120,↑,left,←,0.799642900004983,False,18
17K30,707,experiment,180,→,left,←,0.8613908002153039,False,18
17K30,708,experiment,180,↓,no_key,no_letter,-1.0,False,18
17K30,709,experiment,24,↓,no_key,no_letter,-1.0,False,18
17K30,710,experiment,168,↓,right,→,1.3529496998526156,False,18
17K30,711,experiment,12,↓,no_key,no_letter,-1.0,False,18
17K30,712,experiment,168,↑,down,↓,1.2577912998385727,False,18
17K30,713,experiment,168,→,right,→,1.3712895000353456,True,18
17K30,714,experiment,132,↓,no_key,no_letter,-1.0,False,18
17K30,715,experiment,72,→,no_key,no_letter,-1.0,False,18
17K30,716,experiment,60,↑,no_key,no_letter,-1.0,False,18
17K30,717,experiment,156,←,right,→,1.0911985002458096,False,18
17K30,718,experiment,72,↑,left,←,1.0108614000491798,False,18
17K30,719,experiment,84,←,left,←,0.8415531003847718,True,18
17K30,720,experiment,96,←,left,←,0.6671444000676274,True,18
17K30,721,experiment,48,←,left,←,0.9861216000281274,True,18
17K30,722,experiment,96,↑,left,←,0.7581198001280427,False,18
17K30,723,experiment,48,→,up,↑,1.841687399893999,False,18
17K30,724,training,96,→,right,→,1.0228395997546613,True,18
17K30,725,training,132,←,right,→,0.7348251999355853,False,18
17K30,726,training,144,←,left,←,1.0414891000837088,True,18
17K30,727,experiment,48,→,right,→,1.270788799971342,True,18
17K30,728,experiment,108,↓,left,←,1.033635400235653,False,18
17K30,729,experiment,72,→,left,←,1.0251806997694075,False,18
17K30,730,experiment,108,↓,down,↓,0.969446700066328,True,18
17K30,731,experiment,72,↑,down,↓,0.729831799864769,False,18
17K30,732,experiment,48,→,left,←,0.9132198998704553,False,18
17K30,733,experiment,24,→,left,←,0.7751784003339708,False,18
17K30,734,experiment,60,→,right,→,0.7712097000330687,True,18
17K30,735,experiment,180,↑,left,←,0.5750269000418484,False,18
17K30,736,experiment,132,↑,up,↑,1.2873120000585914,True,18
17K30,737,experiment,168,→,right,→,0.7217632001265883,True,18
17K30,738,experiment,120,↑,up,↑,0.7160487999208272,True,18
17K30,739,experiment,36,←,down,↓,1.2828085999935865,False,18
17K30,740,experiment,180,↓,up,↑,0.7731532002799213,False,18
17K30,741,experiment,12,→,down,↓,1.4862465001642704,False,18
17K30,742,experiment,156,↑,no_key,no_letter,-1.0,False,18
17K30,743,experiment,168,→,right,→,0.7445729002356529,True,18
17K30,744,experiment,96,←,up,↑,1.590040700044483,False,18
17K30,745,experiment,24,←,no_key,no_letter,-1.0,False,18
17K30,746,experiment,12,↑,no_key,no_letter,-1.0,False,18
17K30,747,experiment,48,↑,no_key,no_letter,-1.0,False,18
17K30,748,experiment,120,↓,left,←,1.7479539001360536,False,18
17K30,749,experiment,84,↑,no_key,no_letter,-1.0,False,18
17K30,750,experiment,36,↓,no_key,no_letter,-1.0,False,18
17K30,751,experiment,144,↓,up,↑,1.0403545000590384,False,18
17K30,752,experiment,180,↑,left,←,1.3201898001134396,False,18
17K30,753,experiment,60,↓,no_key,no_letter,-1.0,False,18
17K30,754,experiment,180,↓,right,→,1.0913605000823736,False,18
17K30,755,experiment,72,↓,down,↓,1.0125806001015007,True,18
17K30,756,experiment,132,↑,up,↑,0.768378600012511,True,18
17K30,757,experiment,84,←,left,←,0.6729223998263478,True,18
17K30,758,experiment,144,→,left,←,0.6550194001756608,False,18
17K30,759,experiment,120,→,right,→,1.370294800028205,True,18
17K30,760,experiment,108,→,right,→,0.7925141998566687,True,18
17K30,761,experiment,24,↑,up,↑,0.7167950998991728,True,18
17K30,762,experiment,156,←,left,←,1.243104999884963,True,18
17K30,763,experiment,156,↑,right,→,1.3940652003511786,False,18
17K30,764,experiment,36,→,no_key,no_letter,-1.0,False,18
17K30,765,experiment,156,↑,up,↑,0.9907527002505958,True,18
17K30,766,experiment,96,↓,up,↑,1.3655996997840703,False,18
17K30,767,experiment,168,←,right,→,1.4018226000480354,False,18
17K30,768,experiment,36,→,no_key,no_letter,-1.0,False,18
17K30,769,experiment,72,↓,no_key,no_letter,-1.0,False,18
17K30,770,experiment,108,←,no_key,no_letter,-1.0,False,18
17K30,771,experiment,144,←,left,←,1.2261434001848102,True,18
17K30,772,experiment,48,↓,no_key,no_letter,-1.0,False,18
17K30,773,experiment,84,→,no_key,no_letter,-1.0,False,18
17K30,774,experiment,24,↑,no_key,no_letter,-1.0,False,18
17K30,775,experiment,60,↓,no_key,no_letter,-1.0,False,18
17K30,776,experiment,12,↑,no_key,no_letter,-1.0,False,18
17K30,777,experiment,120,↓,up,↑,0.6766269998624921,False,18
17K30,778,experiment,60,←,right,→,0.77660490013659,False,18
17K30,779,experiment,168,→,left,←,1.0415321998298168,False,18
17K30,780,experiment,96,→,right,→,0.8149902001023293,True,18
17K30,781,experiment,96,←,right,→,1.0051148999482393,False,18
17K30,782,experiment,12,↓,right,→,0.9829076998867095,False,18
17K30,783,experiment,132,←,left,←,0.7106395997107029,True,18
17K30,784,experiment,144,←,left,←,1.2881141998805106,True,18
17K30,785,experiment,84,→,no_key,no_letter,-1.0,False,18
17K30,786,experiment,132,←,right,→,0.776761899702251,False,18
17K30,787,training,108,→,right,→,0.7147973999381065,True,18
17K30,788,training,84,←,no_key,no_letter,-1.0,False,18
17K30,789,training,168,↑,no_key,no_letter,-1.0,False,18
17K30,790,experiment,156,→,right,→,0.9902395000681281,True,18
17K30,791,experiment,84,→,right,→,0.7458131997846067,True,18
17K30,792,experiment,36,↓,down,↓,0.8970568999648094,True,18
17K30,793,experiment,108,→,right,→,0.7635598001070321,True,18
17K30,794,experiment,108,↓,down,↓,1.0974480002187192,True,18
17K30,795,experiment,108,↑,no_key,no_letter,-1.0,False,18
17K30,796,experiment,96,↑,down,↓,1.0434604999609292,False,18
17K30,797,experiment,48,↓,down,↓,0.9103342001326382,True,18
17K30,798,experiment,144,↑,up,↑,0.9169025998562574,True,18
17K30,799,experiment,144,↓,down,↓,1.254590000025928,True,18
17K30,800,experiment,48,↓,up,↑,1.2240460999310017,False,18
17K30,801,experiment,120,↑,up,↑,1.1788598001003265,True,18
17K30,802,experiment,72,→,right,→,1.2311835000291467,True,18
17K30,803,experiment,12,↓,down,↓,1.0363523997366428,True,18
17K30,804,experiment,180,←,left,←,1.216370700392872,True,18
17K30,805,experiment,96,→,right,→,0.7579676997847855,True,18
17K30,806,experiment,24,↓,left,←,1.1431789002381265,False,18
17K30,807,experiment,12,→,left,←,0.8740951996296644,False,18
17K30,808,experiment,60,↑,up,↑,1.1738092000596225,True,18
17K30,809,experiment,156,↓,down,↓,1.2473603002727032,True,18
17K30,810,experiment,168,←,up,↑,1.047408000100404,False,18
17K30,811,experiment,180,→,right,→,0.8253746000118554,True,18
17K30,812,experiment,156,↑,right,→,1.0781542002223432,False,18
17K30,813,experiment,72,↓,right,→,1.1822910998016596,False,18
17K30,814,experiment,144,←,no_key,no_letter,-1.0,False,18
17K30,815,experiment,84,←,left,←,1.4208544995635748,True,18
17K30,816,experiment,12,→,right,→,1.7463489999063313,True,18
17K30,817,experiment,96,↑,up,↑,1.1236411998979747,True,18
17K30,818,experiment,168,↓,up,↑,0.7057082001119852,False,18
17K30,819,experiment,180,←,right,→,1.0119205000810325,False,18
17K30,820,experiment,60,↓,down,↓,0.8287803996354342,True,18
17K30,821,experiment,144,→,left,←,1.1760688000358641,False,18
17K30,822,experiment,132,←,right,→,1.116471499670297,False,18
17K30,823,experiment,36,→,no_key,no_letter,-1.0,False,18
17K30,824,experiment,180,←,no_key,no_letter,-1.0,False,18
17K30,825,experiment,84,←,no_key,no_letter,-1.0,False,18
17K30,826,experiment,156,↑,up,↑,1.0197711996734142,True,18
17K30,827,experiment,24,→,right,→,0.8608448002487421,True,18
17K30,828,experiment,36,↓,down,↓,0.7603999003767967,True,18
17K30,829,experiment,48,→,right,→,0.7255986002273858,True,18
17K30,830,experiment,120,↑,down,↓,1.1585928001441061,False,18
17K30,831,experiment,120,→,right,→,0.7447683997452259,True,18
17K30,832,experiment,132,→,left,←,1.3358835000544786,False,18
17K30,833,experiment,132,↑,up,↑,0.7548294002190232,True,18
17K30,834,experiment,108,→,left,←,0.8106630002148449,False,18
17K30,835,experiment,72,↓,up,↑,0.8191622002050281,False,18
17K30,836,experiment,132,→,left,←,0.7983734998852015,False,18
17K30,837,experiment,72,↓,up,↑,0.7910718000493944,False,18
17K30,838,experiment,48,↑,down,↓,1.0626689000055194,False,18
17K30,839,experiment,36,←,right,→,0.713567600119859,False,18
17K30,840,experiment,84,↓,down,↓,0.7975747999735177,True,18
17K30,841,experiment,120,↓,down,↓,1.0042773000895977,True,18
17K30,842,experiment,24,↑,up,↑,0.9700184999965131,True,18
17K30,843,experiment,12,←,right,→,0.940616600215435,False,18
17K30,844,experiment,60,↓,no_key,no_letter,-1.0,False,18
17K30,845,experiment,168,↓,down,↓,0.929878800176084,True,18
17K30,846,experiment,60,←,up,↑,1.0077980998903513,False,18
17K30,847,experiment,96,→,right,→,1.1762137999758124,True,18
17K30,848,experiment,24,↓,no_key,no_letter,-1.0,False,18
17K30,849,experiment,168,↓,no_key,no_letter,-1.0,False,18
