PART_ID,Trial_no,Trial_type,PDI,Stim_letter,Key_pressed,letter_choose,Rt,Corr,Stimulus Time
18K27,1,training,10,↓,left,←,1.8232278000000406,False,30
18K27,2,training,10,↑,up,↑,0.9708007000000407,True,30
18K27,3,training,10,↓,down,↓,0.9121556000000055,True,30
18K27,4,training,10,→,right,→,0.8238136999999597,True,30
18K27,5,training,10,→,right,→,0.7676689999999553,True,30
18K27,6,training,10,↑,up,↑,0.886860200000001,True,30
18K27,7,training,10,←,left,←,0.723785399999997,True,30
18K27,8,training,10,→,no_key,no_letter,-1.0,False,30
18K27,9,training,10,↑,left,←,1.4473588999999265,False,30
18K27,10,training,10,↑,up,↑,0.7519186000000673,True,30
18K27,11,training,10,→,right,→,0.747680100000025,True,30
18K27,12,training,10,←,left,←,0.7007614000000331,True,30
18K27,13,training,10,←,left,←,0.7562522999999146,True,30
18K27,14,training,10,↑,up,↑,0.7167295000000422,True,30
18K27,15,training,10,↑,up,↑,0.7326252999999951,True,30
18K27,16,training,10,↑,up,↑,0.5338908999999603,True,30
18K27,17,training,10,→,no_key,no_letter,-1.0,False,30
18K27,18,training,10,↓,left,←,1.4106203999999707,False,30
18K27,19,training,10,↓,down,↓,0.7838688000000502,True,30
18K27,20,training,10,←,left,←,0.892508199999952,True,30
18K27,21,training,10,→,right,→,0.7917791000000989,True,18
18K27,22,training,10,←,left,←,0.47297660000003816,True,18
18K27,23,training,10,↓,down,↓,1.0646880000000465,True,18
18K27,24,training,10,←,left,←,0.6896234000000732,True,18
18K27,25,training,10,←,right,→,1.0667872999999872,False,18
18K27,26,training,10,↑,up,↑,0.646985500000028,True,18
18K27,27,training,10,↓,left,←,1.0763769999999795,False,18
18K27,28,training,10,↑,up,↑,0.6942852999999332,True,18
18K27,29,training,10,←,left,←,0.612188500000002,True,18
18K27,30,training,10,←,left,←,0.6546177999999827,True,18
18K27,31,training,108,↑,left,←,0.9972215999999889,False,15
18K27,32,training,36,↓,right,→,0.780777100000023,False,15
18K27,33,training,24,←,left,←,0.6164473000000044,True,15
18K27,34,experiment,72,→,right,→,0.6471628000000464,True,15
18K27,35,experiment,168,→,right,→,0.7847461999999723,True,15
18K27,36,experiment,12,↑,up,↑,0.9885501999999633,True,15
18K27,37,experiment,48,→,right,→,0.8461920999999393,True,15
18K27,38,experiment,168,←,right,→,0.9206155000000535,False,15
18K27,39,experiment,36,→,right,→,0.6979383999999982,True,15
18K27,40,experiment,120,↑,right,→,1.7610709000000497,False,15
18K27,41,experiment,132,↑,up,↑,0.8817638000000443,True,15
18K27,42,experiment,24,↓,left,←,1.0233234000000948,False,15
18K27,43,experiment,180,→,right,→,0.878775399999995,True,15
18K27,44,experiment,108,→,right,→,0.6443506000000525,True,15
18K27,45,experiment,108,→,left,←,0.9087766000000101,False,15
18K27,46,experiment,96,←,left,←,1.026083099999937,True,15
18K27,47,experiment,132,↑,up,↑,0.5755124999999452,True,15
18K27,48,experiment,48,←,right,→,0.6833493000000317,False,15
18K27,49,experiment,156,↑,right,→,0.825679599999944,False,15
18K27,50,experiment,168,→,right,→,0.5709704000000784,True,15
18K27,51,experiment,36,←,left,←,0.6917042999999694,True,15
18K27,52,experiment,132,↓,up,↑,0.6969131999999263,False,15
18K27,53,experiment,24,↓,down,↓,1.1215985000000046,True,15
18K27,54,experiment,60,↑,up,↑,0.707067699999925,True,15
18K27,55,experiment,144,←,right,→,0.6431373000000349,False,15
18K27,56,experiment,60,↑,left,←,0.8265438000000813,False,15
18K27,57,experiment,24,↑,up,↑,0.6238772000000381,True,15
18K27,58,experiment,84,↓,no_key,no_letter,-1.0,False,15
18K27,59,experiment,60,↑,up,↑,0.8560059000000138,True,15
18K27,60,experiment,36,↓,up,↑,0.8786658999999872,False,15
18K27,61,experiment,72,↑,left,←,1.0964629999999715,False,15
18K27,62,experiment,180,↓,down,↓,0.9178914000000304,True,15
18K27,63,experiment,24,←,no_key,no_letter,-1.0,False,15
18K27,64,experiment,72,↓,up,↑,1.7467361999999866,False,15
18K27,65,experiment,144,↓,down,↓,1.005267099999969,True,15
18K27,66,experiment,12,→,right,→,1.912080899999978,True,15
18K27,67,experiment,96,←,left,←,0.7454820000000382,True,15
18K27,68,experiment,96,←,left,←,0.6863412000000153,True,15
18K27,69,experiment,84,↑,down,↓,0.708844699999986,False,15
18K27,70,experiment,180,←,left,←,0.683682900000008,True,15
18K27,71,experiment,108,←,left,←,0.610910800000056,True,15
18K27,72,experiment,144,↓,down,↓,0.9098530999999639,True,15
18K27,73,experiment,84,←,left,←,0.7891965000000027,True,15
18K27,74,experiment,156,←,left,←,0.6657919000000447,True,15
18K27,75,experiment,108,←,left,←,0.6847638000000416,True,15
18K27,76,experiment,120,←,left,←,0.5640655999999353,True,15
18K27,77,experiment,48,→,right,→,0.9987676000000647,True,15
18K27,78,experiment,156,↓,down,↓,1.7221581000000015,True,15
18K27,79,experiment,12,←,left,←,0.829544100000021,True,15
18K27,80,experiment,60,→,right,→,0.7021451000000525,True,15
18K27,81,experiment,12,↓,down,↓,0.8241205000000491,True,15
18K27,82,experiment,48,←,left,←,0.45132950000004257,True,15
18K27,83,experiment,120,↑,up,↑,1.072462900000005,True,15
18K27,84,experiment,84,↑,left,←,0.7838260000000901,False,15
18K27,85,experiment,156,↑,right,→,0.8369709000000967,False,15
18K27,86,experiment,36,←,right,→,0.9683965000000399,False,15
18K27,87,experiment,96,↑,up,↑,1.0510802999999669,True,15
18K27,88,experiment,72,←,left,←,0.6319771999999375,True,15
18K27,89,experiment,120,↑,up,↑,0.876057699999933,True,15
18K27,90,experiment,168,←,left,←,0.60550360000002,True,15
18K27,91,experiment,180,←,left,←,0.7408801000000267,True,15
18K27,92,experiment,144,←,right,→,0.9492263000000776,False,15
18K27,93,experiment,132,←,left,←,0.6095628000000488,True,15
18K27,94,training,120,→,right,→,1.0495986999999332,True,15
18K27,95,training,24,↑,left,←,0.7138707000000295,False,15
18K27,96,training,48,→,left,←,1.0605626999999913,False,15
18K27,97,experiment,72,→,right,→,0.6136525000000574,True,15
18K27,98,experiment,96,↑,up,↑,0.8126154999999926,True,15
18K27,99,experiment,84,↓,down,↓,0.8556118000000197,True,15
18K27,100,experiment,108,↓,down,↓,0.7636867999999595,True,15
18K27,101,experiment,144,→,right,→,0.5905908999998246,True,15
18K27,102,experiment,132,↓,down,↓,0.6914412999999513,True,15
18K27,103,experiment,132,←,left,←,0.6141176999999516,True,15
18K27,104,experiment,168,→,right,→,0.7253977000000305,True,15
18K27,105,experiment,60,↑,left,←,0.6738123999998606,False,15
18K27,106,experiment,180,↑,down,↓,0.6708797000001141,False,15
18K27,107,experiment,168,↓,down,↓,0.48901169999999183,True,15
18K27,108,experiment,120,←,left,←,0.47647060000008423,True,15
18K27,109,experiment,60,←,left,←,0.5543396000000484,True,15
18K27,110,experiment,36,↓,up,↑,0.8687912999998844,False,15
18K27,111,experiment,156,↑,left,←,0.8127065000001039,False,15
18K27,112,experiment,96,↑,left,←,0.7802537999998549,False,15
18K27,113,experiment,180,↑,left,←,1.0952795999999125,False,15
18K27,114,experiment,156,↑,up,↑,0.7345111999998153,True,15
18K27,115,experiment,96,←,left,←,0.4755149000000074,True,15
18K27,116,experiment,180,←,left,←,0.564699100000098,True,15
18K27,117,experiment,168,←,left,←,0.530691299999944,True,15
18K27,118,experiment,36,←,right,→,0.8368582000000515,False,15
18K27,119,experiment,84,↑,up,↑,0.588527699999986,True,15
18K27,120,experiment,156,↓,down,↓,1.092793100000108,True,15
18K27,121,experiment,48,→,left,←,0.8618434999998499,False,15
18K27,122,experiment,12,←,left,←,0.8929709000001367,True,15
18K27,123,experiment,132,↓,down,↓,0.8512254999998277,True,15
18K27,124,experiment,12,↓,no_key,no_letter,-1.0,False,15
18K27,125,experiment,120,↓,up,↑,0.691020399999843,False,15
18K27,126,experiment,96,↑,up,↑,0.7769255000000612,True,15
18K27,127,experiment,84,↓,down,↓,0.9769655000000057,True,15
18K27,128,experiment,132,→,right,→,0.6187750999999935,True,15
18K27,129,experiment,24,←,right,→,1.5040102000000388,False,15
18K27,130,experiment,108,→,right,→,0.7344299999999748,True,15
18K27,131,experiment,36,→,right,→,0.7244167999999718,True,15
18K27,132,experiment,144,→,left,←,1.124251200000117,False,15
18K27,133,experiment,156,↓,up,↑,0.7992828999999801,False,15
18K27,134,experiment,12,→,right,→,0.7699519000000237,True,15
18K27,135,experiment,144,→,left,←,0.6322660999999243,False,15
18K27,136,experiment,36,↑,left,←,0.8489199999999073,False,15
18K27,137,experiment,144,↓,down,↓,0.7040489000000889,True,15
18K27,138,experiment,84,↓,down,↓,0.7477561000000605,True,15
18K27,139,experiment,120,→,right,→,0.553240599999981,True,15
18K27,140,experiment,120,←,left,←,0.8932368000000679,True,15
18K27,141,experiment,72,↑,right,→,1.1817588000001251,False,15
18K27,142,experiment,48,↑,up,↑,1.1616245000000163,True,15
18K27,143,experiment,180,↑,up,↑,0.6170449999999619,True,15
18K27,144,experiment,72,↑,left,←,0.9263685000000805,False,15
18K27,145,experiment,12,→,right,→,0.9263503999998193,True,15
18K27,146,experiment,24,↑,up,↑,0.542448800000102,True,15
18K27,147,experiment,108,→,up,↑,1.2698058000000856,False,15
18K27,148,experiment,72,←,left,←,0.6723919000000933,True,15
18K27,149,experiment,48,←,left,←,1.0194073000000117,True,15
18K27,150,experiment,168,←,left,←,0.533464899999899,True,15
18K27,151,experiment,24,↑,up,↑,0.732059000000163,True,15
18K27,152,experiment,60,→,right,→,0.9859229000001051,True,15
18K27,153,experiment,24,←,left,←,0.5240137000000686,True,15
18K27,154,experiment,60,←,right,→,1.2781316000000515,False,15
18K27,155,experiment,108,↑,up,↑,0.7040789999998651,True,15
18K27,156,experiment,48,↓,left,←,1.177777800000058,False,15
18K27,157,training,120,↑,up,↑,0.5328718000000663,True,15
18K27,158,training,96,↓,down,↓,1.0212810999998965,True,15
18K27,159,training,168,←,left,←,0.8541307999998935,True,15
18K27,160,experiment,36,↓,down,↓,0.6991464000000178,True,15
18K27,161,experiment,132,→,left,←,0.7895513999999366,False,15
18K27,162,experiment,108,↓,down,↓,0.7506067000001622,True,15
18K27,163,experiment,72,↑,up,↑,1.3662702000001445,True,15
18K27,164,experiment,96,←,right,→,0.9431754999998248,False,15
18K27,165,experiment,180,↑,up,↑,0.7109387000000424,True,15
18K27,166,experiment,156,→,left,←,0.7329431999999088,False,15
18K27,167,experiment,96,↓,down,↓,0.824149000000034,True,15
18K27,168,experiment,156,←,left,←,0.6272443999998814,True,15
18K27,169,experiment,36,←,left,←,0.7306674999999814,True,15
18K27,170,experiment,120,→,right,→,0.5823751999998876,True,15
18K27,171,experiment,168,←,left,←,0.4394551999998839,True,15
18K27,172,experiment,48,↓,down,↓,1.060348200000135,True,15
18K27,173,experiment,72,→,down,↓,1.3026844999999412,False,15
18K27,174,experiment,24,→,right,→,1.0221241000001555,True,15
18K27,175,experiment,108,↓,left,←,0.7902403000000504,False,15
18K27,176,experiment,72,↓,down,↓,0.6477448999999069,True,15
18K27,177,experiment,168,←,left,←,0.725960700000087,True,15
18K27,178,experiment,84,→,left,←,0.7489447999998902,False,15
18K27,179,experiment,72,↓,down,↓,0.6612015000000611,True,15
18K27,180,experiment,12,←,down,↓,1.0832984000001034,False,15
18K27,181,experiment,96,↑,up,↑,0.8962025999999241,True,15
18K27,182,experiment,144,←,left,←,0.4541103999999905,True,15
18K27,183,experiment,24,←,left,←,0.48038180000003194,True,15
18K27,184,experiment,168,←,left,←,0.5409566999999242,True,15
18K27,185,experiment,12,→,right,→,0.8583123999999316,True,15
18K27,186,experiment,60,↑,up,↑,0.7061891999999261,True,15
18K27,187,experiment,84,↑,up,↑,0.47688190000008035,True,15
18K27,188,experiment,156,→,right,→,0.5985370999999304,True,15
18K27,189,experiment,108,←,left,←,0.6047224999999798,True,15
18K27,190,experiment,24,↓,down,↓,0.6966703999999027,True,15
18K27,191,experiment,48,↑,down,↓,0.8876893999999993,False,15
18K27,192,experiment,36,→,right,→,0.7501987999999074,True,15
18K27,193,experiment,48,←,left,←,0.743437300000096,True,15
18K27,194,experiment,36,←,left,←,0.42745990000003076,True,15
18K27,195,experiment,12,←,left,←,0.43771670000000995,True,15
18K27,196,experiment,120,↓,down,↓,0.5945423999999093,True,15
18K27,197,experiment,84,↑,down,↓,0.7511488999998619,False,15
18K27,198,experiment,60,←,left,←,0.46688380000000507,True,15
18K27,199,experiment,180,↑,up,↑,0.8984381000000212,True,15
18K27,200,experiment,180,↑,down,↓,0.6803330000000187,False,15
18K27,201,experiment,144,↓,down,↓,0.5208552999999938,True,15
18K27,202,experiment,12,→,right,→,0.8653026000001773,True,15
18K27,203,experiment,120,←,left,←,0.5096975999999813,True,15
18K27,204,experiment,132,↓,left,←,0.6718874999999116,False,15
18K27,205,experiment,108,↑,left,←,0.6676519000000098,False,15
18K27,206,experiment,120,↓,down,↓,0.48163339999996424,True,15
18K27,207,experiment,132,→,right,→,0.653560299999981,True,15
18K27,208,experiment,60,→,left,←,0.6506762000001345,False,15
18K27,209,experiment,48,↓,left,←,0.6405012999998689,False,15
18K27,210,experiment,168,↓,down,↓,0.5318393000000015,True,15
18K27,211,experiment,84,←,right,→,1.4292755000001307,False,15
18K27,212,experiment,156,←,left,←,0.5558158000001185,True,15
18K27,213,experiment,144,→,right,→,0.503796199999897,True,15
18K27,214,experiment,144,←,left,←,0.43509579999999914,True,15
18K27,215,experiment,60,↑,up,↑,1.2508343999998033,True,15
18K27,216,experiment,96,↑,right,→,0.6825854000001073,False,15
18K27,217,experiment,24,↑,left,←,0.8506627000001572,False,15
18K27,218,experiment,132,←,left,←,0.5963266000001113,True,15
18K27,219,experiment,180,↑,up,↑,1.149521600000071,True,15
18K27,220,training,60,↑,right,→,0.8804150000000845,False,15
18K27,221,training,120,↓,down,↓,0.6572244000001319,True,15
18K27,222,training,108,→,left,←,0.6104550000000017,False,15
18K27,223,experiment,108,→,right,→,0.6176408000001175,True,15
18K27,224,experiment,36,→,down,↓,0.7278705000001082,False,15
18K27,225,experiment,144,←,left,←,0.5038660000000164,True,15
18K27,226,experiment,144,→,right,→,0.8974339999999756,True,15
18K27,227,experiment,120,←,left,←,0.6172398000001067,True,15
18K27,228,experiment,60,↑,up,↑,0.59513579999998,True,15
18K27,229,experiment,72,→,right,→,0.4993013000000701,True,15
18K27,230,experiment,156,↓,down,↓,0.7951170999999704,True,15
18K27,231,experiment,96,→,right,→,0.8975932000000739,True,15
18K27,232,experiment,12,↓,down,↓,0.9862754999999197,True,15
18K27,233,experiment,12,←,left,←,0.6240910999999869,True,15
18K27,234,experiment,168,→,left,←,0.5166106999997737,False,15
18K27,235,experiment,60,↓,down,↓,0.695419000000129,True,15
18K27,236,experiment,96,→,right,→,0.6134624999999687,True,15
18K27,237,experiment,156,←,right,→,0.8382015999998202,False,15
18K27,238,experiment,72,←,left,←,0.5352866000000631,True,15
18K27,239,experiment,132,↑,left,←,1.0766358999999284,False,15
18K27,240,experiment,24,↓,right,→,0.7747873999999229,False,15
18K27,241,experiment,132,↑,up,↑,0.5796426000001702,True,15
18K27,242,experiment,108,→,right,→,0.6749359000000368,True,15
18K27,243,experiment,132,→,right,→,0.5958402999999635,True,15
18K27,244,experiment,12,←,right,→,0.9640485000002172,False,15
18K27,245,experiment,48,↓,left,←,0.6201856000000134,False,15
18K27,246,experiment,144,→,right,→,0.653886600000078,True,15
18K27,247,experiment,180,↓,right,→,0.8884547999998631,False,15
18K27,248,experiment,60,→,right,→,0.4650138000001789,True,15
18K27,249,experiment,84,↓,right,→,0.693970199999967,False,15
18K27,250,experiment,60,→,right,→,0.500459200000023,True,15
18K27,251,experiment,120,←,left,←,0.4930884000000333,True,15
18K27,252,experiment,144,↑,up,↑,0.5266401000001224,True,15
18K27,253,experiment,84,↓,right,→,1.197725900000023,False,15
18K27,254,experiment,180,↓,down,↓,0.5562820999998621,True,15
18K27,255,experiment,48,→,left,←,1.016691900000069,False,15
18K27,256,experiment,84,→,right,→,0.5117351000001236,True,15
18K27,257,experiment,156,←,right,→,1.1564971000000241,False,15
18K27,258,experiment,24,↑,up,↑,0.8441947999999684,True,15
18K27,259,experiment,168,↑,up,↑,0.5060469000000012,True,15
18K27,260,experiment,36,←,left,←,0.5214851000000635,True,15
18K27,261,experiment,168,→,right,→,0.8253796999998713,True,15
18K27,262,experiment,180,←,left,←,0.494205200000124,True,15
18K27,263,experiment,132,↓,down,↓,0.6951538000002984,True,15
18K27,264,experiment,24,←,right,→,0.6670272000001205,False,15
18K27,265,experiment,72,→,right,→,0.47035719999985304,True,15
18K27,266,experiment,36,→,left,←,0.955135600000176,False,15
18K27,267,experiment,36,↑,up,↑,1.2489424000000326,True,15
18K27,268,experiment,84,↓,up,↑,0.8516686999996637,False,15
18K27,269,experiment,120,→,right,→,0.438869899999645,True,15
18K27,270,experiment,180,↑,up,↑,0.5144846999996844,True,15
18K27,271,experiment,24,↑,up,↑,0.8309644000000844,True,15
18K27,272,experiment,96,↑,up,↑,0.6781751999997141,True,15
18K27,273,experiment,156,↑,up,↑,0.5474636999997529,True,15
18K27,274,experiment,108,↑,up,↑,0.6046986999999717,True,15
18K27,275,experiment,108,↑,left,←,0.6181820000001608,False,15
18K27,276,experiment,12,↑,right,→,0.7470787000002019,False,15
18K27,277,experiment,48,↑,up,↑,0.47251950000008947,True,15
18K27,278,experiment,48,↑,left,←,0.8620446999998421,False,15
18K27,279,experiment,120,↓,left,←,0.6719407999999021,False,15
18K27,280,experiment,96,→,right,→,0.4626272999998946,True,15
18K27,281,experiment,72,↑,left,←,0.7661457999997765,False,15
18K27,282,experiment,168,↓,left,←,0.6540211000001364,False,15
18K27,283,training,12,↑,up,↑,0.5645021999998789,True,15
18K27,284,training,132,↓,down,↓,0.7247783000002528,True,15
18K27,285,training,108,→,right,→,0.5092396000000008,True,15
18K27,286,experiment,48,→,right,→,0.5754886999998234,True,15
18K27,287,experiment,24,↑,up,↑,0.680052600000181,True,15
18K27,288,experiment,24,←,left,←,0.6171277000003101,True,15
18K27,289,experiment,120,↑,up,↑,0.6447222000001602,True,15
18K27,290,experiment,72,↓,down,↓,0.6448970999999801,True,15
18K27,291,experiment,120,←,left,←,0.6492080000002716,True,15
18K27,292,experiment,156,←,right,→,0.6249483999999939,False,15
18K27,293,experiment,24,↓,down,↓,0.8169387000002644,True,15
18K27,294,experiment,72,←,left,←,0.6434635999999045,True,15
18K27,295,experiment,108,←,left,←,0.6754163000000517,True,15
18K27,296,experiment,60,→,right,→,0.5335394999997334,True,15
18K27,297,experiment,48,←,left,←,0.6105247999998937,True,15
18K27,298,experiment,84,↑,up,↑,0.5316167999999379,True,15
18K27,299,experiment,108,←,left,←,0.7519398999997975,True,15
18K27,300,experiment,132,↓,down,↓,0.5825872000000345,True,15
18K27,301,experiment,60,↑,left,←,0.585344300000088,False,15
18K27,302,experiment,120,→,right,→,0.4501823999999033,True,15
18K27,303,experiment,180,→,down,↓,0.7696826000001238,False,15
18K27,304,experiment,168,→,right,→,0.52723560000004,True,15
18K27,305,experiment,156,↓,down,↓,0.5181701999999859,True,15
18K27,306,experiment,168,↓,left,←,0.8745926999999938,False,15
18K27,307,experiment,180,→,right,→,0.46822259999999005,True,15
18K27,308,experiment,120,↓,left,←,0.6935578000002351,False,15
18K27,309,experiment,180,↑,left,←,0.7083731999996417,False,15
18K27,310,experiment,12,↑,no_key,no_letter,-1.0,False,15
18K27,311,experiment,36,←,left,←,0.7057309000001624,True,15
18K27,312,experiment,108,←,left,←,0.5925720999998703,True,15
18K27,313,experiment,12,→,no_key,no_letter,-1.0,False,15
18K27,314,experiment,144,→,left,←,0.7953552999997555,False,15
18K27,315,experiment,168,↑,right,→,0.5217469999997775,False,15
18K27,316,experiment,48,→,left,←,0.7700144000000364,False,15
18K27,317,experiment,132,→,right,→,0.4486954999997579,True,15
18K27,318,experiment,72,↓,down,↓,1.1126192000001538,True,15
18K27,319,experiment,96,←,left,←,0.8186746999999741,True,15
18K27,320,experiment,96,↑,up,↑,0.5352806000000783,True,15
18K27,321,experiment,144,←,left,←,0.47453130000030797,True,15
18K27,322,experiment,144,←,right,→,0.8852277999999387,False,15
18K27,323,experiment,60,→,left,←,0.9867970999998761,False,15
18K27,324,experiment,36,↑,up,↑,0.5432654000001094,True,15
18K27,325,experiment,12,→,no_key,no_letter,-1.0,False,15
18K27,326,experiment,84,←,right,→,1.0017428000001019,False,15
18K27,327,experiment,144,←,left,←,0.7939475000002858,True,15
18K27,328,experiment,72,↑,up,↑,1.14712819999977,True,15
18K27,329,experiment,168,→,right,→,0.7250944000002164,True,15
18K27,330,experiment,156,↓,down,↓,0.7561295000000428,True,15
18K27,331,experiment,108,↑,up,↑,0.7939437999998518,True,15
18K27,332,experiment,36,←,right,→,0.7637993999996979,False,15
18K27,333,experiment,24,→,down,↓,0.8181605999998283,False,15
18K27,334,experiment,84,↓,left,←,0.5701012000004084,False,15
18K27,335,experiment,96,→,left,←,0.6594128000001547,False,15
18K27,336,experiment,36,→,right,→,0.5677504999998746,True,15
18K27,337,experiment,12,↓,no_key,no_letter,-1.0,False,15
18K27,338,experiment,156,↑,up,↑,0.6906662999999753,True,15
18K27,339,experiment,48,↓,no_key,no_letter,-1.0,False,15
18K27,340,experiment,96,↓,up,↑,0.9816377000001921,False,15
18K27,341,experiment,132,↑,no_key,no_letter,-1.0,False,15
18K27,342,experiment,84,↓,down,↓,0.7495713999996951,True,15
18K27,343,experiment,132,←,left,←,0.7748922999999195,True,15
18K27,344,experiment,60,↓,right,→,0.6015337000003456,False,15
18K27,345,experiment,180,↑,right,→,1.0715089999998781,False,15
18K27,346,training,108,↓,down,↓,0.886462400000255,True,16
18K27,347,training,12,←,right,→,1.6116287999998349,False,16
18K27,348,training,48,↓,down,↓,0.7097217999998975,True,16
18K27,349,experiment,156,↑,up,↑,0.5209939000001214,True,16
18K27,350,experiment,132,→,right,→,0.5705760999999256,True,16
18K27,351,experiment,132,→,right,→,0.5958772999997564,True,16
18K27,352,experiment,36,↑,up,↑,0.612927000000127,True,16
18K27,353,experiment,48,→,right,→,0.6364093000001958,True,16
18K27,354,experiment,48,↑,up,↑,0.5450683000003664,True,16
18K27,355,experiment,12,→,left,←,0.6947299999997085,False,16
18K27,356,experiment,24,→,right,→,0.6629719000002297,True,16
18K27,357,experiment,60,←,up,↑,0.6924244999995608,False,16
18K27,358,experiment,72,←,left,←,0.6218737999997757,True,16
18K27,359,experiment,168,←,left,←,0.619130000000041,True,16
18K27,360,experiment,96,→,right,→,0.5931267000000844,True,16
18K27,361,experiment,72,→,right,→,0.5206530999998904,True,16
18K27,362,experiment,24,→,right,→,0.4893971999999849,True,16
18K27,363,experiment,60,→,right,→,0.6451658999999381,True,16
18K27,364,experiment,156,↑,right,→,0.6230955000000904,False,16
18K27,365,experiment,144,↓,left,←,0.4782765999998446,False,16
18K27,366,experiment,168,→,left,←,0.7940970999998171,False,16
18K27,367,experiment,36,→,right,→,0.8237067999998544,True,16
18K27,368,experiment,120,↓,right,→,1.098240799999985,False,16
18K27,369,experiment,156,→,left,←,1.7698430000000371,False,16
18K27,370,experiment,12,↑,left,←,0.8582642999999734,False,16
18K27,371,experiment,24,↓,left,←,1.0706946000000244,False,16
18K27,372,experiment,96,←,right,→,0.9883356999998796,False,16
18K27,373,experiment,96,←,up,↑,0.6911365999999362,False,16
18K27,374,experiment,24,→,up,↑,0.8178930999997647,False,16
18K27,375,experiment,144,↑,up,↑,0.6350364999998419,True,16
18K27,376,experiment,168,↑,left,←,1.4669128000000455,False,16
18K27,377,experiment,180,↑,up,↑,0.6145708999997623,True,16
18K27,378,experiment,48,↑,up,↑,0.6485695999999734,True,16
18K27,379,experiment,132,←,left,←,0.8515632999997251,True,16
18K27,380,experiment,120,↓,down,↓,0.637950699999692,True,16
18K27,381,experiment,180,↑,up,↑,0.5814949000000524,True,16
18K27,382,experiment,180,↑,up,↑,0.5739116999998259,True,16
18K27,383,experiment,72,↓,up,↑,0.7294332000001305,False,16
18K27,384,experiment,60,←,left,←,0.5521982000000207,True,16
18K27,385,experiment,96,↑,left,←,0.7423709999998209,False,16
18K27,386,experiment,168,→,right,→,0.6850945999999567,True,16
18K27,387,experiment,120,→,right,→,0.491699200000312,True,16
18K27,388,experiment,108,←,left,←,0.4757206999997834,True,16
18K27,389,experiment,144,↑,up,↑,0.7763483999997334,True,16
18K27,390,experiment,180,↑,up,↑,0.4400146000002678,True,16
18K27,391,experiment,72,↓,left,←,0.8002348999998503,False,16
18K27,392,experiment,120,→,up,↑,0.8021767999998701,False,16
18K27,393,experiment,36,↓,left,←,0.7620532000000821,False,16
18K27,394,experiment,60,↑,up,↑,0.6122438000002148,True,16
18K27,395,experiment,132,←,left,←,0.5120612999999139,True,16
18K27,396,experiment,108,←,left,←,0.497551200000089,True,16
18K27,397,experiment,48,→,up,↑,0.8536752999998498,False,16
18K27,398,experiment,84,←,left,←,0.5175216999996337,True,16
18K27,399,experiment,84,↑,up,↑,0.43369110000003275,True,16
18K27,400,experiment,156,→,right,→,0.6393983999996635,True,16
18K27,401,experiment,108,↑,up,↑,0.6861239999998361,True,16
18K27,402,experiment,144,→,right,→,0.6879060000001118,True,16
18K27,403,experiment,36,→,right,→,0.5932121999999254,True,16
18K27,404,experiment,84,←,left,←,0.5728454999998576,True,16
18K27,405,experiment,84,←,left,←,0.5121845999997277,True,16
18K27,406,experiment,108,→,right,→,0.71377560000019,True,16
18K27,407,experiment,12,→,left,←,0.7743092000000615,False,16
18K27,408,experiment,12,←,up,↑,0.6823286000003463,False,16
18K27,409,training,12,←,no_key,no_letter,-1.0,False,16
18K27,410,training,108,↓,right,→,0.8181109999995897,False,16
18K27,411,training,108,↓,left,←,0.8474762000000737,False,16
18K27,412,experiment,132,→,right,→,0.8316350000000057,True,16
18K27,413,experiment,96,←,right,→,1.1913002999999662,False,16
18K27,414,experiment,36,←,up,↑,1.0686596999998983,False,16
18K27,415,experiment,132,→,right,→,0.4880756000002293,True,16
18K27,416,experiment,180,←,right,→,0.7179878000001736,False,16
18K27,417,experiment,132,↓,left,←,0.7682838999999149,False,16
18K27,418,experiment,24,↓,no_key,no_letter,-1.0,False,16
18K27,419,experiment,84,←,left,←,0.5575664000002689,True,16
18K27,420,experiment,156,↓,left,←,0.7370834000003015,False,16
18K27,421,experiment,12,↓,right,→,1.3601691000003484,False,16
18K27,422,experiment,180,↓,left,←,0.9089655000002494,False,16
18K27,423,experiment,108,←,up,↑,1.0776879999998528,False,16
18K27,424,experiment,72,→,right,→,0.5217815000000883,True,16
18K27,425,experiment,48,↓,left,←,0.993369100000109,False,16
18K27,426,experiment,108,↑,up,↑,1.1533652999996775,True,16
18K27,427,experiment,132,→,right,→,0.904785499999889,True,16
18K27,428,experiment,72,↓,left,←,1.1759721999997055,False,16
18K27,429,experiment,120,↓,down,↓,0.8721244999996998,True,16
18K27,430,experiment,60,←,left,←,0.48937370000021474,True,16
18K27,431,experiment,24,→,right,→,0.44515880000017205,True,16
18K27,432,experiment,48,←,left,←,0.467652100000123,True,16
18K27,433,experiment,36,→,right,→,0.6825269999999364,True,16
18K27,434,experiment,24,↓,down,↓,0.7423631999999998,True,16
18K27,435,experiment,12,←,left,←,0.5988926999998512,True,16
18K27,436,experiment,156,→,down,↓,1.0057428000000073,False,16
18K27,437,experiment,144,↓,down,↓,0.628014400000211,True,16
18K27,438,experiment,108,→,right,→,0.6676666999996996,True,16
18K27,439,experiment,180,↑,up,↑,0.7081931000002442,True,16
18K27,440,experiment,144,↑,up,↑,0.6724357999996755,True,16
18K27,441,experiment,120,→,right,→,1.2367866000004142,True,16
18K27,442,experiment,168,←,left,←,0.5831858999999895,True,16
18K27,443,experiment,84,↓,right,→,0.9860029999999824,False,16
18K27,444,experiment,48,→,right,→,0.4593477999997049,True,16
18K27,445,experiment,60,→,right,→,0.9904179000000113,True,16
18K27,446,experiment,180,←,left,←,1.4296189000001505,True,16
18K27,447,experiment,168,↑,up,↑,0.5413877999999386,True,16
18K27,448,experiment,144,→,right,→,0.5508935999996538,True,16
18K27,449,experiment,144,↓,down,↓,0.7673729000002822,True,16
18K27,450,experiment,36,↑,no_key,no_letter,-1.0,False,16
18K27,451,experiment,168,↓,down,↓,0.8991446999998516,True,16
18K27,452,experiment,120,↑,right,→,0.5674207000001843,False,16
18K27,453,experiment,60,→,right,→,0.822769899999912,True,16
18K27,454,experiment,96,↑,up,↑,0.6683346999998321,True,16
18K27,455,experiment,120,↑,up,↑,0.6863883999999416,True,16
18K27,456,experiment,168,↑,left,←,0.6079086999998253,False,16
18K27,457,experiment,96,→,no_key,no_letter,-1.0,False,16
18K27,458,experiment,72,←,down,↓,0.8891419999999925,False,16
18K27,459,experiment,156,↓,down,↓,0.5953736999999819,True,16
18K27,460,experiment,48,↑,up,↑,0.6527348999998139,True,16
18K27,461,experiment,36,→,no_key,no_letter,-1.0,False,16
18K27,462,experiment,108,↑,up,↑,0.6287365999996837,True,16
18K27,463,experiment,96,↑,down,↓,0.7221143000001575,False,16
18K27,464,experiment,84,↑,up,↑,1.5801068999999188,True,16
18K27,465,experiment,12,←,up,↑,0.8426945999999589,False,16
18K27,466,experiment,12,↓,no_key,no_letter,-1.0,False,16
18K27,467,experiment,72,↓,down,↓,0.5192514999998821,True,16
18K27,468,experiment,84,↑,down,↓,0.7686100999999326,False,16
18K27,469,experiment,60,→,right,→,0.6144114999997328,True,16
18K27,470,experiment,156,↑,up,↑,0.4674400000003516,True,16
18K27,471,experiment,24,←,down,↓,0.866574799999853,False,16
18K27,472,training,84,←,left,←,1.1587420000000748,True,16
18K27,473,training,120,↑,up,↑,0.8961382000002232,True,16
18K27,474,training,144,←,no_key,no_letter,-1.0,False,16
18K27,475,experiment,180,←,left,←,0.6883778000001257,True,16
18K27,476,experiment,180,←,left,←,0.8776447000000189,True,16
18K27,477,experiment,120,↑,down,↓,0.7622553999999582,False,16
18K27,478,experiment,72,↑,up,↑,1.2262748999996802,True,16
18K27,479,experiment,12,→,no_key,no_letter,-1.0,False,16
18K27,480,experiment,108,↓,left,←,1.0106986999999208,False,16
18K27,481,experiment,48,←,left,←,0.5347859000003155,True,16
18K27,482,experiment,144,→,right,→,0.6690251999998509,True,16
18K27,483,experiment,96,↓,down,↓,0.6529070999999931,True,16
18K27,484,experiment,156,↑,right,→,0.7577285999996093,False,16
18K27,485,experiment,168,→,left,←,0.5530201999999917,False,16
18K27,486,experiment,60,→,right,→,0.9480803999999807,True,16
18K27,487,experiment,36,→,right,→,0.739899400000013,True,16
18K27,488,experiment,108,→,left,←,0.7993315999997321,False,16
18K27,489,experiment,132,↓,down,↓,0.9182848999998896,True,16
18K27,490,experiment,12,↓,no_key,no_letter,-1.0,False,16
18K27,491,experiment,96,↑,up,↑,0.67576710000003,True,16
18K27,492,experiment,180,←,right,→,0.9132322999998905,False,16
18K27,493,experiment,156,↑,down,↓,1.0011336000002302,False,16
18K27,494,experiment,24,↓,no_key,no_letter,-1.0,False,16
18K27,495,experiment,60,←,right,→,0.5617257999997491,False,16
18K27,496,experiment,36,→,left,←,1.347488500000054,False,16
18K27,497,experiment,168,↓,down,↓,1.1120522999999594,True,16
18K27,498,experiment,84,←,right,→,1.1435450999997556,False,16
18K27,499,experiment,144,↑,up,↑,1.2076389999997446,True,16
18K27,500,experiment,60,←,no_key,no_letter,-1.0,False,16
18K27,501,experiment,48,→,right,→,0.6109272999997302,True,16
18K27,502,experiment,36,↓,no_key,no_letter,-1.0,False,16
18K27,503,experiment,60,↑,up,↑,1.102977699999883,True,16
18K27,504,experiment,96,↑,right,→,0.6558150000000751,False,16
18K27,505,experiment,84,↑,right,→,0.5759650999998485,False,16
18K27,506,experiment,132,→,no_key,no_letter,-1.0,False,16
18K27,507,experiment,96,↓,up,↑,0.703582600000118,False,16
18K27,508,experiment,156,↓,right,→,0.9651377000000139,False,16
18K27,509,experiment,132,←,right,→,0.7641232000000855,False,16
18K27,510,experiment,84,↑,up,↑,0.6658598999997594,True,16
18K27,511,experiment,48,↑,right,→,1.4273036999998112,False,16
18K27,512,experiment,120,↓,down,↓,0.8799935000001824,True,16
18K27,513,experiment,72,←,down,↓,0.9120551000000887,False,16
18K27,514,experiment,72,↑,right,→,1.3747688000003109,False,16
18K27,515,experiment,168,↓,down,↓,0.5910197999996853,True,16
18K27,516,experiment,144,←,left,←,0.5544623999999203,True,16
18K27,517,experiment,132,↑,left,←,0.8943552999999156,False,16
18K27,518,experiment,36,←,right,→,0.6295182000003479,False,16
18K27,519,experiment,156,→,right,→,0.7999423999999635,True,16
18K27,520,experiment,168,←,down,↓,0.8007348000001002,False,16
18K27,521,experiment,108,→,left,←,0.5347428999998556,False,16
18K27,522,experiment,84,→,left,←,1.005390300000272,False,16
18K27,523,experiment,108,←,left,←,0.6617295999999442,True,16
18K27,524,experiment,120,→,right,→,0.6298750999999356,True,16
18K27,525,experiment,120,↓,no_key,no_letter,-1.0,False,16
18K27,526,experiment,48,↓,down,↓,0.7338473999998314,True,16
18K27,527,experiment,24,↓,up,↑,1.7743901000003461,False,16
18K27,528,experiment,12,↓,down,↓,0.6992491000000882,True,16
18K27,529,experiment,144,↑,down,↓,0.5843999999997322,False,16
18K27,530,experiment,12,↑,no_key,no_letter,-1.0,False,16
18K27,531,experiment,24,↓,down,↓,0.677535600000283,True,16
18K27,532,experiment,24,←,down,↓,1.0734396000002562,False,16
18K27,533,experiment,180,→,right,→,0.7397359999999935,True,16
18K27,534,experiment,72,↑,up,↑,0.8471648000004279,True,16
18K27,535,training,36,↓,down,↓,0.832170700000006,True,17
18K27,536,training,72,→,right,→,0.9795877999999902,True,17
18K27,537,training,12,→,right,→,0.76331029999983,True,17
18K27,538,experiment,156,↑,up,↑,0.8884026000000631,True,17
18K27,539,experiment,36,↑,up,↑,1.0039151000000857,True,17
18K27,540,experiment,168,←,left,←,0.6516062000000602,True,17
18K27,541,experiment,108,↑,left,←,0.5101079000000937,False,17
18K27,542,experiment,48,↓,down,↓,0.806506200000058,True,17
18K27,543,experiment,24,↓,up,↑,0.7346896000003653,False,17
18K27,544,experiment,84,↑,right,→,0.8909023000001071,False,17
18K27,545,experiment,168,↓,down,↓,0.621715199999926,True,17
18K27,546,experiment,120,→,right,→,0.528205699999944,True,17
18K27,547,experiment,120,↓,down,↓,0.4969549000002189,True,17
18K27,548,experiment,48,↑,up,↑,1.2140819999999621,True,17
18K27,549,experiment,144,↓,down,↓,0.6583409999998366,True,17
18K27,550,experiment,12,←,right,→,1.1637845999998717,False,17
18K27,551,experiment,132,←,left,←,0.6423668000002181,True,17
18K27,552,experiment,84,→,right,→,0.5133700999999746,True,17
18K27,553,experiment,144,→,left,←,0.6018897999997534,False,17
18K27,554,experiment,36,↓,right,→,1.1870856999998978,False,17
18K27,555,experiment,84,↑,down,↓,0.7470826000003399,False,17
18K27,556,experiment,132,→,right,→,0.5289119999997638,True,17
18K27,557,experiment,180,↑,down,↓,0.8460165999999845,False,17
18K27,558,experiment,96,↑,no_key,no_letter,-1.0,False,17
18K27,559,experiment,144,←,right,→,0.6313434000003326,False,17
18K27,560,experiment,168,←,right,→,0.7990073999999368,False,17
18K27,561,experiment,96,←,right,→,0.6757019000001492,False,17
18K27,562,experiment,120,↑,right,→,0.7091396000000714,False,17
18K27,563,experiment,24,↑,up,↑,0.6963138000000981,True,17
18K27,564,experiment,12,↑,up,↑,0.5993295000002945,True,17
18K27,565,experiment,60,↑,up,↑,0.6259752999999364,True,17
18K27,566,experiment,60,→,right,→,0.5319557000002533,True,17
18K27,567,experiment,24,↓,down,↓,0.6300541000000521,True,17
18K27,568,experiment,12,←,right,→,0.6592131000002155,False,17
18K27,569,experiment,48,←,up,↑,0.7384516999995867,False,17
18K27,570,experiment,180,→,right,→,0.4006398999999874,True,17
18K27,571,experiment,72,↓,right,→,0.5233091000000059,False,17
18K27,572,experiment,96,↑,left,←,0.9678842999996959,False,17
18K27,573,experiment,156,↑,right,→,0.8270829000002777,False,17
18K27,574,experiment,108,→,left,←,0.7312504999999874,False,17
18K27,575,experiment,96,↑,up,↑,0.5049552000000403,True,17
18K27,576,experiment,48,←,right,→,0.5974197000000459,False,17
18K27,577,experiment,60,↑,down,↓,0.9628969000000325,False,17
18K27,578,experiment,108,←,left,←,0.6526301999997486,True,17
18K27,579,experiment,24,↓,down,↓,0.9234384000001228,True,17
18K27,580,experiment,72,↑,up,↑,0.5347099000000526,True,17
18K27,581,experiment,132,←,left,←,0.8850818999999319,True,17
18K27,582,experiment,180,→,right,→,0.8532906999998886,True,17
18K27,583,experiment,108,↓,down,↓,0.793228900000031,True,17
18K27,584,experiment,156,↑,up,↑,0.5547409000000698,True,17
18K27,585,experiment,156,↓,right,→,0.5755263999999443,False,17
18K27,586,experiment,144,↓,down,↓,0.6728017000000364,True,17
18K27,587,experiment,120,←,left,←,0.5643995000000359,True,17
18K27,588,experiment,72,→,left,←,0.5995970999997553,False,17
18K27,589,experiment,168,←,left,←,0.479858200000308,True,17
18K27,590,experiment,84,→,right,→,0.7041472999999314,True,17
18K27,591,experiment,72,↓,down,↓,0.8051927000001342,True,17
18K27,592,experiment,132,↑,up,↑,0.6330920000000333,True,17
18K27,593,experiment,36,←,left,←,0.6686008000001493,True,17
18K27,594,experiment,12,←,right,→,0.49850199999991673,False,17
18K27,595,experiment,180,↑,left,←,0.2339019000000917,False,17
18K27,596,experiment,36,→,right,→,1.1272288999998636,True,17
18K27,597,experiment,60,→,right,→,0.8203677999999854,True,17
18K27,598,training,132,←,left,←,0.5768723999999565,True,18
18K27,599,training,60,↑,up,↑,1.2168406999999206,True,18
18K27,600,training,84,→,right,→,0.6490628999999899,True,18
18K27,601,experiment,168,↓,down,↓,1.1391932000001361,True,18
18K27,602,experiment,156,↓,down,↓,0.5679968999997982,True,18
18K27,603,experiment,108,←,left,←,0.7744462000000567,True,18
18K27,604,experiment,144,→,right,→,0.4943665000000692,True,18
18K27,605,experiment,24,→,no_key,no_letter,-1.0,False,18
18K27,606,experiment,144,↑,right,→,1.1853313999999955,False,18
18K27,607,experiment,180,↓,down,↓,0.5489571000002798,True,18
18K27,608,experiment,144,↑,down,↓,0.6857902000001559,False,18
18K27,609,experiment,60,←,left,←,0.5302642999999989,True,18
18K27,610,experiment,96,→,right,→,0.7666074000003391,True,18
18K27,611,experiment,156,↓,right,→,0.6338642999999138,False,18
18K27,612,experiment,96,→,down,↓,0.9281671999997343,False,18
18K27,613,experiment,48,←,left,←,0.616230799999812,True,18
18K27,614,experiment,24,↑,up,↑,1.5150582000001123,True,18
18K27,615,experiment,180,→,left,←,1.031858800000009,False,18
18K27,616,experiment,96,→,right,→,0.6920384999998532,True,18
18K27,617,experiment,96,↑,up,↑,0.9991515000001527,True,18
18K27,618,experiment,84,→,right,→,0.49751530000003186,True,18
18K27,619,experiment,12,←,no_key,no_letter,-1.0,False,18
18K27,620,experiment,180,→,right,→,1.033810800000083,True,18
18K27,621,experiment,48,←,no_key,no_letter,-1.0,False,18
18K27,622,experiment,72,→,right,→,0.5685362000003806,True,18
18K27,623,experiment,132,↑,up,↑,0.7302483000003122,True,18
18K27,624,experiment,132,↑,up,↑,1.1511242000001403,True,18
18K27,625,experiment,120,↓,down,↓,0.6666887000001225,True,18
18K27,626,experiment,60,←,left,←,0.7155917999998564,True,18
18K27,627,experiment,36,→,right,→,0.6538832000001094,True,18
18K27,628,experiment,72,→,right,→,0.6564426999998432,True,18
18K27,629,experiment,156,→,right,→,0.8710791000003155,True,18
18K27,630,experiment,168,↓,down,↓,0.8326686000000336,True,18
18K27,631,experiment,108,↓,down,↓,0.8013313999999809,True,18
18K27,632,experiment,24,←,right,→,0.7988325000001169,False,18
18K27,633,experiment,84,↓,down,↓,0.7670907000001534,True,18
18K27,634,experiment,84,→,right,→,0.9372492000002239,True,18
18K27,635,experiment,36,↑,up,↑,0.5126540999999634,True,18
18K27,636,experiment,120,↓,down,↓,1.4290797999997267,True,18
18K27,637,experiment,36,→,down,↓,0.9914492999996583,False,18
18K27,638,experiment,168,←,left,←,0.7595405000001847,True,18
18K27,639,experiment,60,→,right,→,0.6142063000002054,True,18
18K27,640,experiment,12,↓,up,↑,0.7937573999997767,False,18
18K27,641,experiment,36,↑,up,↑,0.6041740000000573,True,18
18K27,642,experiment,132,←,right,→,0.9034037999999782,False,18
18K27,643,experiment,180,↑,up,↑,0.6091427999999723,True,18
18K27,644,experiment,24,←,down,↓,0.7188498000000436,False,18
18K27,645,experiment,120,→,right,→,0.5706435000001875,True,18
18K27,646,experiment,132,↓,down,↓,0.709041900000102,True,18
18K27,647,experiment,108,→,right,→,0.5055437000000893,True,18
18K27,648,experiment,72,←,left,←,0.5354394999999386,True,18
18K27,649,experiment,120,→,right,→,0.6161279000002651,True,18
18K27,650,experiment,168,↑,left,←,0.6470479999998133,False,18
18K27,651,experiment,48,→,right,→,0.9463223999996444,True,18
18K27,652,experiment,12,↓,right,→,0.7905429000002187,False,18
18K27,653,experiment,84,←,right,→,0.7177636000001257,False,18
18K27,654,experiment,144,↑,down,↓,0.8385925000002317,False,18
18K27,655,experiment,72,←,no_key,no_letter,-1.0,False,18
18K27,656,experiment,12,↓,no_key,no_letter,-1.0,False,18
18K27,657,experiment,48,→,right,→,0.48869260000037684,True,18
18K27,658,experiment,108,→,right,→,0.6536564999996699,True,18
18K27,659,experiment,156,↓,down,↓,0.7097238999999718,True,18
18K27,660,experiment,60,↑,left,←,1.3589646999998877,False,18
18K27,661,training,12,→,right,→,0.7611165000002984,True,18
18K27,662,training,180,←,left,←,0.7958478000000468,True,18
18K27,663,training,120,↓,up,↑,0.625221099999635,False,18
18K27,664,experiment,144,↓,right,→,0.6017882000001009,False,18
18K27,665,experiment,180,←,left,←,0.7777697000001353,True,18
18K27,666,experiment,120,↓,left,←,0.9832622000003539,False,18
18K27,667,experiment,96,→,right,→,0.5405744999998205,True,18
18K27,668,experiment,12,↓,up,↑,1.0100320000001375,False,18
18K27,669,experiment,36,→,up,↑,0.9814750999998978,False,18
18K27,670,experiment,168,→,right,→,0.5196850999996059,True,18
18K27,671,experiment,24,→,right,→,0.6147253999997702,True,18
18K27,672,experiment,180,←,left,←,0.6074647000000368,True,18
18K27,673,experiment,120,↑,left,←,0.8938395999998647,False,18
18K27,674,experiment,36,←,right,→,0.6425310999998146,False,18
18K27,675,experiment,96,↓,no_key,no_letter,-1.0,False,18
18K27,676,experiment,60,←,left,←,0.6293587000000116,True,18
18K27,677,experiment,144,→,no_key,no_letter,-1.0,False,18
18K27,678,experiment,132,→,right,→,0.6880994999996801,True,18
18K27,679,experiment,48,←,no_key,no_letter,-1.0,False,18
18K27,680,experiment,96,↑,up,↑,0.7837070000000494,True,18
18K27,681,experiment,156,→,right,→,0.7237810999999965,True,18
18K27,682,experiment,12,←,no_key,no_letter,-1.0,False,18
18K27,683,experiment,84,↓,down,↓,0.5448882999999114,True,18
18K27,684,experiment,168,↑,up,↑,1.4629116000000977,True,18
18K27,685,experiment,48,↑,right,→,0.7215783999999985,False,18
18K27,686,experiment,60,→,left,←,1.1314093999999386,False,18
18K27,687,experiment,108,↑,up,↑,0.8363588000001982,True,18
18K27,688,experiment,60,→,right,→,0.6295128000001569,True,18
18K27,689,experiment,156,←,down,↓,0.6426385999998274,False,18
18K27,690,experiment,132,↑,up,↑,0.75337509999963,True,18
18K27,691,experiment,108,→,right,→,0.8318077999997513,True,18
18K27,692,experiment,120,↓,right,→,0.8251728999998704,False,18
18K27,693,experiment,24,↓,no_key,no_letter,-1.0,False,18
18K27,694,experiment,48,→,right,→,0.540092100000038,True,18
18K27,695,experiment,24,→,right,→,0.9055922999996255,True,18
18K27,696,experiment,108,←,left,←,0.5314353999997365,True,18
18K27,697,experiment,132,←,right,→,0.9980639999998857,False,18
18K27,698,experiment,168,→,right,→,0.4732838999998421,True,18
18K27,699,experiment,72,→,right,→,0.7722551000001658,True,18
18K27,700,experiment,60,←,left,←,0.7240621000000829,True,18
18K27,701,experiment,36,↓,left,←,1.4298908000000665,False,18
18K27,702,experiment,132,→,left,←,1.1015535999999884,False,18
18K27,703,experiment,48,→,right,→,0.9496196999998574,True,18
18K27,704,experiment,36,→,right,→,0.6309885000000577,True,18
18K27,705,experiment,24,←,right,→,0.813006100000166,False,18
18K27,706,experiment,12,←,left,←,0.8033372999998392,True,18
18K27,707,experiment,12,↑,no_key,no_letter,-1.0,False,18
18K27,708,experiment,144,→,right,→,1.03489079999963,True,18
18K27,709,experiment,84,↓,down,↓,0.8519366999998965,True,18
18K27,710,experiment,72,↓,down,↓,0.7011955000002672,True,18
18K27,711,experiment,144,→,right,→,1.0778613000002224,True,18
18K27,712,experiment,180,→,no_key,no_letter,-1.0,False,18
18K27,713,experiment,84,↑,up,↑,0.9122699999998076,True,18
18K27,714,experiment,96,↓,down,↓,0.8352199999999357,True,18
18K27,715,experiment,156,↑,down,↓,0.9949753999999302,False,18
18K27,716,experiment,156,↓,no_key,no_letter,-1.0,False,18
18K27,717,experiment,72,→,right,→,0.6933374000000185,True,18
18K27,718,experiment,168,↓,down,↓,0.896598300000278,True,18
18K27,719,experiment,72,↑,no_key,no_letter,-1.0,False,18
18K27,720,experiment,120,↓,down,↓,0.7103320999999596,True,18
18K27,721,experiment,84,→,right,→,0.675835399999869,True,18
18K27,722,experiment,108,←,left,←,0.7834118000000672,True,18
18K27,723,experiment,180,←,left,←,0.7001187000000755,True,18
18K27,724,training,48,←,left,←,0.6363412000000608,True,18
18K27,725,training,36,↓,down,↓,0.6012611999999535,True,18
18K27,726,training,96,→,right,→,0.65146440000035,True,18
18K27,727,experiment,24,→,right,→,0.5635619999998198,True,18
18K27,728,experiment,132,↑,up,↑,1.5592495000000781,True,18
18K27,729,experiment,96,↓,left,←,0.5545972999998412,False,18
18K27,730,experiment,84,↑,up,↑,0.5363013000001047,True,18
18K27,731,experiment,180,→,right,→,0.5845196999998734,True,18
18K27,732,experiment,132,↑,up,↑,0.6954514000003655,True,18
18K27,733,experiment,144,←,left,←,0.6520708999996714,True,18
18K27,734,experiment,72,←,left,←,0.7259182999996483,True,18
18K27,735,experiment,108,←,left,←,0.5987248000001273,True,18
18K27,736,experiment,144,↑,up,↑,0.7754676999998082,True,18
18K27,737,experiment,108,↑,down,↓,0.6709867999998096,False,18
18K27,738,experiment,24,↑,down,↓,0.8620952000001125,False,18
18K27,739,experiment,24,↑,up,↑,0.6350129000002198,True,18
18K27,740,experiment,120,↑,up,↑,1.0443618999997852,True,18
18K27,741,experiment,168,↓,left,←,0.7693580000000111,False,18
18K27,742,experiment,180,→,right,→,0.6363178999999946,True,18
18K27,743,experiment,84,→,no_key,no_letter,-1.0,False,18
18K27,744,experiment,156,↓,down,↓,0.9294051000001673,True,18
18K27,745,experiment,72,←,right,→,1.365698600000087,False,18
18K27,746,experiment,96,→,right,→,0.7008242000001701,True,18
18K27,747,experiment,36,↓,left,←,1.0749034000000393,False,18
18K27,748,experiment,84,↓,down,↓,1.422526299999845,True,18
18K27,749,experiment,132,↑,down,↓,1.1807989999997517,False,18
18K27,750,experiment,144,↓,down,↓,0.7240863000001809,True,18
18K27,751,experiment,12,→,right,→,0.8470973999997113,True,18
18K27,752,experiment,12,←,left,←,0.6065565000003517,True,18
18K27,753,experiment,60,←,left,←,0.6938565000000381,True,18
18K27,754,experiment,156,→,right,→,0.48881640000035986,True,18
18K27,755,experiment,168,→,right,→,0.758149300000241,True,18
18K27,756,experiment,108,←,left,←,0.6167594999997164,True,18
18K27,757,experiment,48,↓,down,↓,0.8917375999999422,True,18
18K27,758,experiment,156,→,right,→,0.6884549999999763,True,18
18K27,759,experiment,120,→,left,←,0.7735906000002615,False,18
18K27,760,experiment,120,↑,left,←,0.9005496999998286,False,18
18K27,761,experiment,48,↑,down,↓,0.6733460999998897,False,18
18K27,762,experiment,180,↓,left,←,0.9944871000002422,False,18
18K27,763,experiment,60,→,right,→,0.5181762000001982,True,18
18K27,764,experiment,60,↓,no_key,no_letter,-1.0,False,18
18K27,765,experiment,120,↓,down,↓,0.7185133000002679,True,18
18K27,766,experiment,168,↓,left,←,0.6623015000000123,False,18
18K27,767,experiment,132,↑,up,↑,0.6464461000000483,True,18
18K27,768,experiment,156,←,right,→,0.6395716000001812,False,18
18K27,769,experiment,168,↑,up,↑,0.8196983000002547,True,18
18K27,770,experiment,36,→,down,↓,1.4389507000000776,False,18
18K27,771,experiment,48,←,left,←,0.5737441000001127,True,18
18K27,772,experiment,48,→,right,→,0.7389117999996415,True,18
18K27,773,experiment,60,↑,up,↑,0.5951746999999159,True,18
18K27,774,experiment,24,→,left,←,0.8024724000001697,False,18
18K27,775,experiment,96,→,right,→,0.5083599999998114,True,18
18K27,776,experiment,36,→,up,↑,1.0649203999996644,False,18
18K27,777,experiment,36,↑,up,↑,0.5891568000001826,True,18
18K27,778,experiment,12,→,right,→,1.3780891999999767,True,18
18K27,779,experiment,108,←,no_key,no_letter,-1.0,False,18
18K27,780,experiment,144,↓,left,←,0.7590500000001157,False,18
18K27,781,experiment,72,→,right,→,0.828512800000226,True,18
18K27,782,experiment,84,←,left,←,0.5669182000001456,True,18
18K27,783,experiment,96,←,left,←,0.58042179999984,True,18
18K27,784,experiment,180,←,right,→,1.3898825999999644,False,18
18K27,785,experiment,12,→,right,→,0.8873834999999417,True,18
18K27,786,experiment,72,←,left,←,0.6996085000000676,True,18
18K27,787,training,24,↑,up,↑,0.6259021000000757,True,18
18K27,788,training,180,↑,up,↑,0.9199172999997245,True,18
18K27,789,training,156,←,right,→,0.632158100000197,False,18
18K27,790,experiment,108,→,right,→,0.657281299999795,True,18
18K27,791,experiment,180,↑,up,↑,0.4859209000001101,True,18
18K27,792,experiment,144,←,left,←,0.48499390000006315,True,18
18K27,793,experiment,72,↑,up,↑,0.5993957000000592,True,18
18K27,794,experiment,36,→,no_key,no_letter,-1.0,False,18
18K27,795,experiment,168,↑,up,↑,1.1529844000001503,True,18
18K27,796,experiment,24,↑,up,↑,0.7127261999999064,True,18
18K27,797,experiment,36,←,no_key,no_letter,-1.0,False,18
18K27,798,experiment,48,↑,right,→,0.7646177000001444,False,18
18K27,799,experiment,72,→,right,→,0.5248075999998036,True,18
18K27,800,experiment,36,↓,down,↓,0.6772821999998087,True,18
18K27,801,experiment,108,←,left,←,0.4759980999997424,True,18
18K27,802,experiment,60,↓,down,↓,0.4811518999999862,True,18
18K27,803,experiment,60,→,left,←,0.6843251999998756,False,18
18K27,804,experiment,84,→,right,→,0.655511899999965,True,18
18K27,805,experiment,180,↑,left,←,0.9077179000000797,False,18
18K27,806,experiment,144,↑,no_key,no_letter,-1.0,False,18
18K27,807,experiment,60,↓,down,↓,0.5336207000000286,True,18
18K27,808,experiment,156,↓,down,↓,0.7342319000003954,True,18
18K27,809,experiment,24,↑,down,↓,1.0104836999998952,False,18
18K27,810,experiment,12,↑,down,↓,0.9367882000001373,False,18
18K27,811,experiment,120,←,left,←,0.6946129999996629,True,18
18K27,812,experiment,72,↓,down,↓,0.6082882999999129,True,18
18K27,813,experiment,96,←,left,←,0.6635756999999103,True,18
18K27,814,experiment,48,→,no_key,no_letter,-1.0,False,18
18K27,815,experiment,168,←,left,←,0.7404293999998117,True,18
18K27,816,experiment,60,→,right,→,0.7079972999999882,True,18
18K27,817,experiment,48,↓,down,↓,0.5370543999997608,True,18
18K27,818,experiment,96,→,right,→,1.4884422999998606,True,18
18K27,819,experiment,144,↓,left,←,0.9143786999998156,False,18
18K27,820,experiment,72,↑,left,←,0.7332235999997465,False,18
18K27,821,experiment,144,↑,right,→,1.1930705999998281,False,18
18K27,822,experiment,132,→,right,→,0.5510540999998739,True,18
18K27,823,experiment,96,↑,up,↑,1.1591066999999384,True,18
18K27,824,experiment,96,↓,down,↓,0.7444731000000502,True,18
18K27,825,experiment,180,↓,down,↓,0.7103354000000763,True,18
18K27,826,experiment,132,←,left,←,0.5715878000000885,True,18
18K27,827,experiment,156,→,right,→,0.8449547999998686,True,18
18K27,828,experiment,120,↓,no_key,no_letter,-1.0,False,18
18K27,829,experiment,84,←,left,←,0.6791295999996692,True,18
18K27,830,experiment,36,→,right,→,0.5822567000000163,True,18
18K27,831,experiment,120,↑,no_key,no_letter,-1.0,False,18
18K27,832,experiment,24,→,left,←,0.8422371999999996,False,18
18K27,833,experiment,120,↓,down,↓,0.6227144999998018,True,18
18K27,834,experiment,180,↓,down,↓,0.6025508000002446,True,18
18K27,835,experiment,24,↓,down,↓,0.5083875000000262,True,18
18K27,836,experiment,156,←,left,←,0.7239439999998467,True,18
18K27,837,experiment,84,→,right,→,0.6874812999999449,True,18
18K27,838,experiment,12,←,left,←,0.491026900000179,True,18
18K27,839,experiment,132,←,left,←,0.5635268000000906,True,18
18K27,840,experiment,168,↑,right,→,0.8043422000000646,False,18
18K27,841,experiment,168,↑,no_key,no_letter,-1.0,False,18
18K27,842,experiment,48,→,left,←,0.7895349999998871,False,18
18K27,843,experiment,156,↓,down,↓,0.7700427999998283,True,18
18K27,844,experiment,12,↑,down,↓,1.1309589000002234,False,18
18K27,845,experiment,108,↓,right,→,0.7833891999998741,False,18
18K27,846,experiment,12,↓,up,↑,1.5358783000001495,False,18
18K27,847,experiment,108,↓,right,→,0.8157267000001411,False,18
18K27,848,experiment,84,→,left,←,0.9616766999997708,False,18
18K27,849,experiment,132,↓,right,→,0.5555828000001384,False,18
