PART_ID,Trial_no,Trial_type,PDI,Stim_letter,Key_pressed,letter_choose,Rt,Corr,Stimulus Time
19K22,1,training,10,→,left,←,1.9452092999999877,False,30
19K22,2,training,10,←,down,↓,1.5490504999979748,False,30
19K22,3,training,10,←,no_key,no_letter,-1.0,False,30
19K22,4,training,10,←,no_key,no_letter,-1.0,False,30
19K22,5,training,10,→,left,←,0.46714690000226256,False,30
19K22,6,training,10,→,right,→,0.6171816000060062,True,30
19K22,7,training,10,←,left,←,0.6005188999988604,True,30
19K22,8,training,10,↓,right,→,1.3059399999983725,False,30
19K22,9,training,10,←,left,←,0.8300213999973494,True,30
19K22,10,training,10,↓,down,↓,0.7726966999980505,True,30
19K22,11,training,10,←,left,←,1.1779663999986951,True,30
19K22,12,training,10,→,right,→,0.9734081999995396,True,30
19K22,13,training,10,↑,up,↑,1.0630325000020093,True,30
19K22,14,training,10,←,left,←,0.583834899996873,True,30
19K22,15,training,10,↓,down,↓,0.694750099995872,True,30
19K22,16,training,10,↓,down,↓,1.1527822999996715,True,30
19K22,17,training,10,→,right,→,0.8580148000037298,True,30
19K22,18,training,10,↑,up,↑,1.1297911999936332,True,30
19K22,19,training,10,←,left,←,1.898416099997121,True,30
19K22,20,training,10,→,right,→,1.1717189000046346,True,30
19K22,21,training,10,→,left,←,0.9101152000002912,False,18
19K22,22,training,10,←,left,←,0.8544122000021162,True,18
19K22,23,training,10,←,down,↓,1.283246799997869,False,18
19K22,24,training,10,↑,up,↑,1.7684798999980558,True,18
19K22,25,training,10,→,right,→,0.7078226000012364,True,18
19K22,26,training,10,↑,up,↑,1.4257615000024089,True,18
19K22,27,training,10,↑,up,↑,0.7549485999988974,True,18
19K22,28,training,10,↑,left,←,1.1384746999974595,False,18
19K22,29,training,10,←,left,←,0.9115208000002895,True,18
19K22,30,training,10,↓,left,←,0.978654499995173,False,18
19K22,31,training,60,↑,left,←,0.9149604999984149,False,15
19K22,32,training,180,↓,right,→,1.3385752999965916,False,15
19K22,33,training,36,↓,left,←,1.1291488999995636,False,15
19K22,34,experiment,12,←,down,↓,1.801832100005413,False,15
19K22,35,experiment,144,←,up,↑,1.2105704999994487,False,15
19K22,36,experiment,168,↑,down,↓,1.6108788999990793,False,15
19K22,37,experiment,84,→,left,←,0.9290252999999211,False,15
19K22,38,experiment,180,←,left,←,1.1297862000064924,True,15
19K22,39,experiment,180,→,left,←,0.995687499998894,False,15
19K22,40,experiment,108,→,no_key,no_letter,-1.0,False,15
19K22,41,experiment,96,→,down,↓,1.7751543999984278,False,15
19K22,42,experiment,132,↑,up,↑,1.1512382000000798,True,15
19K22,43,experiment,132,↓,left,←,1.1399544999949285,False,15
19K22,44,experiment,24,→,left,←,1.0180127999992692,False,15
19K22,45,experiment,156,↑,up,↑,1.5843623999971896,True,15
19K22,46,experiment,24,↓,left,←,1.2826076999990619,False,15
19K22,47,experiment,84,↑,no_key,no_letter,-1.0,False,15
19K22,48,experiment,60,↑,right,→,1.3924253000004683,False,15
19K22,49,experiment,108,←,right,→,0.9820905000015046,False,15
19K22,50,experiment,12,→,up,↑,1.191278100006457,False,15
19K22,51,experiment,48,↑,down,↓,1.6901368999970146,False,15
19K22,52,experiment,120,→,down,↓,1.877569099997345,False,15
19K22,53,experiment,144,←,right,→,0.979136699999799,False,15
19K22,54,experiment,12,↑,right,→,0.8768208999972558,False,15
19K22,55,experiment,84,←,left,←,1.3694326999975601,True,15
19K22,56,experiment,168,←,up,↑,1.2368077999999514,False,15
19K22,57,experiment,60,↓,right,→,0.8826301000008243,False,15
19K22,58,experiment,120,↑,left,←,0.9516772999995737,False,15
19K22,59,experiment,144,←,up,↑,1.3616411999973934,False,15
19K22,60,experiment,48,↑,right,→,1.1835926999992807,False,15
19K22,61,experiment,48,←,right,→,1.046150399997714,False,15
19K22,62,experiment,12,↑,right,→,1.4424399999988964,False,15
19K22,63,experiment,180,→,right,→,0.986768700000539,True,15
19K22,64,experiment,108,↓,down,↓,0.6870070000004489,True,15
19K22,65,experiment,72,→,down,↓,1.0257136000000173,False,15
19K22,66,experiment,144,→,down,↓,0.5681522000013501,False,15
19K22,67,experiment,72,→,down,↓,0.589554500002123,False,15
19K22,68,experiment,132,←,left,←,0.9812755000020843,True,15
19K22,69,experiment,108,↑,up,↑,1.7817226000042865,True,15
19K22,70,experiment,96,↑,right,→,1.0623240999993868,False,15
19K22,71,experiment,72,←,right,→,1.0452854999966803,False,15
19K22,72,experiment,156,↑,right,→,1.1447060000064084,False,15
19K22,73,experiment,96,→,up,↑,1.1016384000031394,False,15
19K22,74,experiment,168,↓,down,↓,1.0508590000026743,True,15
19K22,75,experiment,48,↑,right,→,1.3442327000011574,False,15
19K22,76,experiment,36,←,up,↑,1.1060708000004524,False,15
19K22,77,experiment,120,←,down,↓,1.1303446000019903,False,15
19K22,78,experiment,36,←,down,↓,1.0987338999984786,False,15
19K22,79,experiment,60,→,left,←,0.7118545999983326,False,15
19K22,80,experiment,180,←,left,←,1.1003276000046753,True,15
19K22,81,experiment,84,←,left,←,0.5332458000048064,True,15
19K22,82,experiment,120,↓,left,←,0.5864571999991313,False,15
19K22,83,experiment,168,←,left,←,0.8980554000008851,True,15
19K22,84,experiment,156,←,right,→,0.9599605000039446,False,15
19K22,85,experiment,36,↓,down,↓,0.932459600000584,True,15
19K22,86,experiment,36,←,no_key,no_letter,-1.0,False,15
19K22,87,experiment,24,→,left,←,1.0107095999992453,False,15
19K22,88,experiment,72,←,down,↓,0.8935303000034764,False,15
19K22,89,experiment,96,←,down,↓,0.9454642999990028,False,15
19K22,90,experiment,24,↑,left,←,1.0718032000004314,False,15
19K22,91,experiment,156,→,down,↓,0.8926706999991438,False,15
19K22,92,experiment,60,←,down,↓,0.7208099000054062,False,15
19K22,93,experiment,132,↓,down,↓,0.7818857999955071,True,15
19K22,94,training,120,←,left,←,1.0225081999960821,True,16
19K22,95,training,120,→,left,←,0.5850227999981144,False,16
19K22,96,training,72,↑,right,→,0.9177708999995957,False,16
19K22,97,experiment,72,→,left,←,0.597967100002279,False,16
19K22,98,experiment,24,←,down,↓,0.870258199996897,False,16
19K22,99,experiment,36,↑,up,↑,0.8149263000013889,True,16
19K22,100,experiment,96,→,right,→,0.85661130000517,True,16
19K22,101,experiment,24,↓,up,↑,1.255084700002044,False,16
19K22,102,experiment,60,↑,down,↓,1.0379463999997824,False,16
19K22,103,experiment,120,↑,left,←,0.7378027999948245,False,16
19K22,104,experiment,132,←,left,←,0.683902599994326,True,16
19K22,105,experiment,108,↓,right,→,0.841048199996294,False,16
19K22,106,experiment,48,←,up,↑,0.8691837000005762,False,16
19K22,107,experiment,84,←,left,←,0.7151155000028666,True,16
19K22,108,experiment,180,→,right,→,0.8234281999975792,True,16
19K22,109,experiment,168,↓,left,←,0.581076700000267,False,16
19K22,110,experiment,132,↓,right,→,0.942965499998536,False,16
19K22,111,experiment,48,←,up,↑,1.7963855000052718,False,16
19K22,112,experiment,60,←,right,→,1.3800461999999243,False,16
19K22,113,experiment,72,→,left,←,1.0881713000053423,False,16
19K22,114,experiment,48,→,down,↓,1.7223145000025397,False,16
19K22,115,experiment,96,↑,right,→,0.82468979999976,False,16
19K22,116,experiment,120,←,right,→,1.2998003999964567,False,16
19K22,117,experiment,60,↓,down,↓,0.9537454000019352,True,16
19K22,118,experiment,156,↑,right,→,1.065614999999525,False,16
19K22,119,experiment,72,↑,right,→,0.9464222000024165,False,16
19K22,120,experiment,84,↑,up,↑,0.8792718000040622,True,16
19K22,121,experiment,144,↓,right,→,0.561654199998884,False,16
19K22,122,experiment,132,←,left,←,0.5873835000020335,True,16
19K22,123,experiment,108,↓,left,←,0.6601324000002933,False,16
19K22,124,experiment,180,↓,left,←,0.6549876000062795,False,16
19K22,125,experiment,36,↑,no_key,no_letter,-1.0,False,16
19K22,126,experiment,156,↑,right,→,0.9344998000015039,False,16
19K22,127,experiment,180,→,right,→,0.9626373999999487,True,16
19K22,128,experiment,84,←,right,→,0.8299231999990297,False,16
19K22,129,experiment,48,←,right,→,0.8620220000011614,False,16
19K22,130,experiment,108,←,right,→,1.1946581000011065,False,16
19K22,131,experiment,72,↓,right,→,0.8826371999966796,False,16
19K22,132,experiment,12,↑,right,→,0.8565263999989838,False,16
19K22,133,experiment,96,→,right,→,0.8273109000001568,True,16
19K22,134,experiment,108,↑,right,→,0.9235646000015549,False,16
19K22,135,experiment,24,←,down,↓,1.5669046000039089,False,16
19K22,136,experiment,84,↑,right,→,0.9084600000060163,False,16
19K22,137,experiment,12,→,right,→,1.0094659000023967,True,16
19K22,138,experiment,36,←,up,↑,0.8496334000010393,False,16
19K22,139,experiment,168,→,left,←,0.7257010000030277,False,16
19K22,140,experiment,156,→,right,→,0.755465300004289,True,16
19K22,141,experiment,96,←,down,↓,1.120540299998538,False,16
19K22,142,experiment,60,↓,right,→,0.7104656000010436,False,16
19K22,143,experiment,120,→,right,→,0.9743772000001627,True,16
19K22,144,experiment,156,↑,right,→,0.7634947000042303,False,16
19K22,145,experiment,24,→,right,→,1.0425362000023597,True,16
19K22,146,experiment,12,←,down,↓,1.446134300000267,False,16
19K22,147,experiment,36,→,no_key,no_letter,-1.0,False,16
19K22,148,experiment,168,↑,right,→,1.0809427999993204,False,16
19K22,149,experiment,120,→,right,→,1.1739526000019396,True,16
19K22,150,experiment,144,→,down,↓,0.9684791000036057,False,16
19K22,151,experiment,132,↑,left,←,1.0354129999977886,False,16
19K22,152,experiment,180,←,right,→,0.7375222999980906,False,16
19K22,153,experiment,144,→,down,↓,1.0484947000004468,False,16
19K22,154,experiment,168,↑,up,↑,0.4004879999993136,True,16
19K22,155,experiment,144,→,right,→,0.8691548999995575,True,16
19K22,156,experiment,12,↓,left,←,1.6861828999972204,False,16
19K22,157,training,144,→,left,←,0.5450473999953829,False,17
19K22,158,training,24,→,up,↑,1.1870677000042633,False,17
19K22,159,training,60,↓,down,↓,0.9547794000027352,True,17
19K22,160,experiment,60,↑,up,↑,1.3826670999987982,True,17
19K22,161,experiment,108,↑,no_key,no_letter,-1.0,False,17
19K22,162,experiment,132,↑,up,↑,0.6011228999996092,True,17
19K22,163,experiment,48,→,up,↑,1.1010129999995115,False,17
19K22,164,experiment,36,←,up,↑,1.09603330000391,False,17
19K22,165,experiment,108,←,no_key,no_letter,-1.0,False,17
19K22,166,experiment,156,↓,down,↓,0.6911153000037302,True,17
19K22,167,experiment,36,→,down,↓,1.1871501999994507,False,17
19K22,168,experiment,72,→,right,→,0.753620099996624,True,17
19K22,169,experiment,144,←,up,↑,0.9524156999978004,False,17
19K22,170,experiment,12,←,up,↑,1.075032900000224,False,17
19K22,171,experiment,96,↑,right,→,0.7739103999992949,False,17
19K22,172,experiment,48,↓,left,←,0.48031089999858523,False,17
19K22,173,experiment,156,←,left,←,0.7878326999998535,True,17
19K22,174,experiment,132,←,left,←,0.6024662999989232,True,17
19K22,175,experiment,48,↑,left,←,0.6385557000030531,False,17
19K22,176,experiment,72,↓,left,←,0.4596414999978151,False,17
19K22,177,experiment,168,↓,right,→,0.3670464000024367,False,17
19K22,178,experiment,120,→,up,↑,0.4169973000025493,False,17
19K22,179,experiment,12,→,left,←,1.3087023999978555,False,17
19K22,180,experiment,180,→,left,←,0.6999692999961553,False,17
19K22,181,experiment,132,↑,up,↑,0.6157807999989018,True,17
19K22,182,experiment,156,↑,up,↑,1.2075440999979037,True,17
19K22,183,experiment,24,→,right,→,1.716405200000736,True,17
19K22,184,experiment,60,↓,left,←,0.6576807000019471,False,17
19K22,185,experiment,36,←,down,↓,0.89961979999498,False,17
19K22,186,experiment,120,←,left,←,0.5114842999973916,True,17
19K22,187,experiment,108,↓,left,←,1.0327338999995845,False,17
19K22,188,experiment,12,↓,left,←,0.987602400004107,False,17
19K22,189,experiment,168,→,right,→,0.7344989000048372,True,17
19K22,190,experiment,24,→,left,←,0.7856103000012808,False,17
19K22,191,experiment,36,↑,left,←,0.6482031999985338,False,17
19K22,192,experiment,144,←,left,←,0.6469791999988956,True,17
19K22,193,experiment,96,←,right,→,0.6443822000001092,False,17
19K22,194,experiment,24,→,up,↑,1.0845092000017758,False,17
19K22,195,experiment,144,→,left,←,0.7465646999989985,False,17
19K22,196,experiment,72,↑,right,→,0.6424564999979339,False,17
19K22,197,experiment,96,↓,left,←,0.5472534000000451,False,17
19K22,198,experiment,156,↓,no_key,no_letter,-1.0,False,17
19K22,199,experiment,48,←,right,→,0.6295285999949556,False,17
19K22,200,experiment,60,↑,right,→,0.6227637000047253,False,17
19K22,201,experiment,84,↑,up,↑,0.6321792000017012,True,17
19K22,202,experiment,144,←,up,↑,0.6198613999949885,False,17
19K22,203,experiment,96,→,right,→,0.6167100999955437,True,17
19K22,204,experiment,168,←,left,←,0.4847760999982711,True,17
19K22,205,experiment,84,↑,right,→,0.643651400001545,False,17
19K22,206,experiment,84,↓,left,←,0.6166738999963854,False,17
19K22,207,experiment,84,→,left,←,0.47487359999649925,False,17
19K22,208,experiment,72,↓,left,←,0.3007106000004569,False,17
19K22,209,experiment,120,←,up,↑,0.8256976000047871,False,17
19K22,210,experiment,180,←,down,↓,0.6600971000007121,False,17
19K22,211,experiment,120,↓,right,→,0.26731009999639355,False,17
19K22,212,experiment,108,↑,right,→,0.595876400002453,False,17
19K22,213,experiment,60,→,left,←,0.41739660000166623,False,17
19K22,214,experiment,180,←,right,→,0.7144482000003336,False,17
19K22,215,experiment,132,→,left,←,0.45870239999931073,False,17
19K22,216,experiment,24,→,no_key,no_letter,-1.0,False,17
19K22,217,experiment,12,←,right,→,1.156660100001318,False,17
19K22,218,experiment,168,←,right,→,0.6959475000039674,False,17
19K22,219,experiment,180,→,down,↓,1.122295799999847,False,17
19K22,220,training,120,→,right,→,1.5842600999967544,True,18
19K22,221,training,120,↑,left,←,0.7265767000062624,False,18
19K22,222,training,12,←,down,↓,1.0141161999999895,False,18
19K22,223,experiment,12,↑,left,←,0.5229737999979989,False,18
19K22,224,experiment,36,↑,right,→,0.6305588000032003,False,18
19K22,225,experiment,180,↓,up,↑,0.25038369999674615,False,18
19K22,226,experiment,108,↓,left,←,1.066781200002879,False,18
19K22,227,experiment,168,↑,up,↑,0.3836359999986598,True,18
19K22,228,experiment,132,↑,right,→,0.6057053999975324,False,18
19K22,229,experiment,144,↓,left,←,0.33392800000001444,False,18
19K22,230,experiment,72,←,up,↑,0.5318122000026051,False,18
19K22,231,experiment,120,→,down,↓,0.3506007999967551,False,18
19K22,232,experiment,24,→,up,↑,0.43393050000304356,False,18
19K22,233,experiment,168,↑,right,→,0.8743084000016097,False,18
19K22,234,experiment,156,↓,left,←,0.731309799994051,False,18
19K22,235,experiment,132,↑,down,↓,0.7299169999969308,False,18
19K22,236,experiment,96,↓,right,→,0.582202799996594,False,18
19K22,237,experiment,96,↑,down,↓,0.6270493999982136,False,18
19K22,238,experiment,48,→,down,↓,0.6433914000008372,False,18
19K22,239,experiment,120,↓,right,→,0.26710299999831477,False,18
19K22,240,experiment,180,←,down,↓,0.5405255999939982,False,18
19K22,241,experiment,84,↓,left,←,0.4173936000006506,False,18
19K22,242,experiment,168,↓,up,↑,1.7166088000012678,False,18
19K22,243,experiment,132,→,left,←,0.6986713999940548,False,18
19K22,244,experiment,72,→,right,→,0.7609446999995271,True,18
19K22,245,experiment,108,↑,left,←,1.3075854999988223,False,18
19K22,246,experiment,120,↑,up,↑,0.5162587000013446,True,18
19K22,247,experiment,48,←,up,↑,0.8562599000069895,False,18
19K22,248,experiment,60,↑,down,↓,0.9845055999976466,False,18
19K22,249,experiment,12,→,up,↑,0.6473670000050333,False,18
19K22,250,experiment,132,→,right,→,1.0276565000021947,True,18
19K22,251,experiment,144,↓,down,↓,0.9196742999993148,True,18
19K22,252,experiment,96,↑,down,↓,0.8921297999986564,False,18
19K22,253,experiment,156,←,down,↓,0.8340017000009539,False,18
19K22,254,experiment,84,↑,down,↓,0.7754261000009137,False,18
19K22,255,experiment,108,↓,left,←,0.7672957000031602,False,18
19K22,256,experiment,36,→,down,↓,0.7428224999966915,False,18
19K22,257,experiment,168,←,right,→,0.712195400003111,False,18
19K22,258,experiment,48,↓,down,↓,0.7394223000010243,True,18
19K22,259,experiment,36,←,down,↓,0.760875500003749,False,18
19K22,260,experiment,120,↓,down,↓,0.5889315999957034,True,18
19K22,261,experiment,48,↑,up,↑,0.7373253000041586,True,18
19K22,262,experiment,156,→,down,↓,0.4863298999989638,False,18
19K22,263,experiment,24,→,right,→,1.9506754000030924,True,18
19K22,264,experiment,180,↓,down,↓,0.7674727999983588,True,18
19K22,265,experiment,12,↓,left,←,1.5519599000035669,False,18
19K22,266,experiment,24,↓,down,↓,1.0289392999984557,True,18
19K22,267,experiment,144,→,down,↓,0.7314064000020153,False,18
19K22,268,experiment,144,↑,up,↑,0.8897559000033652,True,18
19K22,269,experiment,156,→,down,↓,0.7040759999945294,False,18
19K22,270,experiment,36,↓,down,↓,0.5874758999998448,True,18
19K22,271,experiment,60,↑,down,↓,0.5764374999998836,False,18
19K22,272,experiment,84,→,no_key,no_letter,-1.0,False,18
19K22,273,experiment,60,→,left,←,1.0499944999974105,False,18
19K22,274,experiment,60,↑,right,→,1.1455229999992298,False,18
19K22,275,experiment,180,←,left,←,0.647055100002035,True,18
19K22,276,experiment,72,↑,left,←,0.5284632000038982,False,18
19K22,277,experiment,108,←,up,↑,0.7214992000008351,False,18
19K22,278,experiment,12,→,no_key,no_letter,-1.0,False,18
19K22,279,experiment,96,→,left,←,1.0485028000039165,False,18
19K22,280,experiment,84,←,right,→,0.6327367999983835,False,18
19K22,281,experiment,24,←,right,→,0.6988369000027888,False,18
19K22,282,experiment,72,↑,right,→,0.5769758999958867,False,18
19K22,283,training,36,→,left,←,0.868514600006165,False,18
19K22,284,training,120,←,left,←,0.7369733000014094,True,18
19K22,285,training,72,↓,down,↓,0.6956465999974171,True,18
19K22,286,experiment,132,↓,down,↓,0.8677896000008332,True,18
19K22,287,experiment,36,↑,down,↓,0.7484962000016822,False,18
19K22,288,experiment,132,→,right,→,0.6628847000029054,True,18
19K22,289,experiment,48,↑,down,↓,0.9884632000030251,False,18
19K22,290,experiment,84,↑,right,→,0.6006125000058091,False,18
19K22,291,experiment,24,↑,down,↓,0.8908249000014621,False,18
19K22,292,experiment,48,→,down,↓,1.025557299995853,False,18
19K22,293,experiment,108,↑,up,↑,1.0903432999984943,True,18
19K22,294,experiment,132,←,down,↓,1.0072370000052615,False,18
19K22,295,experiment,168,→,right,→,0.8192215000017313,True,18
19K22,296,experiment,180,←,left,←,0.675509199994849,True,18
19K22,297,experiment,24,←,right,→,1.1248576999932993,False,18
19K22,298,experiment,168,↓,right,→,0.5917543999967165,False,18
19K22,299,experiment,72,←,right,→,0.65251200000057,False,18
19K22,300,experiment,168,↑,down,↓,0.7637154999974882,False,18
19K22,301,experiment,60,↑,down,↓,0.6995104000015999,False,18
19K22,302,experiment,132,↑,down,↓,0.38385729999572504,False,18
19K22,303,experiment,156,←,left,←,0.3835315000033006,True,18
19K22,304,experiment,156,↑,down,↓,0.7237082000065129,False,18
19K22,305,experiment,48,↓,down,↓,0.6383619000043836,True,18
19K22,306,experiment,144,→,down,↓,0.267315500001132,False,18
19K22,307,experiment,36,←,left,←,0.7377702000012505,True,18
19K22,308,experiment,96,↑,left,←,0.7291937999980291,False,18
19K22,309,experiment,96,↑,left,←,0.38401519999752054,False,18
19K22,310,experiment,144,←,down,↓,0.5998160000017378,False,18
19K22,311,experiment,180,↓,right,→,0.40086510000401177,False,18
19K22,312,experiment,84,←,down,↓,0.7651107999990927,False,18
19K22,313,experiment,12,↑,up,↑,0.6819754999960423,True,18
19K22,314,experiment,24,→,right,→,0.4877707999985432,True,18
19K22,315,experiment,60,↓,left,←,0.7957892000049469,False,18
19K22,316,experiment,96,↑,right,→,0.6006059999999707,False,18
19K22,317,experiment,120,←,left,←,0.603672600002028,True,18
19K22,318,experiment,180,←,down,↓,0.532457000001159,False,18
19K22,319,experiment,120,↑,left,←,0.5808816999997362,False,18
19K22,320,experiment,168,←,down,↓,0.28369219999876805,False,18
19K22,321,experiment,120,→,right,→,0.5162268000058248,True,18
19K22,322,experiment,180,↓,left,←,0.5284972000008565,False,18
19K22,323,experiment,36,↓,right,→,0.6333340999990469,False,18
19K22,324,experiment,156,↑,left,←,0.2671942000015406,False,18
19K22,325,experiment,36,←,down,↓,1.4006859000000986,False,18
19K22,326,experiment,12,↑,no_key,no_letter,-1.0,False,18
19K22,327,experiment,156,↑,up,↑,1.7915787000019918,True,18
19K22,328,experiment,144,↑,up,↑,0.7382648999991943,True,18
19K22,329,experiment,144,←,left,←,0.8174874000033014,True,18
19K22,330,experiment,12,↓,no_key,no_letter,-1.0,False,18
19K22,331,experiment,24,↓,up,↑,0.7368263000025763,False,18
19K22,332,experiment,120,→,down,↓,0.9653285000022152,False,18
19K22,333,experiment,72,→,right,→,0.8177547999948729,True,18
19K22,334,experiment,96,←,left,←,0.7656510999950115,True,18
19K22,335,experiment,84,↓,no_key,no_letter,-1.0,False,18
19K22,336,experiment,72,→,left,←,0.5659894999989774,False,18
19K22,337,experiment,108,←,left,←,1.9453271000020322,True,18
19K22,338,experiment,84,↑,right,→,0.6876076999978977,False,18
19K22,339,experiment,60,→,left,←,0.704283300001407,False,18
19K22,340,experiment,108,→,right,→,0.8326249000019743,True,18
19K22,341,experiment,12,→,right,→,0.8457311000020127,True,18
19K22,342,experiment,48,→,right,→,0.7678307999958633,True,18
19K22,343,experiment,108,←,left,←,0.7780987000005553,True,18
19K22,344,experiment,60,→,right,→,0.7025003999951878,True,18
19K22,345,experiment,72,↑,up,↑,0.7074363000065205,True,18
19K22,346,training,168,↓,down,↓,1.1465959999986808,True,18
19K22,347,training,84,↓,down,↓,0.8568749000041862,True,18
19K22,348,training,12,↑,down,↓,0.7999124999987544,False,18
19K22,349,experiment,132,←,left,←,0.7743520000003628,True,18
19K22,350,experiment,36,↓,down,↓,1.1701065999950515,True,18
19K22,351,experiment,96,↓,down,↓,0.7917436999996426,True,18
19K22,352,experiment,120,↓,down,↓,0.8947901999999885,True,18
19K22,353,experiment,168,←,left,←,0.6235729999971227,True,18
19K22,354,experiment,180,↑,down,↓,1.0184552999999141,False,18
19K22,355,experiment,156,←,left,←,0.778965600002266,True,18
19K22,356,experiment,132,↑,down,↓,1.0006947000001674,False,18
19K22,357,experiment,168,←,right,→,0.830361799999082,False,18
19K22,358,experiment,120,↓,right,→,0.7403937000053702,False,18
19K22,359,experiment,48,←,down,↓,1.1219846999956644,False,18
19K22,360,experiment,144,↓,no_key,no_letter,-1.0,False,18
19K22,361,experiment,84,→,right,→,0.8176058000026387,True,18
19K22,362,experiment,72,↑,down,↓,1.0610974000010174,False,18
19K22,363,experiment,24,→,left,←,1.0184092999988934,False,18
19K22,364,experiment,156,↓,down,↓,0.8176711999985855,True,18
19K22,365,experiment,120,→,down,↓,0.7528664999990724,False,18
19K22,366,experiment,84,→,right,→,0.7980233999987831,True,18
19K22,367,experiment,12,↑,down,↓,1.0135011000020313,False,18
19K22,368,experiment,180,→,down,↓,1.0262124000000767,False,18
19K22,369,experiment,144,↓,left,←,0.6793381000024965,False,18
19K22,370,experiment,132,→,up,↑,0.5932975999967312,False,18
19K22,371,experiment,132,←,down,↓,0.7288537999993423,False,18
19K22,372,experiment,168,→,left,←,0.49404490000597434,False,18
19K22,373,experiment,60,→,left,←,0.7235495999993873,False,18
19K22,374,experiment,120,↓,down,↓,0.88926110000466,True,18
19K22,375,experiment,108,↓,right,→,0.719300500000827,False,18
19K22,376,experiment,72,→,down,↓,0.6743169999972451,False,18
19K22,377,experiment,156,↓,down,↓,0.3673534999979893,True,18
19K22,378,experiment,144,↑,up,↑,0.5138272999975015,True,18
19K22,379,experiment,36,↓,down,↓,0.7269406999985222,True,18
19K22,380,experiment,84,→,left,←,0.8373255000042263,False,18
19K22,381,experiment,60,↑,down,↓,0.7675766999964253,False,18
19K22,382,experiment,48,←,left,←,0.5748383000027388,True,18
19K22,383,experiment,180,↑,right,→,0.6111157999985153,False,18
19K22,384,experiment,24,→,down,↓,0.5203037000028417,False,18
19K22,385,experiment,24,↓,down,↓,1.3497362999987672,True,18
19K22,386,experiment,12,→,left,←,1.0416839999961667,False,18
19K22,387,experiment,96,←,left,←,0.9176060000027064,True,18
19K22,388,experiment,156,→,left,←,0.6651785999929416,False,18
19K22,389,experiment,36,←,up,↑,1.0433211999988998,False,18
19K22,390,experiment,108,←,left,←,0.6463383999944199,True,18
19K22,391,experiment,144,←,right,→,0.8953387000001385,False,18
19K22,392,experiment,12,→,down,↓,1.0730455000011716,False,18
19K22,393,experiment,48,↑,left,←,0.7156742999941343,False,18
19K22,394,experiment,108,←,left,←,0.925371900004393,True,18
19K22,395,experiment,48,↓,right,→,0.8659921999933431,False,18
19K22,396,experiment,36,↑,left,←,0.7241297000000486,False,18
19K22,397,experiment,108,↓,down,↓,0.8699234000014258,True,18
19K22,398,experiment,168,↑,left,←,0.6209048999953666,False,18
19K22,399,experiment,180,→,right,→,0.7190191000045161,True,18
19K22,400,experiment,84,←,right,→,0.782666999999492,False,18
19K22,401,experiment,96,←,left,←,0.5442095000034897,True,18
19K22,402,experiment,24,←,no_key,no_letter,-1.0,False,18
19K22,403,experiment,72,↓,down,↓,0.7655249999952503,True,18
19K22,404,experiment,12,↑,down,↓,0.10066609999921639,False,18
19K22,405,experiment,60,→,right,→,0.6981625000044005,True,18
19K22,406,experiment,96,→,right,→,0.6996654999966267,True,18
19K22,407,experiment,72,↓,down,↓,0.7105780999991111,True,18
19K22,408,experiment,60,→,right,→,0.7946332999999868,True,18
19K22,409,training,60,←,left,←,0.7061014999999315,True,18
19K22,410,training,72,↓,down,↓,0.890705000005255,True,18
19K22,411,training,132,↑,down,↓,0.7263308000037796,False,18
19K22,412,experiment,36,↓,down,↓,0.7368017999979202,True,18
19K22,413,experiment,132,↓,down,↓,0.6343091000017012,True,18
19K22,414,experiment,108,↓,down,↓,0.8257581999932881,True,18
19K22,415,experiment,180,←,left,←,0.647334300003422,True,18
19K22,416,experiment,120,↓,right,→,0.5505791999967187,False,18
19K22,417,experiment,96,↓,down,↓,0.6672464000002947,True,18
19K22,418,experiment,36,→,down,↓,0.7014636999956565,False,18
19K22,419,experiment,24,↑,down,↓,0.6144251999940025,False,18
19K22,420,experiment,84,↑,down,↓,0.6093512999941595,False,18
19K22,421,experiment,12,↑,down,↓,0.6133359000014025,False,18
19K22,422,experiment,168,→,right,→,0.6448831000016071,True,18
19K22,423,experiment,120,↓,left,←,0.7629337000034866,False,18
19K22,424,experiment,132,↑,right,→,0.6017998999959673,False,18
19K22,425,experiment,108,↓,down,↓,0.26711950000026263,True,18
19K22,426,experiment,156,←,left,←,0.38394689999404363,True,18
19K22,427,experiment,132,↑,left,←,0.6743199000047753,False,18
19K22,428,experiment,120,↑,left,←,0.7963143000015407,False,18
19K22,429,experiment,180,→,down,↓,0.3504649000024074,False,18
19K22,430,experiment,144,↑,down,↓,0.30077239999809535,False,18
19K22,431,experiment,48,←,up,↑,0.6864850999991177,False,18
19K22,432,experiment,60,→,left,←,0.8701481999960379,False,18
19K22,433,experiment,48,↑,right,→,0.6482969999997295,False,18
19K22,434,experiment,84,↓,up,↑,0.7160520000034012,False,18
19K22,435,experiment,36,←,down,↓,0.6268495000040275,False,18
19K22,436,experiment,168,←,left,←,0.5672997000001487,True,18
19K22,437,experiment,72,←,up,↑,0.49973730000056094,False,18
19K22,438,experiment,156,←,left,←,0.417148399996222,True,18
19K22,439,experiment,156,↓,left,←,0.6421991000024718,False,18
19K22,440,experiment,24,←,no_key,no_letter,-1.0,False,18
19K22,441,experiment,96,→,right,→,0.5564682000040193,True,18
19K22,442,experiment,108,↓,right,→,0.7092308999999659,False,18
19K22,443,experiment,36,↑,left,←,0.6323141000029864,False,18
19K22,444,experiment,72,→,left,←,0.6142301999934716,False,18
19K22,445,experiment,72,↓,left,←,0.507960599999933,False,18
19K22,446,experiment,144,↑,right,→,0.6628816999946139,False,18
19K22,447,experiment,144,↑,right,→,0.5745397999999113,False,18
19K22,448,experiment,60,↓,left,←,0.6010813999964739,False,18
19K22,449,experiment,24,↑,no_key,no_letter,-1.0,False,18
19K22,450,experiment,48,→,left,←,0.6106201000002329,False,18
19K22,451,experiment,108,↑,right,→,0.5525259000060032,False,18
19K22,452,experiment,156,↓,down,↓,0.7220888000010746,True,18
19K22,453,experiment,132,↑,right,→,0.8345849999968777,False,18
19K22,454,experiment,48,↓,down,↓,0.8069237000017893,True,18
19K22,455,experiment,168,↓,left,←,0.5305427000057534,False,18
19K22,456,experiment,12,→,no_key,no_letter,-1.0,False,18
19K22,457,experiment,168,↓,down,↓,0.6754670000009355,True,18
19K22,458,experiment,72,→,down,↓,0.6118128000016441,False,18
19K22,459,experiment,84,↑,up,↑,0.5721907999977702,True,18
19K22,460,experiment,84,↑,up,↑,0.5629438000032678,True,18
19K22,461,experiment,60,↓,down,↓,0.6510498999996344,True,18
19K22,462,experiment,24,→,no_key,no_letter,-1.0,False,18
19K22,463,experiment,96,←,down,↓,0.8936900999979116,False,18
19K22,464,experiment,96,←,left,←,0.829025899998669,True,18
19K22,465,experiment,180,↓,down,↓,0.8381280000030529,True,18
19K22,466,experiment,120,←,left,←,0.5751464999993914,True,18
19K22,467,experiment,144,→,right,→,0.7427022999982,True,18
19K22,468,experiment,60,↑,down,↓,0.9060062999997172,False,18
19K22,469,experiment,180,→,down,↓,0.8816775000013877,False,18
19K22,470,experiment,12,↑,left,←,1.0661725999962073,False,18
19K22,471,experiment,12,↓,down,↓,0.7722576999949524,True,18
19K22,472,training,108,↑,down,↓,0.6652870000034454,False,18
19K22,473,training,132,→,right,→,0.8076004999966244,True,18
19K22,474,training,96,↓,down,↓,0.7803950000015902,True,18
19K22,475,experiment,108,→,down,↓,0.7280736999964574,False,18
19K22,476,experiment,96,←,down,↓,0.7312115000022459,False,18
19K22,477,experiment,36,→,right,→,0.8234026999998605,True,18
19K22,478,experiment,180,↓,down,↓,0.7951721000063117,True,18
19K22,479,experiment,132,↓,down,↓,0.6514010000028065,True,18
19K22,480,experiment,12,←,no_key,no_letter,-1.0,False,18
19K22,481,experiment,120,↓,down,↓,0.8667158000025665,True,18
19K22,482,experiment,60,↓,down,↓,0.6755717999985791,True,18
19K22,483,experiment,12,↑,down,↓,0.8038923000058276,False,18
19K22,484,experiment,132,→,down,↓,0.7013203000024077,False,18
19K22,485,experiment,180,←,down,↓,0.5643905000033556,False,18
19K22,486,experiment,120,→,down,↓,0.5967056000008597,False,18
19K22,487,experiment,108,↑,down,↓,0.8446836999937659,False,18
19K22,488,experiment,60,↓,down,↓,0.5241657000005944,True,18
19K22,489,experiment,48,↓,down,↓,0.6160966000024928,True,18
19K22,490,experiment,84,→,down,↓,0.5828318999992916,False,18
19K22,491,experiment,84,↑,right,→,0.5486975999956485,False,18
19K22,492,experiment,96,↑,down,↓,0.48259179999877233,False,18
19K22,493,experiment,144,←,left,←,0.49319890000333544,True,18
19K22,494,experiment,108,↓,down,↓,0.6690119999984745,True,18
19K22,495,experiment,12,→,right,→,0.7816596999982721,True,18
19K22,496,experiment,180,→,down,↓,0.7448776999954134,False,18
19K22,497,experiment,168,→,down,↓,0.7035785999978543,False,18
19K22,498,experiment,156,←,down,↓,0.8091438000046765,False,18
19K22,499,experiment,72,↑,down,↓,0.7687167999974918,False,18
19K22,500,experiment,24,←,left,←,1.008469899999909,True,18
19K22,501,experiment,72,→,right,→,0.5473617000025115,True,18
19K22,502,experiment,24,↑,up,↑,0.7429555000053369,True,18
19K22,503,experiment,60,←,left,←,0.512635400002182,True,18
19K22,504,experiment,36,→,down,↓,0.755971500002488,False,18
19K22,505,experiment,144,→,left,←,0.7718211000028532,False,18
19K22,506,experiment,168,↓,down,↓,0.6615751999997883,True,18
19K22,507,experiment,24,→,no_key,no_letter,-1.0,False,18
19K22,508,experiment,84,→,down,↓,0.7041228000016417,False,18
19K22,509,experiment,72,↑,up,↑,0.649878100004571,True,18
19K22,510,experiment,48,↑,up,↑,1.0156891000005999,True,18
19K22,511,experiment,96,←,left,←,0.6848811000018031,True,18
19K22,512,experiment,84,↓,down,↓,0.7840483000036329,True,18
19K22,513,experiment,132,→,right,→,0.7113060999981826,True,18
19K22,514,experiment,144,→,down,↓,0.7154989000046044,False,18
19K22,515,experiment,24,↓,no_key,no_letter,-1.0,False,18
19K22,516,experiment,156,→,left,←,0.620771900001273,False,18
19K22,517,experiment,36,↑,down,↓,0.7506356000012602,False,18
19K22,518,experiment,132,↑,down,↓,0.8410464000044158,False,18
19K22,519,experiment,120,↑,up,↑,0.676201400005084,True,18
19K22,520,experiment,12,←,down,↓,0.9936784000019543,False,18
19K22,521,experiment,156,↓,down,↓,0.9807744999998249,True,18
19K22,522,experiment,168,↓,up,↑,0.8502690000022994,False,18
19K22,523,experiment,36,↓,down,↓,0.7729615999996895,True,18
19K22,524,experiment,48,→,right,→,1.0380742999986978,True,18
19K22,525,experiment,120,←,down,↓,0.6550118000013754,False,18
19K22,526,experiment,180,→,no_key,no_letter,-1.0,False,18
19K22,527,experiment,156,↑,down,↓,0.7050597999987076,False,18
19K22,528,experiment,108,↓,down,↓,0.8573943999945186,True,18
19K22,529,experiment,144,→,right,→,0.7751860999997007,True,18
19K22,530,experiment,60,↓,down,↓,0.8617650999949547,True,18
19K22,531,experiment,48,→,down,↓,0.7879113000017242,False,18
19K22,532,experiment,72,←,left,←,0.6441993000044022,True,18
19K22,533,experiment,168,→,down,↓,0.7043802000043797,False,18
19K22,534,experiment,96,↑,down,↓,0.7451423000020441,False,18
19K22,535,training,84,→,down,↓,0.7746953000023495,False,18
19K22,536,training,24,↓,down,↓,0.8093939000027603,True,18
19K22,537,training,36,↓,down,↓,0.6706359999952838,True,18
19K22,538,experiment,120,←,left,←,0.8795306999963941,True,18
19K22,539,experiment,168,↓,left,←,0.652723800005333,False,18
19K22,540,experiment,72,←,down,↓,0.6361293000009027,False,18
19K22,541,experiment,144,↓,left,←,0.5312621000048239,False,18
19K22,542,experiment,72,←,left,←,0.7479925000006915,True,18
19K22,543,experiment,36,↓,down,↓,0.6381843999988632,True,18
19K22,544,experiment,84,←,left,←,0.6527358000021195,True,18
19K22,545,experiment,108,→,down,↓,0.7474510999963968,False,18
19K22,546,experiment,180,→,left,←,0.5682268000018666,False,18
19K22,547,experiment,36,↓,down,↓,0.7497625999967568,True,18
19K22,548,experiment,96,←,left,←,0.7618874000036158,True,18
19K22,549,experiment,132,←,right,→,0.7949252000034903,False,18
19K22,550,experiment,132,↑,down,↓,0.9822914999967907,False,18
19K22,551,experiment,24,→,up,↑,0.9675543999983347,False,18
19K22,552,experiment,180,←,left,←,0.8883224999954109,True,18
19K22,553,experiment,144,↓,down,↓,0.7258596000028774,True,18
19K22,554,experiment,108,↑,down,↓,0.749917799999821,False,18
19K22,555,experiment,60,←,down,↓,1.3491261000017403,False,18
19K22,556,experiment,84,↑,up,↑,0.7342200999992201,True,18
19K22,557,experiment,48,→,down,↓,0.7585809000011068,False,18
19K22,558,experiment,168,↓,down,↓,0.6804839999967953,True,18
19K22,559,experiment,168,←,up,↑,0.6385558999973,False,18
19K22,560,experiment,48,←,down,↓,0.885102200001711,False,18
19K22,561,experiment,144,↓,down,↓,0.744902300000831,True,18
19K22,562,experiment,24,↓,left,←,0.8968313000004855,False,18
19K22,563,experiment,60,←,left,←,0.6059509999977308,True,18
19K22,564,experiment,48,↓,left,←,0.6372046999968006,False,18
19K22,565,experiment,108,→,down,↓,0.803434900000866,False,18
19K22,566,experiment,36,↓,down,↓,1.0526905000006082,True,18
19K22,567,experiment,24,←,down,↓,1.6245667000039248,False,18
19K22,568,experiment,96,→,left,←,0.9294636999984505,False,18
19K22,569,experiment,12,←,left,←,0.6510506000049645,True,18
19K22,570,experiment,36,→,left,←,0.5913724999991246,False,18
19K22,571,experiment,24,←,down,↓,0.8802540999968187,False,18
19K22,572,experiment,12,↓,left,←,1.071457799997006,False,18
19K22,573,experiment,132,↓,up,↑,0.7172749000019394,False,18
19K22,574,experiment,72,←,left,←,0.6746894999960205,True,18
19K22,575,experiment,84,←,right,→,0.7045787000024575,False,18
19K22,576,experiment,180,↓,left,←,0.5933529999965685,False,18
19K22,577,experiment,84,←,right,→,0.916393399995286,False,18
19K22,578,experiment,132,↑,up,↑,0.7917245999997249,True,18
19K22,579,experiment,48,←,down,↓,0.8072701999990386,False,18
19K22,580,experiment,156,→,left,←,0.8442554000066593,False,18
19K22,581,experiment,12,↓,no_key,no_letter,-1.0,False,18
19K22,582,experiment,120,↑,down,↓,0.8900817000030656,False,18
19K22,583,experiment,156,→,right,→,0.7410075000007055,True,18
19K22,584,experiment,96,↑,right,→,0.6793451999983517,False,18
19K22,585,experiment,168,→,right,→,0.7937679999959073,True,18
19K22,586,experiment,144,→,down,↓,0.6466345000008005,False,18
19K22,587,experiment,108,↓,left,←,0.8737736999974004,False,18
19K22,588,experiment,72,↑,up,↑,0.7442637999993167,True,18
19K22,589,experiment,156,←,left,←,0.6542655000012019,True,18
19K22,590,experiment,120,→,right,→,0.5702230999959284,True,18
19K22,591,experiment,120,←,right,→,0.821965299997828,False,18
19K22,592,experiment,96,←,left,←,0.5706405000019004,True,18
19K22,593,experiment,156,↓,up,↑,0.8121219000022393,False,18
19K22,594,experiment,60,↓,down,↓,0.5753580999953556,True,18
19K22,595,experiment,60,↑,up,↑,0.7519173999971827,True,18
19K22,596,experiment,180,←,left,←,0.6218172000008053,True,18
19K22,597,experiment,12,←,no_key,no_letter,-1.0,False,18
19K22,598,training,48,↑,right,→,0.8943748000019696,False,18
19K22,599,training,36,↓,down,↓,0.6567763999992167,True,18
19K22,600,training,156,→,right,→,0.7918447999982163,True,18
19K22,601,experiment,60,↓,down,↓,0.7070004000051995,True,18
19K22,602,experiment,144,↑,up,↑,0.7192098000014084,True,18
19K22,603,experiment,72,↑,up,↑,0.6592247000007774,True,18
19K22,604,experiment,60,↑,up,↑,0.6646525999967707,True,18
19K22,605,experiment,108,→,right,→,0.520228200002748,True,18
19K22,606,experiment,60,↑,no_key,no_letter,-1.0,False,18
19K22,607,experiment,168,←,right,→,0.6106855999969412,False,18
19K22,608,experiment,24,←,left,←,0.6934354999975767,True,18
19K22,609,experiment,132,↓,left,←,0.5871133999971789,False,18
19K22,610,experiment,48,→,right,→,0.7533279999988736,True,18
19K22,611,experiment,84,→,right,→,0.7675257000009879,True,18
19K22,612,experiment,24,←,right,→,0.5811499999981606,False,18
19K22,613,experiment,96,←,right,→,0.6128157000057399,False,18
19K22,614,experiment,48,↓,no_key,no_letter,-1.0,False,18
19K22,615,experiment,12,↓,down,↓,0.7519591000018409,True,18
19K22,616,experiment,168,←,left,←,0.7246205000046757,True,18
19K22,617,experiment,36,←,up,↑,0.8567934000020614,False,18
19K22,618,experiment,96,→,right,→,0.7191628999935347,True,18
19K22,619,experiment,36,←,left,←,0.7828163999947719,True,18
19K22,620,experiment,48,→,no_key,no_letter,-1.0,False,18
19K22,621,experiment,132,←,left,←,0.8371107999992091,True,18
19K22,622,experiment,12,←,right,→,0.8802974999998696,False,18
19K22,623,experiment,72,↑,up,↑,0.6860890000025393,True,18
19K22,624,experiment,24,←,left,←,0.8511999000038486,True,18
19K22,625,experiment,156,↓,down,↓,0.7452453000005335,True,18
19K22,626,experiment,96,↓,down,↓,0.7787889000028372,True,18
19K22,627,experiment,60,↑,down,↓,0.7085923999984516,False,18
19K22,628,experiment,156,→,right,→,0.7859844999984489,True,18
19K22,629,experiment,48,↑,right,→,0.7809896999970078,False,18
19K22,630,experiment,108,←,down,↓,0.8743108000053326,False,18
19K22,631,experiment,24,←,down,↓,0.8550789000000805,False,18
19K22,632,experiment,12,↓,no_key,no_letter,-1.0,False,18
19K22,633,experiment,84,←,down,↓,0.8528146000026027,False,18
19K22,634,experiment,120,→,right,→,1.2662822999991477,True,18
19K22,635,experiment,156,↓,down,↓,0.688999199999671,True,18
19K22,636,experiment,144,→,right,→,0.7964542000045185,True,18
19K22,637,experiment,36,↑,no_key,no_letter,-1.0,False,18
19K22,638,experiment,96,↑,left,←,0.54574799999682,False,18
19K22,639,experiment,180,←,left,←,0.6103054999985034,True,18
19K22,640,experiment,84,↓,left,←,0.7065585000018473,False,18
19K22,641,experiment,144,↑,down,↓,0.7281833000015467,False,18
19K22,642,experiment,108,→,left,←,0.7128139000051306,False,18
19K22,643,experiment,72,↓,down,↓,0.8807784999953583,True,18
19K22,644,experiment,12,↑,down,↓,0.8600987999961944,False,18
19K22,645,experiment,84,↑,down,↓,0.6725293999988935,False,18
19K22,646,experiment,168,→,right,→,0.6922603999992134,True,18
19K22,647,experiment,120,↑,down,↓,0.7928562999950373,False,18
19K22,648,experiment,120,↑,down,↓,0.6117665000056149,False,18
19K22,649,experiment,180,←,left,←,0.6119158000001335,True,18
19K22,650,experiment,156,↓,down,↓,0.7070717999959015,True,18
19K22,651,experiment,132,→,down,↓,0.5583727999983239,False,18
19K22,652,experiment,120,←,left,←,0.5191816000005929,True,18
19K22,653,experiment,36,→,right,→,0.5136138000016217,True,18
19K22,654,experiment,72,↑,right,→,0.5965282999968622,False,18
19K22,655,experiment,180,←,right,→,0.5606754000036744,False,18
19K22,656,experiment,144,↑,right,→,0.6786981999975978,False,18
19K22,657,experiment,180,↑,right,→,0.6270166999966023,False,18
19K22,658,experiment,168,←,right,→,0.5649722000016482,False,18
19K22,659,experiment,108,←,left,←,0.6292150000008405,True,18
19K22,660,experiment,132,↓,right,→,0.5185744000045815,False,18
19K22,661,training,12,←,right,→,0.7052826999934041,False,18
19K22,662,training,84,←,left,←,0.4715684000038891,True,18
19K22,663,training,180,→,left,←,0.4952112999962992,False,18
19K22,664,experiment,12,←,no_key,no_letter,-1.0,False,18
19K22,665,experiment,12,↑,right,→,0.6284424999976181,False,18
19K22,666,experiment,180,↑,left,←,0.4900378999955137,False,18
19K22,667,experiment,144,←,left,←,0.47382419999485137,True,18
19K22,668,experiment,24,↑,left,←,0.8155100000003586,False,18
19K22,669,experiment,36,→,left,←,1.1540235000065877,False,18
19K22,670,experiment,120,←,left,←,1.4549614999996265,True,18
19K22,671,experiment,144,↓,left,←,0.5289120000015828,False,18
19K22,672,experiment,108,↑,up,↑,0.7286039000027813,True,18
19K22,673,experiment,168,↓,down,↓,1.2307572999998229,True,18
19K22,674,experiment,168,←,left,←,0.8232174999939161,True,18
19K22,675,experiment,132,↓,up,↑,1.7889543999990565,False,18
19K22,676,experiment,48,↓,left,←,0.916539300000295,False,18
19K22,677,experiment,180,↓,up,↑,0.8082070000018575,False,18
19K22,678,experiment,156,↑,up,↑,0.7998100999975577,True,18
19K22,679,experiment,36,←,up,↑,0.7317751000009594,False,18
19K22,680,experiment,12,→,down,↓,0.8112184000056004,False,18
19K22,681,experiment,72,↑,up,↑,0.5947596999976668,True,18
19K22,682,experiment,36,↓,up,↑,0.6852951000037137,False,18
19K22,683,experiment,120,↑,down,↓,0.7101247000027797,False,18
19K22,684,experiment,84,↓,left,←,0.5804773999989266,False,18
19K22,685,experiment,12,↓,no_key,no_letter,-1.0,False,18
19K22,686,experiment,84,→,right,→,0.6161862000008114,True,18
19K22,687,experiment,48,↓,left,←,1.0155454000050668,False,18
19K22,688,experiment,96,↓,up,↑,0.8324712999965413,False,18
19K22,689,experiment,108,↑,up,↑,0.7292123999941396,True,18
19K22,690,experiment,60,↑,up,↑,0.6340439999985392,True,18
19K22,691,experiment,84,←,up,↑,0.6024833999981638,False,18
19K22,692,experiment,132,↓,down,↓,0.6907388000036008,True,18
19K22,693,experiment,180,←,left,←,0.6376302999997279,True,18
19K22,694,experiment,72,↓,up,↑,0.7361076999950456,False,18
19K22,695,experiment,156,→,right,→,0.7311897999970824,True,18
19K22,696,experiment,108,↓,down,↓,0.9212229999975534,True,18
19K22,697,experiment,84,↑,up,↑,0.6354258999999729,True,18
19K22,698,experiment,60,↑,down,↓,1.1287312999993446,False,18
19K22,699,experiment,24,→,up,↑,0.8857938000001013,False,18
19K22,700,experiment,156,→,right,→,0.7314561999955913,True,18
19K22,701,experiment,180,←,right,→,0.6844720000008238,False,18
19K22,702,experiment,132,←,left,←,0.5281126999980188,True,18
19K22,703,experiment,24,→,right,→,0.7058507000037935,True,18
19K22,704,experiment,96,↓,right,→,0.642910499998834,False,18
19K22,705,experiment,96,↓,up,↑,0.6639676999984658,False,18
19K22,706,experiment,72,→,up,↑,0.63010629999917,False,18
19K22,707,experiment,120,←,left,←,0.8067373000012594,True,18
19K22,708,experiment,108,↑,up,↑,0.6659067000000505,True,18
19K22,709,experiment,120,↑,left,←,0.6734118000022136,False,18
19K22,710,experiment,168,↓,down,↓,0.8651591999951052,True,18
19K22,711,experiment,48,↓,down,↓,0.8640954000002239,True,18
19K22,712,experiment,72,→,left,←,0.783582900003239,False,18
19K22,713,experiment,96,→,right,→,0.8387814999950933,True,18
19K22,714,experiment,132,↑,down,↓,1.0235548999989987,False,18
19K22,715,experiment,60,←,left,←,1.1033171999952174,True,18
19K22,716,experiment,24,←,left,←,0.8776373000000603,True,18
19K22,717,experiment,60,←,left,←,0.8962669000029564,True,18
19K22,718,experiment,168,↑,right,→,1.1324546999967424,False,18
19K22,719,experiment,156,↑,up,↑,0.8361662999959663,True,18
19K22,720,experiment,144,→,right,→,0.7908248000021558,True,18
19K22,721,experiment,144,→,up,↑,0.7218199999988428,False,18
19K22,722,experiment,48,↑,left,←,0.6308293999973102,False,18
19K22,723,experiment,36,→,left,←,0.5648283000045922,False,18
19K22,724,training,144,→,right,→,0.7063483999954769,True,18
19K22,725,training,84,←,left,←,0.5254635999954189,True,18
19K22,726,training,48,←,left,←,0.5377311999982339,True,18
19K22,727,experiment,180,↓,down,↓,0.7655291000046418,True,18
19K22,728,experiment,132,↑,up,↑,0.9163412000052631,True,18
19K22,729,experiment,36,↑,up,↑,0.6757854000024963,True,18
19K22,730,experiment,168,→,right,→,0.6949424000049476,True,18
19K22,731,experiment,132,↓,down,↓,0.8657221999965259,True,18
19K22,732,experiment,60,↑,up,↑,0.893151600001147,True,18
19K22,733,experiment,84,↑,down,↓,0.7348906999977771,False,18
19K22,734,experiment,60,↑,down,↓,0.923236700000416,False,18
19K22,735,experiment,144,←,left,←,0.8373906999986502,True,18
19K22,736,experiment,84,↑,up,↑,0.7852364999998827,True,18
19K22,737,experiment,168,→,right,→,0.5982946000003722,True,18
19K22,738,experiment,168,↑,right,→,0.596850000001723,False,18
19K22,739,experiment,180,←,left,←,0.821914400003152,True,18
19K22,740,experiment,108,↑,up,↑,0.7586830000000191,True,18
19K22,741,experiment,180,↑,up,↑,0.5618625000061002,True,18
19K22,742,experiment,96,↓,down,↓,0.9798757999960799,True,18
19K22,743,experiment,132,→,left,←,0.7375591999953031,False,18
19K22,744,experiment,24,↑,left,←,0.8150318999978481,False,18
19K22,745,experiment,72,←,right,→,0.6207412000003387,False,18
19K22,746,experiment,144,→,right,→,0.600409499995294,True,18
19K22,747,experiment,84,↑,up,↑,0.6222593999991659,True,18
19K22,748,experiment,12,←,no_key,no_letter,-1.0,False,18
19K22,749,experiment,72,→,right,→,0.7694541000018944,True,18
19K22,750,experiment,156,←,left,←,0.5844078000009176,True,18
19K22,751,experiment,12,→,no_key,no_letter,-1.0,False,18
19K22,752,experiment,12,↑,left,←,1.142648900000495,False,18
19K22,753,experiment,168,→,right,→,0.8037745999972685,True,18
19K22,754,experiment,72,↑,up,↑,0.655769799996051,True,18
19K22,755,experiment,108,↑,up,↑,0.7031702000022051,True,18
19K22,756,experiment,108,←,left,←,0.8482646999982535,True,18
19K22,757,experiment,48,↑,up,↑,1.276989500001946,True,18
19K22,758,experiment,48,↑,left,←,0.8745487999985926,False,18
19K22,759,experiment,96,↓,no_key,no_letter,-1.0,False,18
19K22,760,experiment,36,←,left,←,0.7617122000010568,True,18
19K22,761,experiment,60,↑,right,→,0.6825551000001724,False,18
19K22,762,experiment,84,→,left,←,1.0920361999960733,False,18
19K22,763,experiment,36,↓,right,→,0.8625908999965759,False,18
19K22,764,experiment,156,→,left,←,0.5792376999961562,False,18
19K22,765,experiment,48,↑,down,↓,1.0450065999975777,False,18
19K22,766,experiment,120,←,right,→,0.6992107999976724,False,18
19K22,767,experiment,24,←,right,→,0.913719600001059,False,18
19K22,768,experiment,156,↑,left,←,1.258343800000148,False,18
19K22,769,experiment,132,←,left,←,0.4676785999981803,True,18
19K22,770,experiment,180,→,right,→,0.8541419000030146,True,18
19K22,771,experiment,120,↑,right,→,0.6325311999971746,False,18
19K22,772,experiment,24,←,left,←,0.7198149999967427,True,18
19K22,773,experiment,24,→,up,↑,0.8497566000005463,False,18
19K22,774,experiment,72,←,left,←,0.7655815000034636,True,18
19K22,775,experiment,36,↓,left,←,0.8652045999988331,False,18
19K22,776,experiment,60,↓,down,↓,0.7511544000008143,True,18
19K22,777,experiment,144,←,left,←,0.6686323000030825,True,18
19K22,778,experiment,108,←,left,←,0.6992073000001255,True,18
19K22,779,experiment,156,→,right,→,0.7899192999975639,True,18
19K22,780,experiment,48,←,left,←,0.7378880999967805,True,18
19K22,781,experiment,96,→,left,←,0.8164169000010588,False,18
19K22,782,experiment,96,↓,left,←,0.6254992000031052,False,18
19K22,783,experiment,120,→,right,→,0.8280851000017719,True,18
19K22,784,experiment,120,↑,up,↑,0.7709306000033394,True,18
19K22,785,experiment,12,←,no_key,no_letter,-1.0,False,18
19K22,786,experiment,144,↓,down,↓,0.6759474999998929,True,18
19K22,787,training,96,←,left,←,0.5716883999994025,True,18
19K22,788,training,108,↓,down,↓,0.7726153999974485,True,18
19K22,789,training,12,↑,up,↑,0.946120599997812,True,18
19K22,790,experiment,120,↓,down,↓,0.7521568999945885,True,18
19K22,791,experiment,36,←,down,↓,0.7276682999945479,False,18
19K22,792,experiment,24,←,down,↓,0.8179624000040349,False,18
19K22,793,experiment,96,←,left,←,0.7446883000011439,True,18
19K22,794,experiment,12,↓,left,←,1.0285453999968013,False,18
19K22,795,experiment,60,→,right,→,0.7029705000022659,True,18
19K22,796,experiment,48,→,up,↑,0.7608087999979034,False,18
19K22,797,experiment,180,←,left,←,0.715577700000722,True,18
19K22,798,experiment,24,↑,up,↑,0.8796727000008104,True,18
19K22,799,experiment,24,←,left,←,0.6213071000020136,True,18
19K22,800,experiment,168,→,right,→,0.6785882999975001,True,18
19K22,801,experiment,156,←,left,←,0.5668269000016153,True,18
19K22,802,experiment,36,↑,no_key,no_letter,-1.0,False,18
19K22,803,experiment,48,↓,right,→,0.4761810000054538,False,18
19K22,804,experiment,60,↑,left,←,0.5177180000027874,False,18
19K22,805,experiment,168,↓,no_key,no_letter,-1.0,False,18
19K22,806,experiment,12,→,no_key,no_letter,-1.0,False,18
19K22,807,experiment,156,→,left,←,0.6273283999980777,False,18
19K22,808,experiment,72,↓,down,↓,0.8086022999996203,True,18
19K22,809,experiment,108,←,left,←,0.7079286000007414,True,18
19K22,810,experiment,60,→,right,→,0.7777719000005163,True,18
19K22,811,experiment,120,←,right,→,0.6516141000029165,False,18
19K22,812,experiment,96,↑,down,↓,0.7540307000017492,False,18
19K22,813,experiment,132,←,left,←,1.5941410000014002,True,18
19K22,814,experiment,96,←,left,←,0.6234973999962676,True,18
19K22,815,experiment,144,←,right,→,0.48048479999852134,False,18
19K22,816,experiment,84,↑,up,↑,0.5099361999964458,True,18
19K22,817,experiment,48,←,left,←,0.7653327000007266,True,18
19K22,818,experiment,168,↑,left,←,0.5363321000040742,False,18
19K22,819,experiment,72,←,left,←,0.6631132999973488,True,18
19K22,820,experiment,84,↑,right,→,0.5802855000001728,False,18
19K22,821,experiment,120,↓,no_key,no_letter,-1.0,False,18
19K22,822,experiment,108,↓,left,←,0.5136093000037363,False,18
19K22,823,experiment,84,←,left,←,0.8317421000028844,True,18
19K22,824,experiment,156,←,down,↓,0.7781830999956583,False,18
19K22,825,experiment,132,←,down,↓,1.0358951999951387,False,18
19K22,826,experiment,120,→,left,←,0.8038463000048068,False,18
19K22,827,experiment,84,←,left,←,0.6631035000027623,True,18
19K22,828,experiment,144,←,left,←,0.5563151000023936,True,18
19K22,829,experiment,24,↓,left,←,0.7132080000010319,False,18
19K22,830,experiment,144,→,left,←,0.52720589999808,False,18
19K22,831,experiment,180,→,down,↓,0.6325637999980245,False,18
19K22,832,experiment,72,←,left,←,0.516548600004171,True,18
19K22,833,experiment,36,↓,no_key,no_letter,-1.0,False,18
19K22,834,experiment,60,↑,up,↑,0.7246873999974923,True,18
19K22,835,experiment,96,←,left,←,0.5725783000016236,True,18
19K22,836,experiment,108,←,left,←,0.7680492999934359,True,18
19K22,837,experiment,144,↑,left,←,0.7374874000015552,False,18
19K22,838,experiment,36,↓,down,↓,0.8837186000018846,True,18
19K22,839,experiment,48,↑,left,←,0.62554739999905,False,18
19K22,840,experiment,156,←,left,←,1.0408514000009745,True,18
19K22,841,experiment,180,↓,left,←,0.5977157000015723,False,18
19K22,842,experiment,12,↓,no_key,no_letter,-1.0,False,18
19K22,843,experiment,72,↓,down,↓,0.9125569999960135,True,18
19K22,844,experiment,12,↓,down,↓,0.8255277999996906,True,18
19K22,845,experiment,108,←,left,←,0.5683871999935945,True,18
19K22,846,experiment,132,←,down,↓,0.7430866000067908,False,18
19K22,847,experiment,180,→,left,←,0.6584195000032196,False,18
19K22,848,experiment,168,→,down,↓,1.0807946999993874,False,18
19K22,849,experiment,132,↑,down,↓,0.7186446999985492,False,18
