PART_ID,Trial_no,Trial_type,PDI,Stim_letter,Key_pressed,letter_choose,Rt,Corr,Stimulus Time
1K22,1,training,10,↑,no_key,no_letter,-1.0,False,30
1K22,2,training,10,→,no_key,no_letter,-1.0,False,30
1K22,3,training,10,→,left,←,0.5006757001392543,False,30
1K22,4,training,10,→,right,→,0.333595999982208,True,30
1K22,5,training,10,↑,left,←,0.6339932000264525,False,30
1K22,6,training,10,←,right,→,0.3172663999721408,False,30
1K22,7,training,10,←,right,→,0.28387749986723065,False,30
1K22,8,training,10,←,right,→,0.4337983001023531,False,30
1K22,9,training,10,→,right,→,0.31721320003271103,True,30
1K22,10,training,10,↓,left,←,0.2671672999858856,False,30
1K22,11,training,10,↓,no_key,no_letter,-1.0,False,30
1K22,12,training,10,←,right,→,0.31716899992898107,False,30
1K22,13,training,10,↓,right,→,0.38391549978405237,False,30
1K22,14,training,10,→,left,←,0.13393650017678738,False,30
1K22,15,training,10,↑,right,→,0.08388379961252213,False,30
1K22,16,training,10,←,left,←,0.20043520024046302,True,30
1K22,17,training,10,↓,right,→,0.18491650000214577,False,30
1K22,18,training,10,↑,left,←,0.20038759987801313,False,30
1K22,19,training,10,↓,left,←,0.4507651003077626,False,30
1K22,20,training,10,↑,left,←,0.35176660027354956,False,30
1K22,21,training,10,↑,left,←,0.18392200022935867,False,18
1K22,22,training,10,←,left,←,0.1506034000776708,True,18
1K22,23,training,10,←,left,←,0.2670550998300314,True,18
1K22,24,training,10,↓,left,←,0.2168566999025643,False,18
1K22,25,training,10,←,right,→,0.3171668997965753,False,18
1K22,26,training,10,↓,left,←,0.3505735998041928,False,18
1K22,27,training,10,↓,left,←,0.20152169978246093,False,18
1K22,28,training,10,↑,left,←,0.2839099997654557,False,18
1K22,29,training,10,↑,up,↑,0.23381120013073087,True,18
1K22,30,training,10,→,up,↑,0.4171269000507891,False,18
1K22,31,training,156,→,right,→,0.38403570000082254,True,15
1K22,32,training,24,←,left,←,0.3837963999249041,True,15
1K22,33,training,156,→,left,←,0.3504694998264313,False,15
1K22,34,experiment,108,←,no_key,no_letter,-1.0,False,15
1K22,35,experiment,96,←,left,←,0.23316940013319254,True,15
1K22,36,experiment,144,→,left,←,0.35046179965138435,False,15
1K22,37,experiment,168,→,right,→,0.3338986998423934,True,15
1K22,38,experiment,72,→,left,←,0.35062439972534776,False,15
1K22,39,experiment,156,↓,down,↓,0.6289520002901554,True,15
1K22,40,experiment,60,↑,left,←,0.45951190032064915,False,15
1K22,41,experiment,156,←,right,→,0.420868500135839,False,15
1K22,42,experiment,180,→,left,←,0.3499925001524389,False,15
1K22,43,experiment,120,↓,right,→,0.49823669996112585,False,15
1K22,44,experiment,36,←,left,←,0.4288237001746893,True,15
1K22,45,experiment,168,→,left,←,0.28367160027846694,False,15
1K22,46,experiment,96,↑,right,→,0.3838998996652663,False,15
1K22,47,experiment,108,←,no_key,no_letter,-1.0,False,15
1K22,48,experiment,108,↑,up,↑,0.634103000164032,True,15
1K22,49,experiment,36,→,left,←,0.9206265998072922,False,15
1K22,50,experiment,36,→,right,→,0.7300096997059882,True,15
1K22,51,experiment,48,←,right,→,0.7005313998088241,False,15
1K22,52,experiment,180,↑,up,↑,0.900165299884975,True,15
1K22,53,experiment,24,↓,down,↓,0.8658443000167608,True,15
1K22,54,experiment,36,↓,left,←,0.8152292999438941,False,15
1K22,55,experiment,96,→,right,→,0.746733000036329,True,15
1K22,56,experiment,12,↑,up,↑,1.1273823999799788,True,15
1K22,57,experiment,132,↓,up,↑,1.0605232999660075,False,15
1K22,58,experiment,180,←,right,→,0.6477816002443433,False,15
1K22,59,experiment,108,↑,left,←,0.6375639997422695,False,15
1K22,60,experiment,84,→,right,→,0.7377617000602186,True,15
1K22,61,experiment,48,↑,up,↑,0.7003661999478936,True,15
1K22,62,experiment,144,→,right,→,1.0371082997880876,True,15
1K22,63,experiment,24,←,up,↑,1.7277635000646114,False,15
1K22,64,experiment,60,↓,right,→,0.826273400336504,False,15
1K22,65,experiment,72,↓,up,↑,0.8598817000165582,False,15
1K22,66,experiment,48,↑,up,↑,0.8178061000071466,True,15
1K22,67,experiment,84,→,right,→,0.6792325000278652,True,15
1K22,68,experiment,60,→,right,→,0.5738477003760636,True,15
1K22,69,experiment,132,→,right,→,0.7681587999686599,True,15
1K22,70,experiment,72,↑,up,↑,0.9337454997003078,True,15
1K22,71,experiment,168,←,left,←,0.9708571000955999,True,15
1K22,72,experiment,120,→,right,→,0.6063743997365236,True,15
1K22,73,experiment,24,←,right,→,0.7601817999966443,False,15
1K22,74,experiment,48,↑,up,↑,0.7857611998915672,True,15
1K22,75,experiment,144,←,left,←,0.6446346002630889,True,15
1K22,76,experiment,84,←,right,→,0.7271188995800912,False,15
1K22,77,experiment,24,←,left,←,0.9126984998583794,True,15
1K22,78,experiment,180,↑,left,←,0.8074508002027869,False,15
1K22,79,experiment,84,↓,down,↓,0.8428255999460816,True,15
1K22,80,experiment,60,↑,up,↑,1.0061781997792423,True,15
1K22,81,experiment,168,→,right,→,0.8982410999014974,True,15
1K22,82,experiment,96,↓,down,↓,0.9670251999050379,True,15
1K22,83,experiment,132,↓,down,↓,0.9681623000651598,True,15
1K22,84,experiment,72,↓,up,↑,1.253983000293374,False,15
1K22,85,experiment,12,←,left,←,0.668489099945873,True,15
1K22,86,experiment,120,→,left,←,1.2943373997695744,False,15
1K22,87,experiment,132,↓,down,↓,0.7931593996472657,True,15
1K22,88,experiment,120,↑,left,←,0.9334696000441909,False,15
1K22,89,experiment,12,→,right,→,1.0352091998793185,True,15
1K22,90,experiment,156,↓,down,↓,1.1532013001851737,True,15
1K22,91,experiment,144,←,left,←,0.7141816997900605,True,15
1K22,92,experiment,12,←,right,→,0.9105924000032246,False,15
1K22,93,experiment,156,↑,down,↓,1.1685020998120308,False,15
1K22,94,training,36,↑,up,↑,0.965192100033164,True,16
1K22,95,training,108,←,left,←,0.8256756998598576,True,16
1K22,96,training,156,→,right,→,0.9283011998049915,True,16
1K22,97,experiment,168,↑,up,↑,0.9955612998455763,True,16
1K22,98,experiment,120,→,right,→,0.6867704000324011,True,16
1K22,99,experiment,12,→,left,←,1.1813265001401305,False,16
1K22,100,experiment,60,←,right,→,0.6776762004010379,False,16
1K22,101,experiment,36,→,right,→,0.7187760998494923,True,16
1K22,102,experiment,84,←,left,←,0.9307947000488639,True,16
1K22,103,experiment,144,←,left,←,0.9818624001927674,True,16
1K22,104,experiment,144,↑,up,↑,0.8413764000870287,True,16
1K22,105,experiment,108,→,right,→,0.780931799672544,True,16
1K22,106,experiment,120,←,left,←,0.8908295999281108,True,16
1K22,107,experiment,48,↓,right,→,0.7485139002092183,False,16
1K22,108,experiment,108,→,right,→,0.6633600001223385,True,16
1K22,109,experiment,84,↓,down,↓,0.9527467996813357,True,16
1K22,110,experiment,180,↓,down,↓,0.9083619997836649,True,16
1K22,111,experiment,168,→,right,→,0.927649199962616,True,16
1K22,112,experiment,72,↓,left,←,0.9913501003757119,False,16
1K22,113,experiment,72,←,left,←,0.8291589999571443,True,16
1K22,114,experiment,156,←,left,←,0.8567847004160285,True,16
1K22,115,experiment,60,→,right,→,0.8637831001542509,True,16
1K22,116,experiment,120,←,left,←,0.9641092997044325,True,16
1K22,117,experiment,24,←,left,←,0.8286123997531831,True,16
1K22,118,experiment,24,←,left,←,0.9347897996194661,True,16
1K22,119,experiment,180,←,left,←,1.157424199860543,True,16
1K22,120,experiment,168,↑,up,↑,0.9555257996544242,True,16
1K22,121,experiment,36,↓,down,↓,1.4753228002227843,True,16
1K22,122,experiment,132,↑,up,↑,0.9292076998390257,True,16
1K22,123,experiment,12,↑,left,←,1.120989799965173,False,16
1K22,124,experiment,132,→,right,→,0.6590424003079534,True,16
1K22,125,experiment,84,↓,down,↓,0.8382194000296295,True,16
1K22,126,experiment,60,↓,left,←,0.8140263999812305,False,16
1K22,127,experiment,48,↓,down,↓,0.6847664001397789,True,16
1K22,128,experiment,144,↑,up,↑,1.4131371998228133,True,16
1K22,129,experiment,12,→,no_key,no_letter,-1.0,False,16
1K22,130,experiment,72,↓,up,↑,0.9752016998827457,False,16
1K22,131,experiment,180,→,left,←,1.0085283000953496,False,16
1K22,132,experiment,108,←,left,←,0.5827490002848208,True,16
1K22,133,experiment,60,↓,right,→,0.8066891999915242,False,16
1K22,134,experiment,48,↑,up,↑,0.914448999799788,True,16
1K22,135,experiment,12,→,right,→,0.8511791001074016,True,16
1K22,136,experiment,24,↓,down,↓,0.9256160999648273,True,16
1K22,137,experiment,36,←,left,←,0.6396686001680791,True,16
1K22,138,experiment,96,←,left,←,0.5996978003531694,True,16
1K22,139,experiment,144,←,left,←,0.6280562998726964,True,16
1K22,140,experiment,24,↑,up,↑,0.8088096999563277,True,16
1K22,141,experiment,132,↓,down,↓,0.852315700147301,True,16
1K22,142,experiment,132,↑,up,↑,1.0453193001449108,True,16
1K22,143,experiment,168,→,right,→,0.6647374997846782,True,16
1K22,144,experiment,36,→,left,←,0.8892462998628616,False,16
1K22,145,experiment,72,↑,up,↑,0.767011099960655,True,16
1K22,146,experiment,96,↓,up,↑,1.058297200128436,False,16
1K22,147,experiment,120,↑,up,↑,0.5813498999923468,True,16
1K22,148,experiment,156,↑,up,↑,0.5361572001129389,True,16
1K22,149,experiment,108,←,left,←,0.659014199860394,True,16
1K22,150,experiment,156,→,right,→,1.125678500160575,True,16
1K22,151,experiment,156,↑,up,↑,0.7287153000943363,True,16
1K22,152,experiment,84,↑,up,↑,0.5793956997804344,True,16
1K22,153,experiment,180,←,left,←,0.7555243000388145,True,16
1K22,154,experiment,96,←,left,←,0.8434800999239087,True,16
1K22,155,experiment,48,→,right,→,0.8176964996382594,True,16
1K22,156,experiment,96,↓,up,↑,0.8698831000365317,False,16
1K22,157,training,132,←,left,←,0.789355400018394,True,16
1K22,158,training,36,↓,right,→,0.7333860998041928,False,16
1K22,159,training,180,↑,up,↑,1.7531632999889553,True,16
1K22,160,experiment,24,↑,left,←,0.8508131001144648,False,16
1K22,161,experiment,48,↓,down,↓,0.8198794000782073,True,16
1K22,162,experiment,84,↓,down,↓,0.888493999838829,True,16
1K22,163,experiment,60,↑,up,↑,1.0942437998019159,True,16
1K22,164,experiment,72,↑,up,↑,0.9781968998722732,True,16
1K22,165,experiment,144,↓,right,→,1.3422746998257935,False,16
1K22,166,experiment,96,→,right,→,0.7026573000475764,True,16
1K22,167,experiment,144,↓,down,↓,0.8104889001697302,True,16
1K22,168,experiment,84,↓,down,↓,0.826005999930203,True,16
1K22,169,experiment,84,←,left,←,0.6286071999929845,True,16
1K22,170,experiment,180,←,left,←,0.7535546002909541,True,16
1K22,171,experiment,36,←,left,←,1.0868985997512937,True,16
1K22,172,experiment,36,←,left,←,0.6685381000861526,True,16
1K22,173,experiment,36,→,right,→,0.9451275002211332,True,16
1K22,174,experiment,12,→,left,←,0.8563701999373734,False,16
1K22,175,experiment,108,↓,right,→,0.7019098000600934,False,16
1K22,176,experiment,24,↑,right,→,0.7453743000514805,False,16
1K22,177,experiment,156,→,right,→,0.5905226999893785,True,16
1K22,178,experiment,48,←,left,←,0.6168366000056267,True,16
1K22,179,experiment,168,→,right,→,1.4051764998584986,True,16
1K22,180,experiment,72,←,left,←,0.5863283001817763,True,16
1K22,181,experiment,132,↑,up,↑,0.9908726001158357,True,16
1K22,182,experiment,156,↑,up,↑,0.6440950003452599,True,16
1K22,183,experiment,60,→,up,↑,0.8550052996724844,False,16
1K22,184,experiment,144,→,right,→,0.5941222999244928,True,16
1K22,185,experiment,168,↑,right,→,0.813498199917376,False,16
1K22,186,experiment,120,→,right,→,0.7040816000662744,True,16
1K22,187,experiment,12,→,up,↑,0.9694819999858737,False,16
1K22,188,experiment,96,↑,up,↑,0.5204902999103069,True,16
1K22,189,experiment,132,→,up,↑,0.7697493997402489,False,16
1K22,190,experiment,60,↑,up,↑,0.7068600999191403,True,16
1K22,191,experiment,12,↑,up,↑,0.843461399897933,True,16
1K22,192,experiment,180,→,right,→,0.7030360996723175,True,16
1K22,193,experiment,36,→,right,→,0.6633535004220903,True,16
1K22,194,experiment,96,→,left,←,0.6946159000508487,False,16
1K22,195,experiment,24,←,left,←,0.6807221998460591,True,16
1K22,196,experiment,144,←,left,←,0.8241039998829365,True,16
1K22,197,experiment,132,↓,right,→,0.8452781997621059,False,16
1K22,198,experiment,48,→,right,→,0.6622305000200868,True,16
1K22,199,experiment,72,↑,left,←,0.9232808998785913,False,16
1K22,200,experiment,120,↓,down,↓,1.5165357002988458,True,16
1K22,201,experiment,72,→,right,→,0.740323199890554,True,16
1K22,202,experiment,180,↓,down,↓,0.9260455002076924,True,16
1K22,203,experiment,108,↑,up,↑,1.1483444003388286,True,16
1K22,204,experiment,168,↓,down,↓,0.7918281001038849,True,16
1K22,205,experiment,24,→,up,↑,0.7501161000691354,False,16
1K22,206,experiment,108,↓,down,↓,0.8465390997007489,True,16
1K22,207,experiment,96,←,left,←,0.8354159998707473,True,16
1K22,208,experiment,84,↑,up,↑,0.8308941000141203,True,16
1K22,209,experiment,156,→,right,→,0.6935986001044512,True,16
1K22,210,experiment,156,→,right,→,0.688678199891001,True,16
1K22,211,experiment,120,←,left,←,0.7019638000056148,True,16
1K22,212,experiment,12,←,left,←,0.8346216999925673,True,16
1K22,213,experiment,168,←,left,←,0.6111417999491096,True,16
1K22,214,experiment,48,↓,left,←,0.9434650000184774,False,16
1K22,215,experiment,180,→,right,→,0.9601643001660705,True,16
1K22,216,experiment,108,→,right,→,0.6903866999782622,True,16
1K22,217,experiment,120,→,right,→,0.8198845996521413,True,16
1K22,218,experiment,132,↓,right,→,1.0209658998064697,False,16
1K22,219,experiment,60,→,left,←,0.7595850001089275,False,16
1K22,220,training,120,↑,up,↑,0.8091918001882732,True,16
1K22,221,training,180,↑,up,↑,0.6060509001836181,True,16
1K22,222,training,84,→,up,↑,0.8665228998288512,False,16
1K22,223,experiment,36,→,right,→,0.7438779999502003,True,16
1K22,224,experiment,144,↓,up,↑,0.9107359000481665,False,16
1K22,225,experiment,84,↓,right,→,0.7221768000163138,False,16
1K22,226,experiment,120,→,left,←,0.7052712002769113,False,16
1K22,227,experiment,48,↑,right,→,1.0438044997863472,False,16
1K22,228,experiment,12,↓,down,↓,0.9720302000641823,True,16
1K22,229,experiment,132,→,right,→,0.6782869999296963,True,16
1K22,230,experiment,36,→,right,→,0.669552099891007,True,16
1K22,231,experiment,168,→,right,→,0.6429673000238836,True,16
1K22,232,experiment,48,←,left,←,0.693401399999857,True,16
1K22,233,experiment,180,↓,right,→,0.6500058998353779,False,16
1K22,234,experiment,96,↑,up,↑,0.6118825003504753,True,16
1K22,235,experiment,48,↑,up,↑,0.6607611002400517,True,16
1K22,236,experiment,72,↑,left,←,1.016065000090748,False,16
1K22,237,experiment,60,→,right,→,0.7950472999364138,True,16
1K22,238,experiment,132,↑,left,←,1.2298582000657916,False,16
1K22,239,experiment,96,↑,right,→,0.7392301000654697,False,16
1K22,240,experiment,156,↑,up,↑,0.6543505997397006,True,16
1K22,241,experiment,156,↑,up,↑,0.9166648001410067,True,16
1K22,242,experiment,84,↓,left,←,0.8973170998506248,False,16
1K22,243,experiment,108,→,right,→,0.665310500189662,True,16
1K22,244,experiment,12,←,up,↑,0.8418653998523951,False,16
1K22,245,experiment,72,←,left,←,0.7153918002732098,True,16
1K22,246,experiment,96,↑,up,↑,0.6328173000365496,True,16
1K22,247,experiment,120,←,left,←,0.7808412001468241,True,16
1K22,248,experiment,24,↑,right,→,0.9119828999973834,False,16
1K22,249,experiment,24,→,left,←,0.9140762998722494,False,16
1K22,250,experiment,180,→,right,→,0.5778030999936163,True,16
1K22,251,experiment,156,↓,left,←,0.7760631004348397,False,16
1K22,252,experiment,36,↓,left,←,0.8034411002881825,False,16
1K22,253,experiment,12,←,left,←,0.867799200117588,True,16
1K22,254,experiment,132,↓,up,↑,1.1458614999428391,False,16
1K22,255,experiment,120,→,right,→,0.5947181996889412,True,16
1K22,256,experiment,48,→,right,→,0.7638741000555456,True,16
1K22,257,experiment,72,→,left,←,0.7411078000441194,False,16
1K22,258,experiment,144,→,left,←,0.7062801001593471,False,16
1K22,259,experiment,96,→,left,←,0.9865680998191237,False,16
1K22,260,experiment,108,→,right,→,0.6491209999658167,True,16
1K22,261,experiment,60,←,left,←,0.7217950001358986,True,16
1K22,262,experiment,108,→,right,→,0.7364936000667512,True,16
1K22,263,experiment,168,↑,up,↑,0.5930039002560079,True,16
1K22,264,experiment,144,↑,up,↑,0.721836700104177,True,16
1K22,265,experiment,72,→,right,→,0.6514128004200757,True,16
1K22,266,experiment,24,↓,down,↓,0.8491102000698447,True,16
1K22,267,experiment,156,↓,down,↓,0.5294539001770318,True,16
1K22,268,experiment,180,↑,down,↓,0.9060522997751832,False,16
1K22,269,experiment,168,↑,up,↑,0.8069417998194695,True,16
1K22,270,experiment,84,↑,up,↑,0.6945495996624231,True,16
1K22,271,experiment,180,↑,up,↑,0.550123400054872,True,16
1K22,272,experiment,84,↓,down,↓,0.681137700099498,True,16
1K22,273,experiment,24,↓,down,↓,0.5624568997882307,True,16
1K22,274,experiment,108,→,right,→,0.6662741997279227,True,16
1K22,275,experiment,132,↑,down,↓,0.8685645996592939,False,16
1K22,276,experiment,60,→,right,→,0.5409297002479434,True,16
1K22,277,experiment,60,↑,up,↑,0.5887961001135409,True,16
1K22,278,experiment,144,↓,down,↓,1.1815142999403179,True,16
1K22,279,experiment,12,←,left,←,0.8830059003084898,True,16
1K22,280,experiment,168,→,right,→,0.7620954001322389,True,16
1K22,281,experiment,36,↓,down,↓,0.8403046997264028,True,16
1K22,282,experiment,120,↑,up,↑,0.8063342999666929,True,16
1K22,283,training,144,↓,down,↓,0.8395074000582099,True,16
1K22,284,training,60,→,left,←,0.6351963998749852,False,16
1K22,285,training,72,↑,up,↑,0.6247600000351667,True,16
1K22,286,experiment,24,↑,no_key,no_letter,-1.0,False,16
1K22,287,experiment,12,→,up,↑,1.0645735003054142,False,16
1K22,288,experiment,156,→,right,→,0.6490354998968542,True,16
1K22,289,experiment,72,↑,up,↑,0.7351857000030577,True,16
1K22,290,experiment,48,↑,up,↑,0.6838249997235835,True,16
1K22,291,experiment,60,→,right,→,0.6964569999836385,True,16
1K22,292,experiment,36,↓,down,↓,0.7555634998716414,True,16
1K22,293,experiment,144,←,left,←,0.6035659997723997,True,16
1K22,294,experiment,144,→,left,←,0.7678121998906136,False,16
1K22,295,experiment,48,←,left,←,0.6861998001113534,True,16
1K22,296,experiment,60,→,right,→,0.823822199832648,True,16
1K22,297,experiment,84,←,left,←,0.6614354001358151,True,16
1K22,298,experiment,96,→,right,→,0.6673193001188338,True,16
1K22,299,experiment,108,↑,up,↑,0.6553774997591972,True,16
1K22,300,experiment,168,←,left,←,0.7013422003947198,True,16
1K22,301,experiment,24,↑,up,↑,0.7611937001347542,True,16
1K22,302,experiment,156,→,left,←,1.0880556995980442,False,16
1K22,303,experiment,24,→,left,←,0.7021759999915957,False,16
1K22,304,experiment,144,→,right,→,0.6184173999354243,True,16
1K22,305,experiment,120,↑,up,↑,0.545717699918896,True,16
1K22,306,experiment,132,↑,right,→,0.6571430000476539,False,16
1K22,307,experiment,168,→,right,→,0.5773547999560833,True,16
1K22,308,experiment,96,→,left,←,0.777286299970001,False,16
1K22,309,experiment,96,→,right,→,0.6529353000223637,True,16
1K22,310,experiment,36,→,right,→,1.0319571001455188,True,16
1K22,311,experiment,84,↓,up,↑,1.0528025003150105,False,16
1K22,312,experiment,132,↓,up,↑,0.6750060999765992,False,16
1K22,313,experiment,108,←,left,←,0.553108099848032,True,16
1K22,314,experiment,180,→,right,→,0.5968713997863233,True,16
1K22,315,experiment,96,←,left,←,0.6938531002961099,True,16
1K22,316,experiment,12,←,left,←,0.5125404000282288,True,16
1K22,317,experiment,72,↑,up,↑,0.5509130996651947,True,16
1K22,318,experiment,36,↓,right,→,0.7924234997481108,False,16
1K22,319,experiment,120,←,left,←,0.552818899974227,True,16
1K22,320,experiment,180,→,right,→,0.5830445000901818,True,16
1K22,321,experiment,168,←,up,↑,0.7284397999756038,False,16
1K22,322,experiment,132,→,right,→,0.7500298996455967,True,16
1K22,323,experiment,120,↑,right,→,1.1369133000262082,False,16
1K22,324,experiment,72,↑,up,↑,1.0705872001126409,True,16
1K22,325,experiment,24,↑,left,←,1.0934846000745893,False,16
1K22,326,experiment,36,↓,right,→,1.129947300069034,False,16
1K22,327,experiment,108,↑,up,↑,0.583078000228852,True,16
1K22,328,experiment,180,→,right,→,0.8736195000819862,True,16
1K22,329,experiment,156,↑,up,↑,0.6565258000046015,True,16
1K22,330,experiment,48,←,up,↑,0.9241607999429107,False,16
1K22,331,experiment,156,↑,up,↑,0.6642375001683831,True,16
1K22,332,experiment,12,↓,right,→,0.9217941001988947,False,16
1K22,333,experiment,108,→,left,←,0.8830587002448738,False,16
1K22,334,experiment,84,↓,up,↑,0.8707646001130342,False,16
1K22,335,experiment,48,↓,up,↑,0.8759097997099161,False,16
1K22,336,experiment,180,↑,up,↑,0.6298073995858431,True,16
1K22,337,experiment,60,→,right,→,0.7194127002730966,True,16
1K22,338,experiment,120,←,left,←,0.5928664999082685,True,16
1K22,339,experiment,60,↑,up,↑,0.6732284999452531,True,16
1K22,340,experiment,84,↓,down,↓,0.8084044996649027,True,16
1K22,341,experiment,72,←,left,←,0.5823754002340138,True,16
1K22,342,experiment,132,↓,up,↑,1.3461222001351416,False,16
1K22,343,experiment,144,↓,down,↓,0.8169088000431657,True,16
1K22,344,experiment,12,↑,up,↑,0.7360755000263453,True,16
1K22,345,experiment,168,↑,up,↑,0.696397699881345,True,16
1K22,346,training,156,←,left,←,0.7979522999376059,True,16
1K22,347,training,48,←,left,←,0.5955129000358284,True,16
1K22,348,training,96,←,up,↑,0.6746473996900022,False,16
1K22,349,experiment,60,↑,up,↑,0.627810399979353,True,16
1K22,350,experiment,180,→,right,→,0.5368940001353621,True,16
1K22,351,experiment,60,→,right,→,0.5839366000145674,True,16
1K22,352,experiment,72,←,right,→,0.6341916001401842,False,16
1K22,353,experiment,144,→,right,→,0.5753939999267459,True,16
1K22,354,experiment,12,↓,right,→,0.8750682999379933,False,16
1K22,355,experiment,168,↓,left,←,0.7009021998383105,False,16
1K22,356,experiment,180,↓,right,→,0.5426795003004372,False,16
1K22,357,experiment,12,↓,left,←,0.9174681999720633,False,16
1K22,358,experiment,12,←,left,←,0.6175099001266062,True,16
1K22,359,experiment,132,↑,left,←,0.7360644000582397,False,16
1K22,360,experiment,24,→,right,→,0.7479957998730242,True,16
1K22,361,experiment,72,↓,left,←,0.7060607001185417,False,16
1K22,362,experiment,84,↓,right,→,0.6959623000584543,False,16
1K22,363,experiment,168,↑,left,←,0.814135099761188,False,16
1K22,364,experiment,48,→,right,→,0.7531757997348905,True,16
1K22,365,experiment,36,↑,up,↑,0.6280179000459611,True,16
1K22,366,experiment,96,→,right,→,0.7626160001382232,True,16
1K22,367,experiment,132,↑,up,↑,0.8240875001065433,True,16
1K22,368,experiment,156,↑,up,↑,0.6909819999709725,True,16
1K22,369,experiment,120,←,left,←,0.6089647999033332,True,16
1K22,370,experiment,84,→,right,→,0.676196999847889,True,16
1K22,371,experiment,24,→,right,→,0.6640278999693692,True,16
1K22,372,experiment,144,↑,up,↑,0.6082143997773528,True,16
1K22,373,experiment,108,→,right,→,0.5797192002646625,True,16
1K22,374,experiment,96,→,left,←,0.8617599001154304,False,16
1K22,375,experiment,180,↓,down,↓,0.8941421997733414,True,16
1K22,376,experiment,48,←,right,→,0.7252552001737058,False,16
1K22,377,experiment,12,↓,up,↑,0.7588327000848949,False,16
1K22,378,experiment,144,←,left,←,0.6349694998934865,True,16
1K22,379,experiment,156,→,right,→,0.5414062002673745,True,16
1K22,380,experiment,60,↑,right,→,0.6649092002771795,False,16
1K22,381,experiment,72,↑,up,↑,0.7857671002857387,True,16
1K22,382,experiment,108,←,left,←,0.5835727998055518,True,16
1K22,383,experiment,48,↑,no_key,no_letter,-1.0,False,16
1K22,384,experiment,24,→,right,→,0.47468419978395104,True,16
1K22,385,experiment,168,↓,up,↑,0.7100018998607993,False,16
1K22,386,experiment,132,→,left,←,0.5625860998407006,False,16
1K22,387,experiment,144,↓,down,↓,0.7944942996837199,True,16
1K22,388,experiment,48,→,up,↑,0.7971381000243127,False,16
1K22,389,experiment,36,↑,left,←,0.7827598000876606,False,16
1K22,390,experiment,96,←,left,←,0.5305134998634458,True,16
1K22,391,experiment,108,→,right,→,0.5805631997063756,True,16
1K22,392,experiment,84,↑,up,↑,0.8912547999061644,True,16
1K22,393,experiment,156,↓,up,↑,0.9068122999742627,False,16
1K22,394,experiment,180,←,left,←,0.7393374000675976,True,16
1K22,395,experiment,72,←,right,→,0.7137172999791801,False,16
1K22,396,experiment,156,↓,up,↑,0.6832791999913752,False,16
1K22,397,experiment,24,↓,up,↑,0.9375692000612617,False,16
1K22,398,experiment,36,↑,up,↑,0.6130353002808988,True,16
1K22,399,experiment,168,↑,up,↑,0.7439231001771986,True,16
1K22,400,experiment,132,↑,up,↑,0.5994830997660756,True,16
1K22,401,experiment,108,←,left,←,0.6448612003587186,True,16
1K22,402,experiment,120,→,up,↑,0.6597647997550666,False,16
1K22,403,experiment,96,↓,up,↑,0.6188358999788761,False,16
1K22,404,experiment,120,↓,up,↑,0.67813970008865,False,16
1K22,405,experiment,36,↑,up,↑,0.5761659001000226,True,16
1K22,406,experiment,120,←,left,←,0.5566504001617432,True,16
1K22,407,experiment,60,↑,up,↑,0.6703436998650432,True,16
1K22,408,experiment,84,→,right,→,0.6784332999959588,True,16
1K22,409,training,36,←,left,←,0.9252996002323925,True,17
1K22,410,training,96,↓,up,↑,0.6076760999858379,False,17
1K22,411,training,180,↑,up,↑,0.5585176004096866,True,17
1K22,412,experiment,72,↑,up,↑,0.5393024999648333,True,17
1K22,413,experiment,108,→,right,→,0.6569747999310493,True,17
1K22,414,experiment,72,←,up,↑,0.7323735998943448,False,17
1K22,415,experiment,36,←,right,→,0.7248634998686612,False,17
1K22,416,experiment,120,↑,up,↑,0.6409555999562144,True,17
1K22,417,experiment,48,←,left,←,0.6591397002339363,True,17
1K22,418,experiment,12,↓,up,↑,0.7535613998770714,False,17
1K22,419,experiment,60,→,right,→,0.7045148997567594,True,17
1K22,420,experiment,144,→,right,→,0.7345724003389478,True,17
1K22,421,experiment,144,←,no_key,no_letter,-1.0,False,17
1K22,422,experiment,156,→,right,→,0.7333190999925137,True,17
1K22,423,experiment,96,←,left,←,0.7585712000727654,True,17
1K22,424,experiment,48,←,right,→,0.7405015998519957,False,17
1K22,425,experiment,36,↓,down,↓,0.8467377000488341,True,17
1K22,426,experiment,180,→,right,→,0.5688864998519421,True,17
1K22,427,experiment,24,↓,left,←,0.9878051001578569,False,17
1K22,428,experiment,132,←,left,←,0.6731115998700261,True,17
1K22,429,experiment,156,↑,left,←,0.8179725003428757,False,17
1K22,430,experiment,60,→,right,→,0.6659784000366926,True,17
1K22,431,experiment,120,↑,up,↑,0.5273555000312626,True,17
1K22,432,experiment,12,←,left,←,0.7071144999936223,True,17
1K22,433,experiment,24,↓,right,→,0.8314650002866983,False,17
1K22,434,experiment,36,↑,left,←,0.7186217000707984,False,17
1K22,435,experiment,36,→,right,→,0.6832758998498321,True,17
1K22,436,experiment,180,←,left,←,0.6617695996537805,True,17
1K22,437,experiment,84,→,right,→,0.587068900000304,True,17
1K22,438,experiment,84,←,left,←,0.8433494996279478,True,17
1K22,439,experiment,72,→,right,→,0.6326162000186741,True,17
1K22,440,experiment,60,↑,up,↑,0.564026600215584,True,17
1K22,441,experiment,108,←,left,←,0.501886900048703,True,17
1K22,442,experiment,108,→,right,→,0.5633999998681247,True,17
1K22,443,experiment,60,↑,right,→,0.5841720001772046,False,17
1K22,444,experiment,132,↓,down,↓,1.185817999765277,True,17
1K22,445,experiment,96,→,right,→,0.5687058996409178,True,17
1K22,446,experiment,12,↑,left,←,1.5312071996740997,False,17
1K22,447,experiment,24,←,left,←,0.6233031000010669,True,17
1K22,448,experiment,168,↓,down,↓,0.786069200374186,True,17
1K22,449,experiment,108,→,right,→,0.6396113000810146,True,17
1K22,450,experiment,96,↑,up,↑,0.6077475999481976,True,17
1K22,451,experiment,156,←,left,←,0.7205368997529149,True,17
1K22,452,experiment,120,↑,up,↑,0.5642295000143349,True,17
1K22,453,experiment,84,↓,left,←,1.7598300999961793,False,17
1K22,454,experiment,168,←,left,←,0.7594413002952933,True,17
1K22,455,experiment,120,↑,right,→,0.960513100028038,False,17
1K22,456,experiment,144,↓,right,→,0.9839785001240671,False,17
1K22,457,experiment,168,←,left,←,0.7550474996678531,True,17
1K22,458,experiment,72,↑,up,↑,1.2704187999479473,True,17
1K22,459,experiment,96,↓,right,→,0.8800655999220908,False,17
1K22,460,experiment,180,→,right,→,0.6115144998766482,True,17
1K22,461,experiment,48,↑,left,←,0.5346352001652122,False,17
1K22,462,experiment,12,→,right,→,0.6884432998485863,True,17
1K22,463,experiment,48,↑,up,↑,0.5593177000992,True,17
1K22,464,experiment,84,→,right,→,0.5638681999407709,True,17
1K22,465,experiment,24,↓,down,↓,0.9220926999114454,True,17
1K22,466,experiment,144,←,down,↓,0.8694683997891843,False,17
1K22,467,experiment,156,↓,down,↓,0.7807621997781098,True,17
1K22,468,experiment,132,↑,up,↑,0.5882280999794602,True,17
1K22,469,experiment,132,→,right,→,1.4617265001870692,True,17
1K22,470,experiment,168,↓,down,↓,0.9118289002217352,True,17
1K22,471,experiment,180,←,left,←,0.6345911999233067,True,17
1K22,472,training,120,↓,down,↓,0.8245370001532137,True,17
1K22,473,training,156,↓,down,↓,0.7643300001509488,True,17
1K22,474,training,156,↓,down,↓,0.7306904001161456,True,17
1K22,475,experiment,12,→,left,←,1.0954827996902168,False,17
1K22,476,experiment,96,→,left,←,0.8613376999273896,False,17
1K22,477,experiment,84,↓,down,↓,0.7929377998225391,True,17
1K22,478,experiment,168,↓,down,↓,0.7306980001740158,True,17
1K22,479,experiment,156,↓,down,↓,0.7042422001250088,True,17
1K22,480,experiment,120,→,left,←,1.1141921998932958,False,17
1K22,481,experiment,180,→,left,←,0.862139499746263,False,17
1K22,482,experiment,108,↓,down,↓,0.7839325997047126,True,17
1K22,483,experiment,132,↓,down,↓,0.7598359999246895,True,17
1K22,484,experiment,12,↓,left,←,0.7548620998859406,False,17
1K22,485,experiment,36,↓,down,↓,0.6507494999095798,True,17
1K22,486,experiment,24,↓,down,↓,0.5189733998849988,True,17
1K22,487,experiment,96,←,left,←,0.5385249997489154,True,17
1K22,488,experiment,144,↓,down,↓,0.7113179001025856,True,17
1K22,489,experiment,180,←,left,←,0.60272610001266,True,17
1K22,490,experiment,48,→,left,←,0.881309799849987,False,17
1K22,491,experiment,36,↑,right,→,1.018457899801433,False,17
1K22,492,experiment,120,↑,up,↑,0.7431971002370119,True,17
1K22,493,experiment,180,↑,up,↑,0.9304628996178508,True,17
1K22,494,experiment,12,←,down,↓,1.3029829999431968,False,17
1K22,495,experiment,48,←,left,←,0.5254810000769794,True,17
1K22,496,experiment,132,↓,left,←,0.9498184998519719,False,17
1K22,497,experiment,120,↓,left,←,0.9422613000497222,False,17
1K22,498,experiment,60,←,left,←,1.3969612997025251,True,17
1K22,499,experiment,72,↑,no_key,no_letter,-1.0,False,17
1K22,500,experiment,60,↓,right,→,0.6713250996544957,False,17
1K22,501,experiment,72,→,left,←,1.503543899860233,False,17
1K22,502,experiment,60,→,left,←,1.1676345998421311,False,17
1K22,503,experiment,108,→,right,→,0.8885768000036478,True,17
1K22,504,experiment,132,↑,left,←,0.8391670002602041,False,17
1K22,505,experiment,156,←,no_key,no_letter,-1.0,False,17
1K22,506,experiment,96,↑,right,→,0.6614699997007847,False,17
1K22,507,experiment,36,↑,left,←,0.7958780000917614,False,17
1K22,508,experiment,48,←,right,→,0.7777551002800465,False,17
1K22,509,experiment,84,←,left,←,0.6100616999901831,True,17
1K22,510,experiment,168,↑,up,↑,0.6244463999755681,True,17
1K22,511,experiment,12,↑,no_key,no_letter,-1.0,False,17
1K22,512,experiment,180,←,left,←,0.8321943003684282,True,17
1K22,513,experiment,96,↓,up,↑,0.8432213999330997,False,17
1K22,514,experiment,24,←,left,←,1.0388977001421154,True,17
1K22,515,experiment,144,↓,left,←,0.7356623001396656,False,17
1K22,516,experiment,156,↓,down,↓,0.9959854003973305,True,17
1K22,517,experiment,84,↓,down,↓,0.6060909000225365,True,17
1K22,518,experiment,60,↓,down,↓,1.14598280005157,True,17
1K22,519,experiment,108,←,left,←,0.8175436002202332,True,17
1K22,520,experiment,72,↓,down,↓,0.7383846999146044,True,17
1K22,521,experiment,144,→,right,→,0.6476182998158038,True,17
1K22,522,experiment,72,→,right,→,0.6541428999044001,True,17
1K22,523,experiment,36,↑,up,↑,0.7385386000387371,True,17
1K22,524,experiment,108,↓,down,↓,0.6950292997062206,True,17
1K22,525,experiment,132,↓,up,↑,0.7996112001128495,False,17
1K22,526,experiment,168,↑,up,↑,0.8017923999577761,True,17
1K22,527,experiment,24,↑,right,→,1.2459114999510348,False,17
1K22,528,experiment,24,↑,up,↑,0.6390687003731728,True,17
1K22,529,experiment,120,→,right,→,0.5643676999025047,True,17
1K22,530,experiment,156,←,left,←,0.9236495001241565,True,17
1K22,531,experiment,48,←,left,←,0.8334802002646029,True,17
1K22,532,experiment,168,↓,down,↓,0.7106377999298275,True,17
1K22,533,experiment,144,↑,up,↑,0.6233445000834763,True,17
1K22,534,experiment,84,↑,up,↑,0.7863878002390265,True,17
1K22,535,training,84,↓,down,↓,0.8219726998358965,True,17
1K22,536,training,48,←,up,↑,0.9504042002372444,False,17
1K22,537,training,168,→,right,→,0.5988522996194661,True,17
1K22,538,experiment,132,↑,up,↑,0.7077332995831966,True,17
1K22,539,experiment,60,←,up,↑,0.7327435999177396,False,17
1K22,540,experiment,120,↓,right,→,0.6093053999356925,False,17
1K22,541,experiment,72,↑,up,↑,0.7007574001327157,True,17
1K22,542,experiment,144,→,right,→,0.45610199961811304,True,17
1K22,543,experiment,108,→,right,→,0.6176693001762033,True,17
1K22,544,experiment,72,↑,up,↑,0.6227275999262929,True,17
1K22,545,experiment,60,←,left,←,0.6893555000424385,True,17
1K22,546,experiment,108,↑,up,↑,0.6386867999099195,True,17
1K22,547,experiment,72,↑,no_key,no_letter,-1.0,False,17
1K22,548,experiment,84,↑,up,↑,0.5022966000251472,True,17
1K22,549,experiment,84,←,left,←,0.6563677997328341,True,17
1K22,550,experiment,96,↓,down,↓,0.8830136000178754,True,17
1K22,551,experiment,12,↓,down,↓,0.974144599866122,True,17
1K22,552,experiment,144,↓,down,↓,0.655190100427717,True,17
1K22,553,experiment,24,←,left,←,0.5545991999097168,True,17
1K22,554,experiment,48,↓,left,←,0.9712930000387132,False,17
1K22,555,experiment,24,↓,down,↓,0.6837741998024285,True,17
1K22,556,experiment,180,←,no_key,no_letter,-1.0,False,17
1K22,557,experiment,60,←,left,←,1.265861399937421,True,17
1K22,558,experiment,168,↓,down,↓,0.41725540021434426,True,17
1K22,559,experiment,48,←,left,←,0.5887588001787663,True,17
1K22,560,experiment,180,↓,down,↓,0.6842870996333659,True,17
1K22,561,experiment,180,→,left,←,0.7957685003057122,False,17
1K22,562,experiment,36,↓,up,↑,1.2907977001741529,False,17
1K22,563,experiment,12,→,left,←,1.4825905002653599,False,17
1K22,564,experiment,12,↓,down,↓,1.0022609001025558,True,17
1K22,565,experiment,84,→,left,←,0.689787800423801,False,17
1K22,566,experiment,60,↓,down,↓,0.611650800332427,True,17
1K22,567,experiment,180,↓,down,↓,0.6359191001392901,True,17
1K22,568,experiment,108,→,right,→,0.6955527998507023,True,17
1K22,569,experiment,132,→,right,→,0.8925109002739191,True,17
1K22,570,experiment,108,↑,left,←,0.8195034000091255,False,17
1K22,571,experiment,144,↓,down,↓,0.634930900298059,True,17
1K22,572,experiment,168,↓,down,↓,0.5474986000917852,True,17
1K22,573,experiment,168,↑,down,↓,0.5606889999471605,False,17
1K22,574,experiment,96,→,right,→,0.5763909998349845,True,17
1K22,575,experiment,156,←,left,←,0.8401440000161529,True,17
1K22,576,experiment,96,←,left,←,0.9455893998965621,True,17
1K22,577,experiment,24,←,left,←,0.7016381002031267,True,17
1K22,578,experiment,36,→,right,→,0.47411209996789694,True,17
1K22,579,experiment,24,↓,down,↓,0.4925751998089254,True,17
1K22,580,experiment,120,↑,down,↓,0.6305722999386489,False,17
1K22,581,experiment,12,←,left,←,0.8088917997665703,True,17
1K22,582,experiment,72,↓,down,↓,1.3198227998800576,True,17
1K22,583,experiment,168,↓,down,↓,0.5499117998406291,True,17
1K22,584,experiment,120,→,right,→,1.4518448999151587,True,17
1K22,585,experiment,84,↓,down,↓,0.488877400290221,True,17
1K22,586,experiment,48,←,left,←,0.6996891000308096,True,17
1K22,587,experiment,156,→,right,→,0.6759843998588622,True,17
1K22,588,experiment,36,→,left,←,1.035734800156206,False,17
1K22,589,experiment,132,↑,left,←,0.8272717003710568,False,17
1K22,590,experiment,156,→,right,→,0.5146792000159621,True,17
1K22,591,experiment,120,←,left,←,0.5385101996362209,True,17
1K22,592,experiment,36,↓,up,↑,1.1516807000152767,False,17
1K22,593,experiment,96,→,right,→,0.5687833996489644,True,17
1K22,594,experiment,48,↓,up,↑,0.7884035999886692,False,17
1K22,595,experiment,144,→,right,→,0.6009919000789523,True,17
1K22,596,experiment,132,←,left,←,0.7928523002192378,True,17
1K22,597,experiment,156,↑,no_key,no_letter,-1.0,False,17
1K22,598,training,180,↑,up,↑,0.7429118999280035,True,17
1K22,599,training,108,↓,up,↑,0.7320614997297525,False,17
1K22,600,training,48,↓,down,↓,0.9071451001800597,True,17
1K22,601,experiment,60,←,left,←,0.49238900002092123,True,17
1K22,602,experiment,24,←,right,→,0.7057980997487903,False,17
1K22,603,experiment,96,↑,up,↑,0.6520487000234425,True,17
1K22,604,experiment,120,←,left,←,0.48973089968785644,True,17
1K22,605,experiment,12,↓,down,↓,0.931128999684006,True,17
1K22,606,experiment,96,←,right,→,0.5686220000497997,False,17
1K22,607,experiment,180,↓,right,→,0.9443879998289049,False,17
1K22,608,experiment,168,←,left,←,0.6883358997292817,True,17
1K22,609,experiment,36,←,left,←,0.5810079001821578,True,17
1K22,610,experiment,24,↑,up,↑,0.7077683000825346,True,17
1K22,611,experiment,132,↑,no_key,no_letter,-1.0,False,17
1K22,612,experiment,84,←,right,→,0.6232725000008941,False,17
1K22,613,experiment,144,↑,right,→,0.7239613998681307,False,17
1K22,614,experiment,84,↓,right,→,0.7880953997373581,False,17
1K22,615,experiment,156,↑,left,←,0.9952934999018908,False,17
1K22,616,experiment,36,↓,no_key,no_letter,-1.0,False,17
1K22,617,experiment,120,↑,up,↑,0.5619552000425756,True,17
1K22,618,experiment,48,↑,up,↑,0.8359926003031433,True,17
1K22,619,experiment,72,↓,up,↑,0.48888219986110926,False,17
1K22,620,experiment,84,←,left,←,0.6488732998259366,True,17
1K22,621,experiment,84,←,left,←,0.40051429998129606,True,17
1K22,622,experiment,24,↓,down,↓,1.075063900090754,True,17
1K22,623,experiment,12,←,right,→,0.8527501001954079,False,17
1K22,624,experiment,36,↓,down,↓,0.7001741002313793,True,17
1K22,625,experiment,96,↓,right,→,0.8047793000005186,False,17
1K22,626,experiment,48,↓,down,↓,0.5549162998795509,True,17
1K22,627,experiment,168,↓,down,↓,0.4831169997341931,True,17
1K22,628,experiment,12,→,left,←,1.197431799955666,False,17
1K22,629,experiment,72,←,right,→,0.49235230032354593,False,17
1K22,630,experiment,120,←,no_key,no_letter,-1.0,False,17
1K22,631,experiment,72,↑,up,↑,0.7480220999568701,True,17
1K22,632,experiment,60,→,right,→,0.6710335002280772,True,17
1K22,633,experiment,180,↑,up,↑,0.559996800031513,True,17
1K22,634,experiment,48,→,right,→,0.6513193002901971,True,17
1K22,635,experiment,144,→,right,→,0.5191712998785079,True,17
1K22,636,experiment,72,↓,left,←,0.669123400002718,False,17
1K22,637,experiment,144,↓,down,↓,0.9044220000505447,True,17
1K22,638,experiment,168,↓,no_key,no_letter,-1.0,False,17
1K22,639,experiment,168,→,right,→,0.5599957001395524,True,17
1K22,640,experiment,144,→,right,→,0.7969246995635331,True,17
1K22,641,experiment,60,←,left,←,0.7207296998240054,True,17
1K22,642,experiment,132,→,right,→,0.45379980001598597,True,17
1K22,643,experiment,156,←,left,←,0.9430402000434697,True,17
1K22,644,experiment,108,↑,up,↑,0.5953625999391079,True,17
1K22,645,experiment,36,←,left,←,0.5986863002181053,True,17
1K22,646,experiment,60,↓,down,↓,0.6848222003318369,True,17
1K22,647,experiment,108,↓,right,→,0.8361867000348866,False,17
1K22,648,experiment,180,→,right,→,0.46635180013254285,True,17
1K22,649,experiment,120,↑,up,↑,0.45306820003315806,True,17
1K22,650,experiment,180,←,left,←,0.500798000022769,True,17
1K22,651,experiment,132,↑,right,→,0.675689899828285,False,17
1K22,652,experiment,108,↓,down,↓,0.656038099899888,True,17
1K22,653,experiment,132,→,right,→,0.6125882999040186,True,17
1K22,654,experiment,12,↓,down,↓,0.7810986996628344,True,17
1K22,655,experiment,156,←,left,←,0.4949739999137819,True,17
1K22,656,experiment,96,↑,up,↑,0.7934385999105871,True,17
1K22,657,experiment,24,↑,no_key,no_letter,-1.0,False,17
1K22,658,experiment,108,→,up,↑,0.7236788999289274,False,17
1K22,659,experiment,156,→,right,→,0.5417455998249352,True,17
1K22,660,experiment,48,→,right,→,0.453823100309819,True,17
1K22,661,training,72,↑,right,→,0.7530180001631379,False,17
1K22,662,training,24,→,right,→,1.113269000314176,True,17
1K22,663,training,180,↓,right,→,0.7417025002650917,False,17
1K22,664,experiment,168,↑,up,↑,0.64400490000844,True,17
1K22,665,experiment,24,↓,up,↑,0.9214806999079883,False,17
1K22,666,experiment,36,→,right,→,0.7542274999432266,True,17
1K22,667,experiment,180,←,right,→,0.561079400125891,False,17
1K22,668,experiment,108,↓,down,↓,0.6997320000082254,True,17
1K22,669,experiment,96,↓,down,↓,0.49095100024715066,True,17
1K22,670,experiment,48,→,right,→,0.5368849001824856,True,17
1K22,671,experiment,156,→,right,→,0.7651398000307381,True,17
1K22,672,experiment,84,↑,up,↑,0.5903402999974787,True,17
1K22,673,experiment,12,→,up,↑,1.0067012999206781,False,17
1K22,674,experiment,120,↑,up,↑,0.5001479997299612,True,17
1K22,675,experiment,156,↑,up,↑,0.6616354999132454,True,17
1K22,676,experiment,180,→,right,→,0.7926326999440789,True,17
1K22,677,experiment,108,←,left,←,0.5115491999313235,True,17
1K22,678,experiment,144,→,left,←,0.6462135002948344,False,17
1K22,679,experiment,120,↑,no_key,no_letter,-1.0,False,17
1K22,680,experiment,180,←,left,←,0.6296251001767814,True,17
1K22,681,experiment,132,←,left,←,0.6933174002915621,True,17
1K22,682,experiment,24,→,right,→,0.6000735000707209,True,17
1K22,683,experiment,108,↑,up,↑,0.5791310998611152,True,17
1K22,684,experiment,12,←,left,←,0.6996092000044882,True,17
1K22,685,experiment,96,←,up,↑,0.7573955999687314,False,17
1K22,686,experiment,144,↓,up,↑,0.6408775998279452,False,17
1K22,687,experiment,108,↑,left,←,0.8633666001260281,False,17
1K22,688,experiment,60,→,right,→,0.5624967999756336,True,17
1K22,689,experiment,48,↑,up,↑,0.5645900000818074,True,17
1K22,690,experiment,84,↑,no_key,no_letter,-1.0,False,17
1K22,691,experiment,156,↓,up,↑,0.6099335001781583,False,17
1K22,692,experiment,156,↑,up,↑,0.41708080004900694,True,17
1K22,693,experiment,96,→,right,→,0.41702499985694885,True,17
1K22,694,experiment,72,→,up,↑,0.7309297998435795,False,17
1K22,695,experiment,96,↓,up,↑,0.56880549993366,False,17
1K22,696,experiment,60,→,right,→,0.615629700012505,True,17
1K22,697,experiment,36,←,left,←,0.5297639002092183,True,17
1K22,698,experiment,132,→,right,→,0.7613745001144707,True,17
1K22,699,experiment,12,←,left,←,0.6313384999521077,True,17
1K22,700,experiment,72,→,right,→,0.46242660004645586,True,17
1K22,701,experiment,132,↑,up,↑,0.514335900079459,True,17
1K22,702,experiment,168,↑,no_key,no_letter,-1.0,False,17
1K22,703,experiment,48,←,left,←,0.6439058999530971,True,17
1K22,704,experiment,36,↓,up,↑,0.7512125000357628,False,17
1K22,705,experiment,168,→,right,→,0.5069022998213768,True,17
1K22,706,experiment,84,↓,down,↓,0.6682762000709772,True,17
1K22,707,experiment,36,→,up,↑,1.0008165002800524,False,17
1K22,708,experiment,72,↓,down,↓,0.5437472998164594,True,17
1K22,709,experiment,168,↓,down,↓,0.4759275000542402,True,17
1K22,710,experiment,60,→,down,↓,1.1322892000898719,False,17
1K22,711,experiment,72,→,right,→,0.6656315000727773,True,17
1K22,712,experiment,24,↑,right,→,1.2412988999858499,False,17
1K22,713,experiment,84,→,right,→,0.47269259998574853,True,17
1K22,714,experiment,24,→,right,→,0.6936129997484386,True,17
1K22,715,experiment,180,←,left,←,0.6084813000634313,True,17
1K22,716,experiment,60,→,left,←,0.5680368999019265,False,17
1K22,717,experiment,132,↓,down,↓,0.7312604999169707,True,17
1K22,718,experiment,144,→,right,→,0.6381883001886308,True,17
1K22,719,experiment,48,↑,right,→,1.0436778999865055,False,17
1K22,720,experiment,120,↑,down,↓,0.5315537001006305,False,17
1K22,721,experiment,144,←,left,←,0.45583059964701533,True,17
1K22,722,experiment,120,→,right,→,0.5653459001332521,True,17
1K22,723,experiment,12,↑,right,→,0.8547610002569854,False,17
1K22,724,training,180,↑,left,←,0.6820518001914024,False,17
1K22,725,training,72,→,up,↑,0.8633305002003908,False,17
1K22,726,training,24,→,up,↑,0.776738699991256,False,17
1K22,727,experiment,144,↓,up,↑,0.5302238003350794,False,17
1K22,728,experiment,96,↑,up,↑,0.6479450999759138,True,17
1K22,729,experiment,156,→,left,←,0.916340199764818,False,17
1K22,730,experiment,36,↓,up,↑,0.9081342001445591,False,17
1K22,731,experiment,36,←,up,↑,0.6826228997670114,False,17
1K22,732,experiment,48,↓,up,↑,0.7184727001003921,False,17
1K22,733,experiment,24,←,left,←,0.7047373000532389,True,17
1K22,734,experiment,132,→,right,→,0.5511495997197926,True,17
1K22,735,experiment,24,↓,left,←,0.7664028001017869,False,17
1K22,736,experiment,108,←,left,←,0.7662154999561608,True,17
1K22,737,experiment,72,→,right,→,0.5116934003308415,True,17
1K22,738,experiment,168,←,right,→,0.8971081003546715,False,17
1K22,739,experiment,144,↑,up,↑,0.48137359973043203,True,17
1K22,740,experiment,132,←,left,←,0.5102941999211907,True,17
1K22,741,experiment,168,↓,down,↓,0.7251202999614179,True,17
1K22,742,experiment,144,←,left,←,0.4170789998024702,True,17
1K22,743,experiment,132,↑,no_key,no_letter,-1.0,False,17
1K22,744,experiment,96,↑,up,↑,0.36715300008654594,True,17
1K22,745,experiment,120,←,up,↑,0.58978659985587,False,17
1K22,746,experiment,120,↓,down,↓,0.644253000151366,True,17
1K22,747,experiment,180,←,left,←,0.541595000308007,True,17
1K22,748,experiment,180,↑,up,↑,0.6986183999106288,True,17
1K22,749,experiment,96,↓,down,↓,0.7683426002040505,True,17
1K22,750,experiment,168,→,right,→,0.7095880997367203,True,17
1K22,751,experiment,48,←,left,←,0.6133893001824617,True,17
1K22,752,experiment,84,←,right,→,0.7861076998524368,False,17
1K22,753,experiment,156,↓,down,↓,0.608326300047338,True,17
1K22,754,experiment,24,↑,up,↑,0.47919239988550544,True,17
1K22,755,experiment,60,↑,up,↑,0.4004525002092123,True,17
1K22,756,experiment,48,↓,up,↑,0.6372480001300573,False,17
1K22,757,experiment,168,↑,up,↑,0.5837388997897506,True,17
1K22,758,experiment,108,←,right,→,1.0354781998321414,False,17
1K22,759,experiment,60,→,right,→,1.0161231998354197,True,17
1K22,760,experiment,120,→,up,↑,1.0581298996694386,False,17
1K22,761,experiment,72,↑,up,↑,0.6777194999158382,True,17
1K22,762,experiment,72,→,right,→,0.47913820017129183,True,17
1K22,763,experiment,36,↑,up,↑,0.884041499812156,True,17
1K22,764,experiment,132,←,up,↑,0.7089193002320826,False,17
1K22,765,experiment,156,←,left,←,0.6161785000003874,True,17
1K22,766,experiment,36,↓,down,↓,0.6672964999452233,True,17
1K22,767,experiment,108,↑,no_key,no_letter,-1.0,False,17
1K22,768,experiment,12,↓,down,↓,0.5427507003769279,True,17
1K22,769,experiment,180,→,right,→,0.8113345997408032,True,17
1K22,770,experiment,84,↓,left,←,1.0734091997146606,False,17
1K22,771,experiment,96,↓,left,←,0.7188785001635551,False,17
1K22,772,experiment,144,←,left,←,0.5642561996355653,True,17
1K22,773,experiment,84,↑,up,↑,0.6225784001871943,True,17
1K22,774,experiment,84,↓,down,↓,0.8587289000861347,True,17
1K22,775,experiment,24,↑,left,←,1.2215423001907766,False,17
1K22,776,experiment,48,↓,down,↓,0.8036208995617926,True,17
1K22,777,experiment,156,↓,down,↓,0.6798518998548388,True,17
1K22,778,experiment,60,↓,down,↓,0.5203694999217987,True,17
1K22,779,experiment,72,→,right,→,0.7090397998690605,True,17
1K22,780,experiment,12,↓,left,←,0.878420100081712,False,17
1K22,781,experiment,180,↑,up,↑,0.7525110002607107,True,17
1K22,782,experiment,120,→,right,→,0.7100229999050498,True,17
1K22,783,experiment,60,↑,up,↑,0.5504503003321588,True,17
1K22,784,experiment,12,←,up,↑,0.6881877002306283,False,17
1K22,785,experiment,108,←,left,←,0.5524357999674976,True,17
1K22,786,experiment,12,↑,up,↑,0.4602851001545787,True,17
1K22,787,training,72,←,right,→,0.6822525002062321,False,17
1K22,788,training,84,↓,up,↑,0.7064105002209544,False,17
1K22,789,training,12,←,up,↑,1.0044681997969747,False,17
1K22,790,experiment,168,←,up,↑,0.6503194998949766,False,17
1K22,791,experiment,72,↑,up,↑,0.4682570998556912,True,17
1K22,792,experiment,60,←,left,←,0.6414818996563554,True,17
1K22,793,experiment,144,↑,right,→,0.9561940999701619,False,17
1K22,794,experiment,60,↓,down,↓,0.7593558002263308,True,17
1K22,795,experiment,180,←,left,←,0.5321288998238742,True,17
1K22,796,experiment,60,←,left,←,0.620556800160557,True,17
1K22,797,experiment,48,↓,down,↓,0.837949899956584,True,17
1K22,798,experiment,12,↑,right,→,0.9782801000401378,False,17
1K22,799,experiment,96,←,left,←,0.5578074003569782,True,17
1K22,800,experiment,144,→,right,→,0.583269199822098,True,17
1K22,801,experiment,144,←,left,←,1.0111672999337316,True,17
1K22,802,experiment,24,↓,left,←,0.7913016001693904,False,17
1K22,803,experiment,12,↑,left,←,0.8076951000839472,False,17
1K22,804,experiment,168,←,left,←,0.47095199953764677,True,17
1K22,805,experiment,180,→,right,→,0.5571399996988475,True,17
1K22,806,experiment,36,↑,up,↑,0.7372877998277545,True,17
1K22,807,experiment,156,↓,up,↑,0.7299886997789145,False,17
1K22,808,experiment,144,↑,up,↑,0.7966781002469361,True,17
1K22,809,experiment,84,←,left,←,0.6570470002479851,True,17
1K22,810,experiment,48,↓,down,↓,0.5858700000680983,True,17
1K22,811,experiment,48,←,left,←,0.45713620027527213,True,17
1K22,812,experiment,72,→,right,→,0.46605580020695925,True,17
1K22,813,experiment,96,←,left,←,0.45974790025502443,True,17
1K22,814,experiment,120,→,left,←,0.7191737997345626,False,17
1K22,815,experiment,12,←,left,←,0.7094117002561688,True,17
1K22,816,experiment,48,↓,down,↓,0.7464197999797761,True,17
1K22,817,experiment,96,↑,up,↑,0.565117200370878,True,17
1K22,818,experiment,36,→,left,←,0.7040376998484135,False,17
1K22,819,experiment,24,→,right,→,0.4799268003553152,True,17
1K22,820,experiment,132,↑,up,↑,0.40058309957385063,True,17
1K22,821,experiment,24,←,right,→,1.0566929997876287,False,17
1K22,822,experiment,108,↓,down,↓,0.799061699770391,True,17
1K22,823,experiment,120,→,no_key,no_letter,-1.0,False,17
1K22,824,experiment,24,→,right,→,0.6097235004417598,True,17
1K22,825,experiment,132,→,right,→,0.7726954999379814,True,17
1K22,826,experiment,132,↓,right,→,0.6553362002596259,False,17
1K22,827,experiment,12,→,right,→,0.7836267002858222,True,17
1K22,828,experiment,84,↑,up,↑,0.5263499999418855,True,17
1K22,829,experiment,36,→,up,↑,0.5893210996873677,False,17
1K22,830,experiment,108,↑,up,↑,0.46435389993712306,True,17
1K22,831,experiment,120,→,up,↑,0.7739744996652007,False,17
1K22,832,experiment,108,←,right,→,0.6240483000874519,False,17
1K22,833,experiment,156,↑,right,→,0.6924076001159847,False,17
1K22,834,experiment,180,←,right,→,0.6116000995971262,False,17
1K22,835,experiment,84,↑,right,→,0.6633538003079593,False,17
1K22,836,experiment,84,←,right,→,0.6900208997540176,False,17
1K22,837,experiment,108,→,right,→,0.4676029998809099,True,17
1K22,838,experiment,180,→,right,→,0.5813808999955654,True,17
1K22,839,experiment,168,←,right,→,0.7226470001041889,False,17
1K22,840,experiment,156,→,right,→,0.5122489002533257,True,17
1K22,841,experiment,72,→,right,→,0.4812586000189185,True,17
1K22,842,experiment,132,←,right,→,0.5210798997431993,False,17
1K22,843,experiment,168,↓,down,↓,0.7345811002887785,True,17
1K22,844,experiment,36,↑,down,↓,0.8510313001461327,False,17
1K22,845,experiment,96,↑,up,↑,0.5899541000835598,True,17
1K22,846,experiment,120,↓,up,↑,0.7134389001876116,False,17
1K22,847,experiment,156,←,left,←,0.6075324001722038,True,17
1K22,848,experiment,60,↓,right,→,0.8759624999947846,False,17
1K22,849,experiment,72,←,left,←,0.5487675997428596,True,17
