PART_ID,Trial_no,Trial_type,PDI,Stim_letter,Key_pressed,letter_choose,Rt,Corr,Stimulus Time
20K22,1,training,10,→,no_key,no_letter,-1.0,False,30
20K22,2,training,10,↓,down,↓,0.7647965000942349,True,30
20K22,3,training,10,↑,up,↑,0.8500355998985469,True,30
20K22,4,training,10,→,right,→,0.692572999978438,True,30
20K22,5,training,10,↓,down,↓,0.6946209999732673,True,30
20K22,6,training,10,→,right,→,0.6167721999809146,True,30
20K22,7,training,10,←,left,←,0.8923345999792218,True,30
20K22,8,training,10,→,right,→,0.7007395999971777,True,30
20K22,9,training,10,↓,down,↓,1.4101688000373542,True,30
20K22,10,training,10,→,right,→,0.5834237000672147,True,30
20K22,11,training,10,→,no_key,no_letter,-1.0,False,30
20K22,12,training,10,↑,up,↑,0.8482457000063732,True,30
20K22,13,training,10,↓,down,↓,0.7337235000450164,True,30
20K22,14,training,10,↑,up,↑,0.738820500089787,True,30
20K22,15,training,10,→,no_key,no_letter,-1.0,False,30
20K22,16,training,10,↓,down,↓,0.871134000015445,True,30
20K22,17,training,10,↑,up,↑,0.6340525000123307,True,30
20K22,18,training,10,←,left,←,0.8356093999464065,True,30
20K22,19,training,10,↓,down,↓,0.8440635999431834,True,30
20K22,20,training,10,↑,up,↑,1.5421801999909803,True,30
20K22,21,training,10,↑,down,↓,0.7270496999844909,False,18
20K22,22,training,10,←,left,←,0.5401852999348193,True,18
20K22,23,training,10,↓,down,↓,0.8312677000649273,True,18
20K22,24,training,10,↑,up,↑,0.6114363999804482,True,18
20K22,25,training,10,↓,down,↓,0.7091836000327021,True,18
20K22,26,training,10,↓,down,↓,0.9763334000017494,True,18
20K22,27,training,10,←,left,←,0.7381961999926716,True,18
20K22,28,training,10,→,right,→,0.6382731000194326,True,18
20K22,29,training,10,↓,no_key,no_letter,-1.0,False,18
20K22,30,training,10,↓,down,↓,0.7600309000117704,True,18
20K22,31,training,132,→,right,→,0.6953883999958634,True,15
20K22,32,training,144,↓,down,↓,0.6768116999883205,True,15
20K22,33,training,12,↓,right,→,0.8934596000472084,False,15
20K22,34,experiment,24,↓,down,↓,0.6250955000286922,True,15
20K22,35,experiment,72,←,up,↑,1.663485400029458,False,15
20K22,36,experiment,156,↓,down,↓,0.6910784000065178,True,15
20K22,37,experiment,144,→,right,→,0.4672864000312984,True,15
20K22,38,experiment,60,↓,down,↓,0.7044622999383137,True,15
20K22,39,experiment,36,←,left,←,1.1676965999649838,True,15
20K22,40,experiment,48,→,right,→,0.6360174999572337,True,15
20K22,41,experiment,96,→,right,→,0.6031946999719366,True,15
20K22,42,experiment,120,→,right,→,0.5480634999694303,True,15
20K22,43,experiment,180,←,left,←,0.6514002000913024,True,15
20K22,44,experiment,12,↑,up,↑,1.5089063999475911,True,15
20K22,45,experiment,36,←,left,←,0.4791115999687463,True,15
20K22,46,experiment,12,↑,left,←,0.968440700089559,False,15
20K22,47,experiment,96,↓,no_key,no_letter,-1.0,False,15
20K22,48,experiment,108,↓,up,↑,1.0409761000191793,False,15
20K22,49,experiment,156,→,left,←,0.680001400061883,False,15
20K22,50,experiment,108,→,right,→,0.5475955000147223,True,15
20K22,51,experiment,96,↓,down,↓,0.6836338000139222,True,15
20K22,52,experiment,120,↑,left,←,0.6254397999728099,False,15
20K22,53,experiment,144,←,up,↑,1.1113808000227436,False,15
20K22,54,experiment,84,↑,up,↑,0.678676399984397,True,15
20K22,55,experiment,84,↓,left,←,1.2504607000155374,False,15
20K22,56,experiment,84,↓,up,↑,1.9148955000564456,False,15
20K22,57,experiment,12,←,right,→,0.8508162000216544,False,15
20K22,58,experiment,24,↓,down,↓,0.7029314999235794,True,15
20K22,59,experiment,72,↓,up,↑,1.0270504999207333,False,15
20K22,60,experiment,60,↓,left,←,0.8951737000606954,False,15
20K22,61,experiment,36,↑,left,←,0.9570713000139222,False,15
20K22,62,experiment,132,↑,up,↑,0.8752579999854788,True,15
20K22,63,experiment,72,→,down,↓,1.6845206998987123,False,15
20K22,64,experiment,156,↑,up,↑,0.5679796999320388,True,15
20K22,65,experiment,24,→,right,→,0.49618300003930926,True,15
20K22,66,experiment,120,→,left,←,0.8446987000061199,False,15
20K22,67,experiment,84,↑,up,↑,0.5775304000126198,True,15
20K22,68,experiment,108,↓,up,↑,1.275399100035429,False,15
20K22,69,experiment,180,↓,down,↓,0.6669968999922276,True,15
20K22,70,experiment,36,↓,right,→,0.6906275000656024,False,15
20K22,71,experiment,60,←,left,←,0.5806128999684006,True,15
20K22,72,experiment,48,↑,up,↑,1.3925608999561518,True,15
20K22,73,experiment,168,←,left,←,0.4820460999617353,True,15
20K22,74,experiment,168,→,right,→,0.6410954999737442,True,15
20K22,75,experiment,132,→,right,→,0.6777588999830186,True,15
20K22,76,experiment,48,↓,left,←,1.095816900022328,False,15
20K22,77,experiment,72,←,down,↓,1.6246374000329524,False,15
20K22,78,experiment,144,↓,down,↓,0.7593891000142321,True,15
20K22,79,experiment,12,↓,no_key,no_letter,-1.0,False,15
20K22,80,experiment,132,←,left,←,0.8545870999805629,True,15
20K22,81,experiment,132,↑,up,↑,0.6505386000499129,True,15
20K22,82,experiment,168,↑,left,←,0.5153420000569895,False,15
20K22,83,experiment,108,→,left,←,0.778365800040774,False,15
20K22,84,experiment,180,↓,down,↓,0.5462189000099897,True,15
20K22,85,experiment,144,↓,down,↓,0.5520431000040844,True,15
20K22,86,experiment,180,↑,up,↑,0.5255430999677628,True,15
20K22,87,experiment,60,←,left,←,0.5131534999236465,True,15
20K22,88,experiment,48,↑,up,↑,0.4544655999634415,True,15
20K22,89,experiment,24,←,left,←,1.6291597000090405,True,15
20K22,90,experiment,168,↓,down,↓,0.5666602000128478,True,15
20K22,91,experiment,156,↑,left,←,0.6094301000703126,False,15
20K22,92,experiment,96,↓,down,↓,0.6320710999425501,True,15
20K22,93,experiment,120,←,left,←,0.45616589998826385,True,15
20K22,94,training,120,→,left,←,0.5096989000448957,False,15
20K22,95,training,12,←,left,←,0.9484165000030771,True,15
20K22,96,training,48,←,left,←,0.7466578999301419,True,15
20K22,97,experiment,84,↓,down,↓,0.6086926000425592,True,15
20K22,98,experiment,132,→,right,→,0.6327849000226706,True,15
20K22,99,experiment,96,←,left,←,0.5421743000624701,True,15
20K22,100,experiment,96,↓,down,↓,0.5761408000253141,True,15
20K22,101,experiment,72,↓,down,↓,0.8382793000200763,True,15
20K22,102,experiment,84,↓,down,↓,0.603794900001958,True,15
20K22,103,experiment,72,↑,up,↑,0.6229610999580473,True,15
20K22,104,experiment,12,↑,up,↑,0.6663445000303909,True,15
20K22,105,experiment,72,→,right,→,0.4557342999614775,True,15
20K22,106,experiment,24,→,right,→,0.8743926000315696,True,15
20K22,107,experiment,120,→,right,→,0.5730517000192776,True,15
20K22,108,experiment,168,→,right,→,0.4858955000527203,True,15
20K22,109,experiment,120,↑,up,↑,0.6222972999094054,True,15
20K22,110,experiment,156,↓,down,↓,0.6571565000340343,True,15
20K22,111,experiment,144,←,left,←,0.5178744000149891,True,15
20K22,112,experiment,108,↓,up,↑,1.0090953999897465,False,15
20K22,113,experiment,36,←,left,←,1.5313316999236122,True,15
20K22,114,experiment,180,↓,down,↓,0.71631430007983,True,15
20K22,115,experiment,24,↓,left,←,1.5463062999770045,False,15
20K22,116,experiment,120,→,up,↑,1.0531193000497296,False,15
20K22,117,experiment,144,←,right,→,1.2765793999424204,False,15
20K22,118,experiment,96,↓,down,↓,0.7478237000759691,True,15
20K22,119,experiment,132,↑,up,↑,1.0907161999493837,True,15
20K22,120,experiment,48,→,right,→,1.1295060999691486,True,15
20K22,121,experiment,12,↑,left,←,1.1780095999129117,False,15
20K22,122,experiment,12,→,no_key,no_letter,-1.0,False,15
20K22,123,experiment,144,↓,down,↓,0.644414099981077,True,15
20K22,124,experiment,108,↑,up,↑,0.7045343000208959,True,15
20K22,125,experiment,60,→,right,→,0.4819005000172183,True,15
20K22,126,experiment,180,→,left,←,1.0387522999662906,False,15
20K22,127,experiment,48,←,up,↑,1.6022736000595614,False,15
20K22,128,experiment,36,←,left,←,0.7917301999405026,True,15
20K22,129,experiment,108,↑,up,↑,1.094389499980025,True,15
20K22,130,experiment,36,↑,up,↑,1.790443400037475,True,15
20K22,131,experiment,24,←,left,←,0.6535429999930784,True,15
20K22,132,experiment,144,←,up,↑,1.6099535999819636,False,15
20K22,133,experiment,156,↓,down,↓,1.3841153000248596,True,15
20K22,134,experiment,24,↑,no_key,no_letter,-1.0,False,15
20K22,135,experiment,60,↑,up,↑,1.8581173999700695,True,15
20K22,136,experiment,12,→,left,←,1.2261851000366732,False,15
20K22,137,experiment,36,←,left,←,0.6650547999888659,True,15
20K22,138,experiment,168,→,right,→,0.6162962999660522,True,15
20K22,139,experiment,60,↑,up,↑,0.9931876000482589,True,15
20K22,140,experiment,156,←,left,←,0.5796799999661744,True,15
20K22,141,experiment,48,↓,up,↑,1.1853759000077844,False,15
20K22,142,experiment,96,↑,up,↑,1.123037299956195,True,15
20K22,143,experiment,132,↑,up,↑,0.6710922999773175,True,15
20K22,144,experiment,132,↑,up,↑,0.7313196000177413,True,15
20K22,145,experiment,72,↑,up,↑,0.5014249999076128,True,15
20K22,146,experiment,60,←,left,←,0.9596700000111014,True,15
20K22,147,experiment,84,←,left,←,0.6810855000512674,True,15
20K22,148,experiment,156,→,right,→,0.5015191999264061,True,15
20K22,149,experiment,180,←,left,←,0.7208276999881491,True,15
20K22,150,experiment,108,↑,up,↑,0.5339849999872968,True,15
20K22,151,experiment,120,→,right,→,0.46993500005919486,True,15
20K22,152,experiment,168,←,no_key,no_letter,-1.0,False,15
20K22,153,experiment,168,→,right,→,0.7715198000660166,True,15
20K22,154,experiment,48,←,right,→,0.8706213999539614,False,15
20K22,155,experiment,84,←,right,→,0.7279562000185251,False,15
20K22,156,experiment,180,→,right,→,0.8320877000223845,True,15
20K22,157,training,84,←,left,←,0.5608330999966711,True,15
20K22,158,training,12,↑,up,↑,0.9161635999334976,True,15
20K22,159,training,120,→,right,→,0.5721168000018224,True,15
20K22,160,experiment,72,↑,up,↑,1.2752088999841362,True,15
20K22,161,experiment,60,←,left,←,0.9344281000085175,True,15
20K22,162,experiment,12,←,up,↑,0.9177161999978125,False,15
20K22,163,experiment,48,↑,up,↑,0.6545090000145137,True,15
20K22,164,experiment,24,←,left,←,0.6677071000449359,True,15
20K22,165,experiment,60,↓,down,↓,1.4172952000517398,True,15
20K22,166,experiment,120,↓,down,↓,0.6995171998860314,True,15
20K22,167,experiment,36,↑,up,↑,0.6092683998867869,True,15
20K22,168,experiment,72,↓,down,↓,0.5973345000529662,True,15
20K22,169,experiment,168,→,right,→,0.8240299999015406,True,15
20K22,170,experiment,132,→,right,→,0.754782099975273,True,15
20K22,171,experiment,24,↓,up,↑,0.6600798000581563,False,15
20K22,172,experiment,48,↓,up,↑,0.6534017999656498,False,15
20K22,173,experiment,84,↑,up,↑,0.516393999918364,True,15
20K22,174,experiment,168,←,left,←,0.5201739000622183,True,15
20K22,175,experiment,156,→,no_key,no_letter,-1.0,False,15
20K22,176,experiment,180,↑,up,↑,0.6333050000248477,True,15
20K22,177,experiment,96,←,right,→,0.593501599971205,False,15
20K22,178,experiment,144,←,left,←,0.5209361999295652,True,15
20K22,179,experiment,24,↑,up,↑,0.7755095000611618,True,15
20K22,180,experiment,12,↑,up,↑,0.553610899951309,True,15
20K22,181,experiment,120,←,left,←,0.569599200040102,True,15
20K22,182,experiment,108,←,left,←,0.5028863999759778,True,15
20K22,183,experiment,144,↑,up,↑,0.5829284999053925,True,15
20K22,184,experiment,72,↑,right,→,1.5473390000406653,False,15
20K22,185,experiment,144,↑,up,↑,0.5499252999434248,True,15
20K22,186,experiment,84,←,left,←,0.8714541998924688,True,15
20K22,187,experiment,36,↑,up,↑,0.7180047000292689,True,15
20K22,188,experiment,156,↓,up,↑,0.6284867000067607,False,15
20K22,189,experiment,48,↑,up,↑,0.6910573000786826,True,15
20K22,190,experiment,156,←,left,←,0.7932927999645472,True,15
20K22,191,experiment,180,←,right,→,0.4791895999806002,False,15
20K22,192,experiment,168,↑,up,↑,0.9323383000446483,True,15
20K22,193,experiment,144,←,left,←,0.6458299000514671,True,15
20K22,194,experiment,132,→,left,←,0.7269476000219584,False,15
20K22,195,experiment,12,↑,up,↑,0.61395409994293,True,15
20K22,196,experiment,36,↓,up,↑,0.6425236000213772,False,15
20K22,197,experiment,96,↑,up,↑,0.5419682000065222,True,15
20K22,198,experiment,108,↓,down,↓,0.6393461000407115,True,15
20K22,199,experiment,12,→,left,←,1.1889790000859648,False,15
20K22,200,experiment,84,↓,up,↑,0.6266669000033289,False,15
20K22,201,experiment,48,↑,up,↑,0.5684691000496969,True,15
20K22,202,experiment,180,→,right,→,1.2332258999813348,True,15
20K22,203,experiment,120,↓,up,↑,0.6882473999867216,False,15
20K22,204,experiment,120,→,right,→,0.9791254999581724,True,15
20K22,205,experiment,96,↓,down,↓,0.7627525000134483,True,15
20K22,206,experiment,108,↓,down,↓,0.7359823000151664,True,15
20K22,207,experiment,108,→,left,←,0.5426251000026241,False,15
20K22,208,experiment,72,↑,down,↓,0.810962799936533,False,15
20K22,209,experiment,96,↑,down,↓,0.6303167999722064,False,15
20K22,210,experiment,24,→,right,→,0.6064963999669999,True,15
20K22,211,experiment,60,←,left,←,0.44093509996309876,True,15
20K22,212,experiment,168,↓,down,↓,0.6551566999405622,True,15
20K22,213,experiment,60,←,left,←,0.5011172000085935,True,15
20K22,214,experiment,156,↓,down,↓,0.622000899980776,True,15
20K22,215,experiment,132,↑,up,↑,0.5341131000313908,True,15
20K22,216,experiment,132,←,left,←,0.5996467000804842,True,15
20K22,217,experiment,84,↓,left,←,0.8880631999345496,False,15
20K22,218,experiment,36,↑,up,↑,0.5649399000685662,True,15
20K22,219,experiment,180,←,left,←,0.43118900002446026,True,15
20K22,220,training,72,→,down,↓,0.7659585999790579,False,15
20K22,221,training,168,↑,up,↑,0.5066324999788776,True,15
20K22,222,training,60,←,left,←,0.8130445000715554,True,15
20K22,223,experiment,12,→,left,←,0.7226126999594271,False,15
20K22,224,experiment,168,→,up,↑,0.6169253999833018,False,15
20K22,225,experiment,108,→,right,→,0.5283912000013515,True,15
20K22,226,experiment,144,↑,up,↑,0.4437873000279069,True,15
20K22,227,experiment,132,↑,up,↑,0.5218082999344915,True,15
20K22,228,experiment,84,↑,up,↑,0.5608439000789076,True,15
20K22,229,experiment,72,→,right,→,0.8684262000024319,True,15
20K22,230,experiment,84,←,left,←,0.6400952000403777,True,15
20K22,231,experiment,120,↑,up,↑,0.5275182999903336,True,15
20K22,232,experiment,60,→,right,→,0.7632012000540271,True,15
20K22,233,experiment,96,→,left,←,0.6550261999946088,False,15
20K22,234,experiment,24,←,left,←,0.5661485999589786,True,15
20K22,235,experiment,108,↓,down,↓,0.6039216999197379,True,15
20K22,236,experiment,72,↑,up,↑,0.5684130999725312,True,15
20K22,237,experiment,120,↓,left,←,0.7225933000445366,False,15
20K22,238,experiment,12,←,right,→,1.4461534000001848,False,15
20K22,239,experiment,36,↓,down,↓,0.5860150000080466,True,15
20K22,240,experiment,96,↑,up,↑,0.5320137001108378,True,15
20K22,241,experiment,144,↓,down,↓,0.5652264000382274,True,15
20K22,242,experiment,72,→,right,→,0.47445079998578876,True,15
20K22,243,experiment,48,←,left,←,0.5004448000108823,True,15
20K22,244,experiment,132,←,right,→,0.4849915000377223,False,15
20K22,245,experiment,96,↓,down,↓,0.6192699000239372,True,15
20K22,246,experiment,108,→,left,←,0.4884515000740066,False,15
20K22,247,experiment,168,↑,right,→,0.5842675999738276,False,15
20K22,248,experiment,120,↓,down,↓,0.550468200002797,True,15
20K22,249,experiment,144,←,left,←,0.487629400100559,True,15
20K22,250,experiment,180,←,left,←,1.2097838999470696,True,15
20K22,251,experiment,180,↑,up,↑,0.7461978000355884,True,15
20K22,252,experiment,48,↓,down,↓,0.7173048000549898,True,15
20K22,253,experiment,60,↓,down,↓,0.6367508999537677,True,15
20K22,254,experiment,108,→,right,→,0.6749608999816701,True,15
20K22,255,experiment,60,↑,down,↓,0.6838360000401735,False,15
20K22,256,experiment,48,→,right,→,0.5589464999502525,True,15
20K22,257,experiment,36,→,right,→,0.5143597999121994,True,15
20K22,258,experiment,132,←,left,←,0.5739099000347778,True,15
20K22,259,experiment,168,↓,left,←,0.807887899922207,False,15
20K22,260,experiment,180,↓,down,↓,0.6720731999957934,True,15
20K22,261,experiment,120,←,right,→,0.5409792000427842,False,15
20K22,262,experiment,132,→,right,→,0.598889600019902,True,15
20K22,263,experiment,12,→,left,←,0.5906324000097811,False,15
20K22,264,experiment,156,↓,down,↓,0.5313234999775887,True,15
20K22,265,experiment,84,←,left,←,0.5409951000474393,True,15
20K22,266,experiment,96,↑,up,↑,0.6115525000495836,True,15
20K22,267,experiment,156,↑,left,←,0.602980500087142,False,15
20K22,268,experiment,24,←,left,←,0.680710899992846,True,15
20K22,269,experiment,84,↑,up,↑,0.5910552999703214,True,15
20K22,270,experiment,72,→,left,←,0.47018990002106875,False,15
20K22,271,experiment,36,←,right,→,0.6384763999376446,False,15
20K22,272,experiment,60,→,right,→,0.46887710003647953,True,15
20K22,273,experiment,48,←,left,←,0.45662720000837,True,15
20K22,274,experiment,156,→,left,←,0.9268581999931484,False,15
20K22,275,experiment,12,↑,up,↑,0.7761810999363661,True,15
20K22,276,experiment,36,↓,up,↑,0.8662850999971852,False,15
20K22,277,experiment,24,↑,up,↑,0.4942952999845147,True,15
20K22,278,experiment,24,→,right,→,0.6044557000277564,True,15
20K22,279,experiment,180,↑,up,↑,0.5484039000002667,True,15
20K22,280,experiment,144,←,left,←,1.0436785999918357,True,15
20K22,281,experiment,168,←,left,←,0.47546430001966655,True,15
20K22,282,experiment,156,↓,down,↓,1.60005549993366,True,15
20K22,283,training,36,←,left,←,0.4689342000056058,True,15
20K22,284,training,96,↑,up,↑,0.5782916999887675,True,15
20K22,285,training,84,→,right,→,0.6697870999341831,True,15
20K22,286,experiment,24,↓,down,↓,0.7109581000404432,True,15
20K22,287,experiment,60,→,right,→,0.6930906999623403,True,15
20K22,288,experiment,180,↑,up,↑,0.5446127000031993,True,15
20K22,289,experiment,36,↑,down,↓,0.9690304000396281,False,15
20K22,290,experiment,144,←,left,←,0.59739869995974,True,15
20K22,291,experiment,132,↑,up,↑,0.6432578000240028,True,15
20K22,292,experiment,156,↓,down,↓,0.6154152000090107,True,15
20K22,293,experiment,168,↑,down,↓,0.6477943999925628,False,15
20K22,294,experiment,84,↑,up,↑,0.6403041000012308,True,15
20K22,295,experiment,120,↑,up,↑,0.5863864000421017,True,15
20K22,296,experiment,144,↓,left,←,0.8180156000889838,False,15
20K22,297,experiment,24,→,right,→,0.8067883999319747,True,15
20K22,298,experiment,132,↑,up,↑,0.522416100022383,True,15
20K22,299,experiment,96,↓,up,↑,0.5994424000382423,False,15
20K22,300,experiment,120,↑,up,↑,0.44750450004357845,True,15
20K22,301,experiment,96,→,left,←,0.45249410008545965,False,15
20K22,302,experiment,108,→,left,←,0.7691149999154732,False,15
20K22,303,experiment,168,↓,up,↑,0.7309313000878319,False,15
20K22,304,experiment,156,↑,up,↑,0.6485852000769228,True,15
20K22,305,experiment,108,↑,up,↑,0.6423401000211015,True,15
20K22,306,experiment,48,↑,up,↑,0.7239310001023114,True,15
20K22,307,experiment,60,↑,up,↑,0.6446844999445602,True,15
20K22,308,experiment,180,↑,up,↑,0.579216800048016,True,15
20K22,309,experiment,108,→,right,→,1.086539400042966,True,15
20K22,310,experiment,60,←,left,←,1.0840210999595001,True,15
20K22,311,experiment,132,→,down,↓,0.8590970999794081,False,15
20K22,312,experiment,132,↓,down,↓,0.7681228000437841,True,15
20K22,313,experiment,72,↑,down,↓,0.7713357999455184,False,15
20K22,314,experiment,48,↓,no_key,no_letter,-1.0,False,15
20K22,315,experiment,72,→,right,→,0.6851437999866903,True,15
20K22,316,experiment,48,←,left,←,0.7329724000301212,True,15
20K22,317,experiment,180,→,left,←,0.6347934999503195,False,15
20K22,318,experiment,24,↓,down,↓,0.6934524000389501,True,15
20K22,319,experiment,84,↓,down,↓,0.5860472000204027,True,15
20K22,320,experiment,96,↑,no_key,no_letter,-1.0,False,15
20K22,321,experiment,120,↓,down,↓,0.7058729999698699,True,15
20K22,322,experiment,96,↓,down,↓,0.7046100000152364,True,15
20K22,323,experiment,120,↑,up,↑,0.6163999000564218,True,15
20K22,324,experiment,180,←,left,←,0.657495400053449,True,15
20K22,325,experiment,12,←,left,←,0.6594861000776291,True,15
20K22,326,experiment,12,→,right,→,0.510847199941054,True,15
20K22,327,experiment,84,↑,up,↑,0.6630982999922708,True,15
20K22,328,experiment,12,→,up,↑,0.9008893000427634,False,15
20K22,329,experiment,144,→,right,→,0.5060158000560477,True,15
20K22,330,experiment,36,←,left,←,0.9267887999303639,True,15
20K22,331,experiment,108,→,left,←,0.6850732999155298,False,15
20K22,332,experiment,60,↑,left,←,0.6502500999486074,False,15
20K22,333,experiment,48,↑,down,↓,0.9493817000184208,False,15
20K22,334,experiment,156,←,left,←,0.505731200100854,True,15
20K22,335,experiment,72,←,left,←,0.8165310000767931,True,15
20K22,336,experiment,72,→,right,→,0.5510883999522775,True,15
20K22,337,experiment,156,←,right,→,0.6969819000223652,False,15
20K22,338,experiment,144,↑,left,←,0.6004385000560433,False,15
20K22,339,experiment,24,→,left,←,0.6519827999873087,False,15
20K22,340,experiment,168,↑,no_key,no_letter,-1.0,False,15
20K22,341,experiment,36,↑,right,→,0.9122126000002027,False,15
20K22,342,experiment,36,→,left,←,0.6049207999603823,False,15
20K22,343,experiment,84,↓,down,↓,0.5170580999692902,True,15
20K22,344,experiment,168,↑,up,↑,0.5077363000018522,True,15
20K22,345,experiment,12,↓,up,↑,0.5252977999625728,False,15
20K22,346,training,24,↓,left,←,1.329024099977687,False,15
20K22,347,training,60,↑,up,↑,0.6114849000005051,True,15
20K22,348,training,96,↑,up,↑,0.7646462999982759,True,15
20K22,349,experiment,96,↑,up,↑,0.5941593999741599,True,15
20K22,350,experiment,108,↓,down,↓,0.60981549997814,True,15
20K22,351,experiment,132,↑,up,↑,0.5143540999852121,True,15
20K22,352,experiment,36,→,left,←,0.5240305000916123,False,15
20K22,353,experiment,84,→,right,→,0.5125770999584347,True,15
20K22,354,experiment,168,↑,up,↑,0.5391089000040665,True,15
20K22,355,experiment,168,↑,up,↑,0.6900130999274552,True,15
20K22,356,experiment,108,↓,left,←,0.6881659999489784,False,15
20K22,357,experiment,180,←,left,←,1.1861732000252232,True,15
20K22,358,experiment,144,←,left,←,0.6803304000059143,True,15
20K22,359,experiment,144,←,left,←,0.40067930007353425,True,15
20K22,360,experiment,180,↑,up,↑,0.6058736999984831,True,15
20K22,361,experiment,84,↑,up,↑,0.5625046000350267,True,15
20K22,362,experiment,48,↓,up,↑,0.4922068000305444,False,15
20K22,363,experiment,60,←,left,←,0.5318606999935582,True,15
20K22,364,experiment,48,←,left,←,0.5440577999688685,True,15
20K22,365,experiment,156,↑,up,↑,0.522325300029479,True,15
20K22,366,experiment,12,←,left,←,0.6207052000099793,True,15
20K22,367,experiment,48,↑,left,←,0.644592099939473,False,15
20K22,368,experiment,144,←,left,←,0.731918100034818,True,15
20K22,369,experiment,180,↑,left,←,0.6687673999695107,False,15
20K22,370,experiment,72,↓,up,↑,0.5845449999906123,False,15
20K22,371,experiment,60,→,right,→,0.5097374999895692,True,15
20K22,372,experiment,120,↑,up,↑,0.5892317000543699,True,15
20K22,373,experiment,48,↓,up,↑,0.4786094001028687,False,15
20K22,374,experiment,36,↓,no_key,no_letter,-1.0,False,15
20K22,375,experiment,132,→,right,→,0.6008279999950901,True,15
20K22,376,experiment,132,↓,down,↓,0.5611738000297919,True,15
20K22,377,experiment,156,←,left,←,1.0036498000845313,True,15
20K22,378,experiment,12,↑,up,↑,0.5709881000220776,True,15
20K22,379,experiment,108,←,left,←,0.5168953000102192,True,15
20K22,380,experiment,96,→,right,→,0.6377535000210628,True,15
20K22,381,experiment,120,↓,down,↓,0.6148178000003099,True,15
20K22,382,experiment,12,↑,up,↑,0.6537215999560431,True,15
20K22,383,experiment,36,→,left,←,0.6997078999411315,False,15
20K22,384,experiment,24,↑,left,←,0.9616318999323994,False,15
20K22,385,experiment,24,←,left,←,0.4910949000623077,True,15
20K22,386,experiment,168,→,left,←,1.0293565999018028,False,15
20K22,387,experiment,96,↓,down,↓,0.579504800029099,True,15
20K22,388,experiment,144,↑,up,↑,0.8504334000172094,True,15
20K22,389,experiment,12,↑,up,↑,0.8587753999745473,True,15
20K22,390,experiment,132,↑,up,↑,0.48167500004637986,True,15
20K22,391,experiment,36,←,up,↑,0.6132920000236481,False,15
20K22,392,experiment,96,→,no_key,no_letter,-1.0,False,15
20K22,393,experiment,84,←,left,←,0.5538099999539554,True,15
20K22,394,experiment,156,↑,up,↑,0.5426187000703067,True,15
20K22,395,experiment,60,↑,up,↑,0.5228868999984115,True,15
20K22,396,experiment,108,←,left,←,0.5115110999904573,True,15
20K22,397,experiment,72,↓,down,↓,0.5299374000169337,True,15
20K22,398,experiment,180,→,right,→,0.417795900022611,True,15
20K22,399,experiment,156,↓,left,←,0.6719535000156611,False,15
20K22,400,experiment,72,←,right,→,0.4902950000250712,False,15
20K22,401,experiment,120,←,left,←,0.6079665999859571,True,15
20K22,402,experiment,24,←,right,→,0.5196054999250919,False,15
20K22,403,experiment,168,→,left,←,0.6805648999288678,False,15
20K22,404,experiment,60,→,left,←,0.5636692999396473,False,15
20K22,405,experiment,72,←,left,←,0.6390274999430403,True,15
20K22,406,experiment,24,↑,up,↑,0.5163206000579521,True,15
20K22,407,experiment,120,↑,no_key,no_letter,-1.0,False,15
20K22,408,experiment,84,←,left,←,0.4414744001114741,True,15
20K22,409,training,36,←,right,→,0.850752400001511,False,15
20K22,410,training,168,↓,up,↑,1.6010508000617847,False,15
20K22,411,training,60,→,left,←,0.5144373000366613,False,15
20K22,412,experiment,132,←,left,←,0.505093100015074,True,15
20K22,413,experiment,96,↓,up,↑,0.7219730999786407,False,15
20K22,414,experiment,108,→,right,→,0.47125139995478094,True,15
20K22,415,experiment,120,↑,up,↑,0.8394899000413716,True,15
20K22,416,experiment,96,→,up,↑,0.5480562000302598,False,15
20K22,417,experiment,36,←,left,←,0.550573900109157,True,15
20K22,418,experiment,72,←,left,←,0.6959274999098852,True,15
20K22,419,experiment,108,←,left,←,0.4529367999639362,True,15
20K22,420,experiment,72,↓,left,←,0.6213006000034511,False,15
20K22,421,experiment,48,↓,up,↑,0.7425172999501228,False,15
20K22,422,experiment,12,→,left,←,0.8527761999284849,False,15
20K22,423,experiment,132,↑,up,↑,0.6315763000166044,True,15
20K22,424,experiment,12,↑,up,↑,0.7882065000012517,True,15
20K22,425,experiment,84,↓,down,↓,1.0588822000427172,True,15
20K22,426,experiment,168,↓,up,↑,0.6393408000003546,False,15
20K22,427,experiment,156,↓,left,←,1.1793686000164598,False,15
20K22,428,experiment,180,→,right,→,0.5085916999960318,True,15
20K22,429,experiment,24,←,left,←,0.4671480000251904,True,15
20K22,430,experiment,84,→,down,↓,1.0824188999831676,False,15
20K22,431,experiment,24,↓,up,↑,0.6911256000166759,False,15
20K22,432,experiment,36,←,left,←,0.6806902000680566,True,15
20K22,433,experiment,12,←,left,←,0.5794872000114992,True,15
20K22,434,experiment,156,↑,up,↑,0.48292530002072453,True,15
20K22,435,experiment,36,←,no_key,no_letter,-1.0,False,15
20K22,436,experiment,180,→,right,→,0.4868664999958128,True,15
20K22,437,experiment,36,↓,up,↑,0.5494607000146061,False,15
20K22,438,experiment,180,→,right,→,0.43182669999077916,True,15
20K22,439,experiment,12,↓,right,→,0.8953822000185028,False,15
20K22,440,experiment,108,→,right,→,0.5440349999116734,True,15
20K22,441,experiment,72,→,left,←,0.4975269000278786,False,15
20K22,442,experiment,60,←,no_key,no_letter,-1.0,False,15
20K22,443,experiment,48,←,no_key,no_letter,-1.0,False,15
20K22,444,experiment,120,→,left,←,0.48241189995314926,False,15
20K22,445,experiment,144,→,left,←,1.163167899940163,False,15
20K22,446,experiment,84,↑,up,↑,0.4964174999622628,True,15
20K22,447,experiment,144,↓,down,↓,0.7149692999664694,True,15
20K22,448,experiment,96,↓,down,↓,0.689962700009346,True,15
20K22,449,experiment,120,←,left,←,0.725134199950844,True,15
20K22,450,experiment,96,↑,up,↑,0.5104918000288308,True,15
20K22,451,experiment,60,↑,no_key,no_letter,-1.0,False,15
20K22,452,experiment,60,→,right,→,0.5840785000473261,True,15
20K22,453,experiment,168,←,left,←,0.5719772999873385,True,15
20K22,454,experiment,48,↑,up,↑,0.5405488000251353,True,15
20K22,455,experiment,180,←,left,←,0.5105090000433847,True,15
20K22,456,experiment,24,↓,down,↓,0.6566760999849066,True,15
20K22,457,experiment,84,↑,up,↑,0.4290262999711558,True,15
20K22,458,experiment,72,↑,left,←,0.6867855999153107,False,15
20K22,459,experiment,168,→,left,←,0.45718040002975613,False,15
20K22,460,experiment,60,←,left,←,0.559634399949573,True,15
20K22,461,experiment,168,→,left,←,0.6470493000233546,False,15
20K22,462,experiment,144,→,left,←,0.5962002999149263,False,15
20K22,463,experiment,156,←,left,←,0.44962999993003905,True,15
20K22,464,experiment,48,↑,up,↑,0.6460209999931976,True,15
20K22,465,experiment,132,↓,down,↓,0.7652164999162778,True,15
20K22,466,experiment,132,↓,down,↓,0.5503720999695361,True,15
20K22,467,experiment,108,↑,up,↑,0.5270246000727639,True,15
20K22,468,experiment,156,←,left,←,0.7101186000509188,True,15
20K22,469,experiment,24,→,left,←,0.9389718000311404,False,15
20K22,470,experiment,120,←,left,←,1.7902943000663072,True,15
20K22,471,experiment,144,↓,up,↑,0.6613305999198928,False,15
20K22,472,training,84,↑,up,↑,0.7009364999830723,True,15
20K22,473,training,108,←,left,←,0.6811507999664173,True,15
20K22,474,training,108,←,left,←,0.502259699977003,True,15
20K22,475,experiment,36,↑,up,↑,0.549801200046204,True,15
20K22,476,experiment,96,←,right,→,0.4809522000141442,False,15
20K22,477,experiment,24,↑,up,↑,0.6193775000283495,True,15
20K22,478,experiment,144,↑,up,↑,0.5152402999810874,True,15
20K22,479,experiment,72,↓,up,↑,0.46762030001264066,False,15
20K22,480,experiment,168,→,up,↑,0.5383953000418842,False,15
20K22,481,experiment,168,→,right,→,0.793493700097315,True,15
20K22,482,experiment,180,↓,down,↓,0.6573102999245748,True,15
20K22,483,experiment,180,←,right,→,0.7138090999796987,False,15
20K22,484,experiment,24,←,up,↑,1.0499291999731213,False,15
20K22,485,experiment,72,↓,up,↑,0.5850308999652043,False,15
20K22,486,experiment,168,↓,down,↓,0.5351624999893829,True,15
20K22,487,experiment,36,→,right,→,0.5904509000247344,True,15
20K22,488,experiment,132,→,right,→,0.4262405999470502,True,15
20K22,489,experiment,24,↓,right,→,0.6085155999753624,False,15
20K22,490,experiment,96,↑,up,↑,0.665421099984087,True,15
20K22,491,experiment,60,↓,down,↓,0.5011375999310985,True,15
20K22,492,experiment,60,↓,left,←,0.5710225000511855,False,15
20K22,493,experiment,12,←,right,→,0.46434980002231896,False,15
20K22,494,experiment,120,↓,left,←,0.5151465999661013,False,15
20K22,495,experiment,156,↓,no_key,no_letter,-1.0,False,15
20K22,496,experiment,72,→,left,←,0.6708357000024989,False,15
20K22,497,experiment,108,↓,up,↑,1.1198804000159726,False,15
20K22,498,experiment,48,↓,down,↓,0.5379983000457287,True,15
20K22,499,experiment,120,↑,up,↑,0.4647949000354856,True,15
20K22,500,experiment,96,→,left,←,0.7041050000116229,False,15
20K22,501,experiment,144,←,left,←,0.4776642000069842,True,15
20K22,502,experiment,156,↑,up,↑,0.4705680999904871,True,15
20K22,503,experiment,120,↑,left,←,0.6517950999550521,False,15
20K22,504,experiment,48,←,left,←,0.43118489999324083,True,15
20K22,505,experiment,84,←,left,←,0.6771483999909833,True,15
20K22,506,experiment,84,↓,no_key,no_letter,-1.0,False,15
20K22,507,experiment,72,↓,no_key,no_letter,-1.0,False,15
20K22,508,experiment,12,↑,up,↑,0.6306684000883251,True,15
20K22,509,experiment,12,→,left,←,0.5333143000025302,False,15
20K22,510,experiment,60,↑,left,←,1.0123848000075668,False,15
20K22,511,experiment,156,→,left,←,0.802002799930051,False,15
20K22,512,experiment,144,←,left,←,0.4283532000845298,True,15
20K22,513,experiment,36,→,right,→,0.5261854999698699,True,15
20K22,514,experiment,132,←,left,←,0.6073908000253141,True,15
20K22,515,experiment,132,→,left,←,0.8092181000392884,False,15
20K22,516,experiment,144,→,left,←,0.4599267999874428,False,15
20K22,517,experiment,96,↑,up,↑,1.4135232999688014,True,15
20K22,518,experiment,48,↓,down,↓,0.741548299905844,True,15
20K22,519,experiment,48,←,left,←,0.47402189997956157,True,15
20K22,520,experiment,60,↓,down,↓,0.6948675999883562,True,15
20K22,521,experiment,180,↓,up,↑,0.4784508999437094,False,15
20K22,522,experiment,168,→,right,→,0.4531112000113353,True,15
20K22,523,experiment,24,↑,up,↑,0.7064884999999776,True,15
20K22,524,experiment,108,↑,up,↑,0.5451485000085086,True,15
20K22,525,experiment,120,→,left,←,0.6002585999667645,False,15
20K22,526,experiment,84,←,left,←,0.49301920004654676,True,15
20K22,527,experiment,36,↑,left,←,0.7137898000655696,False,15
20K22,528,experiment,12,↓,left,←,0.8493123000953346,False,15
20K22,529,experiment,84,↑,up,↑,0.5329855000600219,True,15
20K22,530,experiment,180,→,down,↓,1.3931077000452206,False,15
20K22,531,experiment,108,↓,down,↓,0.8387143999570981,True,15
20K22,532,experiment,156,↑,up,↑,0.45215020002797246,True,15
20K22,533,experiment,132,←,left,←,0.4315117000369355,True,15
20K22,534,experiment,108,↑,up,↑,0.561365699977614,True,15
20K22,535,training,36,→,down,↓,0.6452249999856576,False,16
20K22,536,training,48,↑,up,↑,0.45038719999138266,True,16
20K22,537,training,60,↓,up,↑,0.5494160000234842,False,16
20K22,538,experiment,72,→,right,→,0.454753499943763,True,16
20K22,539,experiment,36,→,right,→,0.5872758999466896,True,16
20K22,540,experiment,72,↑,up,↑,0.4807161999633536,True,16
20K22,541,experiment,72,→,left,←,0.6109236000338569,False,16
20K22,542,experiment,168,↑,up,↑,0.49404979997780174,True,16
20K22,543,experiment,72,↓,left,←,0.6337953999172896,False,16
20K22,544,experiment,12,↑,up,↑,0.513461200054735,True,16
20K22,545,experiment,132,↓,up,↑,0.4719598999945447,False,16
20K22,546,experiment,24,↑,up,↑,0.5612276000902057,True,16
20K22,547,experiment,108,→,right,→,0.6632184999762103,True,16
20K22,548,experiment,48,↓,down,↓,0.594580200035125,True,16
20K22,549,experiment,60,←,left,←,0.5115823999512941,True,16
20K22,550,experiment,144,↓,down,↓,0.5583947000559419,True,16
20K22,551,experiment,132,↑,down,↓,0.6974499999778345,False,16
20K22,552,experiment,120,→,right,→,0.5372590000042692,True,16
20K22,553,experiment,12,↑,up,↑,1.1635701999766752,True,16
20K22,554,experiment,36,↑,down,↓,0.737032699980773,False,16
20K22,555,experiment,156,↓,up,↑,0.574817500077188,False,16
20K22,556,experiment,168,←,right,→,0.5050654999213293,False,16
20K22,557,experiment,60,↑,left,←,0.5259631000226364,False,16
20K22,558,experiment,180,↓,left,←,0.5830999000463635,False,16
20K22,559,experiment,60,↓,left,←,0.5001333999680355,False,16
20K22,560,experiment,120,↑,no_key,no_letter,-1.0,False,16
20K22,561,experiment,144,←,left,←,0.4661534000188112,True,16
20K22,562,experiment,24,→,left,←,0.4983843000372872,False,16
20K22,563,experiment,144,→,right,→,0.6625404000515118,True,16
20K22,564,experiment,36,↑,left,←,0.6967153999721631,False,16
20K22,565,experiment,48,↑,up,↑,0.6152547999517992,True,16
20K22,566,experiment,120,↓,down,↓,0.7261947999941185,True,16
20K22,567,experiment,96,←,left,←,0.5684803000185639,True,16
20K22,568,experiment,156,→,right,→,0.7876218999736011,True,16
20K22,569,experiment,60,↓,down,↓,0.6687205999623984,True,16
20K22,570,experiment,108,←,right,→,0.4948418000712991,False,16
20K22,571,experiment,156,→,right,→,0.8602606999920681,True,16
20K22,572,experiment,108,↓,down,↓,0.6839618999511003,True,16
20K22,573,experiment,108,↑,left,←,0.9919212999520823,False,16
20K22,574,experiment,36,→,left,←,0.6201962999766693,False,16
20K22,575,experiment,48,↓,down,↓,0.5533475000411272,True,16
20K22,576,experiment,12,↓,down,↓,0.6072325999848545,True,16
20K22,577,experiment,180,↓,down,↓,0.6021142000099644,True,16
20K22,578,experiment,84,←,left,←,0.7673861000221223,True,16
20K22,579,experiment,168,↓,down,↓,0.5126605000114068,True,16
20K22,580,experiment,156,↑,up,↑,0.8745825999649242,True,16
20K22,581,experiment,84,↑,up,↑,0.727766599971801,True,16
20K22,582,experiment,12,→,right,→,0.6280466999160126,True,16
20K22,583,experiment,84,↑,up,↑,0.5117917000316083,True,16
20K22,584,experiment,24,↓,left,←,0.9558645999059081,False,16
20K22,585,experiment,96,←,left,←,0.6051120000192896,True,16
20K22,586,experiment,132,↓,left,←,0.8368390001123771,False,16
20K22,587,experiment,132,↑,up,↑,0.6559003000147641,True,16
20K22,588,experiment,96,←,left,←,0.497032199986279,True,16
20K22,589,experiment,144,↓,down,↓,0.6145412001060322,True,16
20K22,590,experiment,168,↑,up,↑,0.7427699000108987,True,16
20K22,591,experiment,120,→,right,→,0.5307365999324247,True,16
20K22,592,experiment,180,↓,right,→,1.1809954000636935,False,16
20K22,593,experiment,48,↑,right,→,0.7062178000342101,False,16
20K22,594,experiment,84,↑,up,↑,0.49716869997791946,True,16
20K22,595,experiment,24,←,right,→,0.48336059995926917,False,16
20K22,596,experiment,180,↑,up,↑,0.46463679999578744,True,16
20K22,597,experiment,96,→,right,→,0.8263173999730498,True,16
20K22,598,training,48,↓,left,←,1.4010705000255257,False,16
20K22,599,training,48,←,left,←,0.6736139999702573,True,16
20K22,600,training,168,→,right,→,0.5887369000120088,True,16
20K22,601,experiment,168,←,left,←,0.7921174999792129,True,16
20K22,602,experiment,36,↓,up,↑,0.5514939000131562,False,16
20K22,603,experiment,168,→,right,→,0.640664300066419,True,16
20K22,604,experiment,108,←,left,←,0.5086197999771684,True,16
20K22,605,experiment,24,→,left,←,0.6796404999913648,False,16
20K22,606,experiment,48,→,right,→,0.7662328999722376,True,16
20K22,607,experiment,120,↓,down,↓,0.644484700052999,True,16
20K22,608,experiment,96,↓,up,↑,0.6328049999428913,False,16
20K22,609,experiment,36,→,right,→,0.5552920999471098,True,16
20K22,610,experiment,156,→,right,→,0.46564020006917417,True,16
20K22,611,experiment,144,←,left,←,0.5432947999797761,True,16
20K22,612,experiment,60,↑,no_key,no_letter,-1.0,False,16
20K22,613,experiment,180,↑,up,↑,0.46243700000923127,True,16
20K22,614,experiment,84,←,left,←,0.6166779000777751,True,16
20K22,615,experiment,108,←,left,←,0.5278283000225201,True,16
20K22,616,experiment,156,↑,up,↑,0.5056239000987262,True,16
20K22,617,experiment,72,←,left,←,0.5360457000788301,True,16
20K22,618,experiment,144,→,right,→,0.5740554999792948,True,16
20K22,619,experiment,132,←,left,←,0.5813349999953061,True,16
20K22,620,experiment,84,←,left,←,0.4170638000359759,True,16
20K22,621,experiment,36,↑,up,↑,0.5011069000465795,True,16
20K22,622,experiment,36,↓,left,←,0.7446190000046045,False,16
20K22,623,experiment,96,↓,up,↑,0.48299080005381256,False,16
20K22,624,experiment,108,→,left,←,0.5696062999777496,False,16
20K22,625,experiment,72,↓,up,↑,0.688710100017488,False,16
20K22,626,experiment,180,↑,up,↑,0.6929957000538707,True,16
20K22,627,experiment,132,↓,left,←,0.6471428999211639,False,16
20K22,628,experiment,48,↑,up,↑,0.4558389000594616,True,16
20K22,629,experiment,168,←,left,←,0.6850507999770343,True,16
20K22,630,experiment,120,↑,up,↑,0.6008650999283418,True,16
20K22,631,experiment,108,↑,up,↑,0.5043694999767467,True,16
20K22,632,experiment,168,←,left,←,0.4528336999937892,True,16
20K22,633,experiment,12,→,right,→,0.6547594000585377,True,16
20K22,634,experiment,84,←,left,←,0.4496308999368921,True,16
20K22,635,experiment,12,→,left,←,0.6241570999845862,False,16
20K22,636,experiment,84,↑,left,←,0.6634391999104992,False,16
20K22,637,experiment,72,→,right,→,0.4952623000135645,True,16
20K22,638,experiment,156,→,right,→,0.48769239999819547,True,16
20K22,639,experiment,24,↑,right,→,0.6617364999838173,False,16
20K22,640,experiment,72,↑,up,↑,0.4398626000620425,True,16
20K22,641,experiment,96,←,left,←,0.6493924000533298,True,16
20K22,642,experiment,12,←,right,→,0.5098964999197051,False,16
20K22,643,experiment,144,←,left,←,0.46551439992617816,True,16
20K22,644,experiment,180,↓,left,←,0.6533067999407649,False,16
20K22,645,experiment,12,↓,up,↑,0.46962700004223734,False,16
20K22,646,experiment,180,→,right,→,0.7866751999827102,True,16
20K22,647,experiment,48,→,no_key,no_letter,-1.0,False,16
20K22,648,experiment,24,↓,down,↓,0.8462336000520736,True,16
20K22,649,experiment,132,←,right,→,1.51509709993843,False,16
20K22,650,experiment,24,↑,up,↑,0.49237990006804466,True,16
20K22,651,experiment,120,↑,up,↑,0.47141929995268583,True,16
20K22,652,experiment,96,→,right,→,0.5613044999772683,True,16
20K22,653,experiment,144,→,right,→,0.6280549000948668,True,16
20K22,654,experiment,60,↑,up,↑,0.49325870000757277,True,16
20K22,655,experiment,132,↓,down,↓,0.7312742000212893,True,16
20K22,656,experiment,60,↑,up,↑,0.5346139000030234,True,16
20K22,657,experiment,60,→,right,→,0.4903718000277877,True,16
20K22,658,experiment,156,↓,up,↑,0.7407230000244454,False,16
20K22,659,experiment,120,↑,up,↑,0.4546224999940023,True,16
20K22,660,experiment,48,↑,up,↑,0.367051100009121,True,16
20K22,661,training,156,→,right,→,0.592585299978964,True,16
20K22,662,training,12,→,right,→,0.5219600000418723,True,16
20K22,663,training,180,↓,down,↓,0.5986313000321388,True,16
20K22,664,experiment,144,↑,down,↓,0.500473799998872,False,16
20K22,665,experiment,36,←,left,←,0.552956199971959,True,16
20K22,666,experiment,12,→,right,→,0.47236430004704744,True,16
20K22,667,experiment,48,←,left,←,0.5415801999624819,True,16
20K22,668,experiment,108,↓,down,↓,0.6409185000229627,True,16
20K22,669,experiment,168,←,left,←,0.7178983999183401,True,16
20K22,670,experiment,84,←,left,←,0.6146642999956384,True,16
20K22,671,experiment,180,←,left,←,0.5569761000806466,True,16
20K22,672,experiment,168,↑,up,↑,1.0630451999604702,True,16
20K22,673,experiment,132,→,right,→,0.5123830999946222,True,16
20K22,674,experiment,24,↓,left,←,0.6036358999554068,False,16
20K22,675,experiment,24,↑,up,↑,0.5504086000146344,True,16
20K22,676,experiment,156,←,right,→,0.66039999993518,False,16
20K22,677,experiment,180,↓,up,↑,0.54433359997347,False,16
20K22,678,experiment,12,→,left,←,0.5261420999886468,False,16
20K22,679,experiment,180,↓,up,↑,0.582125399960205,False,16
20K22,680,experiment,60,→,right,→,0.5668576000025496,True,16
20K22,681,experiment,168,↑,up,↑,1.528565000044182,True,16
20K22,682,experiment,12,↓,down,↓,0.6870042999507859,True,16
20K22,683,experiment,84,↓,down,↓,0.5850819000042975,True,16
20K22,684,experiment,36,↓,down,↓,0.5548034000676125,True,16
20K22,685,experiment,12,↑,up,↑,0.5661931000649929,True,16
20K22,686,experiment,132,↓,down,↓,0.5358677000040188,True,16
20K22,687,experiment,72,←,right,→,0.5711405000183731,False,16
20K22,688,experiment,120,↓,left,←,0.5807547000003979,False,16
20K22,689,experiment,96,↑,up,↑,0.5691134999506176,True,16
20K22,690,experiment,132,↓,down,↓,0.4895538999699056,True,16
20K22,691,experiment,144,↓,up,↑,0.5287517999531701,False,16
20K22,692,experiment,60,↑,up,↑,0.6292201000032946,True,16
20K22,693,experiment,48,↑,up,↑,0.5295601000543684,True,16
20K22,694,experiment,72,←,left,←,0.5266271000728011,True,16
20K22,695,experiment,120,↑,up,↑,0.45859260007273406,True,16
20K22,696,experiment,96,↓,down,↓,0.7164622000418603,True,16
20K22,697,experiment,84,→,right,→,0.6569987999973819,True,16
20K22,698,experiment,132,↓,down,↓,0.6538868000498042,True,16
20K22,699,experiment,60,↓,down,↓,0.535562300006859,True,16
20K22,700,experiment,156,↓,down,↓,0.6497120999265462,True,16
20K22,701,experiment,96,←,left,←,0.6223217999795452,True,16
20K22,702,experiment,108,↓,left,←,0.7855699000647292,False,16
20K22,703,experiment,168,↓,left,←,0.5710548999486491,False,16
20K22,704,experiment,84,→,right,→,0.6381803000112996,True,16
20K22,705,experiment,60,↓,right,→,0.6513323000399396,False,16
20K22,706,experiment,36,↑,up,↑,0.5125393000198528,True,16
20K22,707,experiment,48,↓,down,↓,0.9348884999053553,True,16
20K22,708,experiment,24,→,left,←,0.8398008999647573,False,16
20K22,709,experiment,108,↓,down,↓,0.5900849000317976,True,16
20K22,710,experiment,96,↓,up,↑,0.5674960999749601,False,16
20K22,711,experiment,120,←,left,←,0.5059206000296399,True,16
20K22,712,experiment,120,↑,up,↑,0.5376108998898417,True,16
20K22,713,experiment,24,→,right,→,0.6264901000540704,True,16
20K22,714,experiment,156,→,right,→,0.6241008000215515,True,16
20K22,715,experiment,156,↓,left,←,0.7702162000350654,False,16
20K22,716,experiment,72,↓,down,↓,0.6153515999903902,True,16
20K22,717,experiment,180,↑,left,←,0.7469073999673128,False,16
20K22,718,experiment,72,↓,left,←,0.5334928999654949,False,16
20K22,719,experiment,48,←,left,←,0.4977150000631809,True,16
20K22,720,experiment,36,→,right,→,0.49868429999332875,True,16
20K22,721,experiment,108,←,right,→,0.5671116000739858,False,16
20K22,722,experiment,144,↑,up,↑,0.5535695999860764,True,16
20K22,723,experiment,144,↑,up,↑,0.4777421000180766,True,16
20K22,724,training,120,↓,down,↓,0.576661599916406,True,16
20K22,725,training,168,↓,down,↓,0.5258286000462249,True,16
20K22,726,training,72,←,left,←,0.5970082000130787,True,16
20K22,727,experiment,24,↑,left,←,0.7456934000365436,False,16
20K22,728,experiment,12,←,no_key,no_letter,-1.0,False,16
20K22,729,experiment,132,↓,down,↓,0.6778776000719517,True,16
20K22,730,experiment,120,←,left,←,0.6330671000760049,True,16
20K22,731,experiment,60,↓,left,←,0.4879587000468746,False,16
20K22,732,experiment,180,↓,down,↓,0.5035895999753848,True,16
20K22,733,experiment,156,↑,no_key,no_letter,-1.0,False,16
20K22,734,experiment,12,↑,up,↑,1.4001487999921665,True,16
20K22,735,experiment,180,←,left,←,0.6777788000181317,True,16
20K22,736,experiment,96,←,left,←,0.528082900098525,True,16
20K22,737,experiment,48,→,left,←,0.5681953999446705,False,16
20K22,738,experiment,168,↓,up,↑,0.4805029999697581,False,16
20K22,739,experiment,48,↑,up,↑,0.43701819994021207,True,16
20K22,740,experiment,120,↓,left,←,0.6364827000070363,False,16
20K22,741,experiment,60,↓,up,↑,0.5292960000224411,False,16
20K22,742,experiment,24,→,up,↑,0.7145274999784306,False,16
20K22,743,experiment,96,↓,down,↓,0.679433900048025,True,16
20K22,744,experiment,156,↑,up,↑,1.249935100087896,True,16
20K22,745,experiment,168,↓,down,↓,0.7078633999917656,True,16
20K22,746,experiment,132,↓,down,↓,0.8924447000026703,True,16
20K22,747,experiment,36,↓,up,↑,0.7977371000451967,False,16
20K22,748,experiment,144,↑,up,↑,0.46822099993005395,True,16
20K22,749,experiment,48,↑,up,↑,0.45021079992875457,True,16
20K22,750,experiment,96,→,right,→,0.5369418000336736,True,16
20K22,751,experiment,144,←,left,←,0.8567026000237092,True,16
20K22,752,experiment,144,↑,up,↑,0.4846004999708384,True,16
20K22,753,experiment,36,→,right,→,0.4941244999645278,True,16
20K22,754,experiment,72,↓,down,↓,0.7455465000821277,True,16
20K22,755,experiment,96,↑,up,↑,0.5340520000318065,True,16
20K22,756,experiment,120,→,right,→,0.7424241999397054,True,16
20K22,757,experiment,72,→,left,←,0.5576848000055179,False,16
20K22,758,experiment,72,↑,up,↑,0.49855749995913357,True,16
20K22,759,experiment,60,↓,up,↑,0.4914656999753788,False,16
20K22,760,experiment,108,↓,down,↓,0.6375318999635056,True,16
20K22,761,experiment,120,↑,up,↑,0.47568140004295856,True,16
20K22,762,experiment,132,→,right,→,0.5885553000262007,True,16
20K22,763,experiment,108,↑,left,←,0.8063221999909729,False,16
20K22,764,experiment,84,↓,left,←,0.59804820001591,False,16
20K22,765,experiment,144,↓,down,↓,1.100414799991995,True,16
20K22,766,experiment,180,→,right,→,0.606000000028871,True,16
20K22,767,experiment,168,↓,down,↓,0.6711727000074461,True,16
20K22,768,experiment,156,↑,up,↑,0.6533284999895841,True,16
20K22,769,experiment,72,→,right,→,0.5171008000615984,True,16
20K22,770,experiment,168,→,right,→,0.46165189996827394,True,16
20K22,771,experiment,24,↑,up,↑,0.5823859999654815,True,16
20K22,772,experiment,84,→,right,→,1.2638871000381187,True,16
20K22,773,experiment,24,↓,down,↓,0.7419493000488728,True,16
20K22,774,experiment,84,↑,up,↑,0.49956630007363856,True,16
20K22,775,experiment,12,←,left,←,0.7274420999456197,True,16
20K22,776,experiment,180,↑,up,↑,0.5803640999365598,True,16
20K22,777,experiment,60,↑,up,↑,0.6023441000143066,True,16
20K22,778,experiment,108,↓,down,↓,0.7377313999459147,True,16
20K22,779,experiment,132,←,left,←,0.7042811999563128,True,16
20K22,780,experiment,12,↓,no_key,no_letter,-1.0,False,16
20K22,781,experiment,84,↓,down,↓,0.7418586000567302,True,16
20K22,782,experiment,48,→,right,→,0.5672198000829667,True,16
20K22,783,experiment,108,↓,down,↓,0.690881299902685,True,16
20K22,784,experiment,156,↓,down,↓,0.6408850000007078,True,16
20K22,785,experiment,36,←,left,←,0.7142909000394866,True,16
20K22,786,experiment,36,←,left,←,0.731836499995552,True,16
20K22,787,training,72,↑,down,↓,0.6965005999663845,False,16
20K22,788,training,180,↑,left,←,0.6770470999181271,False,16
20K22,789,training,168,→,right,→,0.9737864000489935,True,16
20K22,790,experiment,180,↓,down,↓,0.6843347999965772,True,16
20K22,791,experiment,156,↑,up,↑,0.5357233000686392,True,16
20K22,792,experiment,168,←,left,←,0.5909192999824882,True,16
20K22,793,experiment,144,↑,up,↑,0.6224744999781251,True,16
20K22,794,experiment,132,↓,down,↓,0.780394300003536,True,16
20K22,795,experiment,48,↑,left,←,0.6911253000143915,False,16
20K22,796,experiment,84,→,right,→,0.4950142999878153,True,16
20K22,797,experiment,84,→,right,→,0.6017690000589937,True,16
20K22,798,experiment,60,→,right,→,0.49725500005297363,True,16
20K22,799,experiment,120,←,left,←,0.7568581999512389,True,16
20K22,800,experiment,72,→,right,→,0.529612599988468,True,16
20K22,801,experiment,168,↓,right,→,0.5034257000079378,False,16
20K22,802,experiment,120,→,right,→,0.4564044999424368,True,16
20K22,803,experiment,96,←,left,←,0.9685964999953285,True,16
20K22,804,experiment,12,↓,down,↓,0.6953354999423027,True,16
20K22,805,experiment,180,↑,up,↑,0.48943710001185536,True,16
20K22,806,experiment,24,←,left,←,0.5055651000002399,True,16
20K22,807,experiment,132,←,right,→,0.4695595999946818,False,16
20K22,808,experiment,60,↑,up,↑,0.6348652000306174,True,16
20K22,809,experiment,72,←,left,←,0.48974930006079376,True,16
20K22,810,experiment,36,←,left,←,0.5131695000454783,True,16
20K22,811,experiment,36,↓,down,↓,0.6381261999486014,True,16
20K22,812,experiment,84,←,left,←,0.4696684000082314,True,16
20K22,813,experiment,132,→,right,→,1.6054708999581635,True,16
20K22,814,experiment,144,↓,down,↓,0.7562279000412673,True,16
20K22,815,experiment,180,←,left,←,0.4623356000520289,True,16
20K22,816,experiment,168,↓,down,↓,0.5651609000051394,True,16
20K22,817,experiment,144,↑,up,↑,0.49609030003193766,True,16
20K22,818,experiment,132,↑,up,↑,0.757740999921225,True,16
20K22,819,experiment,96,↓,down,↓,0.5454630000749603,True,16
20K22,820,experiment,60,→,right,→,0.6907124000135809,True,16
20K22,821,experiment,156,←,left,←,0.7960028999950737,True,16
20K22,822,experiment,156,→,right,→,0.5627983999438584,True,16
20K22,823,experiment,24,→,right,→,0.5121338999597356,True,16
20K22,824,experiment,120,↓,down,↓,0.5917005999945104,True,16
20K22,825,experiment,48,↓,down,↓,0.6472536000655964,True,16
20K22,826,experiment,96,↓,down,↓,0.6296794000081718,True,16
20K22,827,experiment,180,↓,down,↓,0.6966266999952495,True,16
20K22,828,experiment,48,←,up,↑,0.5302568000042811,False,16
20K22,829,experiment,12,↓,down,↓,0.703976400080137,True,16
20K22,830,experiment,72,↓,down,↓,0.5571581999538466,True,16
20K22,831,experiment,120,←,left,←,0.6393137999111786,True,16
20K22,832,experiment,24,↓,down,↓,0.7747235000133514,True,16
20K22,833,experiment,108,←,left,←,0.6094411000376567,True,16
20K22,834,experiment,36,→,right,→,0.5131118000717834,True,16
20K22,835,experiment,144,↓,down,↓,0.7320051999995485,True,16
20K22,836,experiment,108,↑,up,↑,0.7380585999926552,True,16
20K22,837,experiment,24,↓,down,↓,0.594279499957338,True,16
20K22,838,experiment,84,→,right,→,0.5838318000314757,True,16
20K22,839,experiment,156,↑,up,↑,0.6620522000594065,True,16
20K22,840,experiment,48,→,right,→,0.49870180001016706,True,16
20K22,841,experiment,168,←,left,←,0.6492840000428259,True,16
20K22,842,experiment,108,→,right,→,0.7932408000342548,True,16
20K22,843,experiment,60,↑,up,↑,0.6311949000228196,True,16
20K22,844,experiment,96,↓,down,↓,0.5967107000760734,True,16
20K22,845,experiment,12,↓,up,↑,0.5954607999883592,False,16
20K22,846,experiment,72,↓,down,↓,1.0871117999777198,True,16
20K22,847,experiment,12,←,left,←,0.49156370002310723,True,16
20K22,848,experiment,108,→,left,←,0.5481007000198588,False,16
20K22,849,experiment,36,↑,up,↑,0.4976550000719726,True,16
