PART_ID,Trial_no,Trial_type,PDI,Stim_letter,Key_pressed,letter_choose,Rt,Corr,Stimulus Time
22K21,1,training,10,←,no_key,no_letter,-1.0,False,30
22K21,2,training,10,↑,no_key,no_letter,-1.0,False,30
22K21,3,training,10,↓,down,↓,0.9929637999998704,True,30
22K21,4,training,10,←,right,→,0.9879722999999103,False,30
22K21,5,training,10,↓,up,↑,1.1650256000002628,False,30
22K21,6,training,10,←,left,←,1.8962462000004052,True,30
22K21,7,training,10,↓,down,↓,0.9552990000001955,True,30
22K21,8,training,10,↑,up,↑,0.694235800000115,True,30
22K21,9,training,10,→,right,→,0.5839771000000837,True,30
22K21,10,training,10,→,right,→,0.6340689999997267,True,30
22K21,11,training,10,↑,up,↑,0.400500700000066,True,30
22K21,12,training,10,→,up,↑,1.415495700000065,False,30
22K21,13,training,10,→,right,→,0.5505554000001212,True,30
22K21,14,training,10,↓,up,↑,1.3388866000000235,False,30
22K21,15,training,10,↓,down,↓,0.4839847000002919,True,30
22K21,16,training,10,↓,right,→,1.2918844000000718,False,30
22K21,17,training,10,←,down,↓,1.3367601999998442,False,30
22K21,18,training,10,→,right,→,0.7641702000000805,True,30
22K21,19,training,10,↓,left,←,1.7686788999999408,False,30
22K21,20,training,10,→,right,→,0.707998100000168,True,30
22K21,21,training,10,↑,left,←,1.0351239999999962,False,18
22K21,22,training,10,→,right,→,0.7198803999999654,True,18
22K21,23,training,10,→,right,→,0.5455329000001257,True,18
22K21,24,training,10,↑,up,↑,0.5739149000000907,True,18
22K21,25,training,10,→,right,→,0.6535484999999426,True,18
22K21,26,training,10,↓,down,↓,0.6476163000002089,True,18
22K21,27,training,10,↓,up,↑,0.7318410000002586,False,18
22K21,28,training,10,→,right,→,0.41752020000012635,True,18
22K21,29,training,10,↑,up,↑,0.4880349000000024,True,18
22K21,30,training,10,↓,down,↓,0.49466080000001966,True,18
22K21,31,training,156,↑,up,↑,0.9831208000000515,True,15
22K21,32,training,60,↑,left,←,1.2773466000003282,False,15
22K21,33,training,48,↑,up,↑,0.45910379999986617,True,15
22K21,34,experiment,108,←,right,→,0.9755270000000564,False,15
22K21,35,experiment,156,←,up,↑,1.018218600000182,False,15
22K21,36,experiment,84,↓,down,↓,0.7472457999997459,True,15
22K21,37,experiment,144,↑,up,↑,0.4608653999998751,True,15
22K21,38,experiment,180,↑,up,↑,0.7673814999998285,True,15
22K21,39,experiment,60,←,left,←,0.5807280999997602,True,15
22K21,40,experiment,48,↓,down,↓,0.5467631999999867,True,15
22K21,41,experiment,108,←,right,→,0.8376146999999037,False,15
22K21,42,experiment,120,↓,down,↓,0.5696904000001268,True,15
22K21,43,experiment,156,↓,up,↑,0.5982947000002241,False,15
22K21,44,experiment,132,→,right,→,0.6196187000000464,True,15
22K21,45,experiment,144,→,left,←,0.7950792999999976,False,15
22K21,46,experiment,36,←,left,←,0.5867080000002716,True,15
22K21,47,experiment,108,↓,up,↑,0.6633246999999756,False,15
22K21,48,experiment,180,↑,up,↑,0.4400093000003835,True,15
22K21,49,experiment,156,→,no_key,no_letter,-1.0,False,15
22K21,50,experiment,72,→,no_key,no_letter,-1.0,False,15
22K21,51,experiment,72,→,right,→,0.5504353999999694,True,15
22K21,52,experiment,180,←,left,←,0.7029323000001568,True,15
22K21,53,experiment,84,←,left,←,0.6204752000003282,True,15
22K21,54,experiment,12,←,left,←,0.8555711999997584,True,15
22K21,55,experiment,168,→,no_key,no_letter,-1.0,False,15
22K21,56,experiment,36,↓,down,↓,0.5807231999997384,True,15
22K21,57,experiment,180,→,left,←,0.8013896000002205,False,15
22K21,58,experiment,144,→,right,→,0.47170409999989715,True,15
22K21,59,experiment,156,↑,no_key,no_letter,-1.0,False,15
22K21,60,experiment,120,↓,up,↑,1.1608796999998958,False,15
22K21,61,experiment,48,↑,up,↑,0.44464719999996305,True,15
22K21,62,experiment,48,↑,left,←,1.2112946999995984,False,15
22K21,63,experiment,168,↓,down,↓,0.5195702999999412,True,15
22K21,64,experiment,168,→,no_key,no_letter,-1.0,False,15
22K21,65,experiment,96,→,right,→,0.5870058000000427,True,15
22K21,66,experiment,168,→,right,→,1.2958245999998326,True,15
22K21,67,experiment,84,→,left,←,0.484221400000024,False,15
22K21,68,experiment,84,↓,right,→,0.7754869000000326,False,15
22K21,69,experiment,96,↑,up,↑,1.6223966999996264,True,15
22K21,70,experiment,132,←,left,←,0.46188329999995403,True,15
22K21,71,experiment,12,→,left,←,0.6765381999998681,False,15
22K21,72,experiment,144,→,left,←,0.6899836000002324,False,15
22K21,73,experiment,60,→,right,→,0.6403638999995565,True,15
22K21,74,experiment,108,→,right,→,0.43019939999976486,True,15
22K21,75,experiment,24,→,left,←,0.6841113000000405,False,15
22K21,76,experiment,24,→,right,→,0.44063740000001417,True,15
22K21,77,experiment,12,↓,down,↓,0.66781839999976,True,15
22K21,78,experiment,60,↑,up,↑,1.0222407000001112,True,15
22K21,79,experiment,120,↓,left,←,0.9434532999998737,False,15
22K21,80,experiment,36,↓,down,↓,0.5263893999999709,True,15
22K21,81,experiment,36,→,right,→,0.6178239999999278,True,15
22K21,82,experiment,132,↑,right,→,0.7447864999999183,False,15
22K21,83,experiment,24,→,right,→,0.650329299999612,True,15
22K21,84,experiment,60,↑,right,→,0.744627600000058,False,15
22K21,85,experiment,12,←,left,←,1.0249504999997043,True,15
22K21,86,experiment,132,↑,up,↑,0.893579999999929,True,15
22K21,87,experiment,120,↑,up,↑,0.4497654000001603,True,15
22K21,88,experiment,24,↓,down,↓,0.9170885000003182,True,15
22K21,89,experiment,72,↓,down,↓,0.5896837999998752,True,15
22K21,90,experiment,48,↑,up,↑,0.3837895000001481,True,15
22K21,91,experiment,96,↓,down,↓,0.45711279999977705,True,15
22K21,92,experiment,72,→,right,→,0.47207329999992,True,15
22K21,93,experiment,96,↑,right,→,0.7076203000001442,False,15
22K21,94,training,156,↓,up,↑,1.2349169000003712,False,15
22K21,95,training,144,←,left,←,0.43990660000008575,True,15
22K21,96,training,168,→,right,→,0.6841121000002204,True,15
22K21,97,experiment,96,↓,up,↑,0.9276161000002503,False,15
22K21,98,experiment,36,→,right,→,0.6103031000002375,True,15
22K21,99,experiment,168,↓,up,↑,0.8712992000000668,False,15
22K21,100,experiment,156,→,left,←,0.9034351000000242,False,15
22K21,101,experiment,132,↓,up,↑,0.9389959999998609,False,15
22K21,102,experiment,96,↑,right,→,0.9269832999998471,False,15
22K21,103,experiment,60,←,left,←,0.494007899999815,True,15
22K21,104,experiment,156,→,left,←,0.8662587999997413,False,15
22K21,105,experiment,72,↑,down,↓,0.7799813999999969,False,15
22K21,106,experiment,84,←,no_key,no_letter,-1.0,False,15
22K21,107,experiment,180,→,left,←,0.8331190999997489,False,15
22K21,108,experiment,144,↓,down,↓,0.5756613000003199,True,15
22K21,109,experiment,72,↓,up,↑,0.748160800000278,False,15
22K21,110,experiment,180,↑,down,↓,0.7664792000000489,False,15
22K21,111,experiment,120,→,left,←,0.6620302999999694,False,15
22K21,112,experiment,84,←,left,←,0.626785099999779,True,15
22K21,113,experiment,12,→,left,←,0.4651321999999709,False,15
22K21,114,experiment,12,←,left,←,0.5952264000002288,True,15
22K21,115,experiment,168,↓,down,↓,0.6025518000001284,True,15
22K21,116,experiment,36,↓,left,←,0.7964649999998983,False,15
22K21,117,experiment,96,←,left,←,0.5048947000000226,True,15
22K21,118,experiment,84,↑,up,↑,0.4980105999998159,True,15
22K21,119,experiment,120,↑,no_key,no_letter,-1.0,False,15
22K21,120,experiment,48,↑,up,↑,0.48654149999993024,True,15
22K21,121,experiment,24,↓,no_key,no_letter,-1.0,False,15
22K21,122,experiment,108,→,right,→,0.4684019999999691,True,15
22K21,123,experiment,24,←,right,→,0.8180585999998584,False,15
22K21,124,experiment,24,→,left,←,0.3671792000000096,False,15
22K21,125,experiment,72,↓,down,↓,0.5503076999998484,True,15
22K21,126,experiment,144,←,right,→,0.5320739999997386,False,15
22K21,127,experiment,48,→,right,→,0.5304274999998597,True,15
22K21,128,experiment,168,↑,up,↑,0.5007611999999426,True,15
22K21,129,experiment,144,←,left,←,0.5012133000000176,True,15
22K21,130,experiment,120,→,right,→,0.6954639000000498,True,15
22K21,131,experiment,180,↓,right,→,0.8268983000002663,False,15
22K21,132,experiment,108,↑,up,↑,0.6216567999999825,True,15
22K21,133,experiment,48,←,left,←,0.43739740000000893,True,15
22K21,134,experiment,84,→,no_key,no_letter,-1.0,False,15
22K21,135,experiment,144,↓,up,↑,0.9485321999995904,False,15
22K21,136,experiment,12,→,down,↓,0.9525149999999485,False,15
22K21,137,experiment,60,←,right,→,0.5218459999996412,False,15
22K21,138,experiment,24,←,left,←,0.6111352000002626,True,15
22K21,139,experiment,132,↑,up,↑,0.4289168000000245,True,15
22K21,140,experiment,168,↓,up,↑,0.7255519999998796,False,15
22K21,141,experiment,60,↑,no_key,no_letter,-1.0,False,15
22K21,142,experiment,12,↑,up,↑,0.9203406000001451,True,15
22K21,143,experiment,48,→,right,→,0.466683600000124,True,15
22K21,144,experiment,120,→,right,→,0.9348304000000098,True,15
22K21,145,experiment,132,→,right,→,0.7814386999998533,True,15
22K21,146,experiment,60,←,right,→,0.9943253000001278,False,15
22K21,147,experiment,132,→,left,←,0.7177456999997958,False,15
22K21,148,experiment,180,→,right,→,0.8250330000000758,True,15
22K21,149,experiment,108,←,right,→,0.6555785000000469,False,15
22K21,150,experiment,36,↓,up,↑,0.8962429000002885,False,15
22K21,151,experiment,108,↓,up,↑,1.4102342000001045,False,15
22K21,152,experiment,36,↑,down,↓,0.958242700000028,False,15
22K21,153,experiment,156,↑,up,↑,0.8599711000001662,True,15
22K21,154,experiment,156,→,up,↑,0.9485825000001569,False,15
22K21,155,experiment,72,→,right,→,0.5164082000001144,True,15
22K21,156,experiment,96,←,no_key,no_letter,-1.0,False,15
22K21,157,training,48,↑,no_key,no_letter,-1.0,False,16
22K21,158,training,96,↑,left,←,0.5589429000001473,False,16
22K21,159,training,144,↓,down,↓,0.819677700000284,True,16
22K21,160,experiment,36,→,right,→,0.8803164000000834,True,16
22K21,161,experiment,108,→,right,→,0.7498331000006146,True,16
22K21,162,experiment,60,→,right,→,0.4656798999994862,True,16
22K21,163,experiment,156,←,left,←,0.8350121000003128,True,16
22K21,164,experiment,84,←,no_key,no_letter,-1.0,False,16
22K21,165,experiment,108,→,left,←,0.49893729999985226,False,16
22K21,166,experiment,24,→,left,←,0.753569299999981,False,16
22K21,167,experiment,144,→,up,↑,1.0205390999999508,False,16
22K21,168,experiment,96,↓,left,←,0.852679900000112,False,16
22K21,169,experiment,12,→,up,↑,1.702302900000177,False,16
22K21,170,experiment,108,→,no_key,no_letter,-1.0,False,16
22K21,171,experiment,156,↓,down,↓,0.8211487999997189,True,16
22K21,172,experiment,168,→,right,→,0.46917630000007193,True,16
22K21,173,experiment,12,↓,left,←,0.7772113999999419,False,16
22K21,174,experiment,48,→,no_key,no_letter,-1.0,False,16
22K21,175,experiment,60,→,right,→,0.3839809000000969,True,16
22K21,176,experiment,60,↓,up,↑,0.760989100000188,False,16
22K21,177,experiment,72,→,no_key,no_letter,-1.0,False,16
22K21,178,experiment,120,←,right,→,0.7433663000001616,False,16
22K21,179,experiment,168,↑,left,←,0.8610620999997991,False,16
22K21,180,experiment,84,↑,left,←,0.7266134999999849,False,16
22K21,181,experiment,120,↑,up,↑,0.47408569999970496,True,16
22K21,182,experiment,84,←,left,←,0.40051909999965574,True,16
22K21,183,experiment,180,↓,down,↓,0.7010497000001124,True,16
22K21,184,experiment,96,→,right,→,0.470675300000039,True,16
22K21,185,experiment,156,←,left,←,0.3338333000001512,True,16
22K21,186,experiment,24,↑,right,→,0.6204899000003934,False,16
22K21,187,experiment,48,→,right,→,0.6097857000004296,True,16
22K21,188,experiment,60,↑,no_key,no_letter,-1.0,False,16
22K21,189,experiment,48,↑,right,→,0.7770145999993474,False,16
22K21,190,experiment,36,↓,down,↓,0.5381097999998019,True,16
22K21,191,experiment,120,←,left,←,0.5910891000003176,True,16
22K21,192,experiment,156,→,right,→,0.7101751000000149,True,16
22K21,193,experiment,24,↑,down,↓,0.8887213999996675,False,16
22K21,194,experiment,72,←,no_key,no_letter,-1.0,False,16
22K21,195,experiment,36,→,right,→,0.45408689999931084,True,16
22K21,196,experiment,72,↑,up,↑,0.40028379999967,True,16
22K21,197,experiment,144,→,right,→,0.3839037999996435,True,16
22K21,198,experiment,168,→,left,←,0.4988508999995247,False,16
22K21,199,experiment,36,←,right,→,0.612882699999318,False,16
22K21,200,experiment,144,↓,left,←,0.5366354999996474,False,16
22K21,201,experiment,132,↓,right,→,0.7129826000000321,False,16
22K21,202,experiment,120,←,left,←,0.447437899999386,True,16
22K21,203,experiment,12,↑,right,→,1.1710254999998142,False,16
22K21,204,experiment,24,→,right,→,0.4430196999992404,True,16
22K21,205,experiment,180,→,left,←,0.3839315000004717,False,16
22K21,206,experiment,168,↓,right,→,0.7348578999999518,False,16
22K21,207,experiment,132,→,no_key,no_letter,-1.0,False,16
22K21,208,experiment,12,↑,left,←,0.5221431999998458,False,16
22K21,209,experiment,132,←,left,←,0.6430744999997842,True,16
22K21,210,experiment,144,↑,down,↓,0.8289149000001999,False,16
22K21,211,experiment,48,→,right,→,0.5498262000000977,True,16
22K21,212,experiment,72,→,right,→,0.3339642000000822,True,16
22K21,213,experiment,96,↓,left,←,0.46696129999963887,False,16
22K21,214,experiment,96,←,left,←,0.4003301000002466,True,16
22K21,215,experiment,84,→,right,→,0.3673812999995789,True,16
22K21,216,experiment,108,←,left,←,0.40060520000042743,True,16
22K21,217,experiment,180,↓,down,↓,1.0683374999998705,True,16
22K21,218,experiment,180,↓,down,↓,0.48249810000015714,True,16
22K21,219,experiment,132,→,right,→,0.5455498000001171,True,16
22K21,220,training,48,→,left,←,0.4521699000006265,False,17
22K21,221,training,96,←,left,←,0.898674399999436,True,17
22K21,222,training,132,↑,up,↑,0.6361703000002308,True,17
22K21,223,experiment,72,←,left,←,0.3848077000002377,True,17
22K21,224,experiment,24,←,left,←,0.4976099000004979,True,17
22K21,225,experiment,12,←,left,←,0.3338792000004105,True,17
22K21,226,experiment,84,↑,up,↑,0.41738660000009986,True,17
22K21,227,experiment,60,←,right,→,0.5008890999997675,False,17
22K21,228,experiment,168,←,right,→,0.6313035000002856,False,17
22K21,229,experiment,72,↓,right,→,0.4576527999997779,False,17
22K21,230,experiment,96,→,right,→,0.6007690000005823,True,17
22K21,231,experiment,156,←,left,←,0.6450513999998293,True,17
22K21,232,experiment,36,↑,up,↑,0.8245710999999574,True,17
22K21,233,experiment,132,→,right,→,0.3513578000001871,True,17
22K21,234,experiment,120,←,left,←,0.4006420000005164,True,17
22K21,235,experiment,132,↓,up,↑,0.6533018000000084,False,17
22K21,236,experiment,156,←,left,←,0.6695282000000589,True,17
22K21,237,experiment,12,→,right,→,0.6495152000006783,True,17
22K21,238,experiment,144,↓,down,↓,0.7161252000005334,True,17
22K21,239,experiment,84,←,left,←,0.6649938000000475,True,17
22K21,240,experiment,36,↑,up,↑,0.683350899999823,True,17
22K21,241,experiment,24,→,no_key,no_letter,-1.0,False,17
22K21,242,experiment,120,↓,down,↓,0.6475740999994741,True,17
22K21,243,experiment,108,↑,up,↑,0.6174611000005825,True,17
22K21,244,experiment,72,↑,no_key,no_letter,-1.0,False,17
22K21,245,experiment,180,↑,up,↑,0.5014952999999878,True,17
22K21,246,experiment,84,↓,down,↓,0.525857100000394,True,17
22K21,247,experiment,132,→,right,→,0.600938299999143,True,17
22K21,248,experiment,60,↓,down,↓,0.6911615999997593,True,17
22K21,249,experiment,84,→,right,→,0.7202497999996922,True,17
22K21,250,experiment,60,↑,up,↑,0.5661310999994384,True,17
22K21,251,experiment,108,↑,up,↑,0.3841277999999875,True,17
22K21,252,experiment,168,→,right,→,0.686501600000156,True,17
22K21,253,experiment,96,→,right,→,0.41741759999968053,True,17
22K21,254,experiment,48,↑,up,↑,0.6091356999995696,True,17
22K21,255,experiment,180,↓,down,↓,0.4898754000005283,True,17
22K21,256,experiment,96,→,down,↓,0.7710282000007282,False,17
22K21,257,experiment,96,↑,up,↑,0.3839458000002196,True,17
22K21,258,experiment,48,↑,up,↑,0.3345718999999008,True,17
22K21,259,experiment,168,↓,down,↓,0.5134242000003724,True,17
22K21,260,experiment,180,↑,up,↑,0.3509030999994138,True,17
22K21,261,experiment,36,↑,up,↑,0.45412690000011935,True,17
22K21,262,experiment,144,↑,up,↑,0.5783506999996462,True,17
22K21,263,experiment,24,→,right,→,1.0896364000000176,True,17
22K21,264,experiment,72,←,left,←,0.4804231999996773,True,17
22K21,265,experiment,132,↑,up,↑,0.33384229999956005,True,17
22K21,266,experiment,156,←,right,→,0.6660517000000254,False,17
22K21,267,experiment,108,↓,up,↑,0.626734899999974,False,17
22K21,268,experiment,12,↑,left,←,0.7399081000003207,False,17
22K21,269,experiment,144,↑,up,↑,0.53970180000033,True,17
22K21,270,experiment,120,←,left,←,0.40029039999990346,True,17
22K21,271,experiment,156,↑,up,↑,0.67432479999934,True,17
22K21,272,experiment,24,↑,up,↑,0.5648473999999624,True,17
22K21,273,experiment,60,↑,up,↑,0.3172197000003507,True,17
22K21,274,experiment,168,→,right,→,0.6467788999998447,True,17
22K21,275,experiment,144,←,left,←,0.40013939999971626,True,17
22K21,276,experiment,48,→,left,←,0.8630453999994643,False,17
22K21,277,experiment,108,→,no_key,no_letter,-1.0,False,17
22K21,278,experiment,48,↑,up,↑,0.8017726999996739,True,17
22K21,279,experiment,12,↓,right,→,1.0399670000006154,False,17
22K21,280,experiment,180,↑,up,↑,0.6744120000003022,True,17
22K21,281,experiment,120,↓,down,↓,0.4742815999998129,True,17
22K21,282,experiment,36,←,left,←,0.4006239000000278,True,17
22K21,283,training,120,→,right,→,0.6729287999996814,True,17
22K21,284,training,96,↑,up,↑,0.4006349000001137,True,17
22K21,285,training,144,→,right,→,0.41724580000027345,True,17
22K21,286,experiment,48,←,left,←,0.65574050000032,True,17
22K21,287,experiment,132,←,left,←,0.3171651999991809,True,17
22K21,288,experiment,84,←,left,←,0.31691959999989194,True,17
22K21,289,experiment,132,←,left,←,0.2836975000000166,True,17
22K21,290,experiment,144,↓,left,←,0.3172372999997606,False,17
22K21,291,experiment,156,↑,no_key,no_letter,-1.0,False,17
22K21,292,experiment,24,→,no_key,no_letter,-1.0,False,17
22K21,293,experiment,144,→,right,→,0.38408890000027895,True,17
22K21,294,experiment,72,←,left,←,0.41720490000079735,True,17
22K21,295,experiment,24,←,left,←,0.38392900000053487,True,17
22K21,296,experiment,48,→,right,→,0.6546503999998095,True,17
22K21,297,experiment,96,→,right,→,0.510024500000327,True,17
22K21,298,experiment,12,↑,right,→,0.5201627999995253,False,17
22K21,299,experiment,144,→,right,→,0.6476616999998441,True,17
22K21,300,experiment,168,↓,down,↓,0.45598969999991823,True,17
22K21,301,experiment,84,↓,down,↓,0.40065510000022186,True,17
22K21,302,experiment,156,→,right,→,0.5289524999998321,True,17
22K21,303,experiment,120,↑,up,↑,0.40088879999984783,True,17
22K21,304,experiment,180,↑,up,↑,0.45858510000016395,True,17
22K21,305,experiment,108,↓,down,↓,0.8577747999997882,True,17
22K21,306,experiment,36,←,left,←,0.5631466000004366,True,17
22K21,307,experiment,108,→,no_key,no_letter,-1.0,False,17
22K21,308,experiment,48,←,right,→,0.9237788000000364,False,17
22K21,309,experiment,132,↑,up,↑,0.5324075999997149,True,17
22K21,310,experiment,12,↓,down,↓,0.9382705000007263,True,17
22K21,311,experiment,180,↑,right,→,0.8070378000002165,False,17
22K21,312,experiment,60,→,right,→,0.5571875000005093,True,17
22K21,313,experiment,48,↓,up,↑,0.8953873999998905,False,17
22K21,314,experiment,24,↑,up,↑,0.3504868999998507,True,17
22K21,315,experiment,12,←,right,→,0.6861611000003904,False,17
22K21,316,experiment,156,←,left,←,0.6201984999997876,True,17
22K21,317,experiment,36,→,right,→,0.5715907000003426,True,17
22K21,318,experiment,180,↑,up,↑,0.6164997000005314,True,17
22K21,319,experiment,36,↑,down,↓,0.745145599999887,False,17
22K21,320,experiment,168,↓,down,↓,0.6269492999999784,True,17
22K21,321,experiment,156,↓,down,↓,0.6005748000006861,True,17
22K21,322,experiment,84,↑,up,↑,0.35062919999927544,True,17
22K21,323,experiment,96,←,left,←,0.40071400000033464,True,17
22K21,324,experiment,108,←,left,←,0.35056749999966996,True,17
22K21,325,experiment,120,↓,down,↓,0.7933093999999983,True,17
22K21,326,experiment,72,↑,up,↑,0.6648348999997324,True,17
22K21,327,experiment,168,↓,down,↓,0.6204648000002635,True,17
22K21,328,experiment,60,→,left,←,0.5182475000001432,False,17
22K21,329,experiment,108,←,left,←,0.699777499999982,True,17
22K21,330,experiment,72,←,no_key,no_letter,-1.0,False,17
22K21,331,experiment,132,↑,up,↑,0.5478160999991815,True,17
22K21,332,experiment,72,↑,down,↓,0.7634908999998515,False,17
22K21,333,experiment,168,↓,down,↓,0.5695849999992788,True,17
22K21,334,experiment,60,↓,down,↓,0.47667339999952674,True,17
22K21,335,experiment,180,←,left,←,0.6622033000003285,True,17
22K21,336,experiment,96,↓,down,↓,0.5772747000000891,True,17
22K21,337,experiment,24,↑,up,↑,0.4006632000000536,True,17
22K21,338,experiment,120,↓,down,↓,0.4662743999997474,True,17
22K21,339,experiment,84,↑,up,↑,0.6987229000005755,True,17
22K21,340,experiment,36,↓,down,↓,0.535922600000049,True,17
22K21,341,experiment,60,←,left,←,0.4005360999999539,True,17
22K21,342,experiment,96,↓,down,↓,0.6713878999998997,True,17
22K21,343,experiment,12,↓,down,↓,0.475195299999541,True,17
22K21,344,experiment,144,↓,down,↓,0.4725924999993367,True,17
22K21,345,experiment,120,↑,no_key,no_letter,-1.0,False,17
22K21,346,training,72,↓,right,→,0.9762210999997478,False,17
22K21,347,training,168,←,right,→,0.6939838000007512,False,17
22K21,348,training,120,↓,down,↓,0.629724399999759,True,17
22K21,349,experiment,108,↑,up,↑,0.7275638000000981,True,17
22K21,350,experiment,156,↓,down,↓,0.6722841000000699,True,17
22K21,351,experiment,144,↓,down,↓,0.5837957999992796,True,17
22K21,352,experiment,48,↑,up,↑,0.4172874999994747,True,17
22K21,353,experiment,144,↓,down,↓,0.6306798999994498,True,17
22K21,354,experiment,96,↑,up,↑,0.5864959999998973,True,17
22K21,355,experiment,96,↓,down,↓,0.36761699999988195,True,17
22K21,356,experiment,36,↑,down,↓,0.6129181999995126,False,17
22K21,357,experiment,48,→,right,→,0.6312617000003229,True,17
22K21,358,experiment,12,→,left,←,0.6481267999997726,False,17
22K21,359,experiment,120,←,left,←,0.4174611999997069,True,17
22K21,360,experiment,36,↓,down,↓,0.6217593000001216,True,17
22K21,361,experiment,36,←,left,←,0.7196879000002809,True,17
22K21,362,experiment,60,←,left,←,0.3837543999998161,True,17
22K21,363,experiment,84,↓,down,↓,0.531503199999861,True,17
22K21,364,experiment,180,↓,down,↓,0.5269555000004402,True,17
22K21,365,experiment,132,↑,up,↑,0.603359100000489,True,17
22K21,366,experiment,72,→,right,→,0.4509592000003977,True,17
22K21,367,experiment,24,↑,down,↓,0.7637183999995614,False,17
22K21,368,experiment,60,↑,up,↑,0.6287117000001672,True,17
22K21,369,experiment,120,↑,up,↑,0.38385290000042005,True,17
22K21,370,experiment,120,←,left,←,0.40055389999997715,True,17
22K21,371,experiment,60,↓,up,↑,0.7709389999999985,False,17
22K21,372,experiment,180,↓,down,↓,0.6322215000000142,True,17
22K21,373,experiment,36,←,left,←,0.5015536000000793,True,17
22K21,374,experiment,132,→,left,←,0.5034607999996297,False,17
22K21,375,experiment,84,↓,down,↓,0.6548140999993848,True,17
22K21,376,experiment,48,→,right,→,0.651897600000666,True,17
22K21,377,experiment,60,←,left,←,0.5663813000001028,True,17
22K21,378,experiment,48,→,right,→,0.5885624000002281,True,17
22K21,379,experiment,156,↑,up,↑,0.3674551000003703,True,17
22K21,380,experiment,108,↓,down,↓,0.6122119000001476,True,17
22K21,381,experiment,12,→,right,→,0.701702600000317,True,17
22K21,382,experiment,156,↓,down,↓,0.3667574000000968,True,17
22K21,383,experiment,156,←,left,←,0.5236162999999578,True,17
22K21,384,experiment,144,↓,down,↓,0.6286333000007289,True,17
22K21,385,experiment,12,→,left,←,0.6647966999998971,False,17
22K21,386,experiment,84,↓,down,↓,0.3838953999993464,True,17
22K21,387,experiment,180,→,left,←,0.8123936999991201,False,17
22K21,388,experiment,96,↑,down,↓,0.7215954000002966,False,17
22K21,389,experiment,168,→,right,→,0.4869386999998824,True,17
22K21,390,experiment,144,↓,up,↑,0.9083332000000155,False,17
22K21,391,experiment,84,↓,up,↑,0.5993564000000333,False,17
22K21,392,experiment,72,↑,up,↑,0.8361316999998962,True,17
22K21,393,experiment,108,↓,no_key,no_letter,-1.0,False,17
22K21,394,experiment,12,←,left,←,0.5300857000001997,True,17
22K21,395,experiment,96,↓,up,↑,0.7370299999993222,False,17
22K21,396,experiment,120,↑,no_key,no_letter,-1.0,False,17
22K21,397,experiment,108,←,left,←,0.7361876000004486,True,17
22K21,398,experiment,72,↓,down,↓,0.48796690000017406,True,17
22K21,399,experiment,132,←,right,→,0.560520600000018,False,17
22K21,400,experiment,180,←,left,←,0.5750178999996933,True,17
22K21,401,experiment,24,↑,up,↑,0.8623993000001065,True,17
22K21,402,experiment,72,↑,up,↑,1.4950944000001982,True,17
22K21,403,experiment,132,↓,down,↓,0.6752102000000377,True,17
22K21,404,experiment,168,↑,left,←,0.8618338000005679,False,17
22K21,405,experiment,24,←,left,←,0.38378279999960796,True,17
22K21,406,experiment,168,←,left,←,0.4004496999996263,True,17
22K21,407,experiment,168,↓,right,→,0.7939779999996972,False,17
22K21,408,experiment,24,→,right,→,0.5711770999996588,True,17
22K21,409,training,48,←,right,→,0.965647999999419,False,17
22K21,410,training,60,←,left,←,0.36728929999935644,True,17
22K21,411,training,84,←,left,←,0.4874261999993905,True,17
22K21,412,experiment,24,←,left,←,0.38412460000017745,True,17
22K21,413,experiment,36,↓,down,↓,0.6813220000003639,True,17
22K21,414,experiment,144,→,left,←,0.6076930999997785,False,17
22K21,415,experiment,156,↓,right,→,0.6051597000005131,False,17
22K21,416,experiment,12,→,right,→,0.4866555000007793,True,17
22K21,417,experiment,168,←,left,←,0.4006978000006711,True,17
22K21,418,experiment,144,←,left,←,0.36720819999936793,True,17
22K21,419,experiment,48,→,right,→,0.5856939000004786,True,17
22K21,420,experiment,72,←,left,←,0.4007427999995343,True,17
22K21,421,experiment,132,←,left,←,0.334993200000099,True,17
22K21,422,experiment,132,↓,up,↑,0.8969498000005842,False,17
22K21,423,experiment,108,↓,left,←,0.45885160000034375,False,17
22K21,424,experiment,72,↑,up,↑,0.3838927999995576,True,17
22K21,425,experiment,72,↑,up,↑,0.3505697999999029,True,17
22K21,426,experiment,132,→,right,→,0.49843069999951695,True,17
22K21,427,experiment,24,←,left,←,0.6092526999991605,True,17
22K21,428,experiment,168,↓,down,↓,0.69821999999931,True,17
22K21,429,experiment,12,←,down,↓,0.8665237999994133,False,17
22K21,430,experiment,144,↑,left,←,0.9637310999996771,False,17
22K21,431,experiment,36,←,no_key,no_letter,-1.0,False,17
22K21,432,experiment,48,→,no_key,no_letter,-1.0,False,17
22K21,433,experiment,108,↑,up,↑,0.41724449999946955,True,17
22K21,434,experiment,84,↓,down,↓,0.7076778999999078,True,17
22K21,435,experiment,24,←,left,←,0.4679863999999725,True,17
22K21,436,experiment,168,↓,down,↓,0.7780226999993829,True,17
22K21,437,experiment,48,↓,down,↓,0.6541219000000638,True,17
22K21,438,experiment,168,←,left,←,0.5547273000001951,True,17
22K21,439,experiment,120,←,left,←,0.3506460999997216,True,17
22K21,440,experiment,96,↑,up,↑,0.6218096000002333,True,17
22K21,441,experiment,36,→,right,→,0.3849478000001909,True,17
22K21,442,experiment,96,↑,up,↑,0.6515924000004816,True,17
22K21,443,experiment,72,↑,up,↑,0.3668582999998762,True,17
22K21,444,experiment,48,←,left,←,0.383989300000394,True,17
22K21,445,experiment,180,↓,left,←,0.3338794000001144,False,17
22K21,446,experiment,120,→,left,←,0.6404507000006561,False,17
22K21,447,experiment,84,↓,down,↓,0.4679926999997406,True,17
22K21,448,experiment,156,↑,down,↓,0.6239879000004294,False,17
22K21,449,experiment,24,→,right,→,0.47004849999939324,True,17
22K21,450,experiment,12,↓,down,↓,0.7855725999997958,True,17
22K21,451,experiment,156,↑,up,↑,0.5328937000003862,True,17
22K21,452,experiment,96,↑,no_key,no_letter,-1.0,False,17
22K21,453,experiment,120,→,right,→,0.9068842999995468,True,17
22K21,454,experiment,156,←,no_key,no_letter,-1.0,False,17
22K21,455,experiment,96,→,right,→,0.6888548999995692,True,17
22K21,456,experiment,132,↑,up,↑,0.3835720000006404,True,17
22K21,457,experiment,60,←,no_key,no_letter,-1.0,False,17
22K21,458,experiment,108,←,left,←,0.35064760000022943,True,17
22K21,459,experiment,60,→,right,→,0.40054439999948954,True,17
22K21,460,experiment,144,→,right,→,0.5276223000000755,True,17
22K21,461,experiment,120,→,right,→,0.6125380000003133,True,17
22K21,462,experiment,60,↑,no_key,no_letter,-1.0,False,17
22K21,463,experiment,84,↓,up,↑,0.8383106000001135,False,17
22K21,464,experiment,36,↑,up,↑,0.8496808999998393,True,17
22K21,465,experiment,180,↓,down,↓,0.5990410000003976,True,17
22K21,466,experiment,12,→,right,→,0.7159090000004653,True,17
22K21,467,experiment,180,↑,left,←,0.705517599999439,False,17
22K21,468,experiment,108,→,right,→,0.4173457999995662,True,17
22K21,469,experiment,84,↑,up,↑,0.41721880000022793,True,17
22K21,470,experiment,60,→,right,→,0.38392149999981484,True,17
22K21,471,experiment,180,↑,up,↑,0.38399440000011964,True,17
22K21,472,training,120,↓,down,↓,0.8868343999993158,True,17
22K21,473,training,144,←,left,←,0.4524068000000625,True,17
22K21,474,training,168,→,right,→,0.5097868000002563,True,17
22K21,475,experiment,36,↑,left,←,0.8727259999996022,False,17
22K21,476,experiment,84,←,right,→,0.5293879000000743,False,17
22K21,477,experiment,132,→,right,→,0.5597671000004993,True,17
22K21,478,experiment,96,↓,down,↓,0.5558345999997982,True,17
22K21,479,experiment,48,→,right,→,0.41740930000014487,True,17
22K21,480,experiment,24,↓,down,↓,0.4004823999994187,True,17
22K21,481,experiment,132,→,right,→,0.4171716999999262,True,17
22K21,482,experiment,48,→,right,→,0.40069279999988794,True,17
22K21,483,experiment,24,→,right,→,0.6606578000000809,True,17
22K21,484,experiment,12,←,right,→,0.6361375999995289,False,17
22K21,485,experiment,168,←,no_key,no_letter,-1.0,False,17
22K21,486,experiment,72,↑,up,↑,0.7632455000002665,True,17
22K21,487,experiment,168,↑,up,↑,0.4171836000004987,True,17
22K21,488,experiment,144,←,right,→,0.5972401000008176,False,17
22K21,489,experiment,48,↓,down,↓,0.5045283999997991,True,17
22K21,490,experiment,180,↓,down,↓,0.6627153999997972,True,17
22K21,491,experiment,60,↓,no_key,no_letter,-1.0,False,17
22K21,492,experiment,36,→,right,→,0.41710839999996097,True,17
22K21,493,experiment,120,←,left,←,0.3838378999998895,True,17
22K21,494,experiment,60,↓,right,→,0.5143169000002672,False,17
22K21,495,experiment,108,↑,left,←,0.8004771000005348,False,17
22K21,496,experiment,84,↓,down,↓,0.6056177000000389,True,17
22K21,497,experiment,180,↑,up,↑,0.4171206000000893,True,17
22K21,498,experiment,180,↓,up,↑,0.6633664999999382,False,17
22K21,499,experiment,156,←,left,←,0.4177154999997583,True,17
22K21,500,experiment,84,→,right,→,0.5888460999995004,True,17
22K21,501,experiment,96,↑,up,↑,0.367200500000763,True,17
22K21,502,experiment,108,←,left,←,0.4995183000000907,True,17
22K21,503,experiment,120,↓,up,↑,0.5534123999996154,False,17
22K21,504,experiment,120,→,left,←,0.5086924999995972,False,17
22K21,505,experiment,180,↑,up,↑,0.6621992999998838,True,17
22K21,506,experiment,156,↓,left,←,0.4005094999993162,False,17
22K21,507,experiment,24,↓,down,↓,0.6034667000003537,True,17
22K21,508,experiment,60,↑,up,↑,0.4172707999996419,True,17
22K21,509,experiment,168,←,right,→,0.5721120999996856,False,17
22K21,510,experiment,60,↓,down,↓,0.6574584999998478,True,17
22K21,511,experiment,12,→,right,→,0.4982356999998956,True,17
22K21,512,experiment,108,→,right,→,0.4170060000005833,True,17
22K21,513,experiment,24,↑,down,↓,0.8026903999998467,False,17
22K21,514,experiment,96,↑,right,→,0.6729762999993909,False,17
22K21,515,experiment,156,↓,down,↓,0.4525389999998879,True,17
22K21,516,experiment,132,↑,down,↓,0.4958602000006067,False,17
22K21,517,experiment,48,→,right,→,0.3841145999995206,True,17
22K21,518,experiment,72,↓,down,↓,0.650868900000205,True,17
22K21,519,experiment,120,→,right,→,0.41698340000039025,True,17
22K21,520,experiment,168,↑,up,↑,0.5885020999994595,True,17
22K21,521,experiment,36,↑,up,↑,0.3673174999994444,True,17
22K21,522,experiment,84,↑,left,←,0.692547900000136,False,17
22K21,523,experiment,72,↓,down,↓,0.35078770000018267,True,17
22K21,524,experiment,96,←,left,←,0.4007455000000846,True,17
22K21,525,experiment,132,←,left,←,0.41735500000049797,True,17
22K21,526,experiment,108,↑,down,↓,0.6927048999996259,False,17
22K21,527,experiment,12,↓,down,↓,0.6995877999997901,True,17
22K21,528,experiment,36,←,left,←,0.582794300000387,True,17
22K21,529,experiment,72,↑,right,→,0.417267300000276,False,17
22K21,530,experiment,144,↑,up,↑,0.9445855000003576,True,17
22K21,531,experiment,144,↑,down,↓,0.8522776999998314,False,17
22K21,532,experiment,156,↓,up,↑,0.7578330000005735,False,17
22K21,533,experiment,144,←,left,←,0.571805100000347,True,17
22K21,534,experiment,12,→,left,←,0.8848623999992924,False,17
22K21,535,training,84,↑,up,↑,0.3673483999991731,True,17
22K21,536,training,96,→,right,→,0.4007483000004868,True,17
22K21,537,training,24,→,right,→,0.7604756999999154,True,17
22K21,538,experiment,12,↓,right,→,0.6855528000005506,False,17
22K21,539,experiment,72,→,right,→,0.4006546000000526,True,17
22K21,540,experiment,84,↓,down,↓,0.6008274000005258,True,17
22K21,541,experiment,96,↓,down,↓,0.6541790000001129,True,17
22K21,542,experiment,36,↓,down,↓,0.511254299999564,True,17
22K21,543,experiment,24,→,right,→,0.5305283999996391,True,17
22K21,544,experiment,168,←,left,←,0.4006110999998782,True,17
22K21,545,experiment,84,↓,down,↓,0.47117829999933747,True,17
22K21,546,experiment,144,→,left,←,0.63968290000048,False,17
22K21,547,experiment,144,←,left,←,0.46673229999942123,True,17
22K21,548,experiment,132,←,left,←,0.3504891000002317,True,17
22K21,549,experiment,12,→,right,→,0.4854005999995934,True,17
22K21,550,experiment,72,↑,down,↓,0.9018188999998529,False,17
22K21,551,experiment,180,↓,down,↓,0.41713290000006964,True,17
22K21,552,experiment,60,↓,right,→,0.8229303999996773,False,17
22K21,553,experiment,96,↑,up,↑,0.3837649999995847,True,17
22K21,554,experiment,168,↑,up,↑,0.3839721999993344,True,17
22K21,555,experiment,132,←,no_key,no_letter,-1.0,False,17
22K21,556,experiment,180,↑,up,↑,0.6358603999997285,True,17
22K21,557,experiment,120,↑,up,↑,0.3170927999999549,True,17
22K21,558,experiment,36,←,left,←,0.5737189999999828,True,17
22K21,559,experiment,84,↑,left,←,0.6750922999999602,False,17
22K21,560,experiment,48,←,right,→,0.9308963000003132,False,17
22K21,561,experiment,120,←,left,←,0.46870620000026975,True,17
22K21,562,experiment,168,↑,up,↑,0.5310014999995474,True,17
22K21,563,experiment,96,←,left,←,0.6092578999996476,True,17
22K21,564,experiment,60,↑,up,↑,0.5255007000005207,True,17
22K21,565,experiment,180,↑,up,↑,0.5607364000006783,True,17
22K21,566,experiment,24,↓,up,↑,0.671735400000216,False,17
22K21,567,experiment,144,↑,up,↑,0.4971325999995315,True,17
22K21,568,experiment,96,←,left,←,0.3508201000004192,True,17
22K21,569,experiment,132,↑,up,↑,0.5813610000004701,True,17
22K21,570,experiment,12,↓,no_key,no_letter,-1.0,False,17
22K21,571,experiment,120,←,left,←,0.38382409999940137,True,17
22K21,572,experiment,72,↓,right,→,0.6264928000000509,False,17
22K21,573,experiment,48,→,no_key,no_letter,-1.0,False,17
22K21,574,experiment,156,→,right,→,0.582913400000507,True,17
22K21,575,experiment,60,→,left,←,0.6080112999998164,False,17
22K21,576,experiment,36,↓,up,↑,0.6552482999995846,False,17
22K21,577,experiment,48,←,left,←,0.6960419999995793,True,17
22K21,578,experiment,48,↓,down,↓,0.4759499000001597,True,17
22K21,579,experiment,108,→,right,→,0.4557052999998632,True,17
22K21,580,experiment,36,←,no_key,no_letter,-1.0,False,17
22K21,581,experiment,156,↓,down,↓,0.5760856999995667,True,17
22K21,582,experiment,108,↑,up,↑,0.35004209999988234,True,17
22K21,583,experiment,168,↑,up,↑,0.5901812000001883,True,17
22K21,584,experiment,84,↓,down,↓,0.589625800000249,True,17
22K21,585,experiment,144,↑,up,↑,0.5331531000001632,True,17
22K21,586,experiment,156,←,left,←,0.3837228000002142,True,17
22K21,587,experiment,108,→,no_key,no_letter,-1.0,False,17
22K21,588,experiment,120,↓,down,↓,0.4949876000000586,True,17
22K21,589,experiment,24,↓,up,↑,0.8167991999998776,False,17
22K21,590,experiment,60,↑,up,↑,0.7962751999993998,True,17
22K21,591,experiment,156,↓,down,↓,0.4861826000005749,True,17
22K21,592,experiment,180,↑,down,↓,0.7060020999997505,False,17
22K21,593,experiment,132,↓,down,↓,0.6231490000000122,True,17
22K21,594,experiment,72,↑,up,↑,0.5456778999996459,True,17
22K21,595,experiment,108,→,right,→,0.4173411000001579,True,17
22K21,596,experiment,24,↓,left,←,1.0864363999999114,False,17
22K21,597,experiment,12,→,right,→,0.5952003000002151,True,17
22K21,598,training,180,↓,right,→,1.0980400000007648,False,17
22K21,599,training,36,↑,left,←,0.6727736000002551,False,17
22K21,600,training,36,↓,down,↓,0.5331905000002735,True,17
22K21,601,experiment,144,↓,down,↓,0.4631978999996136,True,17
22K21,602,experiment,132,↓,down,↓,0.4914046000003509,True,17
22K21,603,experiment,72,↑,up,↑,0.7749092999993081,True,17
22K21,604,experiment,36,←,left,←,0.5893436999995174,True,17
22K21,605,experiment,144,→,left,←,0.6327879999998913,False,17
22K21,606,experiment,84,↓,left,←,0.7618169999996098,False,17
22K21,607,experiment,12,↓,left,←,0.8261060999993788,False,17
22K21,608,experiment,120,→,right,→,0.4004112000002351,True,17
22K21,609,experiment,60,→,right,→,0.35070960000030027,True,17
22K21,610,experiment,168,↓,down,↓,0.7182536000000255,True,17
22K21,611,experiment,144,↑,up,↑,0.6066531000005853,True,17
22K21,612,experiment,60,←,left,←,0.38430650000009337,True,17
22K21,613,experiment,168,↑,down,↓,0.7073220000002038,False,17
22K21,614,experiment,72,↑,up,↑,0.38371509999979025,True,17
22K21,615,experiment,36,↓,down,↓,0.3842785000006188,True,17
22K21,616,experiment,168,↑,up,↑,0.8997367000001759,True,17
22K21,617,experiment,36,←,left,←,0.48018820000015694,True,17
22K21,618,experiment,144,→,right,→,0.3837759999996706,True,17
22K21,619,experiment,156,↓,no_key,no_letter,-1.0,False,17
22K21,620,experiment,180,→,right,→,0.4004367999996248,True,17
22K21,621,experiment,120,→,right,→,0.5641219999997702,True,17
22K21,622,experiment,60,↓,down,↓,0.6907757999997557,True,17
22K21,623,experiment,96,↓,no_key,no_letter,-1.0,False,17
22K21,624,experiment,60,→,no_key,no_letter,-1.0,False,17
22K21,625,experiment,108,↑,up,↑,0.6543359999996028,True,17
22K21,626,experiment,120,↑,up,↑,0.8543885999997656,True,17
22K21,627,experiment,72,↓,down,↓,0.776582899999994,True,17
22K21,628,experiment,156,↓,up,↑,0.4976083000001381,False,17
22K21,629,experiment,24,↑,no_key,no_letter,-1.0,False,17
22K21,630,experiment,108,↓,down,↓,0.4925738000001729,True,17
22K21,631,experiment,180,←,left,←,0.7155338000002303,True,17
22K21,632,experiment,12,→,left,←,0.8924330999998347,False,17
22K21,633,experiment,12,↑,up,↑,0.799019799999769,True,17
22K21,634,experiment,48,↓,no_key,no_letter,-1.0,False,17
22K21,635,experiment,84,↓,down,↓,0.6853515000002517,True,17
22K21,636,experiment,156,↓,down,↓,0.61241549999977,True,17
22K21,637,experiment,168,↓,no_key,no_letter,-1.0,False,17
22K21,638,experiment,48,↑,up,↑,0.4175063999991835,True,17
22K21,639,experiment,96,↓,up,↑,0.8414669000003414,False,17
22K21,640,experiment,48,↓,down,↓,0.5111294999996971,True,17
22K21,641,experiment,132,↑,up,↑,0.41706020000037825,True,17
22K21,642,experiment,24,↑,down,↓,0.6643553000003521,False,17
22K21,643,experiment,36,←,no_key,no_letter,-1.0,False,17
22K21,644,experiment,120,↑,up,↑,0.6232786000000488,True,17
22K21,645,experiment,24,↓,down,↓,0.8582033000002411,True,17
22K21,646,experiment,132,↓,down,↓,0.8712994999996226,True,17
22K21,647,experiment,72,→,right,→,0.4172937000003003,True,17
22K21,648,experiment,84,↓,down,↓,0.816860999999335,True,17
22K21,649,experiment,48,↑,up,↑,0.35086190000038187,True,17
22K21,650,experiment,24,↓,down,↓,0.6163907999998628,True,17
22K21,651,experiment,180,→,right,→,0.40066569999999047,True,17
22K21,652,experiment,96,←,left,←,0.7296155000003637,True,17
22K21,653,experiment,108,←,left,←,0.36706990000038786,True,17
22K21,654,experiment,108,↑,up,↑,0.40039840000008553,True,17
22K21,655,experiment,84,←,left,←,0.8585782999998628,True,17
22K21,656,experiment,12,→,right,→,0.6262606000000233,True,17
22K21,657,experiment,180,↓,down,↓,0.5828622999997606,True,17
22K21,658,experiment,156,↓,down,↓,0.6703122999997504,True,17
22K21,659,experiment,96,↑,no_key,no_letter,-1.0,False,17
22K21,660,experiment,132,←,no_key,no_letter,-1.0,False,17
22K21,661,training,48,←,no_key,no_letter,-1.0,False,17
22K21,662,training,168,→,left,←,0.8681261000001541,False,17
22K21,663,training,60,↑,left,←,0.45618520000061835,False,17
22K21,664,experiment,12,→,no_key,no_letter,-1.0,False,17
22K21,665,experiment,72,→,no_key,no_letter,-1.0,False,17
22K21,666,experiment,72,↓,down,↓,0.4763778000005914,True,17
22K21,667,experiment,168,↓,down,↓,0.6153158000006442,True,17
22K21,668,experiment,84,↑,up,↑,0.7582511000000522,True,17
22K21,669,experiment,108,↑,down,↓,0.5526669999999285,False,17
22K21,670,experiment,36,↑,left,←,0.7463964999997188,False,17
22K21,671,experiment,72,↓,down,↓,0.530840000000353,True,17
22K21,672,experiment,60,↓,down,↓,0.4171544000000722,True,17
22K21,673,experiment,132,←,left,←,0.41720919999988837,True,17
22K21,674,experiment,96,→,right,→,0.6024906000002375,True,17
22K21,675,experiment,120,←,left,←,0.6825544999992417,True,17
22K21,676,experiment,132,→,no_key,no_letter,-1.0,False,17
22K21,677,experiment,144,↓,down,↓,0.7589373999999225,True,17
22K21,678,experiment,132,←,right,→,0.6789659000005486,False,17
22K21,679,experiment,108,←,left,←,0.417424199999914,True,17
22K21,680,experiment,36,↓,down,↓,0.638829600000463,True,17
22K21,681,experiment,168,←,right,→,0.8332415000004403,False,17
22K21,682,experiment,36,↓,down,↓,1.1358682000000044,True,17
22K21,683,experiment,120,←,left,←,0.3837776999998823,True,17
22K21,684,experiment,144,↓,right,→,0.7669875000001412,False,17
22K21,685,experiment,60,→,right,→,0.479713300000185,True,17
22K21,686,experiment,24,→,no_key,no_letter,-1.0,False,17
22K21,687,experiment,96,→,right,→,0.7852079000003869,True,17
22K21,688,experiment,156,↑,up,↑,0.4171354000000065,True,17
22K21,689,experiment,96,←,left,←,0.8008067999999184,True,17
22K21,690,experiment,180,←,left,←,0.4176510999996026,True,17
22K21,691,experiment,156,↑,up,↑,0.594750500000373,True,17
22K21,692,experiment,96,↑,left,←,0.7449090000000069,False,17
22K21,693,experiment,156,↑,up,↑,0.5417039999992994,True,17
22K21,694,experiment,12,↓,down,↓,0.6073115999997754,True,17
22K21,695,experiment,108,↑,up,↑,0.3507679000003918,True,17
22K21,696,experiment,180,↑,up,↑,0.49253390000012587,True,17
22K21,697,experiment,168,→,right,→,0.538294599999972,True,17
22K21,698,experiment,12,←,left,←,0.7383122999999614,True,17
22K21,699,experiment,144,↓,down,↓,0.5073277000001326,True,17
22K21,700,experiment,24,→,no_key,no_letter,-1.0,False,17
22K21,701,experiment,156,←,right,→,0.6900997000002462,False,17
22K21,702,experiment,48,→,left,←,0.4616234999994049,False,17
22K21,703,experiment,180,→,left,←,0.6283628000001045,False,17
22K21,704,experiment,24,←,left,←,0.6021964999999909,True,17
22K21,705,experiment,48,↑,left,←,0.41724510000040027,False,17
22K21,706,experiment,48,↑,up,↑,0.3841502999994191,True,17
22K21,707,experiment,84,↓,down,↓,0.4810096999999587,True,17
22K21,708,experiment,12,↑,up,↑,0.40070100000048114,True,17
22K21,709,experiment,180,→,left,←,0.5458300999998755,False,17
22K21,710,experiment,120,←,right,→,0.5734959000001254,False,17
22K21,711,experiment,108,↓,left,←,0.3672343999996883,False,17
22K21,712,experiment,60,↑,up,↑,0.3674135000001115,True,17
22K21,713,experiment,60,←,left,←,0.5963058999996065,True,17
22K21,714,experiment,132,↑,up,↑,0.6145889999997962,True,17
22K21,715,experiment,84,←,left,←,0.36727200000041194,True,17
22K21,716,experiment,24,↑,no_key,no_letter,-1.0,False,17
22K21,717,experiment,144,←,left,←,0.4172917999994752,True,17
22K21,718,experiment,48,←,no_key,no_letter,-1.0,False,17
22K21,719,experiment,72,↑,no_key,no_letter,-1.0,False,17
22K21,720,experiment,120,←,left,←,0.5174417000007452,True,17
22K21,721,experiment,168,→,right,→,0.5277090999998109,True,17
22K21,722,experiment,84,←,left,←,0.400355199999467,True,17
22K21,723,experiment,36,↑,up,↑,0.6295677999996769,True,17
22K21,724,training,120,↑,up,↑,0.38349599999946804,True,17
22K21,725,training,24,↑,up,↑,0.5379758999997648,True,17
22K21,726,training,60,←,right,→,0.5646630000001096,False,17
22K21,727,experiment,132,←,left,←,0.36757630000010977,True,17
22K21,728,experiment,168,↓,down,↓,0.5823874000006981,True,17
22K21,729,experiment,168,↓,down,↓,0.5197011999998722,True,17
22K21,730,experiment,132,→,right,→,0.5573512999999366,True,17
22K21,731,experiment,144,↓,down,↓,0.4515996999998606,True,17
22K21,732,experiment,24,↑,down,↓,0.5955641999998988,False,17
22K21,733,experiment,144,←,left,←,0.38378649999958725,True,17
22K21,734,experiment,180,←,right,→,0.47490490000018326,False,17
22K21,735,experiment,96,←,left,←,0.3337629999996352,True,17
22K21,736,experiment,108,↑,down,↓,0.6284077000000252,False,17
22K21,737,experiment,120,←,left,←,0.8174039000004996,True,17
22K21,738,experiment,168,→,left,←,0.5279147999999623,False,17
22K21,739,experiment,156,→,right,→,0.9182249999994383,True,17
22K21,740,experiment,12,←,left,←,0.9224797999995644,True,17
22K21,741,experiment,48,↑,left,←,0.5588258000007045,False,17
22K21,742,experiment,96,←,left,←,0.3337234000000535,True,17
22K21,743,experiment,156,↓,down,↓,0.6313190000000759,True,17
22K21,744,experiment,36,→,right,→,0.4868960000003426,True,17
22K21,745,experiment,108,↑,up,↑,0.36723870000059833,True,17
22K21,746,experiment,72,→,no_key,no_letter,-1.0,False,17
22K21,747,experiment,132,→,left,←,0.6535733000000619,False,17
22K21,748,experiment,84,←,left,←,0.38377200000013545,True,17
22K21,749,experiment,24,↑,up,↑,0.5541650000004665,True,17
22K21,750,experiment,84,←,right,→,0.6193057999998928,False,17
22K21,751,experiment,84,↑,left,←,0.36736629999995785,False,17
22K21,752,experiment,180,↓,down,↓,0.6155634999995527,True,17
22K21,753,experiment,60,↓,down,↓,0.4641815000004499,True,17
22K21,754,experiment,84,→,right,→,0.4173241999997117,True,17
22K21,755,experiment,12,↑,left,←,0.6296640999998999,False,17
22K21,756,experiment,36,↑,down,↓,0.7437842999997883,False,17
22K21,757,experiment,120,←,up,↑,0.8072500999996919,False,17
22K21,758,experiment,60,↓,down,↓,0.769712499999514,True,17
22K21,759,experiment,36,→,no_key,no_letter,-1.0,False,17
22K21,760,experiment,48,←,left,←,0.5378215999999156,True,17
22K21,761,experiment,48,↑,no_key,no_letter,-1.0,False,17
22K21,762,experiment,12,↑,up,↑,0.5124790999998368,True,17
22K21,763,experiment,24,↑,left,←,1.0695604000002277,False,17
22K21,764,experiment,36,↓,down,↓,0.41717459999927087,True,17
22K21,765,experiment,156,←,left,←,0.5697786000000633,True,17
22K21,766,experiment,144,↑,up,↑,0.36719319999974687,True,17
22K21,767,experiment,156,↓,down,↓,0.5783351000000039,True,17
22K21,768,experiment,180,↑,no_key,no_letter,-1.0,False,17
22K21,769,experiment,108,→,no_key,no_letter,-1.0,False,17
22K21,770,experiment,72,↑,up,↑,0.6147635999996055,True,17
22K21,771,experiment,24,↓,down,↓,0.5330430000003616,True,17
22K21,772,experiment,96,→,right,→,0.4003675000003568,True,17
22K21,773,experiment,60,↓,down,↓,0.6500424999994721,True,17
22K21,774,experiment,180,↑,up,↑,0.3337706000002072,True,17
22K21,775,experiment,120,→,right,→,0.3839745999994193,True,17
22K21,776,experiment,132,→,right,→,0.4004360999997516,True,17
22K21,777,experiment,72,←,left,←,0.6895913000007567,True,17
22K21,778,experiment,168,↓,down,↓,0.5981148000000758,True,17
22K21,779,experiment,144,↓,down,↓,0.5691996999994444,True,17
22K21,780,experiment,60,←,left,←,0.5623310999999376,True,17
22K21,781,experiment,96,↓,left,←,0.40058919999955833,False,17
22K21,782,experiment,48,→,no_key,no_letter,-1.0,False,17
22K21,783,experiment,12,→,right,→,0.7216813000004549,True,17
22K21,784,experiment,120,←,no_key,no_letter,-1.0,False,17
22K21,785,experiment,108,→,right,→,0.6174289000000499,True,17
22K21,786,experiment,72,→,right,→,0.3671100000001388,True,17
22K21,787,training,108,→,right,→,0.5721929999999702,True,17
22K21,788,training,12,→,right,→,0.3672623000002204,True,17
22K21,789,training,168,←,left,←,0.3833160999993197,True,17
22K21,790,experiment,132,↓,down,↓,0.6106959999997343,True,17
22K21,791,experiment,12,↓,down,↓,0.5133512000002156,True,17
22K21,792,experiment,60,↑,up,↑,0.4556889000004958,True,17
22K21,793,experiment,72,→,left,←,0.5177396999997654,False,17
22K21,794,experiment,120,←,left,←,0.3836283000000549,True,17
22K21,795,experiment,36,↑,up,↑,0.40091519999987213,True,17
22K21,796,experiment,12,←,right,→,0.5989036999999371,False,17
22K21,797,experiment,72,↓,down,↓,0.6614411000000473,True,17
22K21,798,experiment,180,↓,right,→,0.8701399999999921,False,17
22K21,799,experiment,96,→,right,→,0.34986170000047423,True,17
22K21,800,experiment,36,←,left,←,0.4850360999998884,True,17
22K21,801,experiment,144,←,left,←,0.6436069000001226,True,17
22K21,802,experiment,144,↓,down,↓,0.4783270999996603,True,17
22K21,803,experiment,24,↑,left,←,0.6023059999997713,False,17
22K21,804,experiment,144,↑,no_key,no_letter,-1.0,False,17
22K21,805,experiment,156,↓,down,↓,0.5427771000004213,True,17
22K21,806,experiment,108,→,no_key,no_letter,-1.0,False,17
22K21,807,experiment,24,↑,down,↓,0.6155545999999958,False,17
22K21,808,experiment,108,↑,down,↓,0.8805330000004687,False,17
22K21,809,experiment,120,→,right,→,0.3838159999995696,True,17
22K21,810,experiment,108,↓,no_key,no_letter,-1.0,False,17
22K21,811,experiment,72,→,right,→,0.41696180000053573,True,17
22K21,812,experiment,144,→,right,→,0.3507597000007081,True,17
22K21,813,experiment,60,→,right,→,0.3839035999999396,True,17
22K21,814,experiment,108,↑,up,↑,0.41726590000052965,True,17
22K21,815,experiment,12,←,left,←,0.501513299999715,True,17
22K21,816,experiment,168,←,no_key,no_letter,-1.0,False,17
22K21,817,experiment,156,←,left,←,0.5170424999996612,True,17
22K21,818,experiment,96,←,left,←,0.3839447000000291,True,17
22K21,819,experiment,132,↓,down,↓,0.5282455999995364,True,17
22K21,820,experiment,168,→,right,→,0.45657610000034765,True,17
22K21,821,experiment,48,↑,down,↓,0.6142218000004505,False,17
22K21,822,experiment,96,←,left,←,0.5886151000004247,True,17
22K21,823,experiment,156,↑,up,↑,0.6327450000007957,True,17
22K21,824,experiment,168,↑,no_key,no_letter,-1.0,False,17
22K21,825,experiment,168,↑,up,↑,0.4006859000000986,True,17
22K21,826,experiment,60,↓,down,↓,0.7207222999995793,True,17
22K21,827,experiment,48,↓,down,↓,0.543754600000284,True,17
22K21,828,experiment,72,←,left,←,0.6908319000003758,True,17
22K21,829,experiment,84,↓,down,↓,0.668797700000141,True,17
22K21,830,experiment,12,→,left,←,0.6664174999996249,False,17
22K21,831,experiment,24,↓,down,↓,0.6170033999997031,True,17
22K21,832,experiment,84,→,right,→,0.40142420000029233,True,17
22K21,833,experiment,120,↑,up,↑,0.40057319999959873,True,17
22K21,834,experiment,96,↓,down,↓,0.7473559999998542,True,17
22K21,835,experiment,36,←,left,←,0.5004398000000947,True,17
22K21,836,experiment,48,←,left,←,0.35033040000053006,True,17
22K21,837,experiment,120,↓,down,↓,0.46609780000017054,True,17
22K21,838,experiment,132,↓,down,↓,0.5772532999999385,True,17
22K21,839,experiment,84,↑,down,↓,0.5344091000006301,False,17
22K21,840,experiment,156,←,no_key,no_letter,-1.0,False,17
22K21,841,experiment,180,→,no_key,no_letter,-1.0,False,17
22K21,842,experiment,84,↓,down,↓,0.6008176999994248,True,17
22K21,843,experiment,132,↑,up,↑,0.4171723999997994,True,17
22K21,844,experiment,180,→,right,→,0.8672140999997282,True,17
22K21,845,experiment,180,→,right,→,0.7818753999999899,True,17
22K21,846,experiment,60,→,down,↓,0.6368572999999742,False,17
22K21,847,experiment,48,←,no_key,no_letter,-1.0,False,17
22K21,848,experiment,24,←,left,←,0.35059090000049764,True,17
22K21,849,experiment,36,↓,down,↓,0.7801577000000179,True,17
