PART_ID,Trial_no,Trial_type,PDI,Stim_letter,Key_pressed,letter_choose,Rt,Corr,Stimulus Time
24K20,1,training,10,↑,left,←,1.7882432000042172,False,30
24K20,2,training,10,↑,up,↑,1.4181628999940585,True,30
24K20,3,training,10,→,left,←,0.41727439999522176,False,30
24K20,4,training,10,←,left,←,0.4006917000078829,True,30
24K20,5,training,10,↓,right,→,0.3669307999953162,False,30
24K20,6,training,10,↓,down,↓,0.4671856999921147,True,30
24K20,7,training,10,←,right,→,0.433819300000323,False,30
24K20,8,training,10,↓,down,↓,0.5840895000001183,True,30
24K20,9,training,10,←,right,→,0.3838671000121394,False,30
24K20,10,training,10,→,right,→,0.4007508000067901,True,30
24K20,11,training,10,←,right,→,0.38377120000950526,False,30
24K20,12,training,10,←,left,←,0.40095199999632314,True,30
24K20,13,training,10,↑,down,↓,0.5171947999915574,False,30
24K20,14,training,10,←,no_key,no_letter,-1.0,False,30
24K20,15,training,10,↑,up,↑,1.5496816000086255,True,30
24K20,16,training,10,→,right,→,0.40044599999964703,True,30
24K20,17,training,10,→,left,←,0.3504615999991074,False,30
24K20,18,training,10,←,right,→,0.4002960000070743,False,30
24K20,19,training,10,←,left,←,0.3838956999970833,True,30
24K20,20,training,10,→,right,→,0.3340219000092475,True,30
24K20,21,training,10,←,left,←,0.333889099987573,True,18
24K20,22,training,10,→,right,→,1.2621253999968758,True,18
24K20,23,training,10,↓,down,↓,0.4816335999930743,True,18
24K20,24,training,10,→,right,→,0.4729363999940688,True,18
24K20,25,training,10,↑,up,↑,0.621309599999222,True,18
24K20,26,training,10,→,right,→,1.1257014000002528,True,18
24K20,27,training,10,→,right,→,0.7500855999969644,True,18
24K20,28,training,10,↓,down,↓,1.1435351999971317,True,18
24K20,29,training,10,→,right,→,0.33404539999901317,True,18
24K20,30,training,10,←,left,←,1.003019799987669,True,18
24K20,31,training,144,→,left,←,0.46832529999664985,False,15
24K20,32,training,180,↓,down,↓,0.5976843999960693,True,15
24K20,33,training,156,↑,up,↑,0.5867147999961162,True,15
24K20,34,experiment,36,↑,up,↑,0.622538199997507,True,15
24K20,35,experiment,156,←,left,←,0.6037359000038123,True,15
24K20,36,experiment,60,↑,up,↑,0.4948609000130091,True,15
24K20,37,experiment,108,←,down,↓,0.8300168999994639,False,15
24K20,38,experiment,144,↑,up,↑,0.6313038000080269,True,15
24K20,39,experiment,36,↑,up,↑,0.6856059999990975,True,15
24K20,40,experiment,132,←,left,←,0.5876063000032445,True,15
24K20,41,experiment,144,↑,up,↑,0.6530715999979293,True,15
24K20,42,experiment,60,←,left,←,0.6714563999994425,True,15
24K20,43,experiment,48,↑,left,←,0.6717024999961723,False,15
24K20,44,experiment,24,←,right,→,0.46546540000417735,False,15
24K20,45,experiment,84,→,left,←,0.5951017999905162,False,15
24K20,46,experiment,96,←,left,←,0.5413143999903696,True,15
24K20,47,experiment,120,→,right,→,0.5335771000100067,True,15
24K20,48,experiment,180,←,left,←,0.5392702000099234,True,15
24K20,49,experiment,156,↑,up,↑,0.48719589998654556,True,15
24K20,50,experiment,168,↑,up,↑,0.7046138000005158,True,15
24K20,51,experiment,12,↓,down,↓,0.6398995000054128,True,15
24K20,52,experiment,132,↓,down,↓,0.574242000002414,True,15
24K20,53,experiment,48,←,left,←,1.1286626000073738,True,15
24K20,54,experiment,180,↓,down,↓,0.6454414000036195,True,15
24K20,55,experiment,72,↑,up,↑,0.46902879999834113,True,15
24K20,56,experiment,12,→,left,←,0.5234919999929843,False,15
24K20,57,experiment,108,↑,up,↑,0.462141399999382,True,15
24K20,58,experiment,168,←,left,←,0.5618123000022024,True,15
24K20,59,experiment,60,↑,left,←,1.128378099994734,False,15
24K20,60,experiment,24,→,right,→,0.6530300000013085,True,15
24K20,61,experiment,48,←,right,→,0.5744494999962626,False,15
24K20,62,experiment,96,↑,up,↑,0.518697700012126,True,15
24K20,63,experiment,168,↓,down,↓,0.507126700002118,True,15
24K20,64,experiment,24,→,left,←,0.520858900010353,False,15
24K20,65,experiment,84,←,left,←,0.4867779000051087,True,15
24K20,66,experiment,60,←,left,←,0.4864735000010114,True,15
24K20,67,experiment,120,←,right,→,0.3839129999978468,False,15
24K20,68,experiment,72,←,left,←,0.7714890000061132,True,15
24K20,69,experiment,96,↓,down,↓,0.6171246000012616,True,15
24K20,70,experiment,84,←,left,←,0.4526715999963926,True,15
24K20,71,experiment,132,→,right,→,0.544442500002333,True,15
24K20,72,experiment,144,↓,down,↓,0.7158590000035474,True,15
24K20,73,experiment,48,↓,down,↓,0.586212299996987,True,15
24K20,74,experiment,120,→,right,→,0.5597762999968836,True,15
24K20,75,experiment,96,←,left,←,0.5543606999999611,True,15
24K20,76,experiment,168,↑,up,↑,0.4909926000109408,True,15
24K20,77,experiment,12,→,right,→,1.1732684000016889,True,15
24K20,78,experiment,144,→,right,→,0.50449409999419,True,15
24K20,79,experiment,156,↓,down,↓,0.5750033000076655,True,15
24K20,80,experiment,24,↑,up,↑,0.5279171000001952,True,15
24K20,81,experiment,180,→,right,→,0.6031375000020489,True,15
24K20,82,experiment,12,↓,up,↑,0.848369500003173,False,15
24K20,83,experiment,108,↓,down,↓,0.5193890999944415,True,15
24K20,84,experiment,132,↑,up,↑,0.6942007000034209,True,15
24K20,85,experiment,108,↓,down,↓,0.5754117000033148,True,15
24K20,86,experiment,180,↑,up,↑,1.6864002000074834,True,15
24K20,87,experiment,36,→,right,→,0.4410550000029616,True,15
24K20,88,experiment,36,→,right,→,0.6085870999959297,True,15
24K20,89,experiment,72,↓,down,↓,0.693128600003547,True,15
24K20,90,experiment,120,↑,up,↑,0.7047940000047674,True,15
24K20,91,experiment,156,←,right,→,0.317258099996252,False,15
24K20,92,experiment,72,→,right,→,0.4889009999897098,True,15
24K20,93,experiment,84,→,right,→,0.5733462000061991,True,15
24K20,94,training,180,←,left,←,0.656505399994785,True,15
24K20,95,training,96,↓,down,↓,0.5518181000079494,True,15
24K20,96,training,72,←,right,→,0.6173815000074683,False,15
24K20,97,experiment,60,↓,down,↓,0.4727810999902431,True,15
24K20,98,experiment,120,←,left,←,0.653846600005636,True,15
24K20,99,experiment,96,→,right,→,0.48423539999930654,True,15
24K20,100,experiment,60,↑,up,↑,0.5385987000045134,True,15
24K20,101,experiment,144,↓,down,↓,0.5837941000063438,True,15
24K20,102,experiment,24,↓,down,↓,0.5023714999988442,True,15
24K20,103,experiment,48,→,right,→,1.262848300000769,True,15
24K20,104,experiment,48,↑,down,↓,0.792538699999568,False,15
24K20,105,experiment,12,→,right,→,1.1278374999965308,True,15
24K20,106,experiment,168,↓,down,↓,0.6012064000096871,True,15
24K20,107,experiment,60,↑,up,↑,0.54708699999901,True,15
24K20,108,experiment,24,↑,up,↑,0.5734204000036698,True,15
24K20,109,experiment,36,←,left,←,0.49457429999893066,True,15
24K20,110,experiment,132,←,left,←,0.6114617999992333,True,15
24K20,111,experiment,108,↑,up,↑,0.4924101999931736,True,15
24K20,112,experiment,36,↓,down,↓,0.587249599993811,True,15
24K20,113,experiment,84,↓,down,↓,0.6422508999967249,True,15
24K20,114,experiment,120,↑,up,↑,0.4592062000010628,True,15
24K20,115,experiment,120,↑,up,↑,0.45699260001129005,True,15
24K20,116,experiment,144,↑,up,↑,0.8782186000025831,True,15
24K20,117,experiment,144,←,left,←,0.5399242999992566,True,15
24K20,118,experiment,132,↑,up,↑,0.43948460000683554,True,15
24K20,119,experiment,72,↓,down,↓,0.6904539999959525,True,15
24K20,120,experiment,48,↑,up,↑,1.0562822000065353,True,15
24K20,121,experiment,12,↓,left,←,0.8305513999948744,False,15
24K20,122,experiment,72,→,right,→,0.5333599999867147,True,15
24K20,123,experiment,84,↓,left,←,0.8932322000036947,False,15
24K20,124,experiment,72,↑,up,↑,0.5249153000040678,True,15
24K20,125,experiment,96,→,right,→,0.6376135000027716,True,15
24K20,126,experiment,156,↓,down,↓,0.764293500003987,True,15
24K20,127,experiment,96,↓,down,↓,0.6669579000008525,True,15
24K20,128,experiment,180,→,right,→,0.45824949999223463,True,15
24K20,129,experiment,84,↑,down,↓,0.8453460000018822,False,15
24K20,130,experiment,108,←,right,→,0.35067920001165476,False,15
24K20,131,experiment,12,↓,up,↑,1.0474356000049738,False,15
24K20,132,experiment,24,→,right,→,0.4730585999932373,True,15
24K20,133,experiment,36,←,left,←,0.4406912000122247,True,15
24K20,134,experiment,168,←,left,←,0.511784100002842,True,15
24K20,135,experiment,72,↓,down,↓,0.636694400003762,True,15
24K20,136,experiment,156,↑,up,↑,0.7369172000035178,True,15
24K20,137,experiment,180,←,right,→,0.38400340000225697,False,15
24K20,138,experiment,108,←,left,←,0.7460490999947069,True,15
24K20,139,experiment,108,↑,up,↑,0.5806336000096053,True,15
24K20,140,experiment,48,→,right,→,0.5683018999989145,True,15
24K20,141,experiment,60,↓,down,↓,0.5372438999911537,True,15
24K20,142,experiment,180,↑,up,↑,0.5471677000023192,True,15
24K20,143,experiment,120,→,left,←,0.3507291999994777,False,15
24K20,144,experiment,144,↑,up,↑,0.7103337000007741,True,15
24K20,145,experiment,36,↑,up,↑,0.439033799993922,True,15
24K20,146,experiment,84,→,right,→,1.0863423999981023,True,15
24K20,147,experiment,12,↓,up,↑,0.9622466000000713,False,15
24K20,148,experiment,168,↓,up,↑,0.7383029999909922,False,15
24K20,149,experiment,96,↓,down,↓,0.6386555000062799,True,15
24K20,150,experiment,132,←,left,←,0.5431156999984523,True,15
24K20,151,experiment,168,→,right,→,0.6075406999880215,True,15
24K20,152,experiment,24,↑,up,↑,0.893158000006224,True,15
24K20,153,experiment,132,↓,down,↓,0.6548495000024559,True,15
24K20,154,experiment,156,↑,up,↑,0.6011899000004632,True,15
24K20,155,experiment,156,→,right,→,0.5477454999927431,True,15
24K20,156,experiment,180,→,right,→,0.5103751999995438,True,15
24K20,157,training,24,↓,down,↓,0.5464954000053694,True,15
24K20,158,training,168,←,left,←,0.4324696999974549,True,15
24K20,159,training,36,↓,down,↓,0.550046399992425,True,15
24K20,160,experiment,24,↑,up,↑,0.5034982999932254,True,15
24K20,161,experiment,120,→,right,→,0.5621053999930155,True,15
24K20,162,experiment,144,↓,down,↓,0.60332660000131,True,15
24K20,163,experiment,132,←,left,←,0.4536355000018375,True,15
24K20,164,experiment,96,→,right,→,0.4506047999893781,True,15
24K20,165,experiment,144,↑,up,↑,0.49166020000120625,True,15
24K20,166,experiment,48,←,right,→,0.38392300000123214,False,15
24K20,167,experiment,24,←,right,→,0.6992827999929432,False,15
24K20,168,experiment,48,↑,up,↑,0.5256167000043206,True,15
24K20,169,experiment,180,←,left,←,0.6591872999997577,True,15
24K20,170,experiment,120,→,right,→,0.8993645000009565,True,15
24K20,171,experiment,108,↑,down,↓,0.6893459999992047,False,15
24K20,172,experiment,36,→,left,←,0.5715632999927038,False,15
24K20,173,experiment,12,→,right,→,0.5549976000038441,True,15
24K20,174,experiment,12,→,right,→,0.5346998000022722,True,15
24K20,175,experiment,180,↑,up,↑,0.49333300000580493,True,15
24K20,176,experiment,180,←,left,←,0.4615138999943156,True,15
24K20,177,experiment,84,↓,down,↓,0.6365531000046758,True,15
24K20,178,experiment,156,←,left,←,0.4952735999977449,True,15
24K20,179,experiment,84,↓,down,↓,0.4971573999937391,True,15
24K20,180,experiment,108,↓,down,↓,0.554203800013056,True,15
24K20,181,experiment,84,←,left,←,0.4655410999985179,True,15
24K20,182,experiment,168,↑,up,↑,0.4724615999875823,True,15
24K20,183,experiment,60,↑,up,↑,0.5493723999970825,True,15
24K20,184,experiment,180,↑,up,↑,0.5694128999894019,True,15
24K20,185,experiment,12,↑,up,↑,0.5033827000006568,True,15
24K20,186,experiment,48,→,right,→,0.6594718999986071,True,15
24K20,187,experiment,108,→,right,→,0.4377922999992734,True,15
24K20,188,experiment,12,←,right,→,1.1404313999955775,False,15
24K20,189,experiment,60,→,right,→,0.48434319999068975,True,15
24K20,190,experiment,72,←,left,←,0.6326823999988846,True,15
24K20,191,experiment,156,↑,up,↑,0.4964679000113392,True,15
24K20,192,experiment,72,→,right,→,0.4353361999965273,True,15
24K20,193,experiment,96,→,right,→,0.6637557999929413,True,15
24K20,194,experiment,144,→,right,→,0.46288650001224596,True,15
24K20,195,experiment,96,←,right,→,0.3505062000040198,False,15
24K20,196,experiment,72,→,right,→,0.42293850000714883,True,15
24K20,197,experiment,36,→,right,→,0.5474371000018436,True,15
24K20,198,experiment,156,←,left,←,0.5790999000018928,True,15
24K20,199,experiment,168,↑,up,↑,0.47001609999279026,True,15
24K20,200,experiment,120,←,left,←,0.6006023999943864,True,15
24K20,201,experiment,132,←,left,←,0.5261084999947343,True,15
24K20,202,experiment,96,→,right,→,0.45579839999845717,True,15
24K20,203,experiment,60,↑,up,↑,0.48831430000427645,True,15
24K20,204,experiment,36,←,left,←,0.6163569999916945,True,15
24K20,205,experiment,168,↓,down,↓,0.6154277000023285,True,15
24K20,206,experiment,24,↑,up,↑,0.4516126999951666,True,15
24K20,207,experiment,48,↑,up,↑,0.4426009000017075,True,15
24K20,208,experiment,132,↓,left,←,0.9655490000004647,False,15
24K20,209,experiment,120,→,right,→,0.7192190999921877,True,15
24K20,210,experiment,72,→,right,→,0.5076430000044638,True,15
24K20,211,experiment,36,↑,up,↑,0.4385746000043582,True,15
24K20,212,experiment,144,↑,left,←,1.0622177999903215,False,15
24K20,213,experiment,132,→,right,→,0.5293846999993548,True,15
24K20,214,experiment,24,→,right,→,1.0464539999957196,True,15
24K20,215,experiment,156,↓,down,↓,0.6303502999944612,True,15
24K20,216,experiment,84,←,left,←,0.5038197999965632,True,15
24K20,217,experiment,168,↓,up,↑,0.8770174999954179,False,15
24K20,218,experiment,108,↑,up,↑,0.7110973000089871,True,15
24K20,219,experiment,60,↑,up,↑,0.6521880000072997,True,15
24K20,220,training,120,↑,up,↑,0.5938308000040706,True,15
24K20,221,training,60,↓,down,↓,0.5373721999931149,True,15
24K20,222,training,144,↑,up,↑,0.4275852999999188,True,15
24K20,223,experiment,180,←,left,←,0.5412741000036476,True,15
24K20,224,experiment,168,→,right,→,0.5856742000032682,True,15
24K20,225,experiment,36,←,left,←,0.9698177999962354,True,15
24K20,226,experiment,12,→,right,→,0.5423861000017496,True,15
24K20,227,experiment,120,←,left,←,0.46276120000402443,True,15
24K20,228,experiment,72,←,left,←,0.4224347999988822,True,15
24K20,229,experiment,120,↓,down,↓,0.5280692999949679,True,15
24K20,230,experiment,132,↓,down,↓,0.4852567000052659,True,15
24K20,231,experiment,84,↑,up,↑,0.5693918999895686,True,15
24K20,232,experiment,48,↓,down,↓,0.6027342000015778,True,15
24K20,233,experiment,72,←,right,→,0.28403399999660905,False,15
24K20,234,experiment,168,→,right,→,0.48410850000800565,True,15
24K20,235,experiment,12,←,up,↑,1.0742826999921817,False,15
24K20,236,experiment,180,→,left,←,0.6481179999973392,False,15
24K20,237,experiment,96,↑,up,↑,0.4341236000036588,True,15
24K20,238,experiment,12,↓,down,↓,0.6808382999879541,True,15
24K20,239,experiment,156,→,right,→,0.3504241000046022,True,15
24K20,240,experiment,156,←,left,←,0.44009279999590944,True,15
24K20,241,experiment,48,←,left,←,0.9623856999969576,True,15
24K20,242,experiment,132,→,left,←,0.4424124000070151,False,15
24K20,243,experiment,168,↓,down,↓,0.5676341000071261,True,15
24K20,244,experiment,60,→,right,→,0.9463376000057906,True,15
24K20,245,experiment,24,→,right,→,0.42251679999753833,True,15
24K20,246,experiment,96,→,right,→,0.38394919999700505,True,15
24K20,247,experiment,36,↓,up,↑,0.8591041000036057,False,15
24K20,248,experiment,24,→,right,→,0.4844835999974748,True,15
24K20,249,experiment,36,↑,up,↑,0.5529163000028348,True,15
24K20,250,experiment,156,→,right,→,0.4288226999924518,True,15
24K20,251,experiment,108,→,right,→,0.43687299999874085,True,15
24K20,252,experiment,84,↓,down,↓,0.4835531999997329,True,15
24K20,253,experiment,132,←,right,→,0.9453160999983083,False,15
24K20,254,experiment,48,↑,up,↑,0.5031273999920813,True,15
24K20,255,experiment,168,↑,up,↑,0.6901421999937156,True,15
24K20,256,experiment,36,←,left,←,0.8315054999984568,True,15
24K20,257,experiment,144,↓,down,↓,0.6041851000045426,True,15
24K20,258,experiment,24,↓,down,↓,0.5750892999931239,True,15
24K20,259,experiment,180,↑,up,↑,0.4442529999942053,True,15
24K20,260,experiment,60,↑,up,↑,0.539870599997812,True,15
24K20,261,experiment,72,→,right,→,0.3507428000011714,True,15
24K20,262,experiment,108,↓,down,↓,0.5926692999928491,True,15
24K20,263,experiment,84,→,right,→,0.3836903999908827,True,15
24K20,264,experiment,96,↑,up,↑,0.6747860000032233,True,15
24K20,265,experiment,108,←,up,↑,0.8184378000005381,False,15
24K20,266,experiment,144,←,right,→,0.3171457999997074,False,15
24K20,267,experiment,60,→,right,→,0.5402677999954903,True,15
24K20,268,experiment,84,→,right,→,0.4640340999903856,True,15
24K20,269,experiment,60,←,left,←,0.5308175999962259,True,15
24K20,270,experiment,24,→,right,→,1.0150127000088105,True,15
24K20,271,experiment,120,↑,up,↑,0.50106439999945,True,15
24K20,272,experiment,48,→,right,→,0.5162768000009237,True,15
24K20,273,experiment,96,↓,down,↓,0.6662111999903573,True,15
24K20,274,experiment,12,→,up,↑,0.6424491000070702,False,15
24K20,275,experiment,132,↑,up,↑,0.5077194000041345,True,15
24K20,276,experiment,156,→,right,→,0.8681876000046032,True,15
24K20,277,experiment,144,↓,down,↓,0.5890324000065448,True,15
24K20,278,experiment,180,→,right,→,0.4255327999999281,True,15
24K20,279,experiment,72,→,right,→,0.5181448000075761,True,15
24K20,280,experiment,144,↓,down,↓,0.45213069999590516,True,15
24K20,281,experiment,108,↑,down,↓,0.9637305000069318,False,15
24K20,282,experiment,120,↓,down,↓,0.6078678000048967,True,15
24K20,283,training,168,←,right,→,0.7943972999928519,False,15
24K20,284,training,108,←,left,←,0.4446141000080388,True,15
24K20,285,training,72,↑,up,↑,0.4433471000083955,True,15
24K20,286,experiment,144,←,right,→,0.35057890000462066,False,15
24K20,287,experiment,168,→,right,→,0.35056730000360403,True,15
24K20,288,experiment,12,→,right,→,1.3954993000079412,True,15
24K20,289,experiment,96,↑,up,↑,0.9755214000033448,True,15
24K20,290,experiment,24,←,left,←,0.49938510000356473,True,15
24K20,291,experiment,60,→,right,→,0.41925169999012724,True,15
24K20,292,experiment,108,←,left,←,0.4306498000078136,True,15
24K20,293,experiment,36,→,right,→,0.5337194000021555,True,15
24K20,294,experiment,156,→,right,→,0.4345830999955069,True,15
24K20,295,experiment,48,↓,right,→,0.6689348999934737,False,15
24K20,296,experiment,36,→,right,→,0.8606442000018433,True,15
24K20,297,experiment,156,→,right,→,0.46151530000497587,True,15
24K20,298,experiment,12,→,right,→,0.47341679999954067,True,15
24K20,299,experiment,48,←,right,→,0.5800203999970108,False,15
24K20,300,experiment,108,→,right,→,0.4699914000084391,True,15
24K20,301,experiment,36,→,right,→,0.5327558999997564,True,15
24K20,302,experiment,72,↓,down,↓,0.6610672999959206,True,15
24K20,303,experiment,108,→,right,→,0.8830279999965569,True,15
24K20,304,experiment,24,↓,down,↓,0.5674482000031276,True,15
24K20,305,experiment,168,↓,down,↓,0.5701095999975223,True,15
24K20,306,experiment,180,→,right,→,0.571177700010594,True,15
24K20,307,experiment,48,←,left,←,0.8965596999914851,True,15
24K20,308,experiment,60,↑,up,↑,0.46826290000171866,True,15
24K20,309,experiment,120,←,left,←,0.6239743000041926,True,15
24K20,310,experiment,120,↓,down,↓,0.5175505000079283,True,15
24K20,311,experiment,168,←,left,←,0.5000415000104113,True,15
24K20,312,experiment,84,↑,up,↑,0.484779400008847,True,15
24K20,313,experiment,84,←,left,←,0.49992489999567624,True,15
24K20,314,experiment,12,→,left,←,0.42956420000700746,False,15
24K20,315,experiment,120,←,left,←,0.6036477000016021,True,15
24K20,316,experiment,60,→,right,→,0.5109650000085821,True,15
24K20,317,experiment,36,↑,up,↑,0.7437126000004355,True,15
24K20,318,experiment,132,↓,down,↓,0.5821406999893952,True,15
24K20,319,experiment,84,←,left,←,0.7332400000013877,True,15
24K20,320,experiment,84,↓,down,↓,0.6228160000027856,True,15
24K20,321,experiment,24,↑,up,↑,0.4645516000018688,True,15
24K20,322,experiment,180,→,down,↓,0.966503499992541,False,15
24K20,323,experiment,144,↑,up,↑,0.5391135999961989,True,15
24K20,324,experiment,72,←,left,←,0.5201781999930972,True,15
24K20,325,experiment,180,↑,up,↑,0.5053203999996185,True,15
24K20,326,experiment,132,↓,down,↓,0.575378699999419,True,15
24K20,327,experiment,48,←,left,←,0.6211856000008993,True,15
24K20,328,experiment,132,←,left,←,0.5291043000033824,True,15
24K20,329,experiment,72,→,right,→,0.43532209999102633,True,15
24K20,330,experiment,168,↓,down,↓,0.508943900000304,True,15
24K20,331,experiment,96,←,right,→,0.5262310000107391,False,15
24K20,332,experiment,96,→,right,→,1.0067681000073208,True,15
24K20,333,experiment,132,←,left,←,0.4543963000032818,True,15
24K20,334,experiment,180,→,right,→,0.5896172000066144,True,15
24K20,335,experiment,24,↑,up,↑,0.6384554999967804,True,15
24K20,336,experiment,156,↓,down,↓,0.6031747999950312,True,15
24K20,337,experiment,120,←,left,←,0.4638627000094857,True,15
24K20,338,experiment,96,↓,down,↓,0.5087646000029054,True,15
24K20,339,experiment,60,↓,down,↓,0.6173373999918113,True,15
24K20,340,experiment,72,↑,up,↑,0.6127506000048015,True,15
24K20,341,experiment,156,→,right,→,0.5971682999952463,True,15
24K20,342,experiment,108,↓,down,↓,0.5066007999994326,True,15
24K20,343,experiment,144,←,left,←,0.5442234000074677,True,15
24K20,344,experiment,144,↑,up,↑,0.4567890000034822,True,15
24K20,345,experiment,12,↑,up,↑,0.7125947000022279,True,15
24K20,346,training,36,←,right,→,0.42172309999295976,False,15
24K20,347,training,12,↑,up,↑,0.7212228999997023,True,15
24K20,348,training,180,←,right,→,0.3005345999990823,False,15
24K20,349,experiment,180,←,left,←,0.5757098000030965,True,15
24K20,350,experiment,72,→,right,→,0.6197695999871939,True,15
24K20,351,experiment,60,↓,up,↑,0.5111917000031099,False,15
24K20,352,experiment,180,↑,up,↑,0.49435819999780506,True,15
24K20,353,experiment,120,→,right,→,0.8740634999994654,True,15
24K20,354,experiment,180,↓,down,↓,0.6209575999964727,True,15
24K20,355,experiment,168,→,right,→,0.5946243999933358,True,15
24K20,356,experiment,72,←,right,→,0.3670027000043774,False,15
24K20,357,experiment,72,↑,up,↑,0.38442859999486245,True,15
24K20,358,experiment,120,↑,up,↑,0.57092030000058,True,15
24K20,359,experiment,108,↑,up,↑,0.4844178000057582,True,15
24K20,360,experiment,132,↓,up,↑,0.3840511000016704,False,15
24K20,361,experiment,60,↓,up,↑,0.42034710000734776,False,15
24K20,362,experiment,24,↓,down,↓,0.5338854000001447,True,15
24K20,363,experiment,96,↓,right,→,0.8273520999937318,False,15
24K20,364,experiment,96,→,right,→,0.527984500004095,True,15
24K20,365,experiment,168,↑,up,↑,0.4229163999989396,True,15
24K20,366,experiment,60,→,right,→,0.4839815000013914,True,15
24K20,367,experiment,168,←,left,←,0.525438500000746,True,15
24K20,368,experiment,12,↓,down,↓,0.5145139000087511,True,15
24K20,369,experiment,48,↓,down,↓,0.433086999997613,True,15
24K20,370,experiment,120,←,right,→,0.31702170000062324,False,15
24K20,371,experiment,12,←,left,←,0.5494904999941355,True,15
24K20,372,experiment,96,→,left,←,0.45717559999320656,False,15
24K20,373,experiment,108,→,left,←,0.5721622999990359,False,15
24K20,374,experiment,36,↓,down,↓,0.5919694999902276,True,15
24K20,375,experiment,84,→,right,→,0.865649500003201,True,15
24K20,376,experiment,84,↓,down,↓,0.5862395999865839,True,15
24K20,377,experiment,144,↓,down,↓,0.5124251999950502,True,15
24K20,378,experiment,144,↓,down,↓,0.7582617000007303,True,15
24K20,379,experiment,132,↓,down,↓,0.4757837999932235,True,15
24K20,380,experiment,84,←,left,←,0.4407609999907436,True,15
24K20,381,experiment,132,↓,down,↓,0.4279462999984389,True,15
24K20,382,experiment,36,→,left,←,0.42297810000309255,False,15
24K20,383,experiment,48,↑,down,↓,0.42705779999960214,False,15
24K20,384,experiment,108,→,left,←,0.5753649999969639,False,15
24K20,385,experiment,168,↑,up,↑,0.45555460000468884,True,15
24K20,386,experiment,156,↑,left,←,0.5203044000081718,False,15
24K20,387,experiment,24,↑,up,↑,0.47258449999208096,True,15
24K20,388,experiment,156,←,left,←,0.48428550000244286,True,15
24K20,389,experiment,108,↑,up,↑,0.9145547000080114,True,15
24K20,390,experiment,132,→,right,→,0.5275064000015846,True,15
24K20,391,experiment,12,↓,down,↓,0.6216207999968901,True,15
24K20,392,experiment,24,↑,up,↑,0.5799007000023266,True,15
24K20,393,experiment,180,↑,up,↑,0.4477448999969056,True,15
24K20,394,experiment,24,←,left,←,0.4842676999978721,True,15
24K20,395,experiment,36,↓,right,→,0.3172243000008166,False,15
24K20,396,experiment,72,←,left,←,0.36748509999597445,True,15
24K20,397,experiment,60,←,up,↑,0.6157065000006696,False,15
24K20,398,experiment,48,↑,right,→,0.4452470000105677,False,15
24K20,399,experiment,48,↑,up,↑,0.9208401999931084,True,15
24K20,400,experiment,156,↓,up,↑,0.5605804000078933,False,15
24K20,401,experiment,156,←,left,←,0.43012269999599084,True,15
24K20,402,experiment,144,→,right,→,0.47545749999699183,True,15
24K20,403,experiment,36,↑,up,↑,0.44909749999351334,True,15
24K20,404,experiment,12,↓,down,↓,0.5924397000053432,True,15
24K20,405,experiment,144,↑,up,↑,0.4185940000024857,True,15
24K20,406,experiment,96,←,left,←,0.43258480000076815,True,15
24K20,407,experiment,84,←,right,→,0.589730799998506,False,15
24K20,408,experiment,120,↓,down,↓,0.5048069000040414,True,15
24K20,409,training,168,→,right,→,0.44500639999751,True,15
24K20,410,training,168,↑,up,↑,0.8531549000035739,True,15
24K20,411,training,96,→,right,→,0.4185049999941839,True,15
24K20,412,experiment,84,↑,left,←,0.43832480000855867,False,15
24K20,413,experiment,12,←,left,←,0.5581812000018544,True,15
24K20,414,experiment,36,←,left,←,0.547310900001321,True,15
24K20,415,experiment,12,↑,up,↑,0.958728899990092,True,15
24K20,416,experiment,144,↓,up,↑,0.42715629999293014,False,15
24K20,417,experiment,144,→,right,→,0.7978321999980835,True,15
24K20,418,experiment,60,↑,up,↑,0.8372555999958422,True,15
24K20,419,experiment,156,↓,up,↑,0.8136709000100382,False,15
24K20,420,experiment,144,→,right,→,0.4262104000081308,True,15
24K20,421,experiment,96,←,left,←,0.623222900001565,True,15
24K20,422,experiment,48,↓,down,↓,0.6249253999994835,True,15
24K20,423,experiment,156,↓,down,↓,0.5359558000054676,True,15
24K20,424,experiment,36,↓,up,↑,0.4754382999963127,False,15
24K20,425,experiment,60,↓,down,↓,0.5047890999994706,True,15
24K20,426,experiment,168,←,left,←,0.9555653999996139,True,15
24K20,427,experiment,108,←,left,←,0.5346871999936411,True,15
24K20,428,experiment,180,↑,up,↑,0.426905699991039,True,15
24K20,429,experiment,72,↑,up,↑,0.611981800000649,True,15
24K20,430,experiment,72,↓,down,↓,0.5208469000062905,True,15
24K20,431,experiment,168,→,right,→,0.4526692999934312,True,15
24K20,432,experiment,36,←,left,←,0.42073520000849385,True,15
24K20,433,experiment,156,←,left,←,0.47668930000509135,True,15
24K20,434,experiment,132,←,left,←,0.5025740999990376,True,15
24K20,435,experiment,120,↓,down,↓,0.5735839000117267,True,15
24K20,436,experiment,156,←,left,←,0.814231700001983,True,15
24K20,437,experiment,12,←,left,←,0.44689559999096673,True,15
24K20,438,experiment,12,↑,up,↑,0.46611910000501666,True,15
24K20,439,experiment,84,→,right,→,0.5742949999985285,True,15
24K20,440,experiment,96,↓,up,↑,0.8066705999954138,False,15
24K20,441,experiment,108,←,left,←,0.47704690000682604,True,15
24K20,442,experiment,144,→,right,→,0.422823699991568,True,15
24K20,443,experiment,24,↑,up,↑,0.4375478000001749,True,15
24K20,444,experiment,132,↓,down,↓,0.8821936999884201,True,15
24K20,445,experiment,84,↑,up,↑,0.4686696999997366,True,15
24K20,446,experiment,60,↑,up,↑,0.4974858000059612,True,15
24K20,447,experiment,96,←,left,←,0.8001230000081705,True,15
24K20,448,experiment,48,→,right,→,0.6106128000101307,True,15
24K20,449,experiment,180,←,up,↑,0.44015399999625515,False,15
24K20,450,experiment,180,↑,up,↑,0.4955424999934621,True,15
24K20,451,experiment,72,↑,up,↑,0.8184366999921622,True,15
24K20,452,experiment,180,↑,up,↑,0.4313731000002008,True,15
24K20,453,experiment,60,←,right,→,0.7816000000020722,False,15
24K20,454,experiment,108,←,left,←,0.5902442999940831,True,15
24K20,455,experiment,84,→,right,→,0.5004226000019116,True,15
24K20,456,experiment,36,↓,down,↓,0.6305386000021826,True,15
24K20,457,experiment,72,→,left,←,0.44744590000482276,False,15
24K20,458,experiment,168,→,right,→,0.6534195999993244,True,15
24K20,459,experiment,120,↓,down,↓,0.6361325000034412,True,15
24K20,460,experiment,108,←,left,←,0.5741301999951247,True,15
24K20,461,experiment,24,←,left,←,0.4284973000030732,True,15
24K20,462,experiment,132,↓,down,↓,0.558124899995164,True,15
24K20,463,experiment,24,→,right,→,0.44625639999867417,True,15
24K20,464,experiment,48,←,up,↑,0.7376525999861769,False,15
24K20,465,experiment,48,↑,up,↑,0.4195142999960808,True,15
24K20,466,experiment,120,↓,down,↓,0.7681459000014002,True,15
24K20,467,experiment,132,←,left,←,0.5850520999956643,True,15
24K20,468,experiment,120,↓,down,↓,0.5323264000035124,True,15
24K20,469,experiment,24,→,right,→,0.5967501000122866,True,15
24K20,470,experiment,168,↑,up,↑,0.43130129999190103,True,15
24K20,471,experiment,96,→,right,→,0.42425969999749213,True,15
24K20,472,training,48,↓,down,↓,0.5102404000062961,True,15
24K20,473,training,168,↑,up,↑,0.46773960000427905,True,15
24K20,474,training,60,↑,up,↑,0.36721339999348857,True,15
24K20,475,experiment,96,↓,down,↓,0.5151397999870824,True,15
24K20,476,experiment,144,←,left,←,0.432912700009183,True,15
24K20,477,experiment,48,←,left,←,0.5258482000062941,True,15
24K20,478,experiment,60,←,left,←,0.5204563000006601,True,15
24K20,479,experiment,108,↑,up,↑,0.8940436999982921,True,15
24K20,480,experiment,96,↑,up,↑,0.43308640000759624,True,15
24K20,481,experiment,48,→,left,←,0.43950239999685436,False,15
24K20,482,experiment,36,←,left,←,0.49560090000159107,True,15
24K20,483,experiment,120,→,right,→,0.4792209000006551,True,15
24K20,484,experiment,84,←,left,←,0.4871790999895893,True,15
24K20,485,experiment,72,→,right,→,0.5173795000009704,True,15
24K20,486,experiment,60,←,right,→,0.42113529999915045,False,15
24K20,487,experiment,24,↓,down,↓,0.5673513000074308,True,15
24K20,488,experiment,12,↑,up,↑,0.47006279999914113,True,15
24K20,489,experiment,156,←,right,→,0.5599102999985917,False,15
24K20,490,experiment,168,↑,up,↑,0.8723346999904606,True,15
24K20,491,experiment,108,→,right,→,0.4417022999987239,True,15
24K20,492,experiment,72,↑,up,↑,0.4787508000008529,True,15
24K20,493,experiment,132,←,right,→,0.35044639999978244,False,15
24K20,494,experiment,12,→,right,→,0.5134111999941524,True,15
24K20,495,experiment,60,↓,down,↓,0.5870651000004727,True,15
24K20,496,experiment,156,←,left,←,0.5610187999991467,True,15
24K20,497,experiment,24,↓,down,↓,0.5996564000088256,True,15
24K20,498,experiment,108,↑,up,↑,0.4997460000013234,True,15
24K20,499,experiment,12,↑,up,↑,0.5209801999881165,True,15
24K20,500,experiment,180,←,left,←,0.5322424000041792,True,15
24K20,501,experiment,156,→,right,→,0.46080390000133775,True,15
24K20,502,experiment,12,↓,up,↑,0.5728893000050448,False,15
24K20,503,experiment,168,↓,down,↓,0.4963158999889856,True,15
24K20,504,experiment,96,←,left,←,0.5770575000060489,True,15
24K20,505,experiment,120,↓,down,↓,0.5144536000007065,True,15
24K20,506,experiment,36,→,right,→,0.4624380999885034,True,15
24K20,507,experiment,36,←,left,←,0.9071828000014648,True,15
24K20,508,experiment,180,←,right,→,0.31706770000164397,False,15
24K20,509,experiment,36,↓,down,↓,0.536231999998563,True,15
24K20,510,experiment,120,←,right,→,0.3672616999974707,False,15
24K20,511,experiment,132,↓,down,↓,0.47066479999921285,True,15
24K20,512,experiment,60,←,left,←,0.5404574999993201,True,15
24K20,513,experiment,144,↑,down,↓,0.5227616999909515,False,15
24K20,514,experiment,96,↓,down,↓,0.6160361999936868,True,15
24K20,515,experiment,168,←,left,←,0.44936309999320656,True,15
24K20,516,experiment,72,↑,up,↑,0.44662429999152664,True,15
24K20,517,experiment,24,←,up,↑,0.7966651000024285,False,15
24K20,518,experiment,48,←,left,←,0.47961330000543967,True,15
24K20,519,experiment,144,→,right,→,0.4664663000003202,True,15
24K20,520,experiment,180,↓,down,↓,0.6401394999993499,True,15
24K20,521,experiment,144,←,left,←,0.5477790000004461,True,15
24K20,522,experiment,180,←,left,←,0.5420279000099981,True,15
24K20,523,experiment,48,↓,down,↓,0.5961757000040961,True,15
24K20,524,experiment,72,↓,down,↓,0.5004561000096146,True,15
24K20,525,experiment,84,↓,down,↓,0.42690110001422,True,15
24K20,526,experiment,120,←,left,←,0.3671708000038052,True,15
24K20,527,experiment,84,←,left,←,0.45360639999853447,True,15
24K20,528,experiment,132,←,right,→,0.9908082999900216,False,15
24K20,529,experiment,132,←,right,→,0.38393190001079347,False,15
24K20,530,experiment,168,←,left,←,0.4659566000045743,True,15
24K20,531,experiment,84,↑,up,↑,1.1039086999953724,True,15
24K20,532,experiment,156,←,left,←,0.570298599996022,True,15
24K20,533,experiment,24,↑,up,↑,0.5448900000046706,True,15
24K20,534,experiment,108,←,right,→,0.3508339999971213,False,15
24K20,535,training,60,↓,down,↓,0.8146262999944156,True,15
24K20,536,training,108,←,left,←,0.46700820000842214,True,15
24K20,537,training,36,←,left,←,0.3838376000057906,True,15
24K20,538,experiment,168,↑,right,→,0.3670604000071762,False,15
24K20,539,experiment,108,→,right,→,0.4278312999958871,True,15
24K20,540,experiment,72,↓,down,↓,0.5786902999971062,True,15
24K20,541,experiment,156,→,right,→,0.8146294000034686,True,15
24K20,542,experiment,144,↓,down,↓,0.4437850999966031,True,15
24K20,543,experiment,156,↓,down,↓,0.4646138999960385,True,15
24K20,544,experiment,84,↑,left,←,0.4231266999995569,False,15
24K20,545,experiment,108,↑,up,↑,0.43914060000679456,True,15
24K20,546,experiment,48,→,right,→,0.4537306999991415,True,15
24K20,547,experiment,180,↑,up,↑,0.4837716000038199,True,15
24K20,548,experiment,36,↓,down,↓,0.6012192000052892,True,15
24K20,549,experiment,120,↓,down,↓,0.5794711999915307,True,15
24K20,550,experiment,132,↑,up,↑,0.7337570999952732,True,15
24K20,551,experiment,48,→,right,→,0.5036772000021301,True,15
24K20,552,experiment,12,↓,down,↓,0.6149835999967763,True,15
24K20,553,experiment,108,↑,up,↑,0.5039388000004692,True,15
24K20,554,experiment,72,↑,up,↑,0.6234134999976959,True,15
24K20,555,experiment,24,↑,up,↑,0.5152106999885291,True,15
24K20,556,experiment,144,↑,up,↑,0.608628799993312,True,15
24K20,557,experiment,168,→,right,→,0.42060460000357125,True,15
24K20,558,experiment,96,→,left,←,0.4705161999881966,False,15
24K20,559,experiment,96,→,right,→,0.35046209998836275,True,15
24K20,560,experiment,48,→,right,→,0.7780692999949679,True,15
24K20,561,experiment,60,↑,up,↑,0.5593842000089353,True,15
24K20,562,experiment,36,↓,up,↑,0.7303022999985842,False,15
24K20,563,experiment,24,↓,left,←,0.9822635000018636,False,15
24K20,564,experiment,36,↑,up,↑,0.5029382999928202,True,15
24K20,565,experiment,120,→,right,→,0.38376850000349805,True,15
24K20,566,experiment,24,←,left,←,0.44806850000168197,True,15
24K20,567,experiment,156,↓,down,↓,0.6769610000046669,True,15
24K20,568,experiment,12,↓,down,↓,0.7228088999981992,True,15
24K20,569,experiment,12,↑,up,↑,0.5522725000046194,True,15
24K20,570,experiment,132,↑,up,↑,0.516253499998129,True,15
24K20,571,experiment,12,↑,up,↑,0.6425518000032753,True,15
24K20,572,experiment,60,→,right,→,0.3841149000072619,True,15
24K20,573,experiment,168,→,left,←,0.5337833000085084,False,15
24K20,574,experiment,144,↓,down,↓,0.672185300005367,True,15
24K20,575,experiment,120,→,left,←,0.5363890000007814,False,15
24K20,576,experiment,84,↓,down,↓,0.5732324999989942,True,15
24K20,577,experiment,48,↑,up,↑,0.5196651000005659,True,15
24K20,578,experiment,72,←,right,→,0.6225681000069017,False,15
24K20,579,experiment,120,↓,down,↓,0.5780411000014283,True,15
24K20,580,experiment,132,←,left,←,0.46282249999057967,True,15
24K20,581,experiment,36,↓,down,↓,0.5094161000015447,True,15
24K20,582,experiment,144,←,left,←,0.8345670999988215,True,15
24K20,583,experiment,180,←,left,←,0.4616410000016913,True,15
24K20,584,experiment,180,↑,left,←,0.4358611000061501,False,15
24K20,585,experiment,96,→,right,→,0.5432124000071781,True,15
24K20,586,experiment,24,↑,up,↑,0.4602788999909535,True,15
24K20,587,experiment,108,↓,up,↑,0.6139164999913191,False,15
24K20,588,experiment,84,↑,up,↑,0.8561465999955544,True,15
24K20,589,experiment,72,↓,up,↑,1.5565624000009848,False,15
24K20,590,experiment,60,→,right,→,0.42023730000073556,True,15
24K20,591,experiment,84,↑,up,↑,0.5159069000073941,True,15
24K20,592,experiment,60,←,right,→,0.921402299994952,False,15
24K20,593,experiment,156,↓,down,↓,0.6944812000001548,True,15
24K20,594,experiment,96,↑,up,↑,0.4225101999909384,True,15
24K20,595,experiment,132,←,right,→,0.4740228000009665,False,15
24K20,596,experiment,180,→,left,←,0.35030940000433475,False,15
24K20,597,experiment,168,←,right,→,0.28387060000386555,False,15
24K20,598,training,108,↑,left,←,0.38396029999421444,False,15
24K20,599,training,180,→,right,→,0.453790299987304,True,15
24K20,600,training,48,↑,up,↑,0.41735240000707563,True,15
24K20,601,experiment,60,→,right,→,0.7755785000044852,True,15
24K20,602,experiment,108,←,right,→,0.3172444999945583,False,15
24K20,603,experiment,180,→,right,→,0.31721540000580717,True,15
24K20,604,experiment,48,→,right,→,0.3505211000010604,True,15
24K20,605,experiment,12,↓,down,↓,0.5766241999954218,True,15
24K20,606,experiment,156,→,right,→,0.33375629999500234,True,15
24K20,607,experiment,84,→,right,→,0.7892753999913111,True,15
24K20,608,experiment,156,↓,down,↓,0.5404471999936504,True,15
24K20,609,experiment,60,←,up,↑,0.44479899998987094,False,15
24K20,610,experiment,24,→,right,→,0.5801427999977022,True,15
24K20,611,experiment,120,→,right,→,0.4722431999980472,True,15
24K20,612,experiment,12,←,right,→,0.5578764999954728,False,15
24K20,613,experiment,60,→,right,→,0.5778910999943037,True,15
24K20,614,experiment,180,→,right,→,0.5308106999873416,True,15
24K20,615,experiment,180,↑,up,↑,0.9081573000003118,True,15
24K20,616,experiment,156,↑,up,↑,0.6838259999931324,True,15
24K20,617,experiment,168,↑,up,↑,0.5203615999926114,True,15
24K20,618,experiment,72,←,left,←,0.6252613999968162,True,15
24K20,619,experiment,24,↓,down,↓,0.6484869999985676,True,15
24K20,620,experiment,84,←,left,←,0.5265878999925917,True,15
24K20,621,experiment,132,→,right,→,0.49028240000188816,True,15
24K20,622,experiment,24,↓,down,↓,0.6474539000046207,True,15
24K20,623,experiment,108,→,right,→,0.5061195000016596,True,15
24K20,624,experiment,120,↓,down,↓,0.6847825000004377,True,15
24K20,625,experiment,120,↓,up,↑,0.6451379000063753,False,15
24K20,626,experiment,84,←,left,←,0.4273607000068296,True,15
24K20,627,experiment,144,↓,down,↓,0.48109490000933874,True,15
24K20,628,experiment,24,→,right,→,0.43472199999087024,True,15
24K20,629,experiment,168,↑,left,←,0.543861799989827,False,15
24K20,630,experiment,168,↑,up,↑,0.4612424000079045,True,15
24K20,631,experiment,144,↓,down,↓,0.5486201000021538,True,15
24K20,632,experiment,132,→,right,→,0.5313410000089789,True,15
24K20,633,experiment,36,←,left,←,0.5934686999971746,True,15
24K20,634,experiment,96,→,left,←,0.3839577000035206,False,15
24K20,635,experiment,144,←,right,→,0.36724360000516754,False,15
24K20,636,experiment,144,↓,right,→,0.48295629999483936,False,15
24K20,637,experiment,36,↓,down,↓,0.5047416999877896,True,15
24K20,638,experiment,72,←,right,→,0.48304609999468084,False,15
24K20,639,experiment,48,↓,down,↓,0.47369050000270363,True,15
24K20,640,experiment,132,↑,up,↑,0.5270319999981439,True,15
24K20,641,experiment,36,↑,up,↑,0.7164105999981984,True,15
24K20,642,experiment,96,←,right,→,0.4388419999886537,False,15
24K20,643,experiment,72,→,right,→,0.4911659000063082,True,15
24K20,644,experiment,84,↓,down,↓,0.4870517999952426,True,15
24K20,645,experiment,48,→,right,→,0.5748650999885285,True,15
24K20,646,experiment,156,→,right,→,0.47945319999416824,True,15
24K20,647,experiment,60,↑,up,↑,0.651295100004063,True,15
24K20,648,experiment,48,←,left,←,0.4924490999983391,True,15
24K20,649,experiment,168,↓,down,↓,0.8109645999938948,True,15
24K20,650,experiment,12,→,right,→,1.256013999998686,True,15
24K20,651,experiment,108,↓,down,↓,0.6026469000062207,True,15
24K20,652,experiment,72,←,right,→,0.3670574999996461,False,15
24K20,653,experiment,96,←,left,←,0.4716953999886755,True,15
24K20,654,experiment,96,↑,up,↑,0.4443950999993831,True,15
24K20,655,experiment,12,→,left,←,0.506381599989254,False,15
24K20,656,experiment,120,↓,up,↑,0.5451296999963233,False,15
24K20,657,experiment,180,↑,up,↑,0.4586468000052264,True,15
24K20,658,experiment,108,↓,down,↓,0.6471569999994244,True,15
24K20,659,experiment,36,←,up,↑,0.4552971999946749,False,15
24K20,660,experiment,132,→,right,→,0.5493003000010503,True,15
24K20,661,training,72,↓,down,↓,0.5568211000063457,True,15
24K20,662,training,72,←,right,→,0.3505865999904927,False,15
24K20,663,training,24,↓,down,↓,0.5513683000026504,True,15
24K20,664,experiment,108,↑,up,↑,0.455844199997955,True,15
24K20,665,experiment,12,↑,up,↑,0.6826848999917274,True,15
24K20,666,experiment,48,→,right,→,0.4645311999920523,True,15
24K20,667,experiment,96,↓,right,→,0.31719889999658335,False,15
24K20,668,experiment,168,←,left,←,0.45054000000527594,True,15
24K20,669,experiment,72,↓,down,↓,0.6232345000025816,True,15
24K20,670,experiment,60,←,left,←,0.48592910000297707,True,15
24K20,671,experiment,84,←,left,←,0.4591625000030035,True,15
24K20,672,experiment,156,←,left,←,0.455980400001863,True,15
24K20,673,experiment,36,↑,up,↑,0.5362243999989005,True,15
24K20,674,experiment,12,←,left,←,0.5430090000008931,True,15
24K20,675,experiment,120,←,left,←,0.49164989999553654,True,15
24K20,676,experiment,60,↓,up,↑,0.4541404000046896,False,15
24K20,677,experiment,36,→,right,→,0.48522590000357013,True,15
24K20,678,experiment,96,→,right,→,0.7980429000017466,True,15
24K20,679,experiment,132,←,left,←,0.3505769000039436,True,15
24K20,680,experiment,24,→,left,←,0.4509544000029564,False,15
24K20,681,experiment,144,←,left,←,0.8822367000102531,True,15
24K20,682,experiment,48,↑,up,↑,0.4435950000042794,True,15
24K20,683,experiment,168,↑,right,→,0.4227831000025617,False,15
24K20,684,experiment,180,↓,down,↓,0.49054850000538863,True,15
24K20,685,experiment,96,↓,down,↓,0.5512344000017038,True,15
24K20,686,experiment,168,↑,up,↑,0.4347777000075439,True,15
24K20,687,experiment,108,↓,down,↓,0.44254889999865554,True,15
24K20,688,experiment,180,→,right,→,0.5494225000002189,True,15
24K20,689,experiment,132,↑,up,↑,0.5206756999978097,True,15
24K20,690,experiment,60,↑,up,↑,0.4477884000079939,True,15
24K20,691,experiment,132,↓,down,↓,0.5916097000008449,True,15
24K20,692,experiment,12,↑,up,↑,0.41954489999625366,True,15
24K20,693,experiment,60,←,right,→,0.5958834999910323,False,15
24K20,694,experiment,180,→,up,↑,0.4683743999921717,False,15
24K20,695,experiment,36,→,right,→,0.5234010999993188,True,15
24K20,696,experiment,168,↓,down,↓,0.5362159999931464,True,15
24K20,697,experiment,120,←,left,←,0.4241596999927424,True,15
24K20,698,experiment,72,→,right,→,0.5580262000003131,True,15
24K20,699,experiment,24,←,left,←,0.6993855000037001,True,15
24K20,700,experiment,108,↑,up,↑,0.4583022000006167,True,15
24K20,701,experiment,156,→,right,→,0.2673120999970706,True,15
24K20,702,experiment,24,↓,up,↑,0.46906670001044404,False,15
24K20,703,experiment,144,↑,up,↑,0.3668908999970881,True,15
24K20,704,experiment,180,↓,up,↑,0.31714820000343025,False,15
24K20,705,experiment,84,↓,down,↓,0.46106659999350086,True,15
24K20,706,experiment,108,↓,down,↓,0.5937548000074457,True,15
24K20,707,experiment,48,↓,down,↓,0.5675000000046566,True,15
24K20,708,experiment,156,→,right,→,0.5250091000052635,True,15
24K20,709,experiment,120,↓,down,↓,0.4255949999933364,True,15
24K20,710,experiment,120,←,right,→,0.46405049999884795,False,15
24K20,711,experiment,96,↑,up,↑,0.44062249999842606,True,15
24K20,712,experiment,156,↑,left,←,0.33405420000781305,False,15
24K20,713,experiment,72,↓,down,↓,0.4687102000025334,True,15
24K20,714,experiment,48,→,left,←,0.4582239000010304,False,15
24K20,715,experiment,36,→,right,→,0.8581688000122085,True,15
24K20,716,experiment,24,↑,up,↑,0.4218525000032969,True,15
24K20,717,experiment,132,→,right,→,0.47817649999342393,True,15
24K20,718,experiment,12,↑,up,↑,0.5056209000031231,True,15
24K20,719,experiment,144,→,right,→,0.4306081999966409,True,15
24K20,720,experiment,144,←,right,→,0.26684880000539124,False,15
24K20,721,experiment,84,↑,up,↑,0.6728312999912305,True,15
24K20,722,experiment,72,↓,up,↑,0.8928673000045819,False,15
24K20,723,experiment,84,↓,up,↑,0.4530912000045646,False,15
24K20,724,training,132,→,right,→,0.43414430000120774,True,15
24K20,725,training,156,→,right,→,0.3004639999999199,True,15
24K20,726,training,156,↑,up,↑,0.8054936999978963,True,15
24K20,727,experiment,144,↓,right,→,0.3005207999958657,False,15
24K20,728,experiment,48,←,up,↑,0.4512371000018902,False,15
24K20,729,experiment,132,↓,up,↑,0.46109009999781847,False,15
24K20,730,experiment,12,←,left,←,0.495342599999276,True,15
24K20,731,experiment,24,←,left,←,0.8708881000056863,True,15
24K20,732,experiment,180,↓,left,←,0.36724999999569263,False,15
24K20,733,experiment,96,↑,up,↑,0.43645620001188945,True,15
24K20,734,experiment,168,↓,up,↑,0.3339145999925677,False,15
24K20,735,experiment,24,↑,up,↑,0.6355586999998195,True,15
24K20,736,experiment,12,→,right,→,0.6303743000025861,True,15
24K20,737,experiment,96,↓,down,↓,0.5602906999993138,True,15
24K20,738,experiment,24,←,left,←,0.5510301999893272,True,15
24K20,739,experiment,120,→,right,→,0.36723129999882076,True,15
24K20,740,experiment,120,↑,up,↑,0.8247343999973964,True,15
24K20,741,experiment,180,↑,up,↑,0.8385273000021698,True,15
24K20,742,experiment,168,←,left,←,0.4935862999991514,True,15
24K20,743,experiment,156,↓,down,↓,0.9445826000010129,True,15
24K20,744,experiment,144,↑,up,↑,0.47615019998920616,True,15
24K20,745,experiment,84,↓,down,↓,0.5159726999991108,True,15
24K20,746,experiment,48,→,right,→,0.4794090000068536,True,15
24K20,747,experiment,36,↑,up,↑,0.5291432000085479,True,15
24K20,748,experiment,120,→,up,↑,0.470410100009758,False,15
24K20,749,experiment,180,↓,up,↑,0.7468012000026647,False,15
24K20,750,experiment,168,↑,up,↑,0.8295726000069408,True,15
24K20,751,experiment,48,↓,up,↑,0.4750268000061624,False,15
24K20,752,experiment,108,←,left,←,0.5128972999955295,True,15
24K20,753,experiment,108,→,left,←,0.38388390000909567,False,15
24K20,754,experiment,132,↓,down,↓,0.6856513999955496,True,15
24K20,755,experiment,60,↑,up,↑,0.842084200005047,True,15
24K20,756,experiment,84,←,left,←,0.3839616000041133,True,15
24K20,757,experiment,144,→,right,→,0.7633379000035347,True,15
24K20,758,experiment,36,↓,down,↓,0.5435139000037452,True,15
24K20,759,experiment,168,→,right,→,0.499605100005283,True,15
24K20,760,experiment,72,↓,down,↓,0.5834870999970008,True,15
24K20,761,experiment,36,→,right,→,0.5557969999936176,True,15
24K20,762,experiment,12,↑,up,↑,0.5488466000097105,True,15
24K20,763,experiment,156,↑,up,↑,0.44771799999580253,True,15
24K20,764,experiment,132,↓,down,↓,0.5014809999993304,True,15
24K20,765,experiment,60,↓,down,↓,0.5565185000014026,True,15
24K20,766,experiment,120,↑,up,↑,0.4560870999994222,True,15
24K20,767,experiment,96,↑,down,↓,0.44523230000049807,False,15
24K20,768,experiment,156,→,right,→,0.5724387000082061,True,15
24K20,769,experiment,144,←,right,→,0.5304978999920422,False,15
24K20,770,experiment,84,→,right,→,0.3670824000000721,True,15
24K20,771,experiment,72,↓,down,↓,0.6312467000097968,True,15
24K20,772,experiment,132,→,right,→,0.4741548000019975,True,15
24K20,773,experiment,84,↑,up,↑,0.4452216000063345,True,15
24K20,774,experiment,108,→,right,→,0.45482139999512583,True,15
24K20,775,experiment,72,↓,down,↓,0.5888131999963662,True,15
24K20,776,experiment,72,↑,up,↑,0.4833924999984447,True,15
24K20,777,experiment,36,←,left,←,0.48937200001091696,True,15
24K20,778,experiment,108,→,right,→,0.5012488000065787,True,15
24K20,779,experiment,48,↑,up,↑,0.435802899999544,True,15
24K20,780,experiment,156,↑,up,↑,0.47021340001083445,True,15
24K20,781,experiment,60,←,left,←,0.5347505999961868,True,15
24K20,782,experiment,60,↑,up,↑,0.4389211000088835,True,15
24K20,783,experiment,24,←,left,←,0.4638027000037255,True,15
24K20,784,experiment,12,←,left,←,0.5860570999939227,True,15
24K20,785,experiment,180,↓,up,↑,0.5677075999992667,False,15
24K20,786,experiment,96,→,right,→,0.38393619999988005,True,15
24K20,787,training,156,↓,left,←,0.3671530999999959,False,15
24K20,788,training,24,↓,down,↓,0.49490430000878405,True,15
24K20,789,training,60,↓,left,←,0.3507248000096297,False,15
24K20,790,experiment,180,↓,down,↓,0.4581400000024587,True,15
24K20,791,experiment,24,↓,down,↓,0.4658701999869663,True,15
24K20,792,experiment,72,↓,left,←,0.3006057000020519,False,15
24K20,793,experiment,12,↑,up,↑,0.5060366999969119,True,15
24K20,794,experiment,48,←,left,←,0.35041820000333246,True,15
24K20,795,experiment,96,→,left,←,0.3339838999963831,False,15
24K20,796,experiment,180,↑,up,↑,0.36715979999280535,True,15
24K20,797,experiment,72,↑,up,↑,0.9739575999992667,True,15
24K20,798,experiment,12,←,right,→,0.502536499989219,False,15
24K20,799,experiment,156,↓,down,↓,0.457709900001646,True,15
24K20,800,experiment,144,←,right,→,0.33377589999872725,False,15
24K20,801,experiment,108,←,left,←,0.4785668000113219,True,15
24K20,802,experiment,96,→,left,←,0.4955334000114817,False,15
24K20,803,experiment,108,↑,up,↑,0.45075699999870267,True,15
24K20,804,experiment,120,↓,up,↑,0.4385357999999542,False,15
24K20,805,experiment,12,→,right,→,0.6652713999937987,True,15
24K20,806,experiment,132,→,right,→,0.5408088999975007,True,15
24K20,807,experiment,60,↓,down,↓,0.5096096000052057,True,15
24K20,808,experiment,168,↑,up,↑,0.4902155000017956,True,15
24K20,809,experiment,96,↓,down,↓,0.5234984999988228,True,15
24K20,810,experiment,168,↓,down,↓,0.5292528000136372,True,15
24K20,811,experiment,48,↑,up,↑,0.48814929999934975,True,15
24K20,812,experiment,144,↑,up,↑,0.560600600001635,True,15
24K20,813,experiment,84,↑,right,→,0.654187499996624,False,15
24K20,814,experiment,36,→,right,→,0.5331747000018368,True,15
24K20,815,experiment,132,→,right,→,0.894781700000749,True,15
24K20,816,experiment,84,↓,up,↑,0.5518255999922985,False,15
24K20,817,experiment,36,←,left,←,0.49077660001057666,True,15
24K20,818,experiment,120,←,left,←,0.516949900003965,True,15
24K20,819,experiment,72,↓,down,↓,0.46907789999386296,True,15
24K20,820,experiment,144,↑,up,↑,0.5662757999962196,True,15
24K20,821,experiment,24,↓,up,↑,0.5429339999973308,False,15
24K20,822,experiment,84,↑,up,↑,0.46601859999645967,True,15
24K20,823,experiment,24,↓,down,↓,0.5574544999981299,True,15
24K20,824,experiment,156,↑,up,↑,0.5979200000001583,True,15
24K20,825,experiment,132,↓,down,↓,0.7838398000021698,True,15
24K20,826,experiment,36,→,right,→,0.5054202999890549,True,15
24K20,827,experiment,60,↓,down,↓,0.5709836999885738,True,15
24K20,828,experiment,72,←,left,←,0.5394794000021648,True,15
24K20,829,experiment,108,↑,right,→,0.36718719999771565,False,15
24K20,830,experiment,132,↑,up,↑,0.44456749998789746,True,15
24K20,831,experiment,12,←,left,←,0.5246173999912571,True,15
24K20,832,experiment,168,→,right,→,0.48280099999101367,True,15
24K20,833,experiment,144,↑,up,↑,0.45347980000951793,True,15
24K20,834,experiment,120,↓,down,↓,0.5255925999954343,True,15
24K20,835,experiment,180,←,left,←,0.3672019000077853,True,15
24K20,836,experiment,24,↑,left,←,0.48029069999756757,False,15
24K20,837,experiment,48,↓,down,↓,0.517547099996591,True,15
24K20,838,experiment,120,↑,up,↑,0.4424130000115838,True,15
24K20,839,experiment,96,←,left,←,0.47473710001213476,True,15
24K20,840,experiment,156,↑,up,↑,0.9087426999903983,True,15
24K20,841,experiment,180,↑,up,↑,0.48862810000719037,True,15
24K20,842,experiment,36,↓,down,↓,0.6337014000018826,True,15
24K20,843,experiment,60,←,left,←,0.5382508000038797,True,15
24K20,844,experiment,168,↓,down,↓,0.655030900001293,True,15
24K20,845,experiment,108,→,right,→,0.821318499991321,True,15
24K20,846,experiment,60,←,left,←,0.6047595999989426,True,15
24K20,847,experiment,156,↑,up,↑,0.8446016000089003,True,15
24K20,848,experiment,48,↓,down,↓,0.43062269999063574,True,15
24K20,849,experiment,84,←,left,←,0.428002300002845,True,15
