PART_ID,Trial_no,Trial_type,PDI,Stim_letter,Key_pressed,letter_choose,Rt,Corr,Stimulus Time
25K32,1,training,10,←,no_key,no_letter,-1.0,False,30
25K32,2,training,10,←,left,←,0.8044905999558978,True,30
25K32,3,training,10,→,left,←,0.6004112000227906,False,30
25K32,4,training,10,↓,right,→,0.5505218000034802,False,30
25K32,5,training,10,→,right,→,1.2427245000144467,True,30
25K32,6,training,10,→,right,→,1.2987596999737434,True,30
25K32,7,training,10,↓,down,↓,1.8296824000426568,True,30
25K32,8,training,10,↓,down,↓,1.0842917999834754,True,30
25K32,9,training,10,↓,down,↓,0.8242344000027515,True,30
25K32,10,training,10,→,right,→,0.6338087000185624,True,30
25K32,11,training,10,→,right,→,0.7113645999925211,True,30
25K32,12,training,10,↓,down,↓,0.8056967000011355,True,30
25K32,13,training,10,↑,down,↓,1.4265302999992855,False,30
25K32,14,training,10,→,right,→,0.48450680001406,True,30
25K32,15,training,10,↓,right,→,0.5669791999971494,False,30
25K32,16,training,10,↑,up,↑,0.9750006999820471,True,30
25K32,17,training,10,←,right,→,0.5838161999708973,False,30
25K32,18,training,10,↑,up,↑,0.8405972000327893,True,30
25K32,19,training,10,→,right,→,0.8514683999819681,True,30
25K32,20,training,10,←,left,←,1.0882893000380136,True,30
25K32,21,training,10,↓,up,↑,1.0377481000032276,False,18
25K32,22,training,10,←,left,←,0.5059391999966465,True,18
25K32,23,training,10,←,right,→,1.3856270000105724,False,18
25K32,24,training,10,→,up,↑,0.890790699981153,False,18
25K32,25,training,10,↓,down,↓,0.8694229999673553,True,18
25K32,26,training,10,↑,up,↑,0.7322909000213258,True,18
25K32,27,training,10,→,right,→,0.6810276999603957,True,18
25K32,28,training,10,→,right,→,0.5557738000061363,True,18
25K32,29,training,10,↑,up,↑,0.5859249999630265,True,18
25K32,30,training,10,→,right,→,0.5367198000312783,True,18
25K32,31,training,108,↓,up,↑,0.6957106000045314,False,15
25K32,32,training,168,↓,right,→,0.9372039000154473,False,15
25K32,33,training,24,↓,up,↑,1.4620894999825396,False,15
25K32,34,experiment,180,↓,up,↑,1.3982571000233293,False,15
25K32,35,experiment,72,←,left,←,1.0340723000117578,True,15
25K32,36,experiment,108,↑,up,↑,1.2637114999815822,True,15
25K32,37,experiment,48,←,left,←,0.7017197000095621,True,15
25K32,38,experiment,168,↑,up,↑,0.7012968999915756,True,15
25K32,39,experiment,24,←,left,←,0.8573183999978937,True,15
25K32,40,experiment,144,↓,down,↓,0.7511498000239953,True,15
25K32,41,experiment,156,↓,up,↑,0.9365351999877021,False,15
25K32,42,experiment,168,←,up,↑,0.9331940000411123,False,15
25K32,43,experiment,12,↓,left,←,1.7814692999818362,False,15
25K32,44,experiment,120,↓,up,↑,1.787867900042329,False,15
25K32,45,experiment,48,←,right,→,1.0246160999522544,False,15
25K32,46,experiment,108,↓,down,↓,0.8150246000150219,True,15
25K32,47,experiment,180,↓,down,↓,0.9011373000103049,True,15
25K32,48,experiment,12,↓,up,↑,1.6626560000004247,False,15
25K32,49,experiment,120,←,up,↑,0.8635550999897532,False,15
25K32,50,experiment,132,→,right,→,0.512393599958159,True,15
25K32,51,experiment,108,↑,up,↑,0.7927687999908812,True,15
25K32,52,experiment,144,↓,down,↓,0.945696400012821,True,15
25K32,53,experiment,36,↑,down,↓,1.005519300000742,False,15
25K32,54,experiment,168,↓,right,→,1.5832656999700703,False,15
25K32,55,experiment,60,→,up,↑,1.1577311000437476,False,15
25K32,56,experiment,156,→,up,↑,0.8403616000432521,False,15
25K32,57,experiment,60,←,up,↑,0.8376798999961466,False,15
25K32,58,experiment,48,↑,up,↑,0.6931151000317186,True,15
25K32,59,experiment,180,↑,up,↑,1.204980099981185,True,15
25K32,60,experiment,108,←,left,←,0.6802752999938093,True,15
25K32,61,experiment,36,←,right,→,1.01389169995673,False,15
25K32,62,experiment,132,←,left,←,0.6177276000380516,True,15
25K32,63,experiment,24,↑,up,↑,1.7838076000334695,True,15
25K32,64,experiment,120,←,right,→,0.6664901999756694,False,15
25K32,65,experiment,60,↓,down,↓,0.9795058000017889,True,15
25K32,66,experiment,12,↑,up,↑,1.3021077999728732,True,15
25K32,67,experiment,144,↓,no_key,no_letter,-1.0,False,15
25K32,68,experiment,132,←,right,→,0.7217657000292093,False,15
25K32,69,experiment,156,↑,up,↑,1.3923026999691501,True,15
25K32,70,experiment,168,←,left,←,0.6217168999719433,True,15
25K32,71,experiment,36,↓,up,↑,0.9458083999925293,False,15
25K32,72,experiment,84,→,right,→,0.7145660999813117,True,15
25K32,73,experiment,84,←,left,←,0.6646342999883927,True,15
25K32,74,experiment,60,↑,up,↑,0.6343176999944262,True,15
25K32,75,experiment,180,↑,up,↑,0.7802654000115581,True,15
25K32,76,experiment,96,→,right,→,0.6603600999806076,True,15
25K32,77,experiment,156,↓,down,↓,0.9261412000050768,True,15
25K32,78,experiment,96,←,right,→,0.8328002999769524,False,15
25K32,79,experiment,120,↑,up,↑,0.6624519999604672,True,15
25K32,80,experiment,72,↓,down,↓,0.7304888999788091,True,15
25K32,81,experiment,96,↓,down,↓,0.7446391000412405,True,15
25K32,82,experiment,84,↑,down,↓,0.852898399985861,False,15
25K32,83,experiment,96,→,right,→,0.7167181000113487,True,15
25K32,84,experiment,24,↑,up,↑,0.5796618000022136,True,15
25K32,85,experiment,72,←,left,←,0.6991720999940298,True,15
25K32,86,experiment,12,↓,right,→,1.2757217999896966,False,15
25K32,87,experiment,144,→,left,←,0.8849436999880709,False,15
25K32,88,experiment,24,↑,up,↑,0.6583037999807857,True,15
25K32,89,experiment,84,↓,down,↓,0.7682179000112228,True,15
25K32,90,experiment,132,→,up,↑,0.8330300999805331,False,15
25K32,91,experiment,48,→,right,→,0.7370833000168204,True,15
25K32,92,experiment,36,↑,up,↑,0.6036794000538066,True,15
25K32,93,experiment,72,←,left,←,0.5499759999802336,True,15
25K32,94,training,156,←,up,↑,0.905076100025326,False,15
25K32,95,training,180,←,left,←,0.6180843999609351,True,15
25K32,96,training,96,←,left,←,0.46588139998493716,True,15
25K32,97,experiment,156,↑,up,↑,0.774120399961248,True,15
25K32,98,experiment,144,↓,down,↓,0.9606434999732301,True,15
25K32,99,experiment,36,→,right,→,0.5623361000325531,True,15
25K32,100,experiment,48,↑,up,↑,0.44982410001102835,True,15
25K32,101,experiment,132,↑,down,↓,1.0212344000465237,False,15
25K32,102,experiment,156,←,up,↑,0.8825581000419334,False,15
25K32,103,experiment,24,→,right,→,0.4881084999651648,True,15
25K32,104,experiment,60,↓,down,↓,0.8146605000365525,True,15
25K32,105,experiment,12,↓,down,↓,0.7298770000343211,True,15
25K32,106,experiment,12,→,right,→,0.5831721000140533,True,15
25K32,107,experiment,168,↑,down,↓,1.093323600012809,False,15
25K32,108,experiment,180,↓,down,↓,0.721410800004378,True,15
25K32,109,experiment,60,↑,up,↑,0.5426995999878272,True,15
25K32,110,experiment,36,←,left,←,0.7006605999777094,True,15
25K32,111,experiment,168,→,right,→,0.800102400011383,True,15
25K32,112,experiment,36,→,left,←,0.8203702999744564,False,15
25K32,113,experiment,120,→,right,→,0.6085491999983788,True,15
25K32,114,experiment,156,→,right,→,0.5146061999839731,True,15
25K32,115,experiment,84,←,right,→,0.7786519000073895,False,15
25K32,116,experiment,72,↓,down,↓,0.6982694000471383,True,15
25K32,117,experiment,84,↑,right,→,0.7329582999809645,False,15
25K32,118,experiment,72,←,right,→,0.8204818000085652,False,15
25K32,119,experiment,96,←,left,←,0.7090403999900445,True,15
25K32,120,experiment,72,←,right,→,0.768163500004448,False,15
25K32,121,experiment,24,↑,up,↑,0.9411804000264965,True,15
25K32,122,experiment,132,←,left,←,0.695332600036636,True,15
25K32,123,experiment,48,↑,up,↑,0.5084084999980405,True,15
25K32,124,experiment,108,↓,down,↓,1.339378599950578,True,15
25K32,125,experiment,108,→,right,→,0.5815389999770559,True,15
25K32,126,experiment,168,↓,down,↓,0.864199000003282,True,15
25K32,127,experiment,180,↑,up,↑,0.5165769000304863,True,15
25K32,128,experiment,72,→,right,→,0.5183395000058226,True,15
25K32,129,experiment,84,↓,down,↓,0.8012030000099912,True,15
25K32,130,experiment,12,←,left,←,0.596576800046023,True,15
25K32,131,experiment,60,←,right,→,0.8048143000341952,False,15
25K32,132,experiment,108,←,right,→,0.7452458000043407,False,15
25K32,133,experiment,132,↑,up,↑,0.4891178000252694,True,15
25K32,134,experiment,84,↑,right,→,0.7307110999827273,False,15
25K32,135,experiment,144,→,right,→,0.5726965999929234,True,15
25K32,136,experiment,144,↓,down,↓,0.7532371000270359,True,15
25K32,137,experiment,96,↓,down,↓,0.9167869999655522,True,15
25K32,138,experiment,96,←,right,→,0.6817908999510109,False,15
25K32,139,experiment,36,↑,right,→,0.7533199000172317,False,15
25K32,140,experiment,132,←,up,↑,0.9367856999742799,False,15
25K32,141,experiment,24,←,left,←,1.1018018000177108,True,15
25K32,142,experiment,120,→,right,→,0.4804325000150129,True,15
25K32,143,experiment,180,↑,up,↑,1.3726448999950662,True,15
25K32,144,experiment,120,↑,up,↑,0.615396499983035,True,15
25K32,145,experiment,12,↑,up,↑,0.5832328000105917,True,15
25K32,146,experiment,48,→,right,→,0.5263130000093952,True,15
25K32,147,experiment,108,←,left,←,0.45456230000127107,True,15
25K32,148,experiment,48,→,right,→,0.5267728999606334,True,15
25K32,149,experiment,60,↓,down,↓,0.6861573000205681,True,15
25K32,150,experiment,120,→,right,→,0.620501100027468,True,15
25K32,151,experiment,24,↑,down,↓,1.0924409999861382,False,15
25K32,152,experiment,144,↓,up,↑,0.7931750999996439,False,15
25K32,153,experiment,96,←,left,←,0.5742545000393875,True,15
25K32,154,experiment,168,↓,down,↓,0.7306110999779776,True,15
25K32,155,experiment,180,↓,down,↓,0.8711498000193387,True,15
25K32,156,experiment,156,→,left,←,0.708295599964913,False,15
25K32,157,training,48,→,right,→,0.5492412999738008,True,15
25K32,158,training,72,→,right,→,0.5205737000214867,True,15
25K32,159,training,120,→,right,→,0.47875070001464337,True,15
25K32,160,experiment,168,→,right,→,0.5720472999964841,True,15
25K32,161,experiment,36,↓,down,↓,0.7142819999717176,True,15
25K32,162,experiment,180,→,right,→,0.4679151000455022,True,15
25K32,163,experiment,48,→,right,→,0.5222219000570476,True,15
25K32,164,experiment,180,→,right,→,0.6220414999988861,True,15
25K32,165,experiment,120,→,right,→,1.1381445999722928,True,15
25K32,166,experiment,48,→,right,→,0.49315540003590286,True,15
25K32,167,experiment,12,←,right,→,0.6405584000167437,False,15
25K32,168,experiment,24,←,left,←,0.4755455999984406,True,15
25K32,169,experiment,156,←,down,↓,0.9161252999911085,False,15
25K32,170,experiment,48,←,right,→,0.5301380999735557,False,15
25K32,171,experiment,144,←,no_key,no_letter,-1.0,False,15
25K32,172,experiment,24,→,right,→,0.7399957999587059,True,15
25K32,173,experiment,180,↓,down,↓,0.7585093000088818,True,15
25K32,174,experiment,12,↑,down,↓,0.9503800999955274,False,15
25K32,175,experiment,48,↓,up,↑,0.8701461000018753,False,15
25K32,176,experiment,108,←,right,→,0.6433785000117496,False,15
25K32,177,experiment,60,↓,right,→,0.6007356999907643,False,15
25K32,178,experiment,36,←,left,←,0.6114731999696232,True,15
25K32,179,experiment,84,↓,down,↓,0.70988480001688,True,15
25K32,180,experiment,108,↓,down,↓,0.6847494000103325,True,15
25K32,181,experiment,108,↓,down,↓,0.6221325999940746,True,15
25K32,182,experiment,72,↓,down,↓,0.798373099998571,True,15
25K32,183,experiment,168,↑,down,↓,0.981358899967745,False,15
25K32,184,experiment,132,↓,right,→,0.7220335000311024,False,15
25K32,185,experiment,36,→,right,→,0.5000085000065155,True,15
25K32,186,experiment,60,→,left,←,1.2577577999909408,False,15
25K32,187,experiment,96,←,right,→,0.6344364000251517,False,15
25K32,188,experiment,120,→,right,→,0.8178103999816813,True,15
25K32,189,experiment,132,↓,right,→,0.6093397000222467,False,15
25K32,190,experiment,156,→,right,→,0.6384124999749474,True,15
25K32,191,experiment,12,↑,up,↑,0.7937463999842294,True,15
25K32,192,experiment,168,↓,up,↑,0.7863190000061877,False,15
25K32,193,experiment,60,←,left,←,0.5275597000145353,True,15
25K32,194,experiment,132,←,left,←,0.4590485999942757,True,15
25K32,195,experiment,72,←,left,←,0.4691630000015721,True,15
25K32,196,experiment,84,←,no_key,no_letter,-1.0,False,15
25K32,197,experiment,72,↓,down,↓,0.7565977000049315,True,15
25K32,198,experiment,108,↑,up,↑,0.526305700012017,True,15
25K32,199,experiment,144,↓,down,↓,0.9975321000092663,True,15
25K32,200,experiment,84,←,left,←,0.5592765999608673,True,15
25K32,201,experiment,96,↑,down,↓,1.0200173999764957,False,15
25K32,202,experiment,120,←,left,←,0.5276753000216559,True,15
25K32,203,experiment,144,↓,down,↓,0.7238762000342831,True,15
25K32,204,experiment,96,←,right,→,0.7617222999688238,False,15
25K32,205,experiment,156,→,right,→,0.6579370000399649,True,15
25K32,206,experiment,180,↓,right,→,0.5297607000102289,False,15
25K32,207,experiment,36,←,left,←,0.6321391999954358,True,15
25K32,208,experiment,120,←,right,→,0.5971085000201128,False,15
25K32,209,experiment,84,→,right,→,0.582500800024718,True,15
25K32,210,experiment,168,↓,down,↓,0.9321758999722078,True,15
25K32,211,experiment,72,→,right,→,0.48617760004708543,True,15
25K32,212,experiment,132,→,left,←,0.9330443000071682,False,15
25K32,213,experiment,12,←,left,←,1.1396915999939665,True,15
25K32,214,experiment,144,→,right,→,0.5503000000026077,True,15
25K32,215,experiment,60,↓,down,↓,0.8238871999783441,True,15
25K32,216,experiment,96,→,right,→,0.9906648999894969,True,15
25K32,217,experiment,156,↓,down,↓,0.7816906999796629,True,15
25K32,218,experiment,24,↑,up,↑,0.7234779000282288,True,15
25K32,219,experiment,24,↓,up,↑,0.9133136000018567,False,15
25K32,220,training,60,←,left,←,0.7967062999960035,True,15
25K32,221,training,84,←,left,←,0.4583324000122957,True,15
25K32,222,training,144,↑,up,↑,0.5719733000150882,True,15
25K32,223,experiment,108,↓,left,←,1.0996049999957904,False,15
25K32,224,experiment,84,→,right,→,0.8056649999925867,True,15
25K32,225,experiment,12,↓,right,→,0.8588917999877594,False,15
25K32,226,experiment,84,↓,up,↑,0.8978019999922253,False,15
25K32,227,experiment,36,↑,up,↑,0.5286103999824263,True,15
25K32,228,experiment,156,→,right,→,0.5016693000216037,True,15
25K32,229,experiment,108,↑,down,↓,0.9064842000370845,False,15
25K32,230,experiment,24,↑,up,↑,0.5617794999852777,True,15
25K32,231,experiment,120,→,up,↑,0.860195700020995,False,15
25K32,232,experiment,72,↑,up,↑,0.45463049999671057,True,15
25K32,233,experiment,168,↑,up,↑,0.8139394999598153,True,15
25K32,234,experiment,180,←,left,←,0.47132609999971464,True,15
25K32,235,experiment,36,→,right,→,0.5905743000330403,True,15
25K32,236,experiment,96,↑,right,→,0.821217099961359,False,15
25K32,237,experiment,72,←,left,←,0.5831469999975525,True,15
25K32,238,experiment,132,←,left,←,0.7786879999912344,True,15
25K32,239,experiment,24,←,left,←,0.8407067999942228,True,15
25K32,240,experiment,60,→,right,→,0.5751834999537095,True,15
25K32,241,experiment,120,→,right,→,0.6594464000081643,True,15
25K32,242,experiment,156,↑,right,→,0.9903860000194982,False,15
25K32,243,experiment,180,↓,up,↑,1.060296300041955,False,15
25K32,244,experiment,24,←,left,←,0.563035300001502,True,15
25K32,245,experiment,156,↓,up,↑,0.6288126999861561,False,15
25K32,246,experiment,60,→,right,→,0.5877126999548636,True,15
25K32,247,experiment,12,←,left,←,0.592417000036221,True,15
25K32,248,experiment,108,↑,up,↑,0.7254897000384517,True,15
25K32,249,experiment,96,↑,down,↓,1.1177567000268027,False,15
25K32,250,experiment,96,↓,down,↓,0.9650829000165686,True,15
25K32,251,experiment,12,↑,no_key,no_letter,-1.0,False,15
25K32,252,experiment,156,→,right,→,0.5905513999750838,True,15
25K32,253,experiment,36,←,right,→,0.6766295999987051,False,15
25K32,254,experiment,84,↑,up,↑,0.6896712000016123,True,15
25K32,255,experiment,144,→,right,→,0.5734768000547774,True,15
25K32,256,experiment,120,←,left,←,0.5375572000048123,True,15
25K32,257,experiment,144,→,right,→,0.540460099990014,True,15
25K32,258,experiment,48,←,right,→,1.2011508999858052,False,15
25K32,259,experiment,72,→,right,→,0.603936200030148,True,15
25K32,260,experiment,48,↑,up,↑,0.5426252000033855,True,15
25K32,261,experiment,36,↓,down,↓,0.8907838999875821,True,15
25K32,262,experiment,12,→,right,→,0.6216642000363208,True,15
25K32,263,experiment,60,→,right,→,0.5478273999760859,True,15
25K32,264,experiment,84,→,right,→,0.8176438999944367,True,15
25K32,265,experiment,108,↑,up,↑,0.8116112999850884,True,15
25K32,266,experiment,180,→,right,→,0.48695630003931,True,15
25K32,267,experiment,168,↑,down,↓,0.8594786000321619,False,15
25K32,268,experiment,132,↓,down,↓,0.6457549000042491,True,15
25K32,269,experiment,168,←,left,←,0.6997797000221908,True,15
25K32,270,experiment,168,↑,up,↑,0.7047259000246413,True,15
25K32,271,experiment,60,↓,down,↓,0.6395236999960616,True,15
25K32,272,experiment,48,↑,down,↓,0.7003703999798745,False,15
25K32,273,experiment,132,↑,up,↑,1.066041599959135,True,15
25K32,274,experiment,72,←,right,→,0.6697084999759682,False,15
25K32,275,experiment,48,↑,up,↑,0.4765724000171758,True,15
25K32,276,experiment,96,↓,down,↓,0.7763308999710716,True,15
25K32,277,experiment,144,↑,down,↓,0.66873089998262,False,15
25K32,278,experiment,24,→,right,→,0.5663159000105225,True,15
25K32,279,experiment,180,↑,down,↓,0.8552972000325099,False,15
25K32,280,experiment,120,↑,up,↑,0.7712985000107437,True,15
25K32,281,experiment,132,↓,down,↓,0.9966724999831058,True,15
25K32,282,experiment,144,↓,right,→,0.6733041999978013,False,15
25K32,283,training,48,↓,right,→,1.10873930004891,False,15
25K32,284,training,60,→,right,→,0.5169478000025265,True,15
25K32,285,training,48,←,right,→,0.7867319000069983,False,15
25K32,286,experiment,168,↑,up,↑,1.3221277999691665,True,15
25K32,287,experiment,72,→,left,←,1.2653488999931142,False,15
25K32,288,experiment,108,→,right,→,0.6365961999981664,True,15
25K32,289,experiment,72,↑,up,↑,0.48311890003969893,True,15
25K32,290,experiment,144,↑,up,↑,0.6637513999594375,True,15
25K32,291,experiment,156,→,right,→,0.6528808000148274,True,15
25K32,292,experiment,24,↓,left,←,1.7814066999708302,False,15
25K32,293,experiment,132,←,left,←,0.6193006000248715,True,15
25K32,294,experiment,48,→,right,→,0.5740894000045955,True,15
25K32,295,experiment,24,→,right,→,0.526457300002221,True,15
25K32,296,experiment,84,↑,right,→,0.5912887000013143,False,15
25K32,297,experiment,120,→,no_key,no_letter,-1.0,False,15
25K32,298,experiment,96,↑,up,↑,0.5846343000303023,True,15
25K32,299,experiment,144,↓,up,↑,0.741312799975276,False,15
25K32,300,experiment,12,→,right,→,0.5884761000052094,True,15
25K32,301,experiment,144,→,right,→,0.5632666999590583,True,15
25K32,302,experiment,24,←,left,←,0.6322425999678671,True,15
25K32,303,experiment,108,←,left,←,0.6416600000229664,True,15
25K32,304,experiment,84,←,left,←,0.7201738000148907,True,15
25K32,305,experiment,156,↑,down,↓,0.9331004999694414,False,15
25K32,306,experiment,96,→,right,→,0.5649226999958046,True,15
25K32,307,experiment,180,←,left,←,0.454157900006976,True,15
25K32,308,experiment,36,↓,up,↑,0.5427049999707378,False,15
25K32,309,experiment,60,↓,right,→,1.339766499993857,False,15
25K32,310,experiment,48,↓,down,↓,1.3237900999956764,True,15
25K32,311,experiment,48,↑,up,↑,0.5690149000147358,True,15
25K32,312,experiment,120,←,right,→,0.9436989999958314,False,15
25K32,313,experiment,36,↑,up,↑,0.5214256999897771,True,15
25K32,314,experiment,168,↑,right,→,0.7018700999906287,False,15
25K32,315,experiment,156,↑,up,↑,0.4737761999713257,True,15
25K32,316,experiment,72,↑,up,↑,0.5472580999485217,True,15
25K32,317,experiment,48,→,right,→,0.522913700027857,True,15
25K32,318,experiment,180,↑,up,↑,0.6686448000255041,True,15
25K32,319,experiment,180,←,right,→,0.9164887000224553,False,15
25K32,320,experiment,36,←,right,→,0.8040980999940075,False,15
25K32,321,experiment,180,↑,up,↑,0.7814007999841124,True,15
25K32,322,experiment,24,↓,down,↓,0.8080844000214711,True,15
25K32,323,experiment,168,↑,up,↑,0.5709727999637835,True,15
25K32,324,experiment,60,←,left,←,0.8116476999712177,True,15
25K32,325,experiment,12,↓,up,↑,0.7648525999975391,False,15
25K32,326,experiment,156,→,right,→,0.5957862999639474,True,15
25K32,327,experiment,144,↑,up,↑,0.5097777000046335,True,15
25K32,328,experiment,96,↓,down,↓,0.814691599982325,True,15
25K32,329,experiment,120,↓,down,↓,0.8348003000137396,True,15
25K32,330,experiment,96,→,right,→,0.791520299972035,True,15
25K32,331,experiment,84,↑,up,↑,0.44631970004411414,True,15
25K32,332,experiment,12,←,left,←,1.350969500024803,True,15
25K32,333,experiment,108,←,right,→,0.5917000000481494,False,15
25K32,334,experiment,36,←,right,→,0.6235730999615043,False,15
25K32,335,experiment,120,↓,down,↓,0.8294294000370428,True,15
25K32,336,experiment,60,→,right,→,1.2198143000132404,True,15
25K32,337,experiment,60,←,right,→,0.6797213000245392,False,15
25K32,338,experiment,132,→,right,→,0.6458013000083156,True,15
25K32,339,experiment,132,←,left,←,0.7083885000320151,True,15
25K32,340,experiment,132,←,no_key,no_letter,-1.0,False,15
25K32,341,experiment,168,↑,right,→,0.710733000014443,False,15
25K32,342,experiment,84,←,left,←,0.46403339999960735,True,15
25K32,343,experiment,12,↓,down,↓,0.7643219999736175,True,15
25K32,344,experiment,108,↑,down,↓,0.8040371999959461,False,15
25K32,345,experiment,72,←,down,↓,0.7655164999887347,False,15
25K32,346,training,156,→,right,→,0.5111265000305139,True,15
25K32,347,training,132,↓,down,↓,0.9002840999746695,True,15
25K32,348,training,168,→,right,→,0.9563746000058018,True,15
25K32,349,experiment,96,↓,right,→,0.636852599971462,False,15
25K32,350,experiment,168,←,left,←,0.9650758999632671,True,15
25K32,351,experiment,108,↓,up,↑,1.0350430999533273,False,15
25K32,352,experiment,84,↑,right,→,0.6326962999883108,False,15
25K32,353,experiment,96,→,right,→,0.598205299989786,True,15
25K32,354,experiment,168,↑,left,←,0.8522905999561772,False,15
25K32,355,experiment,36,→,left,←,1.0159970999811776,False,15
25K32,356,experiment,156,←,left,←,0.7475439999834634,True,15
25K32,357,experiment,144,→,left,←,0.6946222999831662,False,15
25K32,358,experiment,156,↓,down,↓,0.9408437999663875,True,15
25K32,359,experiment,96,←,left,←,0.45870330004254356,True,15
25K32,360,experiment,168,↑,up,↑,0.6754698000149801,True,15
25K32,361,experiment,48,↑,up,↑,0.6286419000243768,True,15
25K32,362,experiment,24,↑,up,↑,1.2063720999867655,True,15
25K32,363,experiment,36,←,down,↓,1.1077111000195146,False,15
25K32,364,experiment,108,→,right,→,0.6860894000274129,True,15
25K32,365,experiment,120,←,left,←,0.4953022999688983,True,15
25K32,366,experiment,84,→,right,→,0.5193051000242122,True,15
25K32,367,experiment,12,↓,down,↓,0.8176989000057802,True,15
25K32,368,experiment,84,←,right,→,0.5873210999998264,False,15
25K32,369,experiment,48,↓,down,↓,0.7269420999800786,True,15
25K32,370,experiment,96,→,right,→,0.5205489000072703,True,15
25K32,371,experiment,132,↑,right,→,0.5380973000428639,False,15
25K32,372,experiment,180,←,left,←,0.7661012000171468,True,15
25K32,373,experiment,36,→,right,→,0.4896994999726303,True,15
25K32,374,experiment,120,←,left,←,0.5278690999839455,True,15
25K32,375,experiment,72,↓,down,↓,0.7851823000237346,True,15
25K32,376,experiment,72,←,left,←,0.5820860000094399,True,15
25K32,377,experiment,120,←,left,←,0.7886556999874301,True,15
25K32,378,experiment,156,↓,down,↓,0.9565654000034556,True,15
25K32,379,experiment,132,→,down,↓,0.8798981999862008,False,15
25K32,380,experiment,24,←,right,→,0.9011950999847613,False,15
25K32,381,experiment,144,↓,right,→,1.8374958999920636,False,15
25K32,382,experiment,60,←,left,←,0.6304630000377074,True,15
25K32,383,experiment,12,↑,left,←,0.9277905999915674,False,15
25K32,384,experiment,60,←,left,←,0.9361767999944277,True,15
25K32,385,experiment,60,←,right,→,1.4667863000067882,False,15
25K32,386,experiment,120,←,left,←,0.6737662000232376,True,15
25K32,387,experiment,132,←,left,←,0.7170248999609612,True,15
25K32,388,experiment,72,→,left,←,0.7015928000328131,False,15
25K32,389,experiment,168,↑,up,↑,0.7168628000072204,True,15
25K32,390,experiment,24,↑,up,↑,0.4392459999653511,True,15
25K32,391,experiment,108,→,right,→,0.5129388999775983,True,15
25K32,392,experiment,12,←,left,←,0.5164877999923192,True,15
25K32,393,experiment,84,→,right,→,0.4702036999515258,True,15
25K32,394,experiment,24,↑,up,↑,0.6162481000064872,True,15
25K32,395,experiment,180,↓,up,↑,0.7276257000048645,False,15
25K32,396,experiment,72,↓,down,↓,0.565252700005658,True,15
25K32,397,experiment,180,→,right,→,0.7193516999832354,True,15
25K32,398,experiment,108,→,right,→,0.4417589000076987,True,15
25K32,399,experiment,180,↑,up,↑,0.5412660000147298,True,15
25K32,400,experiment,144,←,left,←,0.6279004999669269,True,15
25K32,401,experiment,156,→,right,→,0.565952000033576,True,15
25K32,402,experiment,48,↓,down,↓,0.6547903000027873,True,15
25K32,403,experiment,12,↓,down,↓,0.792332399985753,True,15
25K32,404,experiment,48,↑,up,↑,0.8009919000323862,True,15
25K32,405,experiment,132,←,right,→,0.788640899991151,False,15
25K32,406,experiment,60,←,right,→,0.6382830000366084,False,15
25K32,407,experiment,144,↑,down,↓,0.8980855999980122,False,15
25K32,408,experiment,36,→,right,→,0.6710837000282481,True,15
25K32,409,training,60,↓,left,←,1.0360175000387244,False,15
25K32,410,training,48,←,left,←,0.432304700021632,True,15
25K32,411,training,168,↓,up,↑,1.0637690000003204,False,15
25K32,412,experiment,108,←,right,→,0.5543726999894716,False,15
25K32,413,experiment,132,→,right,→,0.5446696000290103,True,15
25K32,414,experiment,12,↑,left,←,1.2668835999793373,False,15
25K32,415,experiment,168,↑,right,→,0.7585957999690436,False,15
25K32,416,experiment,36,↓,down,↓,0.8133481999975629,True,15
25K32,417,experiment,12,→,right,→,1.0949479000410065,True,15
25K32,418,experiment,168,→,left,←,0.8045392999774776,False,15
25K32,419,experiment,180,↑,left,←,0.7858774000196718,False,15
25K32,420,experiment,120,→,right,→,0.6110597999650054,True,15
25K32,421,experiment,144,↑,up,↑,0.9846031999913976,True,15
25K32,422,experiment,180,→,right,→,0.7529987000161782,True,15
25K32,423,experiment,84,→,right,→,0.6885482000070624,True,15
25K32,424,experiment,168,←,right,→,0.6103902999893762,False,15
25K32,425,experiment,180,↓,up,↑,1.0619351000059396,False,15
25K32,426,experiment,60,↓,down,↓,0.7218722000252455,True,15
25K32,427,experiment,132,→,right,→,0.5213705999776721,True,15
25K32,428,experiment,120,←,left,←,0.6280545999761671,True,15
25K32,429,experiment,96,↓,down,↓,1.2347009000368416,True,15
25K32,430,experiment,48,↑,down,↓,0.8711736000259407,False,15
25K32,431,experiment,36,→,up,↑,0.9194114999845624,False,15
25K32,432,experiment,12,←,left,←,0.5596175999962725,True,15
25K32,433,experiment,48,←,right,→,0.8361618000199087,False,15
25K32,434,experiment,60,←,right,→,0.7736065000062808,False,15
25K32,435,experiment,72,←,left,←,0.5790381000260822,True,15
25K32,436,experiment,84,←,left,←,0.6231841000262648,True,15
25K32,437,experiment,84,←,right,→,0.5424141999683343,False,15
25K32,438,experiment,12,↑,up,↑,1.1293021999881603,True,15
25K32,439,experiment,156,↑,left,←,0.6660738000064157,False,15
25K32,440,experiment,156,→,right,→,0.5185147000011057,True,15
25K32,441,experiment,120,→,right,→,0.6120427999994718,True,15
25K32,442,experiment,180,↑,down,↓,0.9738891999586485,False,15
25K32,443,experiment,132,↑,right,→,0.5607922999770381,False,15
25K32,444,experiment,132,←,left,←,0.6185619999887422,True,15
25K32,445,experiment,72,↓,down,↓,0.8172994000487961,True,15
25K32,446,experiment,108,↑,down,↓,0.8016755999997258,False,15
25K32,447,experiment,144,↓,down,↓,0.7260722999926656,True,15
25K32,448,experiment,84,↑,down,↓,0.5484293000190519,False,15
25K32,449,experiment,144,→,left,←,0.8155533000244759,False,15
25K32,450,experiment,120,→,left,←,0.6462358999997377,False,15
25K32,451,experiment,60,→,left,←,0.7954780999571085,False,15
25K32,452,experiment,108,↑,right,→,0.7344256000360474,False,15
25K32,453,experiment,48,→,right,→,0.6251682000001892,True,15
25K32,454,experiment,156,↓,down,↓,0.79177820001496,True,15
25K32,455,experiment,168,↓,down,↓,1.221486399997957,True,15
25K32,456,experiment,72,←,left,←,0.5186385000124574,True,15
25K32,457,experiment,96,↓,down,↓,1.3951709000393748,True,15
25K32,458,experiment,108,↑,right,→,0.9732034000335261,False,15
25K32,459,experiment,72,←,up,↑,1.2320889999973588,False,15
25K32,460,experiment,96,←,down,↓,1.0662503999774344,False,15
25K32,461,experiment,24,←,right,→,0.6513127000071108,False,15
25K32,462,experiment,96,←,left,←,0.5410773999756202,True,15
25K32,463,experiment,144,←,left,←,0.6281301999697462,True,15
25K32,464,experiment,36,↑,left,←,0.9964283999870531,False,15
25K32,465,experiment,48,←,left,←,0.4667116000200622,True,15
25K32,466,experiment,24,↓,down,↓,0.7170645999722183,True,15
25K32,467,experiment,24,↑,left,←,1.4169678000034764,False,15
25K32,468,experiment,24,↑,up,↑,0.5422250000410713,True,15
25K32,469,experiment,60,←,left,←,0.6722693999763578,True,15
25K32,470,experiment,36,↓,down,↓,0.558573099959176,True,15
25K32,471,experiment,156,↑,left,←,0.8432638999656774,False,15
25K32,472,training,180,→,right,→,0.7174737000023015,True,16
25K32,473,training,60,↓,right,→,0.5069154999800958,False,16
25K32,474,training,108,←,left,←,0.6148787999991328,True,16
25K32,475,experiment,132,↑,down,↓,0.9670752999954857,False,16
25K32,476,experiment,144,↑,up,↑,0.5398944000480697,True,16
25K32,477,experiment,120,←,left,←,0.5499710000003688,True,16
25K32,478,experiment,48,←,right,→,1.035700500011444,False,16
25K32,479,experiment,132,→,right,→,0.510763099999167,True,16
25K32,480,experiment,12,↑,right,→,0.8748794000130147,False,16
25K32,481,experiment,48,↓,down,↓,0.659809100034181,True,16
25K32,482,experiment,60,↓,down,↓,0.7552376000094227,True,16
25K32,483,experiment,156,→,left,←,0.5530318000237457,False,16
25K32,484,experiment,180,→,left,←,0.6082117999903858,False,16
25K32,485,experiment,120,←,no_key,no_letter,-1.0,False,16
25K32,486,experiment,12,→,left,←,0.48877679998986423,False,16
25K32,487,experiment,168,←,left,←,0.5249179999809712,True,16
25K32,488,experiment,24,→,right,→,0.5545671000145376,True,16
25K32,489,experiment,180,←,left,←,0.6017491999664344,True,16
25K32,490,experiment,24,↑,left,←,0.9159922999679111,False,16
25K32,491,experiment,36,←,right,→,0.7262680999701843,False,16
25K32,492,experiment,156,→,right,→,0.6404872999992222,True,16
25K32,493,experiment,60,↑,down,↓,0.9383670000243001,False,16
25K32,494,experiment,96,←,left,←,0.5688319000182673,True,16
25K32,495,experiment,36,→,right,→,0.6512986000161618,True,16
25K32,496,experiment,12,→,right,→,1.1742947999737225,True,16
25K32,497,experiment,168,←,left,←,1.2797272999887355,True,16
25K32,498,experiment,72,↑,up,↑,1.0703795999870636,True,16
25K32,499,experiment,168,↑,up,↑,0.5522419000044465,True,16
25K32,500,experiment,48,←,left,←,0.9844694000203162,True,16
25K32,501,experiment,72,↑,no_key,no_letter,-1.0,False,16
25K32,502,experiment,36,→,right,→,0.5633350000134669,True,16
25K32,503,experiment,168,↓,up,↑,0.7084767000051215,False,16
25K32,504,experiment,36,↑,up,↑,0.4360467999940738,True,16
25K32,505,experiment,120,←,right,→,0.6969318999908864,False,16
25K32,506,experiment,144,↑,up,↑,0.7518999999738298,True,16
25K32,507,experiment,108,↑,right,→,0.4962340000201948,False,16
25K32,508,experiment,132,↑,up,↑,0.4869736999971792,True,16
25K32,509,experiment,120,←,left,←,0.5780087999883108,True,16
25K32,510,experiment,72,↑,up,↑,0.5425424000131898,True,16
25K32,511,experiment,96,↓,down,↓,0.7881403000210412,True,16
25K32,512,experiment,144,↑,up,↑,0.8257838999852538,True,16
25K32,513,experiment,180,↓,down,↓,1.384848499961663,True,16
25K32,514,experiment,180,↑,up,↑,0.5253575000097044,True,16
25K32,515,experiment,108,←,right,→,0.7031499999575317,False,16
25K32,516,experiment,60,↓,down,↓,0.7604266999987885,True,16
25K32,517,experiment,108,←,left,←,0.4831745999981649,True,16
25K32,518,experiment,12,↓,down,↓,0.7224671999574639,True,16
25K32,519,experiment,84,↓,down,↓,0.8595129999448545,True,16
25K32,520,experiment,96,→,right,→,0.571586899983231,True,16
25K32,521,experiment,108,→,right,→,0.5267713000066578,True,16
25K32,522,experiment,60,←,left,←,0.45921440003439784,True,16
25K32,523,experiment,84,↓,down,↓,0.8409414999769069,True,16
25K32,524,experiment,84,←,left,←,0.6218489999882877,True,16
25K32,525,experiment,84,↑,up,↑,0.6596389000187628,True,16
25K32,526,experiment,24,→,no_key,no_letter,-1.0,False,16
25K32,527,experiment,48,↓,down,↓,0.9072607000125572,True,16
25K32,528,experiment,144,←,right,→,0.6245283000171185,False,16
25K32,529,experiment,132,→,right,→,0.5755128000164405,True,16
25K32,530,experiment,96,↑,up,↑,0.8500867999973707,True,16
25K32,531,experiment,156,→,left,←,0.5568488999851979,False,16
25K32,532,experiment,24,↓,down,↓,0.8698267999570817,True,16
25K32,533,experiment,156,↑,down,↓,0.9212568000075407,False,16
25K32,534,experiment,72,↓,down,↓,0.8654670999967493,True,16
25K32,535,training,120,↑,up,↑,1.0101137000019662,True,16
25K32,536,training,168,←,left,←,0.4960166999953799,True,16
25K32,537,training,24,↓,right,→,0.5531120999949053,False,16
25K32,538,experiment,144,←,right,→,0.4961928999982774,False,16
25K32,539,experiment,24,↑,up,↑,0.5706153000355698,True,16
25K32,540,experiment,132,←,right,→,0.778826099995058,False,16
25K32,541,experiment,168,←,right,→,0.542730399989523,False,16
25K32,542,experiment,48,←,no_key,no_letter,-1.0,False,16
25K32,543,experiment,180,←,left,←,0.4402090000221506,True,16
25K32,544,experiment,84,→,left,←,0.524697000044398,False,16
25K32,545,experiment,132,↑,down,↓,0.9905998000176623,False,16
25K32,546,experiment,36,←,left,←,0.5096953000174835,True,16
25K32,547,experiment,144,→,right,→,0.5365463999914937,True,16
25K32,548,experiment,180,←,left,←,0.6946773999952711,True,16
25K32,549,experiment,120,←,left,←,0.4715337000088766,True,16
25K32,550,experiment,180,←,right,→,0.48623290000250563,False,16
25K32,551,experiment,84,↓,down,↓,1.2051975000067614,True,16
25K32,552,experiment,108,↓,down,↓,0.7774717999855056,True,16
25K32,553,experiment,72,→,right,→,0.5990347000188194,True,16
25K32,554,experiment,12,→,right,→,0.5707072999794036,True,16
25K32,555,experiment,12,↑,down,↓,1.2767922999919392,False,16
25K32,556,experiment,48,→,right,→,0.6191312000155449,True,16
25K32,557,experiment,168,→,down,↓,1.0625879000290297,False,16
25K32,558,experiment,24,→,right,→,0.8096446999697946,True,16
25K32,559,experiment,144,↓,left,←,0.9161552999867126,False,16
25K32,560,experiment,96,←,left,←,0.6926205999916419,True,16
25K32,561,experiment,12,→,right,→,0.8295104999560863,True,16
25K32,562,experiment,96,←,left,←,0.6577241999912076,True,16
25K32,563,experiment,156,→,right,→,0.7918608999461867,True,16
25K32,564,experiment,84,→,right,→,0.5904621000518091,True,16
25K32,565,experiment,96,←,left,←,1.0459313000319526,True,16
25K32,566,experiment,36,←,right,→,0.9350575999706052,False,16
25K32,567,experiment,132,↓,right,→,0.853116299957037,False,16
25K32,568,experiment,108,→,right,→,0.7440031000296585,True,16
25K32,569,experiment,120,↑,down,↓,1.5168759999796748,False,16
25K32,570,experiment,144,←,right,→,1.6268680000212044,False,16
25K32,571,experiment,60,←,left,←,0.8714707000181079,True,16
25K32,572,experiment,120,←,left,←,0.6467550999950618,True,16
25K32,573,experiment,96,↑,up,↑,0.5743807000108063,True,16
25K32,574,experiment,24,↓,down,↓,0.8645992000238039,True,16
25K32,575,experiment,72,↑,up,↑,0.5715985000133514,True,16
25K32,576,experiment,156,←,left,←,0.5691161999711767,True,16
25K32,577,experiment,60,←,left,←,0.46372970001539215,True,16
25K32,578,experiment,36,↓,down,↓,0.7906187000335194,True,16
25K32,579,experiment,180,→,right,→,0.5344295999966562,True,16
25K32,580,experiment,60,↑,up,↑,0.5938706999877468,True,16
25K32,581,experiment,24,↑,no_key,no_letter,-1.0,False,16
25K32,582,experiment,60,→,right,→,0.5418855999596417,True,16
25K32,583,experiment,36,→,right,→,0.775293699989561,True,16
25K32,584,experiment,168,→,right,→,0.5989425999578089,True,16
25K32,585,experiment,12,↓,right,→,0.9503840000252239,False,16
25K32,586,experiment,72,↓,down,↓,1.231503100018017,True,16
25K32,587,experiment,132,↓,down,↓,1.0068018999882042,True,16
25K32,588,experiment,156,↑,down,↓,0.8751863000215963,False,16
25K32,589,experiment,108,↓,down,↓,0.7201256999978796,True,16
25K32,590,experiment,168,←,right,→,0.595653600001242,False,16
25K32,591,experiment,48,→,right,→,0.6013240000465885,True,16
25K32,592,experiment,108,→,right,→,0.7161435000016354,True,16
25K32,593,experiment,84,↑,down,↓,0.6943202000111341,False,16
25K32,594,experiment,156,→,right,→,0.49534100003074855,True,16
25K32,595,experiment,48,↑,up,↑,0.616773399990052,True,16
25K32,596,experiment,72,←,right,→,0.4918688000179827,False,16
25K32,597,experiment,120,↑,up,↑,0.5896331000258215,True,16
25K32,598,training,156,←,right,→,0.6173200000193901,False,16
25K32,599,training,168,←,right,→,0.6115472000092268,False,16
25K32,600,training,24,←,right,→,1.0486475999932736,False,16
25K32,601,experiment,168,←,left,←,0.4472167999483645,True,16
25K32,602,experiment,72,↓,right,→,0.9013195000006817,False,16
25K32,603,experiment,24,←,right,→,1.156217200041283,False,16
25K32,604,experiment,144,→,right,→,0.822330700000748,True,16
25K32,605,experiment,144,←,left,←,0.5003645000397228,True,16
25K32,606,experiment,108,↑,right,→,0.5784421000280418,False,16
25K32,607,experiment,12,←,left,←,0.6765457000001334,True,16
25K32,608,experiment,24,↑,up,↑,1.1554052000283264,True,16
25K32,609,experiment,108,↑,right,→,0.7811371000134386,False,16
25K32,610,experiment,12,←,right,→,1.16292929998599,False,16
25K32,611,experiment,156,←,left,←,0.6153722999733873,True,16
25K32,612,experiment,156,←,left,←,0.48224639997351915,True,16
25K32,613,experiment,144,↑,no_key,no_letter,-1.0,False,16
25K32,614,experiment,12,←,left,←,0.5533319000387564,True,16
25K32,615,experiment,168,←,left,←,0.4744838000042364,True,16
25K32,616,experiment,156,←,left,←,0.46371919999364763,True,16
25K32,617,experiment,156,↓,down,↓,0.9203706000116654,True,16
25K32,618,experiment,180,→,right,→,0.5817801000084728,True,16
25K32,619,experiment,144,↓,right,→,0.7759531000046991,False,16
25K32,620,experiment,48,↑,up,↑,0.7060124000418,True,16
25K32,621,experiment,60,→,right,→,0.5734462999971583,True,16
25K32,622,experiment,96,↓,down,↓,1.0328160999924876,True,16
25K32,623,experiment,72,←,left,←,0.8087503000278957,True,16
25K32,624,experiment,24,→,right,→,0.5789006999693811,True,16
25K32,625,experiment,108,↑,up,↑,0.5770215999800712,True,16
25K32,626,experiment,180,↓,down,↓,0.7769492000225,True,16
25K32,627,experiment,120,↓,right,→,1.0592830000096,False,16
25K32,628,experiment,48,←,left,←,0.557574000034947,True,16
25K32,629,experiment,96,←,no_key,no_letter,-1.0,False,16
25K32,630,experiment,168,→,right,→,0.5933233000105247,True,16
25K32,631,experiment,108,→,right,→,0.554120899992995,True,16
25K32,632,experiment,180,→,right,→,0.7362252000020817,True,16
25K32,633,experiment,36,←,left,←,0.5771194000262767,True,16
25K32,634,experiment,132,←,right,→,0.5744368000305258,False,16
25K32,635,experiment,36,↓,down,↓,0.7097725999774411,True,16
25K32,636,experiment,132,↑,down,↓,0.8031979000079446,False,16
25K32,637,experiment,60,→,right,→,0.7559285999741405,True,16
25K32,638,experiment,132,←,left,←,0.538178600021638,True,16
25K32,639,experiment,84,→,right,→,0.5270323000149801,True,16
25K32,640,experiment,24,←,left,←,0.5393293999950401,True,16
25K32,641,experiment,180,↑,left,←,0.5108061000355519,False,16
25K32,642,experiment,36,→,no_key,no_letter,-1.0,False,16
25K32,643,experiment,48,←,left,←,1.4357478000456467,True,16
25K32,644,experiment,96,←,left,←,0.5912886000005528,True,16
25K32,645,experiment,120,←,right,→,0.750701199984178,False,16
25K32,646,experiment,12,→,right,→,0.5879697999916971,True,16
25K32,647,experiment,60,→,right,→,0.5212148999562487,True,16
25K32,648,experiment,84,→,no_key,no_letter,-1.0,False,16
25K32,649,experiment,132,←,left,←,0.4555227999808267,True,16
25K32,650,experiment,60,→,right,→,0.536939200013876,True,16
25K32,651,experiment,36,↓,down,↓,0.7352310999995098,True,16
25K32,652,experiment,48,↑,down,↓,0.8425719999941066,False,16
25K32,653,experiment,168,→,right,→,0.6863877000287175,True,16
25K32,654,experiment,96,↑,down,↓,0.9027410999988206,False,16
25K32,655,experiment,72,→,right,→,0.6702856000047177,True,16
25K32,656,experiment,72,←,left,←,0.6725967000238597,True,16
25K32,657,experiment,84,↑,down,↓,0.6659920000238344,False,16
25K32,658,experiment,120,↑,up,↑,0.5813433000002988,True,16
25K32,659,experiment,120,→,right,→,0.5072113999631256,True,16
25K32,660,experiment,84,→,right,→,0.5663470000145026,True,16
25K32,661,training,156,←,left,←,0.5047229999909177,True,16
25K32,662,training,12,←,right,→,0.6374467999557965,False,16
25K32,663,training,36,→,right,→,0.4689578000106849,True,16
25K32,664,experiment,132,←,right,→,0.5818914000410587,False,16
25K32,665,experiment,132,↑,up,↑,0.6063432999653742,True,16
25K32,666,experiment,180,→,right,→,0.5756655000150204,True,16
25K32,667,experiment,156,↓,down,↓,0.8206720000016503,True,16
25K32,668,experiment,156,→,right,→,0.5316930999979377,True,16
25K32,669,experiment,120,→,right,→,0.4466431000037119,True,16
25K32,670,experiment,144,←,right,→,0.5097704000072554,False,16
25K32,671,experiment,36,↓,up,↑,0.9249319999944419,False,16
25K32,672,experiment,108,←,right,→,0.5677979000029154,False,16
25K32,673,experiment,12,←,left,←,0.49347589997341856,True,16
25K32,674,experiment,48,↓,right,→,0.5563644000212662,False,16
25K32,675,experiment,168,↑,left,←,0.9730770000023767,False,16
25K32,676,experiment,96,↑,right,→,0.5471242999774404,False,16
25K32,677,experiment,48,→,right,→,0.5512499999604188,True,16
25K32,678,experiment,180,↓,left,←,0.49509179999586195,False,16
25K32,679,experiment,48,↓,up,↑,1.2190985000343062,False,16
25K32,680,experiment,108,→,right,→,0.5118162999860942,True,16
25K32,681,experiment,144,←,right,→,0.5525164999999106,False,16
25K32,682,experiment,120,↓,down,↓,0.7486302999895997,True,16
25K32,683,experiment,60,↑,up,↑,0.4751252999994904,True,16
25K32,684,experiment,24,→,right,→,0.5718498000060208,True,16
25K32,685,experiment,168,←,left,←,0.5007936999900267,True,16
25K32,686,experiment,120,→,right,→,0.5981581999803893,True,16
25K32,687,experiment,180,↑,left,←,0.7443995999637991,False,16
25K32,688,experiment,24,↓,left,←,0.8239413999835961,False,16
25K32,689,experiment,60,↓,down,↓,0.7684652999741957,True,16
25K32,690,experiment,36,↓,down,↓,0.7807431000401266,True,16
25K32,691,experiment,24,←,left,←,0.8881614999845624,True,16
25K32,692,experiment,168,→,left,←,0.7220222000032663,False,16
25K32,693,experiment,96,↑,down,↓,0.8982010000036098,False,16
25K32,694,experiment,84,←,left,←,0.6335981999873184,True,16
25K32,695,experiment,96,↑,left,←,0.761608500033617,False,16
25K32,696,experiment,84,→,left,←,0.6270545999868773,False,16
25K32,697,experiment,72,↑,left,←,0.6235957999597304,False,16
25K32,698,experiment,144,↓,down,↓,0.780247499991674,True,16
25K32,699,experiment,36,←,right,→,0.6240961999865249,False,16
25K32,700,experiment,84,↓,down,↓,0.775610200013034,True,16
25K32,701,experiment,24,↓,down,↓,1.0575534000527114,True,16
25K32,702,experiment,132,→,right,→,0.7096043999772519,True,16
25K32,703,experiment,120,↓,down,↓,0.813060799962841,True,16
25K32,704,experiment,60,←,right,→,0.6312736000400037,False,16
25K32,705,experiment,48,↑,up,↑,0.6378643999923952,True,16
25K32,706,experiment,12,→,right,→,0.5571647999458946,True,16
25K32,707,experiment,12,→,right,→,1.116421100043226,True,16
25K32,708,experiment,132,↑,up,↑,0.7447742999647744,True,16
25K32,709,experiment,108,↑,up,↑,0.45559379999758676,True,16
25K32,710,experiment,60,→,left,←,0.882217500009574,False,16
25K32,711,experiment,72,↑,up,↑,0.49841589998686686,True,16
25K32,712,experiment,108,→,right,→,0.7681196000194177,True,16
25K32,713,experiment,144,↓,down,↓,0.7689358000061475,True,16
25K32,714,experiment,36,↓,down,↓,0.8341312000411563,True,16
25K32,715,experiment,72,↑,up,↑,0.45255799998994917,True,16
25K32,716,experiment,156,→,right,→,0.7254857000079937,True,16
25K32,717,experiment,156,→,right,→,0.6414023999823257,True,16
25K32,718,experiment,84,←,left,←,0.6268994000274688,True,16
25K32,719,experiment,168,→,left,←,0.7468400000361726,False,16
25K32,720,experiment,12,↓,down,↓,0.8204426000011154,True,16
25K32,721,experiment,180,↓,down,↓,0.8693004000233486,True,16
25K32,722,experiment,96,→,right,→,1.0363108000019565,True,16
25K32,723,experiment,72,↓,down,↓,0.8368115999619476,True,16
25K32,724,training,156,→,right,→,0.5616728999884799,True,16
25K32,725,training,36,↓,down,↓,0.6451954999938607,True,16
25K32,726,training,84,↑,no_key,no_letter,-1.0,False,16
25K32,727,experiment,108,←,right,→,0.47533789998851717,False,16
25K32,728,experiment,108,←,right,→,0.606269100040663,False,16
25K32,729,experiment,168,←,right,→,0.6015212999773212,False,16
25K32,730,experiment,12,←,right,→,0.6998508999822661,False,16
25K32,731,experiment,24,↑,up,↑,0.661865099973511,True,16
25K32,732,experiment,60,↑,up,↑,0.5774303000071086,True,16
25K32,733,experiment,180,↓,up,↑,0.9758455000119284,False,16
25K32,734,experiment,12,→,up,↑,0.9677836999762803,False,16
25K32,735,experiment,132,↑,up,↑,0.8335489999735728,True,16
25K32,736,experiment,108,←,right,→,0.5909495999803767,False,16
25K32,737,experiment,72,↑,up,↑,0.45765510003548115,True,16
25K32,738,experiment,36,↑,up,↑,0.40062339999713004,True,16
25K32,739,experiment,96,↑,up,↑,0.5769571000128053,True,16
25K32,740,experiment,48,←,right,→,0.5680679999641143,False,16
25K32,741,experiment,72,↑,up,↑,0.5393101000227034,True,16
25K32,742,experiment,120,↑,up,↑,0.4653118000132963,True,16
25K32,743,experiment,144,↑,up,↑,0.5952317999908701,True,16
25K32,744,experiment,156,↑,up,↑,0.7444619999732822,True,16
25K32,745,experiment,120,↑,up,↑,0.5931404000148177,True,16
25K32,746,experiment,72,↑,up,↑,0.4692279000300914,True,16
25K32,747,experiment,120,↑,up,↑,0.5736059999908321,True,16
25K32,748,experiment,48,←,right,→,0.5262558999820612,False,16
25K32,749,experiment,180,↑,no_key,no_letter,-1.0,False,16
25K32,750,experiment,180,↑,no_key,no_letter,-1.0,False,16
25K32,751,experiment,144,↑,up,↑,0.43636510003125295,True,16
25K32,752,experiment,132,←,left,←,0.4388133000466041,True,16
25K32,753,experiment,132,←,left,←,0.4516664000111632,True,16
25K32,754,experiment,36,←,right,→,0.555245700001251,False,16
25K32,755,experiment,36,←,right,→,0.8336949000367895,False,16
25K32,756,experiment,144,↑,right,→,0.8872528999927454,False,16
25K32,757,experiment,144,←,right,→,0.6549209000077099,False,16
25K32,758,experiment,60,↑,up,↑,0.5881631000083871,True,16
25K32,759,experiment,168,←,up,↑,0.4351174999610521,False,16
25K32,760,experiment,12,↓,down,↓,1.11507449997589,True,16
25K32,761,experiment,156,↓,right,→,0.9823158000363037,False,16
25K32,762,experiment,84,↓,right,→,0.7728674999671057,False,16
25K32,763,experiment,36,↑,up,↑,0.604021199978888,True,16
25K32,764,experiment,24,↓,down,↓,0.7783362999907695,True,16
25K32,765,experiment,60,↓,down,↓,0.8152883999864571,True,16
25K32,766,experiment,84,→,right,→,0.8046066999668255,True,16
25K32,767,experiment,24,→,right,→,0.5745297999819741,True,16
25K32,768,experiment,156,↑,right,→,0.549495899991598,False,16
25K32,769,experiment,168,←,left,←,0.5317962000262924,True,16
25K32,770,experiment,132,↑,up,↑,0.6395163999986835,True,16
25K32,771,experiment,108,→,right,→,0.6546377000049688,True,16
25K32,772,experiment,24,↑,up,↑,0.5797126999823377,True,16
25K32,773,experiment,48,→,right,→,1.195255599974189,True,16
25K32,774,experiment,96,↑,up,↑,0.5757891000248492,True,16
25K32,775,experiment,48,↓,down,↓,1.5773308999487199,True,16
25K32,776,experiment,84,←,left,←,0.9755800000275485,True,16
25K32,777,experiment,156,→,left,←,0.450006700004451,False,16
25K32,778,experiment,60,↓,down,↓,0.7412885000230744,True,16
25K32,779,experiment,180,↓,down,↓,0.7744132000370882,True,16
25K32,780,experiment,72,↓,down,↓,0.915315999998711,True,16
25K32,781,experiment,168,→,up,↑,0.6152795999660157,False,16
25K32,782,experiment,84,↓,down,↓,0.6733660000027157,True,16
25K32,783,experiment,96,←,left,←,0.6044548000209033,True,16
25K32,784,experiment,12,←,right,→,0.7953784000128508,False,16
25K32,785,experiment,96,↓,right,→,0.7401765999966301,False,16
25K32,786,experiment,120,→,left,←,0.5489180999575183,False,16
25K32,787,training,12,→,right,→,0.5832245000055991,True,16
25K32,788,training,72,→,right,→,0.49674899998353794,True,16
25K32,789,training,156,←,no_key,no_letter,-1.0,False,16
25K32,790,experiment,108,↑,right,→,0.5232243000064045,False,16
25K32,791,experiment,96,↑,up,↑,0.5508739000069909,True,16
25K32,792,experiment,180,↓,up,↑,0.7825486999936402,False,16
25K32,793,experiment,144,→,right,→,0.6811418000143021,True,16
25K32,794,experiment,84,↓,down,↓,0.9113610999775119,True,16
25K32,795,experiment,108,↓,down,↓,0.8312813999946229,True,16
25K32,796,experiment,108,→,left,←,0.6009619000251405,False,16
25K32,797,experiment,60,→,right,→,0.603139899962116,True,16
25K32,798,experiment,36,↓,down,↓,0.7855201000347733,True,16
25K32,799,experiment,156,→,left,←,0.716230399964843,False,16
25K32,800,experiment,120,→,right,→,1.127364400017541,True,16
25K32,801,experiment,156,←,left,←,0.9842480999650434,True,16
25K32,802,experiment,168,←,left,←,0.4900587999727577,True,16
25K32,803,experiment,180,↑,left,←,0.5879265000112355,False,16
25K32,804,experiment,48,↓,left,←,0.5710861000115983,False,16
25K32,805,experiment,132,→,right,→,0.5803849999792874,True,16
25K32,806,experiment,96,→,right,→,0.5676773000159301,True,16
25K32,807,experiment,180,→,right,→,0.6148957000114024,True,16
25K32,808,experiment,120,→,right,→,0.5322689000167884,True,16
25K32,809,experiment,144,←,left,←,0.5627283999929205,True,16
25K32,810,experiment,36,↓,down,↓,0.789896099944599,True,16
25K32,811,experiment,156,→,right,→,0.501743600005284,True,16
25K32,812,experiment,144,→,right,→,0.5125490999780595,True,16
25K32,813,experiment,12,←,left,←,0.5803617999772541,True,16
25K32,814,experiment,72,↓,down,↓,0.6790529999998398,True,16
25K32,815,experiment,168,←,right,→,0.7117353000212461,False,16
25K32,816,experiment,132,↓,down,↓,0.7966257000225596,True,16
25K32,817,experiment,108,←,left,←,0.4696688000112772,True,16
25K32,818,experiment,36,↓,down,↓,0.670769099961035,True,16
25K32,819,experiment,168,↑,up,↑,0.6396186000201851,True,16
25K32,820,experiment,132,→,left,←,0.7643095999956131,False,16
25K32,821,experiment,36,→,right,→,0.5411661000107415,True,16
25K32,822,experiment,132,→,right,→,0.6573381000198424,True,16
25K32,823,experiment,180,→,left,←,0.7469018999836408,False,16
25K32,824,experiment,72,↑,up,↑,0.5334112999844365,True,16
25K32,825,experiment,24,←,left,←,0.7171197999850847,True,16
25K32,826,experiment,84,←,left,←,0.671450600028038,True,16
25K32,827,experiment,144,↓,left,←,0.9497857000096701,False,16
25K32,828,experiment,96,→,right,→,0.6933050000225194,True,16
25K32,829,experiment,96,↓,down,↓,0.8313330999808386,True,16
25K32,830,experiment,84,←,left,←,0.6335542000015266,True,16
25K32,831,experiment,120,↑,up,↑,0.5627041999832727,True,16
25K32,832,experiment,72,→,right,→,0.6852359999902546,True,16
25K32,833,experiment,60,↓,down,↓,0.7304258999647573,True,16
25K32,834,experiment,24,↑,left,←,1.2211064000148326,False,16
25K32,835,experiment,48,↓,down,↓,0.7347685999702662,True,16
25K32,836,experiment,12,←,left,←,0.7782372999936342,True,16
25K32,837,experiment,48,↑,up,↑,0.5064726999844424,True,16
25K32,838,experiment,60,↑,up,↑,1.0131475000525825,True,16
25K32,839,experiment,60,↓,up,↑,0.9002053000149317,False,16
25K32,840,experiment,48,↑,no_key,no_letter,-1.0,False,16
25K32,841,experiment,84,→,right,→,0.5344528999994509,True,16
25K32,842,experiment,12,↓,no_key,no_letter,-1.0,False,16
25K32,843,experiment,120,↑,up,↑,0.6469036000198685,True,16
25K32,844,experiment,72,←,up,↑,0.706487899995409,False,16
25K32,845,experiment,156,→,right,→,0.6083526999573223,True,16
25K32,846,experiment,24,↓,down,↓,1.3623740000184625,True,16
25K32,847,experiment,12,↑,up,↑,0.5940157999866642,True,16
25K32,848,experiment,168,↓,down,↓,0.7878820999758318,True,16
25K32,849,experiment,24,↑,no_key,no_letter,-1.0,False,16
