PART_ID,Trial_no,Trial_type,PDI,Stim_letter,Key_pressed,letter_choose,Rt,Corr,Stimulus Time
27M31,1,training,10,→,no_key,no_letter,-1.0,False,30
27M31,2,training,10,←,right,→,0.3836244000121951,False,30
27M31,3,training,10,→,right,→,0.5389396999962628,True,30
27M31,4,training,10,→,left,←,0.36711600003764033,False,30
27M31,5,training,10,↓,up,↑,0.6337409999687225,False,30
27M31,6,training,10,←,left,←,0.43363439990207553,True,30
27M31,7,training,10,→,left,←,0.4338016000110656,False,30
27M31,8,training,10,←,left,←,0.6902916000690311,True,30
27M31,9,training,10,↓,down,↓,0.7176783999893814,True,30
27M31,10,training,10,←,right,→,0.43483889987692237,False,30
27M31,11,training,10,→,right,→,0.7809316997881979,True,30
27M31,12,training,10,↓,down,↓,0.5331053999252617,True,30
27M31,13,training,10,→,right,→,0.5501490999013186,True,30
27M31,14,training,10,↓,down,↓,0.6169418999925256,True,30
27M31,15,training,10,↓,down,↓,0.6668551000766456,True,30
27M31,16,training,10,↓,no_key,no_letter,-1.0,False,30
27M31,17,training,10,←,left,←,0.5000896002165973,True,30
27M31,18,training,10,↓,right,→,0.417097199941054,False,30
27M31,19,training,10,→,right,→,0.43376670009456575,True,30
27M31,20,training,10,←,left,←,0.467150199925527,True,30
27M31,21,training,10,↓,left,←,0.4171134000644088,False,18
27M31,22,training,10,↓,no_key,no_letter,-1.0,False,18
27M31,23,training,10,↓,down,↓,0.91615130007267,True,18
27M31,24,training,10,→,right,→,0.5261954998131841,True,18
27M31,25,training,10,←,down,↓,1.0926427999511361,False,18
27M31,26,training,10,↓,down,↓,1.7569868001155555,True,18
27M31,27,training,10,↑,up,↑,0.6437455997802317,True,18
27M31,28,training,10,→,right,→,0.4004347000736743,True,18
27M31,29,training,10,→,right,→,0.38379319990053773,True,18
27M31,30,training,10,↓,down,↓,0.41703859996050596,True,18
27M31,31,training,48,↓,right,→,0.7182552001904696,False,15
27M31,32,training,24,←,no_key,no_letter,-1.0,False,15
27M31,33,training,156,→,no_key,no_letter,-1.0,False,15
27M31,34,experiment,24,↓,no_key,no_letter,-1.0,False,15
27M31,35,experiment,168,→,no_key,no_letter,-1.0,False,15
27M31,36,experiment,36,↓,right,→,0.4599845998454839,False,15
27M31,37,experiment,108,↑,no_key,no_letter,-1.0,False,15
27M31,38,experiment,156,↓,right,→,0.6046523000113666,False,15
27M31,39,experiment,144,←,right,→,1.4582070000469685,False,15
27M31,40,experiment,60,→,no_key,no_letter,-1.0,False,15
27M31,41,experiment,96,↑,no_key,no_letter,-1.0,False,15
27M31,42,experiment,24,↓,down,↓,0.49211180000565946,True,15
27M31,43,experiment,108,←,left,←,0.6888955000322312,True,15
27M31,44,experiment,132,←,left,←,0.5622489999514073,True,15
27M31,45,experiment,132,→,right,→,0.6165569999720901,True,15
27M31,46,experiment,96,↓,down,↓,0.6661201999522746,True,15
27M31,47,experiment,24,←,no_key,no_letter,-1.0,False,15
27M31,48,experiment,84,→,left,←,0.7223229000810534,False,15
27M31,49,experiment,36,↓,no_key,no_letter,-1.0,False,15
27M31,50,experiment,84,→,no_key,no_letter,-1.0,False,15
27M31,51,experiment,36,→,no_key,no_letter,-1.0,False,15
27M31,52,experiment,156,→,right,→,0.5891893000807613,True,15
27M31,53,experiment,180,↓,no_key,no_letter,-1.0,False,15
27M31,54,experiment,156,↑,right,→,0.7583295998629183,False,15
27M31,55,experiment,168,↑,no_key,no_letter,-1.0,False,15
27M31,56,experiment,132,→,no_key,no_letter,-1.0,False,15
27M31,57,experiment,60,↓,no_key,no_letter,-1.0,False,15
27M31,58,experiment,168,↓,down,↓,0.5361817001830786,True,15
27M31,59,experiment,36,←,left,←,0.571606099838391,True,15
27M31,60,experiment,132,↓,no_key,no_letter,-1.0,False,15
27M31,61,experiment,84,↑,up,↑,0.8745741997845471,True,15
27M31,62,experiment,120,→,right,→,0.4461875001434237,True,15
27M31,63,experiment,144,←,no_key,no_letter,-1.0,False,15
27M31,64,experiment,120,→,left,←,0.47987279994413257,False,15
27M31,65,experiment,48,↓,down,↓,0.6830074000172317,True,15
27M31,66,experiment,48,→,right,→,0.6793869999237359,True,15
27M31,67,experiment,48,↑,down,↓,0.5708850000519305,False,15
27M31,68,experiment,96,↓,no_key,no_letter,-1.0,False,15
27M31,69,experiment,72,→,right,→,0.4735103000421077,True,15
27M31,70,experiment,12,↑,down,↓,0.9270098998676986,False,15
27M31,71,experiment,12,↑,up,↑,0.5671379999257624,True,15
27M31,72,experiment,12,↑,up,↑,0.6544323998969048,True,15
27M31,73,experiment,180,←,left,←,0.5139685999602079,True,15
27M31,74,experiment,48,→,left,←,0.4866975999902934,False,15
27M31,75,experiment,84,↓,up,↑,0.6332604000344872,False,15
27M31,76,experiment,156,↓,up,↑,0.5146939000114799,False,15
27M31,77,experiment,60,←,left,←,0.4991674998309463,True,15
27M31,78,experiment,120,→,left,←,0.44935180013999343,False,15
27M31,79,experiment,144,→,right,→,0.424105399986729,True,15
27M31,80,experiment,72,←,left,←,0.5308894000481814,True,15
27M31,81,experiment,60,↑,up,↑,0.6210954000707716,True,15
27M31,82,experiment,120,←,left,←,0.5795688000507653,True,15
27M31,83,experiment,168,←,no_key,no_letter,-1.0,False,15
27M31,84,experiment,24,←,left,←,0.5315056999679655,True,15
27M31,85,experiment,72,↓,up,↑,0.5090755000710487,False,15
27M31,86,experiment,108,←,left,←,0.5476314998231828,True,15
27M31,87,experiment,144,→,right,→,0.4989492001477629,True,15
27M31,88,experiment,180,→,no_key,no_letter,-1.0,False,15
27M31,89,experiment,12,→,left,←,0.4422192999627441,False,15
27M31,90,experiment,108,→,right,→,0.5182425000239164,True,15
27M31,91,experiment,180,←,up,↑,1.6671831998974085,False,15
27M31,92,experiment,72,↑,no_key,no_letter,-1.0,False,15
27M31,93,experiment,96,↓,no_key,no_letter,-1.0,False,15
27M31,94,training,144,↓,right,→,0.7208519999403507,False,16
27M31,95,training,48,↓,down,↓,0.5723237998317927,True,16
27M31,96,training,84,↓,down,↓,0.7176332001108676,True,16
27M31,97,experiment,144,→,up,↑,0.6854447000660002,False,16
27M31,98,experiment,72,↓,down,↓,0.631891000084579,True,16
27M31,99,experiment,120,→,no_key,no_letter,-1.0,False,16
27M31,100,experiment,12,↓,down,↓,0.5533711998723447,True,16
27M31,101,experiment,144,→,right,→,0.557022999972105,True,16
27M31,102,experiment,12,↑,no_key,no_letter,-1.0,False,16
27M31,103,experiment,60,↑,down,↓,0.4887499001342803,False,16
27M31,104,experiment,156,←,no_key,no_letter,-1.0,False,16
27M31,105,experiment,120,↑,up,↑,0.5902786999940872,True,16
27M31,106,experiment,156,↓,down,↓,0.8383603000547737,True,16
27M31,107,experiment,108,←,no_key,no_letter,-1.0,False,16
27M31,108,experiment,36,→,right,→,0.8739869000855833,True,16
27M31,109,experiment,168,→,right,→,0.6652681999839842,True,16
27M31,110,experiment,84,←,no_key,no_letter,-1.0,False,16
27M31,111,experiment,24,↓,down,↓,0.6553023001179099,True,16
27M31,112,experiment,108,→,right,→,0.8661984000355005,True,16
27M31,113,experiment,168,→,right,→,0.7445517000742257,True,16
27M31,114,experiment,48,→,right,→,0.472509799990803,True,16
27M31,115,experiment,36,→,right,→,0.4772562999278307,True,16
27M31,116,experiment,72,↑,up,↑,0.8362182998098433,True,16
27M31,117,experiment,48,←,right,→,0.783395400037989,False,16
27M31,118,experiment,24,↑,up,↑,0.5626946999691427,True,16
27M31,119,experiment,132,→,no_key,no_letter,-1.0,False,16
27M31,120,experiment,24,↓,down,↓,0.6831294998992234,True,16
27M31,121,experiment,60,↑,no_key,no_letter,-1.0,False,16
27M31,122,experiment,36,←,left,←,0.5566167000215501,True,16
27M31,123,experiment,120,↑,up,↑,0.7275778001639992,True,16
27M31,124,experiment,144,←,left,←,0.521598800085485,True,16
27M31,125,experiment,180,→,left,←,0.45864660013467073,False,16
27M31,126,experiment,132,→,left,←,0.5474489000625908,False,16
27M31,127,experiment,72,→,left,←,0.4817415999714285,False,16
27M31,128,experiment,156,→,left,←,0.5025478000752628,False,16
27M31,129,experiment,180,←,left,←,0.4999912998173386,True,16
27M31,130,experiment,120,↑,up,↑,0.6113706999458373,True,16
27M31,131,experiment,60,↓,down,↓,0.9117479000706226,True,16
27M31,132,experiment,156,↓,no_key,no_letter,-1.0,False,16
27M31,133,experiment,96,←,no_key,no_letter,-1.0,False,16
27M31,134,experiment,96,↑,up,↑,0.5151289999485016,True,16
27M31,135,experiment,36,→,left,←,0.48985809995792806,False,16
27M31,136,experiment,84,↑,up,↑,0.6306989998556674,True,16
27M31,137,experiment,48,←,left,←,0.5441371998749673,True,16
27M31,138,experiment,144,←,left,←,1.1742267000954598,True,16
27M31,139,experiment,132,↑,up,↑,0.47653669980354607,True,16
27M31,140,experiment,108,→,right,→,0.5021122999023646,True,16
27M31,141,experiment,60,↓,no_key,no_letter,-1.0,False,16
27M31,142,experiment,84,←,left,←,0.4772032001055777,True,16
27M31,143,experiment,168,←,no_key,no_letter,-1.0,False,16
27M31,144,experiment,168,↑,no_key,no_letter,-1.0,False,16
27M31,145,experiment,180,↓,up,↑,0.4004222000949085,False,16
27M31,146,experiment,84,→,no_key,no_letter,-1.0,False,16
27M31,147,experiment,48,←,left,←,1.7955930000171065,True,16
27M31,148,experiment,12,←,no_key,no_letter,-1.0,False,16
27M31,149,experiment,96,←,up,↑,0.6893098999280483,False,16
27M31,150,experiment,108,→,no_key,no_letter,-1.0,False,16
27M31,151,experiment,96,←,left,←,0.5766089998651296,True,16
27M31,152,experiment,132,→,left,←,0.5597258000634611,False,16
27M31,153,experiment,24,→,right,→,0.5840555001050234,True,16
27M31,154,experiment,72,↑,no_key,no_letter,-1.0,False,16
27M31,155,experiment,12,→,no_key,no_letter,-1.0,False,16
27M31,156,experiment,180,↑,no_key,no_letter,-1.0,False,16
27M31,157,training,24,↑,left,←,0.5370211999397725,False,17
27M31,158,training,72,↓,no_key,no_letter,-1.0,False,17
27M31,159,training,84,↑,up,↑,0.5651916998904198,True,17
27M31,160,experiment,108,↓,down,↓,0.7335276999510825,True,17
27M31,161,experiment,132,→,right,→,0.479510199977085,True,17
27M31,162,experiment,24,←,left,←,0.6488862000405788,True,17
27M31,163,experiment,84,←,no_key,no_letter,-1.0,False,17
27M31,164,experiment,48,←,left,←,0.538282599998638,True,17
27M31,165,experiment,84,↓,down,↓,0.5987705998122692,True,17
27M31,166,experiment,120,→,no_key,no_letter,-1.0,False,17
27M31,167,experiment,168,←,right,→,0.6149871000088751,False,17
27M31,168,experiment,72,←,left,←,0.6689424000214785,True,17
27M31,169,experiment,84,↑,up,↑,0.5205376998055726,True,17
27M31,170,experiment,12,←,left,←,0.5985737000592053,True,17
27M31,171,experiment,156,↓,down,↓,0.7861152999103069,True,17
27M31,172,experiment,48,→,right,→,0.6553253000602126,True,17
27M31,173,experiment,120,←,left,←,0.901973299914971,True,17
27M31,174,experiment,96,↓,no_key,no_letter,-1.0,False,17
27M31,175,experiment,120,←,no_key,no_letter,-1.0,False,17
27M31,176,experiment,12,→,right,→,0.5344025001395494,True,17
27M31,177,experiment,36,←,left,←,0.6308349999599159,True,17
27M31,178,experiment,96,←,left,←,0.5960373999550939,True,17
27M31,179,experiment,156,↑,no_key,no_letter,-1.0,False,17
27M31,180,experiment,180,↑,up,↑,0.6053555998951197,True,17
27M31,181,experiment,168,←,no_key,no_letter,-1.0,False,17
27M31,182,experiment,72,←,no_key,no_letter,-1.0,False,17
27M31,183,experiment,60,↑,up,↑,0.48706059996038675,True,17
27M31,184,experiment,168,→,right,→,0.5397068001329899,True,17
27M31,185,experiment,108,↑,no_key,no_letter,-1.0,False,17
27M31,186,experiment,96,←,no_key,no_letter,-1.0,False,17
27M31,187,experiment,72,↓,no_key,no_letter,-1.0,False,17
27M31,188,experiment,180,↓,down,↓,0.7565669999457896,True,17
27M31,189,experiment,12,→,no_key,no_letter,-1.0,False,17
27M31,190,experiment,144,↓,down,↓,0.5558716000523418,True,17
27M31,191,experiment,84,→,right,→,0.515679000178352,True,17
27M31,192,experiment,108,←,left,←,0.7828903999179602,True,17
27M31,193,experiment,96,←,left,←,0.941358600044623,True,17
27M31,194,experiment,156,↑,up,↑,1.5479411999695003,True,17
27M31,195,experiment,60,→,up,↑,1.3375738998875022,False,17
27M31,196,experiment,108,↑,up,↑,1.189738400047645,True,17
27M31,197,experiment,48,←,no_key,no_letter,-1.0,False,17
27M31,198,experiment,168,↓,down,↓,0.7224076997954398,True,17
27M31,199,experiment,60,←,left,←,0.7622034999076277,True,17
27M31,200,experiment,36,←,left,←,0.7052974000107497,True,17
27M31,201,experiment,132,←,no_key,no_letter,-1.0,False,17
27M31,202,experiment,36,→,no_key,no_letter,-1.0,False,17
27M31,203,experiment,12,↓,no_key,no_letter,-1.0,False,17
27M31,204,experiment,144,→,right,→,0.5219821999780834,True,17
27M31,205,experiment,120,→,right,→,0.5925219000782818,True,17
27M31,206,experiment,180,←,left,←,0.7076109000481665,True,17
27M31,207,experiment,24,↑,no_key,no_letter,-1.0,False,17
27M31,208,experiment,132,←,no_key,no_letter,-1.0,False,17
27M31,209,experiment,156,↓,down,↓,0.7120616000611335,True,17
27M31,210,experiment,180,→,right,→,0.543380199931562,True,17
27M31,211,experiment,36,→,no_key,no_letter,-1.0,False,17
27M31,212,experiment,132,→,no_key,no_letter,-1.0,False,17
27M31,213,experiment,72,←,no_key,no_letter,-1.0,False,17
27M31,214,experiment,144,↑,up,↑,0.555742199998349,True,17
27M31,215,experiment,24,↑,up,↑,0.4687864000443369,True,17
27M31,216,experiment,24,→,no_key,no_letter,-1.0,False,17
27M31,217,experiment,60,←,no_key,no_letter,-1.0,False,17
27M31,218,experiment,144,→,left,←,0.5045549999922514,False,17
27M31,219,experiment,48,←,right,→,0.8557701001409441,False,17
27M31,220,training,168,←,left,←,1.043545600026846,True,18
27M31,221,training,156,←,no_key,no_letter,-1.0,False,18
27M31,222,training,144,→,right,→,0.7454613000154495,True,18
27M31,223,experiment,168,↓,no_key,no_letter,-1.0,False,18
27M31,224,experiment,180,→,right,→,0.7438809000886977,True,18
27M31,225,experiment,156,→,right,→,0.7100863000378013,True,18
27M31,226,experiment,12,↓,down,↓,0.9454814998898655,True,18
27M31,227,experiment,72,↑,down,↓,0.78384770010598,False,18
27M31,228,experiment,84,↑,up,↑,0.6404482999350876,True,18
27M31,229,experiment,12,←,no_key,no_letter,-1.0,False,18
27M31,230,experiment,96,↑,up,↑,0.48031060001812875,True,18
27M31,231,experiment,24,↑,up,↑,0.6520221000537276,True,18
27M31,232,experiment,36,→,right,→,0.6617535999976099,True,18
27M31,233,experiment,168,↑,up,↑,0.6508479001931846,True,18
27M31,234,experiment,60,←,left,←,0.9570243998896331,True,18
27M31,235,experiment,84,↑,up,↑,0.7303323999512941,True,18
27M31,236,experiment,120,↑,up,↑,0.4868069998919964,True,18
27M31,237,experiment,132,←,left,←,0.6550809000618756,True,18
27M31,238,experiment,24,↓,down,↓,0.7023861000780016,True,18
27M31,239,experiment,12,→,right,→,0.49937420012429357,True,18
27M31,240,experiment,24,↓,up,↑,0.49038940016180277,False,18
27M31,241,experiment,156,↑,up,↑,0.6316996000241488,True,18
27M31,242,experiment,144,←,left,←,0.6081979998853058,True,18
27M31,243,experiment,48,→,right,→,0.5328183998353779,True,18
27M31,244,experiment,96,→,right,→,0.5032277998980135,True,18
27M31,245,experiment,168,↑,up,↑,0.6695884999353439,True,18
27M31,246,experiment,180,←,left,←,0.6378204999491572,True,18
27M31,247,experiment,60,←,left,←,0.5090250999201089,True,18
27M31,248,experiment,156,↓,down,↓,0.7460043001919985,True,18
27M31,249,experiment,108,→,right,→,0.5601533001754433,True,18
27M31,250,experiment,180,↑,up,↑,0.6619411001447588,True,18
27M31,251,experiment,144,↓,down,↓,0.7172431999351829,True,18
27M31,252,experiment,132,←,left,←,0.7020199000835419,True,18
27M31,253,experiment,36,←,left,←,0.5846834999974817,True,18
27M31,254,experiment,48,→,right,→,0.5332656998652965,True,18
27M31,255,experiment,36,↑,up,↑,0.5348361998330802,True,18
27M31,256,experiment,24,↑,no_key,no_letter,-1.0,False,18
27M31,257,experiment,156,↑,up,↑,0.6891820000018924,True,18
27M31,258,experiment,108,↓,no_key,no_letter,-1.0,False,18
27M31,259,experiment,108,↑,up,↑,0.4965343000367284,True,18
27M31,260,experiment,84,↑,up,↑,0.433689400088042,True,18
27M31,261,experiment,120,↑,no_key,no_letter,-1.0,False,18
27M31,262,experiment,84,↑,up,↑,0.4340880000963807,True,18
27M31,263,experiment,96,↑,up,↑,0.43374840007163584,True,18
27M31,264,experiment,72,↑,up,↑,0.3668341999873519,True,18
27M31,265,experiment,72,↓,up,↑,0.4008009999524802,False,18
27M31,266,experiment,48,↑,up,↑,0.7649997998960316,True,18
27M31,267,experiment,144,→,no_key,no_letter,-1.0,False,18
27M31,268,experiment,180,↓,up,↑,0.5399867999367416,False,18
27M31,269,experiment,132,→,right,→,0.620092400116846,True,18
27M31,270,experiment,168,↑,up,↑,0.5505043000448495,True,18
27M31,271,experiment,12,↑,up,↑,0.49905629991553724,True,18
27M31,272,experiment,48,→,right,→,0.5689256999175996,True,18
27M31,273,experiment,36,↓,down,↓,0.680473200045526,True,18
27M31,274,experiment,132,←,left,←,0.5859012000728399,True,18
27M31,275,experiment,120,←,no_key,no_letter,-1.0,False,18
27M31,276,experiment,60,↑,no_key,no_letter,-1.0,False,18
27M31,277,experiment,120,←,left,←,0.7592970998957753,True,18
27M31,278,experiment,72,↑,up,↑,0.5104189000558108,True,18
27M31,279,experiment,144,←,right,→,0.43376169982366264,False,18
27M31,280,experiment,108,↓,down,↓,0.7932800999842584,True,18
27M31,281,experiment,96,↑,up,↑,0.516226900042966,True,18
27M31,282,experiment,60,↓,down,↓,0.7170592998154461,True,18
27M31,283,training,96,←,left,←,0.5345284999348223,True,18
27M31,284,training,96,→,right,→,0.9149797998834401,True,18
27M31,285,training,12,→,left,←,0.6771651001181453,False,18
27M31,286,experiment,168,↑,up,↑,0.5811106998007745,True,18
27M31,287,experiment,132,↑,up,↑,0.6337943999096751,True,18
27M31,288,experiment,84,↑,up,↑,0.6205818001180887,True,18
27M31,289,experiment,132,←,no_key,no_letter,-1.0,False,18
27M31,290,experiment,24,↓,up,↑,0.5915181001182646,False,18
27M31,291,experiment,72,↓,up,↑,0.5269328001886606,False,18
27M31,292,experiment,96,←,left,←,0.6228395001962781,True,18
27M31,293,experiment,132,↑,up,↑,0.6812126999720931,True,18
27M31,294,experiment,168,←,left,←,0.669769300147891,True,18
27M31,295,experiment,48,↑,no_key,no_letter,-1.0,False,18
27M31,296,experiment,180,↓,no_key,no_letter,-1.0,False,18
27M31,297,experiment,24,←,left,←,0.6554326000623405,True,18
27M31,298,experiment,24,↑,up,↑,0.6402404999826103,True,18
27M31,299,experiment,12,→,right,→,0.5790407999884337,True,18
27M31,300,experiment,144,←,left,←,0.5558821000158787,True,18
27M31,301,experiment,72,←,left,←,0.48731879983097315,True,18
27M31,302,experiment,48,←,left,←,0.5124313998967409,True,18
27M31,303,experiment,12,→,right,→,0.5448597997892648,True,18
27M31,304,experiment,48,→,no_key,no_letter,-1.0,False,18
27M31,305,experiment,96,↓,no_key,no_letter,-1.0,False,18
27M31,306,experiment,96,←,left,←,0.6617704001255333,True,18
27M31,307,experiment,60,↓,up,↑,0.5224744998849928,False,18
27M31,308,experiment,144,←,left,←,0.5783216001000255,True,18
27M31,309,experiment,36,↑,up,↑,0.6330770999193192,True,18
27M31,310,experiment,108,→,right,→,0.49229790014214814,True,18
27M31,311,experiment,168,←,left,←,0.5084268001373857,True,18
27M31,312,experiment,84,↓,down,↓,0.575128500116989,True,18
27M31,313,experiment,24,↓,no_key,no_letter,-1.0,False,18
27M31,314,experiment,72,→,no_key,no_letter,-1.0,False,18
27M31,315,experiment,36,←,left,←,0.6441188000608236,True,18
27M31,316,experiment,84,↑,up,↑,0.40055040013976395,True,18
27M31,317,experiment,156,↑,no_key,no_letter,-1.0,False,18
27M31,318,experiment,12,↑,no_key,no_letter,-1.0,False,18
27M31,319,experiment,120,↑,up,↑,0.3837648001499474,True,18
27M31,320,experiment,60,→,right,→,0.5739974998869002,True,18
27M31,321,experiment,156,↑,no_key,no_letter,-1.0,False,18
27M31,322,experiment,180,↓,down,↓,0.7924937000498176,True,18
27M31,323,experiment,120,←,no_key,no_letter,-1.0,False,18
27M31,324,experiment,180,→,right,→,0.5299760999623686,True,18
27M31,325,experiment,60,←,no_key,no_letter,-1.0,False,18
27M31,326,experiment,108,↓,down,↓,0.6428384999744594,True,18
27M31,327,experiment,120,↓,no_key,no_letter,-1.0,False,18
27M31,328,experiment,12,←,no_key,no_letter,-1.0,False,18
27M31,329,experiment,120,↑,no_key,no_letter,-1.0,False,18
27M31,330,experiment,36,←,left,←,0.5555986000690609,True,18
27M31,331,experiment,48,←,no_key,no_letter,-1.0,False,18
27M31,332,experiment,60,←,no_key,no_letter,-1.0,False,18
27M31,333,experiment,72,↑,no_key,no_letter,-1.0,False,18
27M31,334,experiment,156,→,right,→,0.6315790000371635,True,18
27M31,335,experiment,180,↓,no_key,no_letter,-1.0,False,18
27M31,336,experiment,144,→,no_key,no_letter,-1.0,False,18
27M31,337,experiment,108,→,right,→,0.6698718999978155,True,18
27M31,338,experiment,84,←,left,←,0.5647000998724252,True,18
27M31,339,experiment,132,↑,up,↑,0.5984613001346588,True,18
27M31,340,experiment,96,←,no_key,no_letter,-1.0,False,18
27M31,341,experiment,144,↓,down,↓,0.7618633999954909,True,18
27M31,342,experiment,108,←,right,→,0.8833665999118239,False,18
27M31,343,experiment,156,→,left,←,0.5009975000284612,False,18
27M31,344,experiment,36,→,right,→,0.529376900056377,True,18
27M31,345,experiment,168,→,right,→,0.9402886999305338,True,18
27M31,346,training,156,←,right,→,0.5761085001286119,False,18
27M31,347,training,132,←,right,→,0.4874633001163602,False,18
27M31,348,training,180,→,up,↑,1.3448421999346465,False,18
27M31,349,experiment,168,↓,down,↓,0.6993585999589413,True,18
27M31,350,experiment,144,→,right,→,0.47591299982741475,True,18
27M31,351,experiment,180,←,left,←,0.5503283001016825,True,18
27M31,352,experiment,84,↓,down,↓,0.5403211999218911,True,18
27M31,353,experiment,12,←,left,←,0.5556701000314206,True,18
27M31,354,experiment,132,↓,down,↓,0.5422080000862479,True,18
27M31,355,experiment,72,→,no_key,no_letter,-1.0,False,18
27M31,356,experiment,60,↑,up,↑,0.6698706999886781,True,18
27M31,357,experiment,36,→,no_key,no_letter,-1.0,False,18
27M31,358,experiment,120,→,no_key,no_letter,-1.0,False,18
27M31,359,experiment,72,→,right,→,0.5169081001076847,True,18
27M31,360,experiment,12,↑,up,↑,0.592212500050664,True,18
27M31,361,experiment,24,↓,down,↓,0.6043256998527795,True,18
27M31,362,experiment,36,↓,down,↓,0.7573224001098424,True,18
27M31,363,experiment,156,←,right,→,0.4335771999321878,False,18
27M31,364,experiment,36,→,right,→,0.5437297997996211,True,18
27M31,365,experiment,144,→,no_key,no_letter,-1.0,False,18
27M31,366,experiment,48,→,no_key,no_letter,-1.0,False,18
27M31,367,experiment,156,↓,up,↑,0.48834930011071265,False,18
27M31,368,experiment,120,↓,no_key,no_letter,-1.0,False,18
27M31,369,experiment,24,←,no_key,no_letter,-1.0,False,18
27M31,370,experiment,168,→,right,→,0.5840441999025643,True,18
27M31,371,experiment,132,↑,down,↓,0.7415640999097377,False,18
27M31,372,experiment,72,↓,no_key,no_letter,-1.0,False,18
27M31,373,experiment,60,→,right,→,0.6125032999552786,True,18
27M31,374,experiment,24,↑,no_key,no_letter,-1.0,False,18
27M31,375,experiment,84,←,right,→,0.4937474001199007,False,18
27M31,376,experiment,132,↓,down,↓,0.6114101000130177,True,18
27M31,377,experiment,96,←,right,→,0.8773356000892818,False,18
27M31,378,experiment,180,←,no_key,no_letter,-1.0,False,18
27M31,379,experiment,168,↑,up,↑,0.6765635998453945,True,18
27M31,380,experiment,108,↓,down,↓,0.7135038999840617,True,18
27M31,381,experiment,96,←,left,←,0.5550931000616401,True,18
27M31,382,experiment,24,←,left,←,0.5074907999951392,True,18
27M31,383,experiment,120,→,right,→,0.5126080999616534,True,18
27M31,384,experiment,144,→,right,→,0.5505459001287818,True,18
27M31,385,experiment,60,←,left,←,0.6868399998638779,True,18
27M31,386,experiment,48,→,right,→,0.5126879999879748,True,18
27M31,387,experiment,12,←,left,←,0.6253847999032587,True,18
27M31,388,experiment,48,←,left,←,0.5032663000747561,True,18
27M31,389,experiment,120,↑,up,↑,0.6100023000035435,True,18
27M31,390,experiment,108,↓,up,↑,0.6580143000464886,False,18
27M31,391,experiment,156,→,right,→,0.6467560001183301,True,18
27M31,392,experiment,12,←,left,←,0.6095229999627918,True,18
27M31,393,experiment,156,↓,up,↑,0.5279116001911461,False,18
27M31,394,experiment,168,↑,up,↑,0.5132031000684947,True,18
27M31,395,experiment,48,←,left,←,0.952581400051713,True,18
27M31,396,experiment,132,↑,up,↑,0.4684170000255108,True,18
27M31,397,experiment,84,↓,down,↓,0.8546474000904709,True,18
27M31,398,experiment,60,→,right,→,0.5031867001671344,True,18
27M31,399,experiment,180,→,no_key,no_letter,-1.0,False,18
27M31,400,experiment,36,↓,up,↑,0.576625500107184,False,18
27M31,401,experiment,72,↑,up,↑,0.7347801998257637,True,18
27M31,402,experiment,108,↓,down,↓,0.5141827000770718,True,18
27M31,403,experiment,144,←,left,←,0.7562641000840813,True,18
27M31,404,experiment,96,→,right,→,0.71285460004583,True,18
27M31,405,experiment,96,↓,down,↓,0.7377554001286626,True,18
27M31,406,experiment,108,←,no_key,no_letter,-1.0,False,18
27M31,407,experiment,180,↓,down,↓,0.637176200048998,True,18
27M31,408,experiment,84,→,no_key,no_letter,-1.0,False,18
27M31,409,training,60,←,right,→,0.8207084001041949,False,18
27M31,410,training,72,↑,up,↑,0.5672518000937998,True,18
27M31,411,training,180,→,right,→,0.6623843000270426,True,18
27M31,412,experiment,120,↓,down,↓,0.7420697999186814,True,18
27M31,413,experiment,120,←,left,←,0.6599622000940144,True,18
27M31,414,experiment,144,↑,up,↑,0.4813230000436306,True,18
27M31,415,experiment,36,↑,no_key,no_letter,-1.0,False,18
27M31,416,experiment,48,↓,down,↓,0.8312736002262682,True,18
27M31,417,experiment,168,↓,down,↓,0.642326699802652,True,18
27M31,418,experiment,120,↓,down,↓,0.6297724999021739,True,18
27M31,419,experiment,24,↑,up,↑,0.6272795998957008,True,18
27M31,420,experiment,60,↓,down,↓,0.6642980999313295,True,18
27M31,421,experiment,12,↑,up,↑,0.8488215999677777,True,18
27M31,422,experiment,156,←,left,←,1.0060215999837965,True,18
27M31,423,experiment,72,↓,down,↓,0.6962398001924157,True,18
27M31,424,experiment,36,↑,up,↑,0.5804709000512958,True,18
27M31,425,experiment,72,→,right,→,0.7182327997870743,True,18
27M31,426,experiment,48,→,right,→,0.617106799967587,True,18
27M31,427,experiment,132,←,left,←,0.6522831001784652,True,18
27M31,428,experiment,168,↓,down,↓,0.6676140001509339,True,18
27M31,429,experiment,180,↓,down,↓,0.6461730999872088,True,18
27M31,430,experiment,84,←,left,←,0.589141600066796,True,18
27M31,431,experiment,12,↓,down,↓,0.7024666999932379,True,18
27M31,432,experiment,60,↑,up,↑,0.7641037998255342,True,18
27M31,433,experiment,24,↑,up,↑,0.6023576001171023,True,18
27M31,434,experiment,60,←,left,←,0.5170042000245303,True,18
27M31,435,experiment,108,→,right,→,0.5681092999875546,True,18
27M31,436,experiment,12,→,no_key,no_letter,-1.0,False,18
27M31,437,experiment,168,→,right,→,0.6273061998654157,True,18
27M31,438,experiment,108,←,no_key,no_letter,-1.0,False,18
27M31,439,experiment,108,←,left,←,0.5985585998278111,True,18
27M31,440,experiment,96,↓,no_key,no_letter,-1.0,False,18
27M31,441,experiment,24,→,right,→,0.6666530000511557,True,18
27M31,442,experiment,72,←,left,←,0.5800449000671506,True,18
27M31,443,experiment,144,↓,down,↓,0.6955704998690635,True,18
27M31,444,experiment,24,↓,down,↓,0.5253915002103895,True,18
27M31,445,experiment,96,→,right,→,0.5768917999230325,True,18
27M31,446,experiment,84,←,right,→,0.4682090000715107,False,18
27M31,447,experiment,132,↓,down,↓,0.607603499898687,True,18
27M31,448,experiment,180,↓,down,↓,0.5622789000626653,True,18
27M31,449,experiment,120,←,left,←,0.7183594000525773,True,18
27M31,450,experiment,156,↑,no_key,no_letter,-1.0,False,18
27M31,451,experiment,96,↑,up,↑,0.8357130999211222,True,18
27M31,452,experiment,84,↑,up,↑,1.0131880999542773,True,18
27M31,453,experiment,60,→,right,→,0.5571857001632452,True,18
27M31,454,experiment,48,←,left,←,0.5941124998498708,True,18
27M31,455,experiment,132,←,left,←,0.43381859990768135,True,18
27M31,456,experiment,48,↑,up,↑,0.551493400009349,True,18
27M31,457,experiment,96,→,right,→,0.5342882999684662,True,18
27M31,458,experiment,72,←,right,→,0.7171570002101362,False,18
27M31,459,experiment,84,↓,down,↓,0.7660477999597788,True,18
27M31,460,experiment,156,↑,up,↑,0.5235867002047598,True,18
27M31,461,experiment,168,→,right,→,0.6092053998727351,True,18
27M31,462,experiment,156,↑,up,↑,0.41725660022348166,True,18
27M31,463,experiment,12,↑,no_key,no_letter,-1.0,False,18
27M31,464,experiment,132,↓,right,→,0.5104723998811096,False,18
27M31,465,experiment,108,←,right,→,0.5311125000007451,False,18
27M31,466,experiment,144,↑,up,↑,0.47423739987425506,True,18
27M31,467,experiment,36,←,left,←,0.6013315999880433,True,18
27M31,468,experiment,36,←,left,←,0.8036879000719637,True,18
27M31,469,experiment,144,←,left,←,0.6092230000067502,True,18
27M31,470,experiment,180,↑,up,↑,0.6075455998070538,True,18
27M31,471,experiment,180,→,right,→,0.5331669000443071,True,18
27M31,472,training,72,→,right,→,0.6252252000849694,True,18
27M31,473,training,132,←,no_key,no_letter,-1.0,False,18
27M31,474,training,120,↓,up,↑,0.49984170007519424,False,18
27M31,475,experiment,144,→,right,→,0.5190886000636965,True,18
27M31,476,experiment,24,↓,down,↓,0.7595017000567168,True,18
27M31,477,experiment,12,←,left,←,0.7044391999952495,True,18
27M31,478,experiment,132,←,left,←,0.5828830001410097,True,18
27M31,479,experiment,132,↑,up,↑,0.542381800012663,True,18
27M31,480,experiment,12,→,right,→,0.6308804000727832,True,18
27M31,481,experiment,168,↓,down,↓,0.6637802999466658,True,18
27M31,482,experiment,120,←,left,←,0.6914844999555498,True,18
27M31,483,experiment,132,←,left,←,0.5365209998562932,True,18
27M31,484,experiment,168,↓,down,↓,0.5995463998988271,True,18
27M31,485,experiment,96,→,right,→,0.6545285999309272,True,18
27M31,486,experiment,84,→,right,→,0.5530523001216352,True,18
27M31,487,experiment,60,↑,up,↑,0.8590941000729799,True,18
27M31,488,experiment,72,←,left,←,0.6696358998306096,True,18
27M31,489,experiment,156,←,left,←,0.5362154000904411,True,18
27M31,490,experiment,36,←,left,←,0.5594371999613941,True,18
27M31,491,experiment,120,→,right,→,0.692863899981603,True,18
27M31,492,experiment,48,→,no_key,no_letter,-1.0,False,18
27M31,493,experiment,132,↓,up,↑,0.5615016999654472,False,18
27M31,494,experiment,24,→,right,→,0.5957975999917835,True,18
27M31,495,experiment,60,→,right,→,0.5885655998717993,True,18
27M31,496,experiment,96,←,left,←,0.5321329000871629,True,18
27M31,497,experiment,156,→,right,→,0.5666730999946594,True,18
27M31,498,experiment,84,↑,up,↑,0.5521315999794751,True,18
27M31,499,experiment,72,→,right,→,0.671438500052318,True,18
27M31,500,experiment,168,↓,down,↓,0.6882410999387503,True,18
27M31,501,experiment,96,→,right,→,0.5208177000749856,True,18
27M31,502,experiment,24,→,right,→,0.5122682000510395,True,18
27M31,503,experiment,84,↑,up,↑,0.5638107000850141,True,18
27M31,504,experiment,144,↓,no_key,no_letter,-1.0,False,18
27M31,505,experiment,60,←,left,←,0.7218544001225382,True,18
27M31,506,experiment,144,↓,down,↓,0.6188452001661062,True,18
27M31,507,experiment,108,↓,down,↓,0.521926699904725,True,18
27M31,508,experiment,180,↓,down,↓,0.6516315001063049,True,18
27M31,509,experiment,180,→,right,→,0.6299990001134574,True,18
27M31,510,experiment,24,↓,down,↓,0.5465913999360055,True,18
27M31,511,experiment,156,←,left,←,0.5105349000077695,True,18
27M31,512,experiment,60,↑,down,↓,0.48751310002990067,False,18
27M31,513,experiment,168,↓,down,↓,0.778520500054583,True,18
27M31,514,experiment,120,↑,up,↑,0.5167446001432836,True,18
27M31,515,experiment,36,←,left,←,0.5488396000582725,True,18
27M31,516,experiment,108,↑,up,↑,0.5637449000496417,True,18
27M31,517,experiment,48,↓,up,↑,0.9385131001472473,False,18
27M31,518,experiment,96,→,right,→,0.6307960001286119,True,18
27M31,519,experiment,48,←,left,←,0.575656000059098,True,18
27M31,520,experiment,72,↓,down,↓,0.6396416001953185,True,18
27M31,521,experiment,12,↓,no_key,no_letter,-1.0,False,18
27M31,522,experiment,108,→,no_key,no_letter,-1.0,False,18
27M31,523,experiment,48,↑,up,↑,0.7773372998926789,True,18
27M31,524,experiment,180,↓,down,↓,0.8464709999971092,True,18
27M31,525,experiment,72,↓,down,↓,0.8871557000093162,True,18
27M31,526,experiment,84,↑,no_key,no_letter,-1.0,False,18
27M31,527,experiment,36,→,right,→,0.606960300123319,True,18
27M31,528,experiment,156,↓,down,↓,0.6315031000413001,True,18
27M31,529,experiment,180,↓,down,↓,0.4764376999810338,True,18
27M31,530,experiment,36,↓,down,↓,0.5750879999250174,True,18
27M31,531,experiment,120,↑,no_key,no_letter,-1.0,False,18
27M31,532,experiment,108,↓,down,↓,0.5583579998929054,True,18
27M31,533,experiment,12,↓,down,↓,0.6169445000123233,True,18
27M31,534,experiment,144,↓,down,↓,0.505949700018391,True,18
27M31,535,training,36,↓,down,↓,0.7860135999508202,True,18
27M31,536,training,180,↑,no_key,no_letter,-1.0,False,18
27M31,537,training,84,↓,up,↑,0.43374989996664226,False,18
27M31,538,experiment,24,←,no_key,no_letter,-1.0,False,18
27M31,539,experiment,12,↓,down,↓,0.5455461000092328,True,18
27M31,540,experiment,60,→,up,↑,0.4771916999015957,False,18
27M31,541,experiment,24,→,right,→,0.5997671999502927,True,18
27M31,542,experiment,168,←,left,←,0.49157719989307225,True,18
27M31,543,experiment,72,←,left,←,0.4896670999005437,True,18
27M31,544,experiment,48,↑,up,↑,0.4890542000066489,True,18
27M31,545,experiment,84,↓,no_key,no_letter,-1.0,False,18
27M31,546,experiment,144,→,right,→,0.6460399001371115,True,18
27M31,547,experiment,108,←,left,←,0.6158839999698102,True,18
27M31,548,experiment,72,↑,no_key,no_letter,-1.0,False,18
27M31,549,experiment,168,↑,up,↑,0.6595904000569135,True,18
27M31,550,experiment,24,←,no_key,no_letter,-1.0,False,18
27M31,551,experiment,72,↑,up,↑,0.49825390009209514,True,18
27M31,552,experiment,12,→,right,→,0.6638146000914276,True,18
27M31,553,experiment,180,→,right,→,0.5547740000765771,True,18
27M31,554,experiment,48,←,left,←,0.47173139988444746,True,18
27M31,555,experiment,132,↓,up,↑,0.5756421000696719,False,18
27M31,556,experiment,60,←,right,→,0.41720540006645024,False,18
27M31,557,experiment,180,↓,up,↑,0.4003620999865234,False,18
27M31,558,experiment,132,→,right,→,0.5334257998038083,True,18
27M31,559,experiment,156,←,left,←,0.4969341999385506,True,18
27M31,560,experiment,96,↓,down,↓,0.8005931000225246,True,18
27M31,561,experiment,168,↑,up,↑,0.6405644998885691,True,18
27M31,562,experiment,96,→,right,→,0.4337117997929454,True,18
27M31,563,experiment,36,←,left,←,0.5654164999723434,True,18
27M31,564,experiment,144,↑,up,↑,0.8828963001724333,True,18
27M31,565,experiment,60,←,left,←,0.4758754998911172,True,18
27M31,566,experiment,12,→,no_key,no_letter,-1.0,False,18
27M31,567,experiment,144,←,left,←,0.6986647001467645,True,18
27M31,568,experiment,36,↓,down,↓,0.6146759998518974,True,18
27M31,569,experiment,96,↓,down,↓,0.5911347998771816,True,18
27M31,570,experiment,132,←,left,←,0.5039435001090169,True,18
27M31,571,experiment,120,→,no_key,no_letter,-1.0,False,18
27M31,572,experiment,36,↑,up,↑,0.5326699998695403,True,18
27M31,573,experiment,120,↓,down,↓,0.6247632999438792,True,18
27M31,574,experiment,120,←,right,→,0.38381229992955923,False,18
27M31,575,experiment,132,↓,down,↓,0.740755399921909,True,18
27M31,576,experiment,48,↑,up,↑,0.5585966999642551,True,18
27M31,577,experiment,84,←,left,←,0.5480611000675708,True,18
27M31,578,experiment,108,←,left,←,0.5795241999439895,True,18
27M31,579,experiment,108,←,left,←,0.5846520999912173,True,18
27M31,580,experiment,84,↑,no_key,no_letter,-1.0,False,18
27M31,581,experiment,168,↓,up,↑,0.5408769999630749,False,18
27M31,582,experiment,144,↓,no_key,no_letter,-1.0,False,18
27M31,583,experiment,72,→,right,→,0.5095142000354826,True,18
27M31,584,experiment,84,←,left,←,0.46767459996044636,True,18
27M31,585,experiment,108,↓,down,↓,1.0426544998772442,True,18
27M31,586,experiment,48,←,left,←,0.4762490000575781,True,18
27M31,587,experiment,156,→,right,→,0.48638850008137524,True,18
27M31,588,experiment,120,→,no_key,no_letter,-1.0,False,18
27M31,589,experiment,156,↓,no_key,no_letter,-1.0,False,18
27M31,590,experiment,180,←,left,←,0.3504511001519859,True,18
27M31,591,experiment,60,↓,down,↓,0.5996564000379294,True,18
27M31,592,experiment,96,←,right,→,0.47536100004799664,False,18
27M31,593,experiment,156,←,left,←,0.48314730008132756,True,18
27M31,594,experiment,180,↑,no_key,no_letter,-1.0,False,18
27M31,595,experiment,24,←,left,←,0.6494700000621378,True,18
27M31,596,experiment,12,↑,up,↑,0.5468555998522788,True,18
27M31,597,experiment,36,←,left,←,0.6493633999489248,True,18
27M31,598,training,12,↓,down,↓,1.5409709999803454,True,18
27M31,599,training,12,→,no_key,no_letter,-1.0,False,18
27M31,600,training,108,↓,down,↓,0.7423769000452012,True,18
27M31,601,experiment,84,↑,up,↑,0.6933404000010341,True,18
27M31,602,experiment,36,→,right,→,0.7745332999620587,True,18
27M31,603,experiment,84,←,left,←,0.5783631999511272,True,18
27M31,604,experiment,180,↓,down,↓,0.8001119000837207,True,18
27M31,605,experiment,24,↑,up,↑,0.6328793000429869,True,18
27M31,606,experiment,108,↓,no_key,no_letter,-1.0,False,18
27M31,607,experiment,120,→,right,→,0.4793167000170797,True,18
27M31,608,experiment,96,↓,down,↓,0.5520385999698192,True,18
27M31,609,experiment,84,↑,up,↑,0.644526100018993,True,18
27M31,610,experiment,48,↓,down,↓,0.776865600142628,True,18
27M31,611,experiment,168,↓,up,↑,0.543038799893111,False,18
27M31,612,experiment,108,↓,down,↓,0.4983801001217216,True,18
27M31,613,experiment,72,←,left,←,0.8310495000332594,True,18
27M31,614,experiment,24,↓,down,↓,0.595578100066632,True,18
27M31,615,experiment,96,→,right,→,0.6192145000677556,True,18
27M31,616,experiment,156,↓,down,↓,0.9537629000842571,True,18
27M31,617,experiment,24,→,right,→,0.6660044000018388,True,18
27M31,618,experiment,144,↑,up,↑,0.643796700052917,True,18
27M31,619,experiment,60,↓,down,↓,0.710469099925831,True,18
27M31,620,experiment,12,↓,up,↑,0.5747230998240411,False,18
27M31,621,experiment,60,↓,down,↓,0.5219580000266433,True,18
27M31,622,experiment,72,←,left,←,0.7772060998249799,True,18
27M31,623,experiment,132,↑,up,↑,0.56416319985874,True,18
27M31,624,experiment,180,→,right,→,0.5592408999800682,True,18
27M31,625,experiment,120,→,right,→,0.4993682000786066,True,18
27M31,626,experiment,168,↓,up,↑,0.5153239001519978,False,18
27M31,627,experiment,96,←,left,←,0.5680269999429584,True,18
27M31,628,experiment,72,→,right,→,0.5077439001761377,True,18
27M31,629,experiment,132,↓,down,↓,0.5075044000986964,True,18
27M31,630,experiment,144,→,no_key,no_letter,-1.0,False,18
27M31,631,experiment,180,↑,up,↑,0.6036547999829054,True,18
27M31,632,experiment,24,→,right,→,0.5511495999526232,True,18
27M31,633,experiment,156,←,right,→,0.4904779000207782,False,18
27M31,634,experiment,48,→,right,→,0.661759200040251,True,18
27M31,635,experiment,48,←,left,←,0.6229464001953602,True,18
27M31,636,experiment,60,↑,up,↑,0.6535256002098322,True,18
27M31,637,experiment,144,→,right,→,0.5546023000497371,True,18
27M31,638,experiment,120,←,left,←,0.6095624000299722,True,18
27M31,639,experiment,12,↑,up,↑,0.5568595000077039,True,18
27M31,640,experiment,168,↑,up,↑,0.5059219000395387,True,18
27M31,641,experiment,36,↑,up,↑,0.5132510999683291,True,18
27M31,642,experiment,84,→,right,→,0.6253585000522435,True,18
27M31,643,experiment,72,←,left,←,0.7741924000438303,True,18
27M31,644,experiment,180,←,left,←,0.5798162000719458,True,18
27M31,645,experiment,108,→,right,→,0.6958863001782447,True,18
27M31,646,experiment,132,↓,down,↓,0.7865077001042664,True,18
27M31,647,experiment,168,→,right,→,0.4337507002055645,True,18
27M31,648,experiment,156,↑,up,↑,0.49944949988275766,True,18
27M31,649,experiment,120,↓,down,↓,0.5868806000798941,True,18
27M31,650,experiment,12,↑,up,↑,0.5525354000274092,True,18
27M31,651,experiment,132,←,left,←,0.6232028999365866,True,18
27M31,652,experiment,144,↑,up,↑,0.5187087999656796,True,18
27M31,653,experiment,36,←,left,←,0.7418114000465721,True,18
27M31,654,experiment,96,↓,up,↑,0.5164328999817371,False,18
27M31,655,experiment,12,→,right,→,0.8027631998993456,True,18
27M31,656,experiment,108,↑,up,↑,0.6588300000876188,True,18
27M31,657,experiment,156,↓,down,↓,0.573083900148049,True,18
27M31,658,experiment,48,↑,no_key,no_letter,-1.0,False,18
27M31,659,experiment,60,→,right,→,0.5074396000709385,True,18
27M31,660,experiment,36,↑,no_key,no_letter,-1.0,False,18
27M31,661,training,108,↑,up,↑,0.8002897999249399,True,18
27M31,662,training,144,→,right,→,0.7997836000286043,True,18
27M31,663,training,36,←,left,←,0.5634194000158459,True,18
27M31,664,experiment,36,↑,up,↑,0.49158180016092956,True,18
27M31,665,experiment,72,↑,up,↑,0.5355110999662429,True,18
27M31,666,experiment,36,↑,up,↑,0.5715777999721467,True,18
27M31,667,experiment,120,←,left,←,0.5339625999331474,True,18
27M31,668,experiment,120,↓,no_key,no_letter,-1.0,False,18
27M31,669,experiment,180,→,right,→,0.5028984001837671,True,18
27M31,670,experiment,168,↑,down,↓,0.5693500000052154,False,18
27M31,671,experiment,144,→,right,→,0.7257594000548124,True,18
27M31,672,experiment,84,↑,no_key,no_letter,-1.0,False,18
27M31,673,experiment,60,←,left,←,0.5664926001336426,True,18
27M31,674,experiment,24,↓,down,↓,0.7145456001162529,True,18
27M31,675,experiment,84,←,right,→,0.4861451000906527,False,18
27M31,676,experiment,84,←,left,←,0.6161364000290632,True,18
27M31,677,experiment,72,→,right,→,0.60716040013358,True,18
27M31,678,experiment,36,←,left,←,0.5649963000323623,True,18
27M31,679,experiment,12,→,right,→,0.6444987000431865,True,18
27M31,680,experiment,36,→,right,→,0.5835905999410897,True,18
27M31,681,experiment,48,↓,down,↓,0.722186499973759,True,18
27M31,682,experiment,120,→,right,→,0.5446527001913637,True,18
27M31,683,experiment,156,→,right,→,0.7192459998186678,True,18
27M31,684,experiment,168,→,right,→,0.5689475999679416,True,18
27M31,685,experiment,156,→,right,→,0.8254186001140624,True,18
27M31,686,experiment,120,↑,up,↑,0.5065707000903785,True,18
27M31,687,experiment,144,↑,up,↑,0.520247400039807,True,18
27M31,688,experiment,108,←,left,←,0.6474707000888884,True,18
27M31,689,experiment,60,↑,no_key,no_letter,-1.0,False,18
27M31,690,experiment,96,↓,no_key,no_letter,-1.0,False,18
27M31,691,experiment,180,→,right,→,0.5574415000155568,True,18
27M31,692,experiment,96,→,right,→,0.48361070011742413,True,18
27M31,693,experiment,168,↓,down,↓,0.7645294999238104,True,18
27M31,694,experiment,108,↓,down,↓,0.5998907999601215,True,18
27M31,695,experiment,156,↑,down,↓,0.4990476998500526,False,18
27M31,696,experiment,96,↑,up,↑,0.5313808000646532,True,18
27M31,697,experiment,72,→,right,→,0.663104500155896,True,18
27M31,698,experiment,144,↑,up,↑,0.6696886999998242,True,18
27M31,699,experiment,144,←,left,←,0.6686311999801546,True,18
27M31,700,experiment,108,→,right,→,0.6228674000594765,True,18
27M31,701,experiment,48,→,right,→,0.5013851998373866,True,18
27M31,702,experiment,60,↑,up,↑,0.574415999930352,True,18
27M31,703,experiment,96,→,right,→,0.41721109999343753,True,18
27M31,704,experiment,156,↓,down,↓,0.6627600998617709,True,18
27M31,705,experiment,132,←,left,←,0.5700825999956578,True,18
27M31,706,experiment,60,←,left,←,0.5258924998342991,True,18
27M31,707,experiment,132,↑,up,↑,0.5843348999042064,True,18
27M31,708,experiment,84,→,right,→,0.6785877998918295,True,18
27M31,709,experiment,132,←,up,↑,0.5336595000699162,False,18
27M31,710,experiment,132,↑,up,↑,0.4960227000992745,True,18
27M31,711,experiment,24,↓,down,↓,0.7711982000619173,True,18
27M31,712,experiment,48,←,left,←,0.839073000010103,True,18
27M31,713,experiment,180,←,left,←,0.8150287999305874,True,18
27M31,714,experiment,12,↓,down,↓,0.7172590000554919,True,18
27M31,715,experiment,12,↑,no_key,no_letter,-1.0,False,18
27M31,716,experiment,108,↑,up,↑,0.4812089998740703,True,18
27M31,717,experiment,72,←,left,←,0.5734954001381993,True,18
27M31,718,experiment,168,↑,up,↑,0.47487720008939505,True,18
27M31,719,experiment,180,↓,up,↑,0.41728839999996126,False,18
27M31,720,experiment,24,↑,up,↑,0.6090006998274475,True,18
27M31,721,experiment,24,←,no_key,no_letter,-1.0,False,18
27M31,722,experiment,12,→,right,→,0.6629154998809099,True,18
27M31,723,experiment,48,→,no_key,no_letter,-1.0,False,18
27M31,724,training,84,↓,down,↓,0.6930807000026107,True,18
27M31,725,training,132,←,left,←,0.5950786001048982,True,18
27M31,726,training,36,↓,down,↓,0.6001222999766469,True,18
27M31,727,experiment,24,↓,down,↓,0.45028189988806844,True,18
27M31,728,experiment,36,↑,up,↑,0.6227017999626696,True,18
27M31,729,experiment,84,↓,no_key,no_letter,-1.0,False,18
27M31,730,experiment,120,→,no_key,no_letter,-1.0,False,18
27M31,731,experiment,120,→,right,→,0.5164050001185387,True,18
27M31,732,experiment,12,←,right,→,0.4172163000330329,False,18
27M31,733,experiment,108,↑,up,↑,0.7130420000758022,True,18
27M31,734,experiment,132,←,left,←,0.6831620999146253,True,18
27M31,735,experiment,84,→,right,→,0.6019904999993742,True,18
27M31,736,experiment,156,↑,up,↑,0.5257439999841154,True,18
27M31,737,experiment,96,←,left,←,0.6495775999501348,True,18
27M31,738,experiment,48,↓,down,↓,0.7371133000124246,True,18
27M31,739,experiment,144,→,no_key,no_letter,-1.0,False,18
27M31,740,experiment,72,→,right,→,0.6729628997854888,True,18
27M31,741,experiment,132,↓,down,↓,0.6970601000357419,True,18
27M31,742,experiment,60,↑,up,↑,0.5324103999882936,True,18
27M31,743,experiment,180,↓,down,↓,0.7083844998851418,True,18
27M31,744,experiment,144,↓,down,↓,0.6602471999358386,True,18
27M31,745,experiment,72,←,left,←,0.712169999955222,True,18
27M31,746,experiment,168,←,left,←,0.5729047998320311,True,18
27M31,747,experiment,84,→,left,←,0.5334322999697179,False,18
27M31,748,experiment,12,↓,down,↓,0.5450255000032485,True,18
27M31,749,experiment,168,↑,up,↑,0.6332810998428613,True,18
27M31,750,experiment,156,←,left,←,0.9165439000353217,True,18
27M31,751,experiment,156,↑,up,↑,0.418204199988395,True,18
27M31,752,experiment,96,→,right,→,0.4738819000776857,True,18
27M31,753,experiment,36,↓,down,↓,0.6700077999848872,True,18
27M31,754,experiment,156,→,right,→,0.5772130999248475,True,18
27M31,755,experiment,48,↓,down,↓,0.6714500000234693,True,18
27M31,756,experiment,96,→,right,→,0.5745108998380601,True,18
27M31,757,experiment,84,↓,down,↓,0.5289405998773873,True,18
27M31,758,experiment,24,←,no_key,no_letter,-1.0,False,18
27M31,759,experiment,108,↑,up,↑,0.5561977999750525,True,18
27M31,760,experiment,132,↑,up,↑,0.9302000000607222,True,18
27M31,761,experiment,72,↓,down,↓,0.6987608000636101,True,18
27M31,762,experiment,120,↓,down,↓,0.5664647000376135,True,18
27M31,763,experiment,60,↑,up,↑,0.7232413999736309,True,18
27M31,764,experiment,144,→,right,→,0.6091723998542875,True,18
27M31,765,experiment,12,↑,up,↑,0.5402011999394745,True,18
27M31,766,experiment,72,←,left,←,0.620581700000912,True,18
27M31,767,experiment,48,↓,down,↓,0.8799519999884069,True,18
27M31,768,experiment,24,←,left,←,0.7703174001071602,True,18
27M31,769,experiment,180,↓,left,←,1.259691399987787,False,18
27M31,770,experiment,108,←,no_key,no_letter,-1.0,False,18
27M31,771,experiment,36,↓,down,↓,0.6095838001929224,True,18
27M31,772,experiment,132,↑,no_key,no_letter,-1.0,False,18
27M31,773,experiment,168,←,no_key,no_letter,-1.0,False,18
27M31,774,experiment,96,←,no_key,no_letter,-1.0,False,18
27M31,775,experiment,180,→,right,→,0.43383130012080073,True,18
27M31,776,experiment,12,↓,no_key,no_letter,-1.0,False,18
27M31,777,experiment,48,←,left,←,0.6484182002022862,True,18
27M31,778,experiment,24,↑,up,↑,0.7381664998829365,True,18
27M31,779,experiment,144,↑,up,↑,0.5436877000611275,True,18
27M31,780,experiment,120,↑,no_key,no_letter,-1.0,False,18
27M31,781,experiment,36,→,no_key,no_letter,-1.0,False,18
27M31,782,experiment,108,↑,up,↑,0.545089399907738,True,18
27M31,783,experiment,60,↑,no_key,no_letter,-1.0,False,18
27M31,784,experiment,180,←,left,←,0.6042828999925405,True,18
27M31,785,experiment,60,↑,no_key,no_letter,-1.0,False,18
27M31,786,experiment,168,↑,up,↑,0.46957219997420907,True,18
27M31,787,training,120,←,up,↑,0.6905606999062002,False,18
27M31,788,training,48,→,left,←,0.47640879987739027,False,18
27M31,789,training,168,→,no_key,no_letter,-1.0,False,18
27M31,790,experiment,132,→,no_key,no_letter,-1.0,False,18
27M31,791,experiment,48,→,right,→,0.38372509996406734,True,18
27M31,792,experiment,24,←,right,→,0.48559579998254776,False,18
27M31,793,experiment,84,↓,down,↓,0.7016801000572741,True,18
27M31,794,experiment,72,←,left,←,0.5832126000896096,True,18
27M31,795,experiment,12,↓,down,↓,0.5382231001276523,True,18
27M31,796,experiment,72,←,left,←,0.5499398000538349,True,18
27M31,797,experiment,144,↓,down,↓,0.46873770002275705,True,18
27M31,798,experiment,72,↑,down,↓,0.4170575998723507,False,18
27M31,799,experiment,72,↓,down,↓,0.605985299916938,True,18
27M31,800,experiment,60,←,left,←,0.5771794999018312,True,18
27M31,801,experiment,12,←,left,←,0.5206523998640478,True,18
27M31,802,experiment,144,↓,down,↓,0.6145037000533193,True,18
27M31,803,experiment,84,←,left,←,0.5233247000724077,True,18
27M31,804,experiment,156,↓,down,↓,0.7693620999343693,True,18
27M31,805,experiment,168,↓,down,↓,0.4810563998762518,True,18
27M31,806,experiment,48,↑,no_key,no_letter,-1.0,False,18
27M31,807,experiment,156,←,left,←,0.7143506000284106,True,18
27M31,808,experiment,60,←,left,←,0.5237803000491112,True,18
27M31,809,experiment,108,↑,up,↑,0.5739871999248862,True,18
27M31,810,experiment,132,←,left,←,0.7058609998784959,True,18
27M31,811,experiment,24,←,left,←,0.506973700132221,True,18
27M31,812,experiment,108,↑,up,↑,0.49388700001873076,True,18
27M31,813,experiment,144,↑,up,↑,0.5390371000394225,True,18
27M31,814,experiment,156,↓,down,↓,0.7461240999400616,True,18
27M31,815,experiment,180,↑,up,↑,0.5019048999529332,True,18
27M31,816,experiment,96,→,right,→,0.6715151998214424,True,18
27M31,817,experiment,36,↑,up,↑,0.5078407998662442,True,18
27M31,818,experiment,60,→,right,→,0.5059234998188913,True,18
27M31,819,experiment,48,→,right,→,0.47886570007540286,True,18
27M31,820,experiment,132,→,right,→,0.6175652998499572,True,18
27M31,821,experiment,24,→,no_key,no_letter,-1.0,False,18
27M31,822,experiment,36,↑,up,↑,0.8839958000462502,True,18
27M31,823,experiment,96,↑,up,↑,0.507937700022012,True,18
27M31,824,experiment,84,→,right,→,0.6049887000117451,True,18
27M31,825,experiment,108,↑,up,↑,0.5957581999246031,True,18
27M31,826,experiment,180,↓,up,↑,0.5118307999800891,False,18
27M31,827,experiment,12,↓,down,↓,0.7167892998550087,True,18
27M31,828,experiment,96,←,left,←,0.7248549000360072,True,18
27M31,829,experiment,60,→,right,→,0.6948957000859082,True,18
27M31,830,experiment,48,←,left,←,0.937983299838379,True,18
27M31,831,experiment,132,↑,up,↑,0.5883911000564694,True,18
27M31,832,experiment,36,←,left,←,0.5910113998688757,True,18
27M31,833,experiment,168,↓,down,↓,0.7974213999696076,True,18
27M31,834,experiment,180,←,left,←,0.5907151999417692,True,18
27M31,835,experiment,96,↓,down,↓,0.8086126998532563,True,18
27M31,836,experiment,120,↑,no_key,no_letter,-1.0,False,18
27M31,837,experiment,168,→,right,→,0.5654207000043243,True,18
27M31,838,experiment,168,←,left,←,0.6888671999331564,True,18
27M31,839,experiment,120,←,right,→,0.5063936999067664,False,18
27M31,840,experiment,120,←,left,←,0.574409699998796,True,18
27M31,841,experiment,120,↑,up,↑,0.5647038000170141,True,18
27M31,842,experiment,108,←,left,←,0.48329360014759004,True,18
27M31,843,experiment,180,↓,down,↓,0.8239154999610037,True,18
27M31,844,experiment,156,↑,no_key,no_letter,-1.0,False,18
27M31,845,experiment,84,→,right,→,0.7502396998461336,True,18
27M31,846,experiment,24,←,left,←,0.7254023000132293,True,18
27M31,847,experiment,12,→,right,→,0.5738215998280793,True,18
27M31,848,experiment,36,↑,up,↑,0.6299248000141233,True,18
27M31,849,experiment,144,→,right,→,0.7272749999538064,True,18
