PART_ID,Trial_no,Trial_type,PDI,Stim_letter,Key_pressed,letter_choose,Rt,Corr,Stimulus Time
28K21,1,training,10,←,no_key,no_letter,-1.0,False,30
28K21,2,training,10,→,right,→,0.7241827000398189,True,30
28K21,3,training,10,←,right,→,1.233062900020741,False,30
28K21,4,training,10,→,left,←,0.8738417000276968,False,30
28K21,5,training,10,→,left,←,1.3571763000218198,False,30
28K21,6,training,10,→,right,→,0.9743907999945804,True,30
28K21,7,training,10,→,left,←,1.2897417999338359,False,30
28K21,8,training,10,↓,right,→,1.0160585000412539,False,30
28K21,9,training,10,↓,no_key,no_letter,-1.0,False,30
28K21,10,training,10,↑,left,←,1.8588677999796346,False,30
28K21,11,training,10,↓,left,←,1.9828224999364465,False,30
28K21,12,training,10,↑,left,←,1.8738699000095949,False,30
28K21,13,training,10,↓,down,↓,2.0468862999696285,True,30
28K21,14,training,10,←,left,←,2.0167826999677345,True,30
28K21,15,training,10,↑,up,↑,1.9437787000788376,True,30
28K21,16,training,10,→,left,←,1.7049588999943808,False,30
28K21,17,training,10,↓,right,→,1.5480720999184996,False,30
28K21,18,training,10,→,left,←,1.8496083000209183,False,30
28K21,19,training,10,↓,left,←,1.6726020000642166,False,30
28K21,20,training,10,↑,up,↑,0.8941715999972075,True,30
28K21,21,training,10,←,right,→,1.3678318000165746,False,18
28K21,22,training,10,↓,down,↓,1.224167300038971,True,18
28K21,23,training,10,↑,up,↑,0.6148883000714704,True,18
28K21,24,training,10,→,right,→,1.3582247999729589,True,18
28K21,25,training,10,←,left,←,0.7916683999355882,True,18
28K21,26,training,10,↓,down,↓,1.3220869000069797,True,18
28K21,27,training,10,←,right,→,1.3289337999885902,False,18
28K21,28,training,10,↓,down,↓,0.7711158000165597,True,18
28K21,29,training,10,←,left,←,1.0582296999637038,True,18
28K21,30,training,10,←,right,→,1.2626980999484658,False,18
28K21,31,training,180,↓,right,→,0.9587890000548214,False,15
28K21,32,training,120,↑,down,↓,0.9704364000353962,False,15
28K21,33,training,60,↓,right,→,0.9330970000009984,False,15
28K21,34,experiment,36,←,down,↓,1.0833972999826074,False,15
28K21,35,experiment,36,←,right,→,0.8806770999217406,False,15
28K21,36,experiment,24,↓,down,↓,0.7802411000011489,True,15
28K21,37,experiment,144,←,down,↓,0.8582233999622986,False,15
28K21,38,experiment,84,→,down,↓,0.8889726999914274,False,15
28K21,39,experiment,108,←,left,←,0.9720353999873623,True,15
28K21,40,experiment,96,→,down,↓,1.0694439000217244,False,15
28K21,41,experiment,48,→,right,→,0.921481000026688,True,15
28K21,42,experiment,156,→,left,←,0.9931557999225333,False,15
28K21,43,experiment,12,←,right,→,1.1777993000578135,False,15
28K21,44,experiment,48,←,left,←,1.011257000034675,True,15
28K21,45,experiment,156,←,left,←,1.5544751000124961,True,15
28K21,46,experiment,12,→,right,→,0.6699349998962134,True,15
28K21,47,experiment,120,↓,right,→,1.0246857000747696,False,15
28K21,48,experiment,36,←,left,←,0.9940430000424385,True,15
28K21,49,experiment,24,→,right,→,0.5424810000695288,True,15
28K21,50,experiment,60,←,down,↓,1.3021309000905603,False,15
28K21,51,experiment,12,→,right,→,0.6474048999371007,True,15
28K21,52,experiment,168,↓,right,→,0.8974837000714615,False,15
28K21,53,experiment,72,↓,right,→,1.0180229999823496,False,15
28K21,54,experiment,24,→,down,↓,1.2114862999878824,False,15
28K21,55,experiment,120,↑,down,↓,1.0141597000183538,False,15
28K21,56,experiment,12,↓,right,→,0.9626644999952987,False,15
28K21,57,experiment,132,→,up,↑,1.0379466000013053,False,15
28K21,58,experiment,168,→,down,↓,1.2439246999565512,False,15
28K21,59,experiment,72,→,right,→,1.1788163000019267,True,15
28K21,60,experiment,96,↑,up,↑,1.0421448999550194,True,15
28K21,61,experiment,180,→,right,→,1.287107600015588,True,15
28K21,62,experiment,96,←,right,→,1.0844592999201268,False,15
28K21,63,experiment,144,←,down,↓,1.6617814999772236,False,15
28K21,64,experiment,84,↓,left,←,1.3384365000529215,False,15
28K21,65,experiment,48,↑,up,↑,1.061611199984327,True,15
28K21,66,experiment,60,←,right,→,0.8869028999470174,False,15
28K21,67,experiment,156,↑,right,→,0.969077399931848,False,15
28K21,68,experiment,120,↓,right,→,0.9845763000193983,False,15
28K21,69,experiment,72,↑,down,↓,1.0219802000792697,False,15
28K21,70,experiment,132,→,up,↑,1.4550889999372885,False,15
28K21,71,experiment,48,→,right,→,0.7780156000517309,True,15
28K21,72,experiment,96,↑,down,↓,1.009120300062932,False,15
28K21,73,experiment,84,→,down,↓,1.09003980003763,False,15
28K21,74,experiment,60,↓,down,↓,1.119357299990952,True,15
28K21,75,experiment,36,↓,down,↓,0.7701038001105189,True,15
28K21,76,experiment,144,↓,up,↑,1.2556632000487298,False,15
28K21,77,experiment,156,→,right,→,1.3843715999973938,True,15
28K21,78,experiment,180,←,no_key,no_letter,-1.0,False,15
28K21,79,experiment,132,←,up,↑,1.1516871999483556,False,15
28K21,80,experiment,168,→,up,↑,0.9580603999784216,False,15
28K21,81,experiment,108,↑,up,↑,0.9880429999902844,True,15
28K21,82,experiment,144,↓,down,↓,1.3367161999922246,True,15
28K21,83,experiment,168,←,up,↑,1.2141839999239892,False,15
28K21,84,experiment,180,↓,down,↓,0.9028305999236181,True,15
28K21,85,experiment,72,↓,left,←,1.4039997999789193,False,15
28K21,86,experiment,180,↓,up,↑,1.0935727000469342,False,15
28K21,87,experiment,108,↓,down,↓,0.8250562000321224,True,15
28K21,88,experiment,108,→,right,→,0.7388052999740466,True,15
28K21,89,experiment,60,↑,up,↑,1.092943999916315,True,15
28K21,90,experiment,120,←,left,←,1.1787079999921843,True,15
28K21,91,experiment,84,←,left,←,1.074512999970466,True,15
28K21,92,experiment,132,↑,down,↓,1.0332247000187635,False,15
28K21,93,experiment,24,←,up,↑,1.498634900082834,False,15
28K21,94,training,48,↓,down,↓,1.4735296999569982,True,16
28K21,95,training,84,↑,up,↑,0.7745658999774605,True,16
28K21,96,training,60,↓,down,↓,0.7675999000202864,True,16
28K21,97,experiment,168,→,right,→,0.8740650999825448,True,16
28K21,98,experiment,72,↓,down,↓,0.7440502000972629,True,16
28K21,99,experiment,120,↓,left,←,1.4111891000065953,False,16
28K21,100,experiment,180,↓,down,↓,0.7552136000012979,True,16
28K21,101,experiment,72,↑,up,↑,0.6840962999267504,True,16
28K21,102,experiment,60,←,left,←,0.6108963000588119,True,16
28K21,103,experiment,168,↓,down,↓,0.7604932999238372,True,16
28K21,104,experiment,60,↑,up,↑,0.6483792000217363,True,16
28K21,105,experiment,48,↓,right,→,1.174754900042899,False,16
28K21,106,experiment,144,→,right,→,1.061232200008817,True,16
28K21,107,experiment,156,↑,down,↓,1.0135334000224248,False,16
28K21,108,experiment,36,↑,up,↑,0.8435039999894798,True,16
28K21,109,experiment,48,→,right,→,0.7207747000502422,True,16
28K21,110,experiment,132,↓,down,↓,0.9079311999958009,True,16
28K21,111,experiment,132,←,left,←,0.7039404000388458,True,16
28K21,112,experiment,120,←,left,←,0.5774612000677735,True,16
28K21,113,experiment,72,↓,up,↑,0.984201000072062,False,16
28K21,114,experiment,132,←,left,←,0.6318880000617355,True,16
28K21,115,experiment,84,↑,up,↑,0.693208200042136,True,16
28K21,116,experiment,60,↑,up,↑,0.6347789999563247,True,16
28K21,117,experiment,24,↓,down,↓,0.625464600045234,True,16
28K21,118,experiment,96,↓,down,↓,1.4658619998954237,True,16
28K21,119,experiment,36,↓,right,→,1.276071000029333,False,16
28K21,120,experiment,168,↓,down,↓,0.6601858000503853,True,16
28K21,121,experiment,108,←,up,↑,1.5199805999873206,False,16
28K21,122,experiment,120,↑,left,←,1.1301543000154197,False,16
28K21,123,experiment,144,←,left,←,0.6437825000612065,True,16
28K21,124,experiment,12,↓,down,↓,0.8387719999300316,True,16
28K21,125,experiment,12,←,down,↓,1.4133874999824911,False,16
28K21,126,experiment,180,←,up,↑,0.9134208000032231,False,16
28K21,127,experiment,48,↑,down,↓,1.122031099977903,False,16
28K21,128,experiment,72,↑,up,↑,0.7755240999395028,True,16
28K21,129,experiment,36,←,left,←,0.9339840998873115,True,16
28K21,130,experiment,132,↑,up,↑,0.7814652000088245,True,16
28K21,131,experiment,108,↑,up,↑,0.8294444000348449,True,16
28K21,132,experiment,24,→,down,↓,1.6932414999464527,False,16
28K21,133,experiment,144,↓,down,↓,0.5967504000291228,True,16
28K21,134,experiment,84,→,right,→,0.9056809999747202,True,16
28K21,135,experiment,24,→,right,→,0.6843497001100332,True,16
28K21,136,experiment,84,→,right,→,0.6849259999580681,True,16
28K21,137,experiment,12,↓,down,↓,1.0388958000112325,True,16
28K21,138,experiment,156,→,right,→,1.3087010000599548,True,16
28K21,139,experiment,96,↓,up,↑,0.8098747000331059,False,16
28K21,140,experiment,180,↑,up,↑,0.7081512999720871,True,16
28K21,141,experiment,108,↓,up,↑,0.4531441000290215,False,16
28K21,142,experiment,84,→,right,→,0.8598846999229863,True,16
28K21,143,experiment,120,↓,up,↑,0.9187041000695899,False,16
28K21,144,experiment,156,←,no_key,no_letter,-1.0,False,16
28K21,145,experiment,156,↓,left,←,1.2485399000579491,False,16
28K21,146,experiment,144,↓,up,↑,1.216981599922292,False,16
28K21,147,experiment,108,→,left,←,1.215892400010489,False,16
28K21,148,experiment,24,↓,down,↓,1.09971310000401,True,16
28K21,149,experiment,96,↓,down,↓,0.7888102999422699,True,16
28K21,150,experiment,12,↓,right,→,0.9944014999782667,False,16
28K21,151,experiment,96,→,up,↑,0.9751955000683665,False,16
28K21,152,experiment,168,→,right,→,0.7787908000173047,True,16
28K21,153,experiment,36,↑,up,↑,0.6954769000876695,True,16
28K21,154,experiment,48,←,left,←,1.415912099997513,True,16
28K21,155,experiment,180,↓,down,↓,1.0319555000169203,True,16
28K21,156,experiment,60,↓,down,↓,0.7501379000023007,True,16
28K21,157,training,120,←,right,→,1.0900274000596255,False,16
28K21,158,training,120,←,left,←,1.1277281999355182,True,16
28K21,159,training,156,↓,down,↓,0.8569423999870196,True,16
28K21,160,experiment,96,←,left,←,0.8525249999947846,True,16
28K21,161,experiment,120,←,down,↓,0.9080876000225544,False,16
28K21,162,experiment,12,←,left,←,0.7725454999599606,True,16
28K21,163,experiment,72,→,right,→,0.7901952000102028,True,16
28K21,164,experiment,60,↑,up,↑,0.6601919999811798,True,16
28K21,165,experiment,156,←,right,→,0.7952626999467611,False,16
28K21,166,experiment,108,↑,up,↑,0.6723732000682503,True,16
28K21,167,experiment,132,↓,up,↑,0.8455890000332147,False,16
28K21,168,experiment,120,←,down,↓,0.779838899965398,False,16
28K21,169,experiment,108,←,right,→,0.8199577999766916,False,16
28K21,170,experiment,36,↑,up,↑,0.578036000020802,True,16
28K21,171,experiment,96,←,left,←,1.0265960999531671,True,16
28K21,172,experiment,12,←,left,←,0.9891739999875426,True,16
28K21,173,experiment,144,←,left,←,0.9269419000484049,True,16
28K21,174,experiment,36,↓,up,↑,0.6984821999212727,False,16
28K21,175,experiment,180,←,right,→,1.0052141000051051,False,16
28K21,176,experiment,48,→,right,→,0.8197977000381798,True,16
28K21,177,experiment,12,↓,down,↓,0.5615768999559805,True,16
28K21,178,experiment,108,←,left,←,0.847108400077559,True,16
28K21,179,experiment,48,→,down,↓,1.0495511000044644,False,16
28K21,180,experiment,120,↓,up,↑,0.5449537999229506,False,16
28K21,181,experiment,36,←,left,←,0.8241174999857321,True,16
28K21,182,experiment,132,↑,up,↑,0.6226320000132546,True,16
28K21,183,experiment,168,↑,up,↑,0.6467091999948025,True,16
28K21,184,experiment,60,↓,up,↑,0.6067708999617025,False,16
28K21,185,experiment,96,↑,up,↑,0.7600049000466242,True,16
28K21,186,experiment,156,→,up,↑,0.7402747001033276,False,16
28K21,187,experiment,24,↑,down,↓,0.689712299965322,False,16
28K21,188,experiment,84,←,left,←,0.9171588000608608,True,16
28K21,189,experiment,120,→,right,→,0.7066271000076085,True,16
28K21,190,experiment,36,→,right,→,0.6841392000205815,True,16
28K21,191,experiment,48,→,right,→,0.845449100015685,True,16
28K21,192,experiment,108,←,left,←,0.8615330000175163,True,16
28K21,193,experiment,84,↓,down,↓,0.771804100018926,True,16
28K21,194,experiment,132,↑,up,↑,0.70995250006672,True,16
28K21,195,experiment,24,←,right,→,0.9113315000431612,False,16
28K21,196,experiment,24,↑,up,↑,0.6549625999759883,True,16
28K21,197,experiment,24,↑,right,→,1.0109206999186426,False,16
28K21,198,experiment,96,↓,down,↓,0.5812092000851408,True,16
28K21,199,experiment,60,→,left,←,1.142227299977094,False,16
28K21,200,experiment,144,↑,up,↑,0.634762900066562,True,16
28K21,201,experiment,60,←,left,←,0.91357259999495,True,16
28K21,202,experiment,72,↓,down,↓,0.7227054999675602,True,16
28K21,203,experiment,12,→,right,→,0.7315804000245407,True,16
28K21,204,experiment,180,←,left,←,0.869187599979341,True,16
28K21,205,experiment,168,↓,down,↓,0.7686829000012949,True,16
28K21,206,experiment,84,→,right,→,0.6485256999731064,True,16
28K21,207,experiment,168,←,left,←,0.8499701999826357,True,16
28K21,208,experiment,180,↑,up,↑,0.5621152999810874,True,16
28K21,209,experiment,48,↓,down,↓,0.6976834000088274,True,16
28K21,210,experiment,132,→,right,→,0.631210400024429,True,16
28K21,211,experiment,156,←,down,↓,0.7834050999954343,False,16
28K21,212,experiment,180,←,left,←,1.0305337000172585,True,16
28K21,213,experiment,72,↑,up,↑,0.6318593000760302,True,16
28K21,214,experiment,84,→,right,→,0.7456739000044763,True,16
28K21,215,experiment,144,↑,up,↑,0.6892310000257567,True,16
28K21,216,experiment,156,↓,up,↑,0.7039157999679446,False,16
28K21,217,experiment,72,←,left,←,0.9342354999389499,True,16
28K21,218,experiment,144,←,up,↑,0.6287802000297233,False,16
28K21,219,experiment,168,→,left,←,1.0019520999630913,False,16
28K21,220,training,96,↑,up,↑,0.6842987999552861,True,16
28K21,221,training,48,→,right,→,0.7409025999950245,True,16
28K21,222,training,60,→,right,→,0.7145439999876544,True,16
28K21,223,experiment,96,↓,down,↓,0.5193661999655887,True,16
28K21,224,experiment,180,↓,down,↓,0.5427608999889344,True,16
28K21,225,experiment,156,↑,down,↓,1.053496400010772,False,16
28K21,226,experiment,96,↑,up,↑,0.6034819999476895,True,16
28K21,227,experiment,12,↓,no_key,no_letter,-1.0,False,16
28K21,228,experiment,36,↓,down,↓,0.7441860000835732,True,16
28K21,229,experiment,84,←,right,→,0.9194097000872716,False,16
28K21,230,experiment,24,↓,down,↓,0.8723297000396997,True,16
28K21,231,experiment,108,→,right,→,0.5750386000145227,True,16
28K21,232,experiment,120,←,left,←,0.8004056999925524,True,16
28K21,233,experiment,48,↓,up,↑,1.25222769996617,False,16
28K21,234,experiment,60,←,left,←,1.1436156999552622,True,16
28K21,235,experiment,120,↑,up,↑,0.821484100073576,True,16
28K21,236,experiment,36,↑,up,↑,0.57127329998184,True,16
28K21,237,experiment,168,→,right,→,0.5307506000390276,True,16
28K21,238,experiment,24,←,down,↓,0.8544224000070244,False,16
28K21,239,experiment,156,→,right,→,0.9066937000025064,True,16
28K21,240,experiment,36,→,right,→,0.679057199973613,True,16
28K21,241,experiment,180,←,right,→,0.8909679000498727,False,16
28K21,242,experiment,180,←,left,←,0.8274650000967085,True,16
28K21,243,experiment,156,↑,up,↑,0.5852607999695465,True,16
28K21,244,experiment,60,↓,down,↓,0.6780668999999762,True,16
28K21,245,experiment,60,↑,left,←,0.6909780000569299,False,16
28K21,246,experiment,96,→,right,→,0.6111888999585062,True,16
28K21,247,experiment,132,↑,down,↓,0.8453461000462994,False,16
28K21,248,experiment,84,←,left,←,0.6523164000827819,True,16
28K21,249,experiment,168,→,right,→,0.7347526999656111,True,16
28K21,250,experiment,72,↑,up,↑,0.7742691000457853,True,16
28K21,251,experiment,84,←,left,←,0.7183517999947071,True,16
28K21,252,experiment,72,↑,up,↑,0.5532821000088006,True,16
28K21,253,experiment,132,↓,down,↓,0.6801506999181584,True,16
28K21,254,experiment,168,→,left,←,0.7963209999725223,False,16
28K21,255,experiment,120,←,left,←,0.6672062000725418,True,16
28K21,256,experiment,144,↑,up,↑,0.6435557999648154,True,16
28K21,257,experiment,36,↑,right,→,0.765944299986586,False,16
28K21,258,experiment,108,→,right,→,0.6815217999974266,True,16
28K21,259,experiment,168,↓,left,←,0.806048099999316,False,16
28K21,260,experiment,12,↓,down,↓,1.1114826999837533,True,16
28K21,261,experiment,108,←,up,↑,0.8668769999640062,False,16
28K21,262,experiment,48,↑,up,↑,0.7453913000645116,True,16
28K21,263,experiment,108,→,right,→,0.6303222000133246,True,16
28K21,264,experiment,144,→,right,→,0.625285099959001,True,16
28K21,265,experiment,132,↓,down,↓,0.7842015000060201,True,16
28K21,266,experiment,180,→,right,→,0.558770600007847,True,16
28K21,267,experiment,156,↓,down,↓,0.6422285999869928,True,16
28K21,268,experiment,144,→,right,→,0.5567122999345884,True,16
28K21,269,experiment,72,→,right,→,0.6380977000808343,True,16
28K21,270,experiment,12,→,right,→,0.5831638999516144,True,16
28K21,271,experiment,96,→,left,←,0.8512158000376076,False,16
28K21,272,experiment,132,↓,down,↓,0.5500705000013113,True,16
28K21,273,experiment,84,↑,up,↑,0.6328426999971271,True,16
28K21,274,experiment,144,←,left,←,1.0646231999853626,True,16
28K21,275,experiment,24,↑,up,↑,0.6639259000075981,True,16
28K21,276,experiment,48,↑,down,↓,0.8604626000160351,False,16
28K21,277,experiment,60,→,right,→,0.681222099927254,True,16
28K21,278,experiment,120,→,right,→,0.5627441999968141,True,16
28K21,279,experiment,48,←,left,←,0.8873524999944493,True,16
28K21,280,experiment,24,↑,up,↑,0.6297611999325454,True,16
28K21,281,experiment,72,→,right,→,0.6237557000713423,True,16
28K21,282,experiment,12,←,left,←,0.745983500033617,True,16
28K21,283,training,60,↑,up,↑,0.6586381000233814,True,16
28K21,284,training,72,→,right,→,0.5238938999827951,True,16
28K21,285,training,96,↓,left,←,0.8376177001046017,False,16
28K21,286,experiment,132,↑,down,↓,0.9216185000259429,False,16
28K21,287,experiment,108,↑,up,↑,0.6944047999568284,True,16
28K21,288,experiment,120,←,left,←,0.6609648999292403,True,16
28K21,289,experiment,120,↓,down,↓,0.7549472000682727,True,16
28K21,290,experiment,96,←,left,←,0.6358146999264136,True,16
28K21,291,experiment,12,→,right,→,0.7527559000300243,True,16
28K21,292,experiment,72,↓,down,↓,0.7696893999818712,True,16
28K21,293,experiment,180,←,left,←,0.5598697999957949,True,16
28K21,294,experiment,132,↑,up,↑,0.49423439998645335,True,16
28K21,295,experiment,144,←,left,←,0.9764520999742672,True,16
28K21,296,experiment,156,↑,up,↑,0.5961786999832839,True,16
28K21,297,experiment,84,→,right,→,0.6155350001063198,True,16
28K21,298,experiment,156,↑,up,↑,0.6660802999977022,True,16
28K21,299,experiment,24,↑,up,↑,0.6407814000267535,True,16
28K21,300,experiment,84,↓,down,↓,0.777641799999401,True,16
28K21,301,experiment,96,←,up,↑,0.6520334000233561,False,16
28K21,302,experiment,108,↓,down,↓,0.581532199983485,True,16
28K21,303,experiment,24,→,right,→,0.7129506000783294,True,16
28K21,304,experiment,60,↓,down,↓,0.6712511000223458,True,16
28K21,305,experiment,180,↑,up,↑,0.7306702999630943,True,16
28K21,306,experiment,48,→,right,→,0.7311595999635756,True,16
28K21,307,experiment,48,↑,up,↑,0.45577090000733733,True,16
28K21,308,experiment,96,↓,down,↓,0.6423038999782875,True,16
28K21,309,experiment,120,→,left,←,0.9382157999789342,False,16
28K21,310,experiment,168,↑,up,↑,0.6080715999705717,True,16
28K21,311,experiment,60,→,right,→,0.6392207000171766,True,16
28K21,312,experiment,180,↓,down,↓,0.6712490000063553,True,16
28K21,313,experiment,144,←,left,←,0.8049609999870881,True,16
28K21,314,experiment,36,↓,down,↓,0.6379238000372425,True,16
28K21,315,experiment,144,↑,up,↑,0.581155400024727,True,16
28K21,316,experiment,132,↑,up,↑,0.6259606999810785,True,16
28K21,317,experiment,24,←,left,←,0.6317610000260174,True,16
28K21,318,experiment,12,↑,up,↑,0.47674600000027567,True,16
28K21,319,experiment,36,←,down,↓,1.2075912000145763,False,16
28K21,320,experiment,108,→,right,→,0.6912067000521347,True,16
28K21,321,experiment,36,↓,down,↓,0.6598254999844357,True,16
28K21,322,experiment,168,↓,down,↓,0.6681637999136001,True,16
28K21,323,experiment,156,↑,left,←,1.1772820999613032,False,16
28K21,324,experiment,84,←,right,→,0.6632656999863684,False,16
28K21,325,experiment,60,←,left,←,0.8259340999647975,True,16
28K21,326,experiment,168,→,right,→,0.8334429999813437,True,16
28K21,327,experiment,48,↑,up,↑,0.6083458999637514,True,16
28K21,328,experiment,12,→,right,→,0.7367331999121234,True,16
28K21,329,experiment,120,→,right,→,0.6310004000551999,True,16
28K21,330,experiment,132,→,right,→,0.5849639000371099,True,16
28K21,331,experiment,180,↑,down,↓,0.691262700012885,False,16
28K21,332,experiment,36,→,right,→,0.6772094999905676,True,16
28K21,333,experiment,84,↓,down,↓,0.5086907000513747,True,16
28K21,334,experiment,72,←,left,←,0.6405759999761358,True,16
28K21,335,experiment,60,←,left,←,0.5639593000523746,True,16
28K21,336,experiment,168,↓,down,↓,0.7192625000607222,True,16
28K21,337,experiment,72,↑,down,↓,0.7456012000329792,False,16
28K21,338,experiment,48,↓,left,←,0.8254425999475643,False,16
28K21,339,experiment,108,↓,down,↓,0.5699099999619648,True,16
28K21,340,experiment,72,↓,down,↓,0.6720982999540865,True,16
28K21,341,experiment,12,↓,right,→,0.739654399920255,False,16
28K21,342,experiment,24,←,up,↑,0.5317486000712961,False,16
28K21,343,experiment,156,↑,down,↓,0.6630389998899773,False,16
28K21,344,experiment,96,↑,up,↑,0.638218600070104,True,16
28K21,345,experiment,144,↓,down,↓,0.6342836000258103,True,16
28K21,346,training,60,↑,down,↓,0.7508300000336021,False,16
28K21,347,training,36,→,right,→,0.6449825000017881,True,16
28K21,348,training,96,↓,down,↓,0.5250607000198215,True,16
28K21,349,experiment,48,←,left,←,0.5392340999096632,True,16
28K21,350,experiment,60,←,left,←,0.6592109999619424,True,16
28K21,351,experiment,24,←,left,←,1.5394885999849066,True,16
28K21,352,experiment,156,↓,down,↓,0.7134210000513121,True,16
28K21,353,experiment,60,←,left,←,0.5075865000253543,True,16
28K21,354,experiment,120,↓,down,↓,0.5432596999453381,True,16
28K21,355,experiment,24,←,left,←,0.5231079999357462,True,16
28K21,356,experiment,96,↓,up,↑,1.0358655999880284,False,16
28K21,357,experiment,132,←,left,←,0.6101019999478012,True,16
28K21,358,experiment,72,↑,down,↓,0.6517110000131652,False,16
28K21,359,experiment,60,↓,down,↓,0.7178402000572532,True,16
28K21,360,experiment,36,↑,up,↑,0.6825695999432355,True,16
28K21,361,experiment,72,↓,down,↓,0.5495808999985456,True,16
28K21,362,experiment,180,↓,right,→,0.9797713999869302,False,16
28K21,363,experiment,156,↑,up,↑,0.4487343999790028,True,16
28K21,364,experiment,72,↑,down,↓,0.7029343999456614,False,16
28K21,365,experiment,168,→,up,↑,0.7606002000393346,False,16
28K21,366,experiment,24,←,up,↑,0.6443755000364035,False,16
28K21,367,experiment,132,↓,down,↓,0.5643945999909192,True,16
28K21,368,experiment,12,↑,up,↑,0.6295439000241458,True,16
28K21,369,experiment,12,↓,up,↑,0.812142499955371,False,16
28K21,370,experiment,60,←,right,→,0.7292550000129268,False,16
28K21,371,experiment,84,↑,up,↑,1.2125218999572098,True,16
28K21,372,experiment,144,←,right,→,0.6352548999711871,False,16
28K21,373,experiment,48,↓,down,↓,0.5310402000322938,True,16
28K21,374,experiment,36,↑,up,↑,0.4370035999454558,True,16
28K21,375,experiment,12,↑,up,↑,0.47173760004807264,True,16
28K21,376,experiment,108,→,right,→,0.5333008000161499,True,16
28K21,377,experiment,132,↑,down,↓,0.6378837000811473,False,16
28K21,378,experiment,36,↑,up,↑,1.0478175000753254,True,16
28K21,379,experiment,48,←,down,↓,0.6972548000048846,False,16
28K21,380,experiment,96,→,right,→,0.6471198999788612,True,16
28K21,381,experiment,108,→,up,↑,1.070057199918665,False,16
28K21,382,experiment,168,←,left,←,0.7581159999826923,True,16
28K21,383,experiment,144,←,left,←,0.8364555999869481,True,16
28K21,384,experiment,108,→,left,←,0.8481131999287754,False,16
28K21,385,experiment,84,↑,up,↑,0.921969800023362,True,16
28K21,386,experiment,120,←,left,←,0.5735365999862552,True,16
28K21,387,experiment,24,→,left,←,0.6391058000735939,False,16
28K21,388,experiment,96,→,right,→,0.6498452000087127,True,16
28K21,389,experiment,96,←,left,←,0.7694448999827728,True,16
28K21,390,experiment,144,←,left,←,0.6392677000258118,True,16
28K21,391,experiment,120,←,left,←,0.5789119000546634,True,16
28K21,392,experiment,180,←,left,←,0.5045653999550268,True,16
28K21,393,experiment,180,←,left,←,0.48242990009021014,True,16
28K21,394,experiment,168,↓,down,↓,0.7222509999992326,True,16
28K21,395,experiment,156,↓,down,↓,0.6024594999616966,True,16
28K21,396,experiment,120,↓,down,↓,0.647195199970156,True,16
28K21,397,experiment,168,→,right,→,0.6394096000585705,True,16
28K21,398,experiment,12,→,right,→,0.7443026000401005,True,16
28K21,399,experiment,132,↑,up,↑,0.44176070007961243,True,16
28K21,400,experiment,72,↑,down,↓,0.7240956999594346,False,16
28K21,401,experiment,144,→,up,↑,0.6249267999082804,False,16
28K21,402,experiment,36,↓,down,↓,0.8033687999704853,True,16
28K21,403,experiment,156,→,right,→,0.6257766000926495,True,16
28K21,404,experiment,180,←,left,←,0.7389369999291375,True,16
28K21,405,experiment,108,↑,up,↑,0.5602873999159783,True,16
28K21,406,experiment,84,↓,down,↓,0.6148058000253513,True,16
28K21,407,experiment,48,↓,down,↓,0.6781067999545485,True,16
28K21,408,experiment,84,↑,up,↑,0.7443632000358775,True,16
28K21,409,training,132,↑,up,↑,0.644566599978134,True,16
28K21,410,training,156,←,left,←,0.8492492999648675,True,16
28K21,411,training,156,↑,up,↑,0.46630490000825375,True,16
28K21,412,experiment,180,↓,down,↓,0.6231101000448689,True,16
28K21,413,experiment,24,→,right,→,0.7569371999707073,True,16
28K21,414,experiment,156,→,right,→,0.6389247999759391,True,16
28K21,415,experiment,12,→,right,→,0.6774119000183418,True,16
28K21,416,experiment,84,←,left,←,0.6892502000555396,True,16
28K21,417,experiment,156,→,left,←,0.7242733000312,False,16
28K21,418,experiment,72,↓,down,↓,0.7599819999886677,True,16
28K21,419,experiment,36,←,left,←,0.6408427000278607,True,16
28K21,420,experiment,36,↑,up,↑,0.6973047000356019,True,16
28K21,421,experiment,108,↓,down,↓,0.6653879000805318,True,16
28K21,422,experiment,96,→,up,↑,0.8370888000354171,False,16
28K21,423,experiment,180,↑,up,↑,0.5452352999709547,True,16
28K21,424,experiment,12,→,right,→,0.5897802000399679,True,16
28K21,425,experiment,96,←,down,↓,0.717014400055632,False,16
28K21,426,experiment,72,↓,down,↓,0.7080124000785872,True,16
28K21,427,experiment,132,→,up,↑,0.6247145999222994,False,16
28K21,428,experiment,36,↑,up,↑,0.44904410000890493,True,16
28K21,429,experiment,168,↑,up,↑,1.0974038999993354,True,16
28K21,430,experiment,120,↓,down,↓,0.6612131999572739,True,16
28K21,431,experiment,144,←,left,←,0.5236015999689698,True,16
28K21,432,experiment,108,↓,down,↓,0.7860943999839947,True,16
28K21,433,experiment,132,↓,down,↓,0.7007760000415146,True,16
28K21,434,experiment,168,→,left,←,0.6913832999998704,False,16
28K21,435,experiment,36,→,right,→,0.5688057999359444,True,16
28K21,436,experiment,84,→,down,↓,0.7662433999357745,False,16
28K21,437,experiment,60,↓,down,↓,0.5443992000073195,True,16
28K21,438,experiment,84,→,right,→,0.5562182000139728,True,16
28K21,439,experiment,60,→,right,→,0.5376457000384107,True,16
28K21,440,experiment,108,→,down,↓,0.7677384000271559,False,16
28K21,441,experiment,48,↓,down,↓,0.5265452000312507,True,16
28K21,442,experiment,168,→,down,↓,0.7395160999149084,False,16
28K21,443,experiment,132,→,right,→,0.8050671999808401,True,16
28K21,444,experiment,180,←,down,↓,0.7527780999662355,False,16
28K21,445,experiment,96,→,left,←,0.743696799967438,False,16
28K21,446,experiment,120,↓,down,↓,0.6282914999173954,True,16
28K21,447,experiment,180,↓,down,↓,0.6656976999947801,True,16
28K21,448,experiment,144,←,left,←,0.5216112000634894,True,16
28K21,449,experiment,24,↑,down,↓,0.6746646999381483,False,16
28K21,450,experiment,72,←,left,←,0.6730512999929488,True,16
28K21,451,experiment,144,↑,up,↑,0.5319356000982225,True,16
28K21,452,experiment,60,↓,down,↓,0.6041132999816909,True,16
28K21,453,experiment,156,←,left,←,0.5122628000099212,True,16
28K21,454,experiment,48,←,left,←,0.5982160998973995,True,16
28K21,455,experiment,144,→,right,→,0.8013229999924079,True,16
28K21,456,experiment,24,↑,up,↑,0.794705200009048,True,16
28K21,457,experiment,120,←,left,←,0.5641351999947801,True,16
28K21,458,experiment,96,↑,up,↑,0.6164656999753788,True,16
28K21,459,experiment,168,↑,up,↑,0.4952614000067115,True,16
28K21,460,experiment,24,→,right,→,0.6208043999504298,True,16
28K21,461,experiment,48,↑,up,↑,0.5869796000188217,True,16
28K21,462,experiment,60,↑,up,↑,0.625885600107722,True,16
28K21,463,experiment,132,↑,up,↑,1.046843499992974,True,16
28K21,464,experiment,72,↓,down,↓,0.7293580999830738,True,16
28K21,465,experiment,84,→,right,→,0.7365271999733523,True,16
28K21,466,experiment,12,↑,up,↑,0.580500700045377,True,16
28K21,467,experiment,108,←,left,←,1.2803374000359327,True,16
28K21,468,experiment,120,↓,down,↓,0.556659399997443,True,16
28K21,469,experiment,48,←,left,←,0.8862909000599757,True,16
28K21,470,experiment,12,↑,up,↑,0.4857777999714017,True,16
28K21,471,experiment,156,↓,down,↓,0.5817590000806376,True,16
28K21,472,training,36,→,right,→,0.7054538000375032,True,16
28K21,473,training,12,→,right,→,0.6941042999969795,True,16
28K21,474,training,108,←,left,←,0.4438601000001654,True,16
28K21,475,experiment,180,→,right,→,0.6696558999828994,True,16
28K21,476,experiment,108,↑,up,↑,0.6223330999491736,True,16
28K21,477,experiment,24,←,left,←,0.6682995000155643,True,16
28K21,478,experiment,156,←,left,←,0.7183806999819353,True,16
28K21,479,experiment,132,←,left,←,0.6600556999910623,True,16
28K21,480,experiment,84,↓,down,↓,0.7882457999512553,True,16
28K21,481,experiment,96,↓,down,↓,0.6949425999773666,True,16
28K21,482,experiment,144,←,left,←,0.5489741000346839,True,16
28K21,483,experiment,48,↑,up,↑,0.49109110003337264,True,16
28K21,484,experiment,24,←,left,←,0.6479577000718564,True,16
28K21,485,experiment,144,→,right,→,0.7782713000196964,True,16
28K21,486,experiment,120,←,left,←,0.5873584999935701,True,16
28K21,487,experiment,96,↑,up,↑,0.5315740000223741,True,16
28K21,488,experiment,120,↓,down,↓,0.671142999897711,True,16
28K21,489,experiment,60,↓,down,↓,0.6064596000360325,True,16
28K21,490,experiment,12,↑,up,↑,0.6211942000081763,True,16
28K21,491,experiment,120,↓,down,↓,0.7050589000573382,True,16
28K21,492,experiment,72,↓,down,↓,0.676108599989675,True,16
28K21,493,experiment,168,←,left,←,0.7043304999824613,True,16
28K21,494,experiment,36,↓,down,↓,0.7730671999743208,True,16
28K21,495,experiment,24,→,right,→,0.6755812000483274,True,16
28K21,496,experiment,144,←,left,←,0.8360928000183776,True,16
28K21,497,experiment,132,→,right,→,0.5519140000687912,True,16
28K21,498,experiment,144,↓,down,↓,0.5067125000059605,True,16
28K21,499,experiment,120,↑,up,↑,0.4767527000512928,True,16
28K21,500,experiment,96,←,left,←,0.7029840999748558,True,16
28K21,501,experiment,84,→,right,→,0.8212402999633923,True,16
28K21,502,experiment,72,←,left,←,0.4638271000003442,True,16
28K21,503,experiment,36,↑,up,↑,0.40045269997790456,True,16
28K21,504,experiment,180,→,right,→,0.5672491999575868,True,16
28K21,505,experiment,168,←,left,←,0.5273293000645936,True,16
28K21,506,experiment,108,↑,up,↑,0.5774366999976337,True,16
28K21,507,experiment,108,←,down,↓,0.7387284999713302,False,16
28K21,508,experiment,168,↓,down,↓,0.7246833000099286,True,16
28K21,509,experiment,132,↓,right,→,0.6763841999927536,False,16
28K21,510,experiment,48,↓,down,↓,0.6383028000127524,True,16
28K21,511,experiment,72,↑,up,↑,0.5961977000115439,True,16
28K21,512,experiment,84,→,right,→,0.5908255999675021,True,16
28K21,513,experiment,180,←,left,←,0.7535547000588849,True,16
28K21,514,experiment,60,→,right,→,0.7116796999471262,True,16
28K21,515,experiment,156,↓,down,↓,0.4979134000604972,True,16
28K21,516,experiment,12,↓,down,↓,0.6504033000674099,True,16
28K21,517,experiment,12,←,left,←,0.5318595001008362,True,16
28K21,518,experiment,84,↑,down,↓,0.703566399984993,False,16
28K21,519,experiment,36,↓,down,↓,0.5205955000128597,True,16
28K21,520,experiment,180,↑,up,↑,0.8579579000361264,True,16
28K21,521,experiment,48,→,right,→,0.5008368999697268,True,16
28K21,522,experiment,24,↓,down,↓,0.6234604000346735,True,16
28K21,523,experiment,60,↓,down,↓,0.5382594000548124,True,16
28K21,524,experiment,36,↑,up,↑,0.5745941000059247,True,16
28K21,525,experiment,72,↑,up,↑,1.256905300077051,True,16
28K21,526,experiment,156,↑,up,↑,0.7192063999827951,True,16
28K21,527,experiment,168,↓,down,↓,0.8870998000493273,True,16
28K21,528,experiment,96,→,right,→,0.6517558000050485,True,16
28K21,529,experiment,60,→,right,→,0.7289855000562966,True,16
28K21,530,experiment,48,→,right,→,1.13602690002881,True,16
28K21,531,experiment,108,↑,up,↑,1.078388899913989,True,16
28K21,532,experiment,156,←,left,←,0.8775098000187427,True,16
28K21,533,experiment,132,←,left,←,0.8250314999604598,True,16
28K21,534,experiment,12,→,right,→,0.6976935000857338,True,16
28K21,535,training,12,↑,up,↑,0.6707319000270218,True,15
28K21,536,training,84,↓,right,→,0.7005645000608638,False,15
28K21,537,training,156,↑,down,↓,0.690134400036186,False,15
28K21,538,experiment,120,←,left,←,0.8060638000024483,True,15
28K21,539,experiment,72,↑,down,↓,0.5690083999652416,False,15
28K21,540,experiment,96,←,left,←,0.5889786999905482,True,15
28K21,541,experiment,36,←,left,←,0.622751499991864,True,15
28K21,542,experiment,132,↓,down,↓,0.783606700017117,True,15
28K21,543,experiment,84,→,right,→,0.6834175999974832,True,15
28K21,544,experiment,156,→,left,←,0.6865862000267953,False,15
28K21,545,experiment,72,↑,up,↑,0.7351009999401867,True,15
28K21,546,experiment,96,→,right,→,0.5607582000084221,True,15
28K21,547,experiment,180,↑,up,↑,0.758305799914524,True,15
28K21,548,experiment,84,↑,up,↑,0.5601558000780642,True,15
28K21,549,experiment,180,←,left,←,0.6225773000624031,True,15
28K21,550,experiment,36,→,right,→,0.573216799995862,True,15
28K21,551,experiment,12,→,left,←,1.0170963000273332,False,15
28K21,552,experiment,108,→,right,→,0.6213724999688566,True,15
28K21,553,experiment,24,←,left,←,0.656419700011611,True,15
28K21,554,experiment,144,→,right,→,0.720870100078173,True,15
28K21,555,experiment,48,←,left,←,0.5964071999769658,True,15
28K21,556,experiment,120,→,right,→,0.5985861999215558,True,15
28K21,557,experiment,36,↑,up,↑,0.4722894999431446,True,15
28K21,558,experiment,72,↑,up,↑,0.6118684000102803,True,15
28K21,559,experiment,60,←,left,←,0.5556657999986783,True,15
28K21,560,experiment,144,↑,up,↑,0.4942697000224143,True,15
28K21,561,experiment,60,↓,down,↓,0.8072063999716192,True,15
28K21,562,experiment,156,→,right,→,0.8006212000036612,True,15
28K21,563,experiment,48,→,right,→,0.6891936999745667,True,15
28K21,564,experiment,60,←,left,←,0.7496379000367597,True,15
28K21,565,experiment,144,←,left,←,0.6327003999613225,True,15
28K21,566,experiment,180,↑,up,↑,0.6602394999936223,True,15
28K21,567,experiment,48,←,left,←,0.5881812999723479,True,15
28K21,568,experiment,108,→,right,→,0.7563189000356942,True,15
28K21,569,experiment,60,→,left,←,0.9892240000190213,False,15
28K21,570,experiment,96,←,left,←,0.4614914999110624,True,15
28K21,571,experiment,108,→,right,→,0.7039530999027193,True,15
28K21,572,experiment,144,↑,up,↑,0.7371260999934748,True,15
28K21,573,experiment,36,↑,left,←,0.6870969000738114,False,15
28K21,574,experiment,132,←,left,←,0.6376452000113204,True,15
28K21,575,experiment,168,←,left,←,0.5027842000126839,True,15
28K21,576,experiment,12,←,left,←,0.5140115999383852,True,15
28K21,577,experiment,72,↑,up,↑,0.619429900078103,True,15
28K21,578,experiment,132,→,right,→,0.6410851000109687,True,15
28K21,579,experiment,132,↑,up,↑,0.5227179999928921,True,15
28K21,580,experiment,48,↓,down,↓,0.6754065999994054,True,15
28K21,581,experiment,12,↑,up,↑,0.612049600109458,True,15
28K21,582,experiment,108,↑,up,↑,0.5517526000039652,True,15
28K21,583,experiment,24,↓,right,→,0.8291813000105321,False,15
28K21,584,experiment,12,→,left,←,1.0983530000085011,False,15
28K21,585,experiment,168,↓,down,↓,0.5900385000277311,True,15
28K21,586,experiment,168,↓,down,↓,0.6584142999490723,True,15
28K21,587,experiment,24,→,right,→,0.5677870999788865,True,15
28K21,588,experiment,84,↓,down,↓,0.8065121000399813,True,15
28K21,589,experiment,156,←,left,←,0.788879600004293,True,15
28K21,590,experiment,84,→,right,→,0.5385800000512972,True,15
28K21,591,experiment,120,→,left,←,0.7666729000629857,False,15
28K21,592,experiment,24,↑,up,↑,0.7939261000137776,True,15
28K21,593,experiment,180,↑,up,↑,0.6867624999722466,True,15
28K21,594,experiment,120,→,up,↑,0.6100559000624344,False,15
28K21,595,experiment,168,←,left,←,0.6734736000653356,True,15
28K21,596,experiment,156,←,left,←,0.6345582000212744,True,15
28K21,597,experiment,96,←,left,←,0.6719101000344381,True,15
28K21,598,training,96,↓,down,↓,0.6665278999134898,True,15
28K21,599,training,120,←,left,←,0.4338811000343412,True,15
28K21,600,training,180,←,left,←,0.4624216000083834,True,15
28K21,601,experiment,48,↓,down,↓,0.733729499974288,True,15
28K21,602,experiment,108,→,right,→,0.6463649999350309,True,15
28K21,603,experiment,12,→,right,→,0.5203913000877947,True,15
28K21,604,experiment,84,←,left,←,0.41799980006180704,True,15
28K21,605,experiment,144,↓,down,↓,0.7883567999815568,True,15
28K21,606,experiment,180,←,left,←,0.6979098999872804,True,15
28K21,607,experiment,144,↓,down,↓,0.7350017999997362,True,15
28K21,608,experiment,108,↑,up,↑,0.43772629997693,True,15
28K21,609,experiment,120,←,left,←,0.7218161999480799,True,15
28K21,610,experiment,72,←,left,←,0.6956437000771984,True,15
28K21,611,experiment,60,←,left,←,0.45916689990554005,True,15
28K21,612,experiment,132,←,left,←,0.42189160000998527,True,15
28K21,613,experiment,12,→,right,→,0.833410800085403,True,15
28K21,614,experiment,72,→,right,→,0.8229928999207914,True,15
28K21,615,experiment,84,←,left,←,0.7506370000774041,True,15
28K21,616,experiment,60,↓,down,↓,0.5499050000216812,True,15
28K21,617,experiment,168,↑,up,↑,0.5417567000258714,True,15
28K21,618,experiment,72,→,right,→,0.7614642000989988,True,15
28K21,619,experiment,84,→,right,→,0.8755853000329807,True,15
28K21,620,experiment,24,↑,up,↑,0.786875499994494,True,15
28K21,621,experiment,96,↓,down,↓,0.7493109999923036,True,15
28K21,622,experiment,180,→,right,→,0.5929300000425428,True,15
28K21,623,experiment,168,→,right,→,0.5628650999860838,True,15
28K21,624,experiment,168,→,right,→,0.8137994999997318,True,15
28K21,625,experiment,156,→,right,→,0.8173251999542117,True,15
28K21,626,experiment,156,←,left,←,1.4199000999797136,True,15
28K21,627,experiment,36,→,right,→,0.6780166999669746,True,15
28K21,628,experiment,96,↓,down,↓,0.7058030000189319,True,15
28K21,629,experiment,108,↑,up,↑,0.6045984000666067,True,15
28K21,630,experiment,120,↓,down,↓,0.6747516000177711,True,15
28K21,631,experiment,180,←,left,←,1.211354099912569,True,15
28K21,632,experiment,60,←,right,→,0.7026710000354797,False,15
28K21,633,experiment,132,↓,down,↓,0.7221213999437168,True,15
28K21,634,experiment,12,↑,up,↑,0.6625955000054091,True,15
28K21,635,experiment,132,→,right,→,0.9824483999982476,True,15
28K21,636,experiment,180,←,left,←,0.7455114000476897,True,15
28K21,637,experiment,84,→,up,↑,0.9333724000025541,False,15
28K21,638,experiment,24,→,right,→,0.7647393000079319,True,15
28K21,639,experiment,156,↓,down,↓,0.6731153998989612,True,15
28K21,640,experiment,48,→,right,→,0.7126904000760987,True,15
28K21,641,experiment,168,←,left,←,0.549981200019829,True,15
28K21,642,experiment,96,↑,up,↑,0.6100473999977112,True,15
28K21,643,experiment,24,↑,up,↑,0.5406360999913886,True,15
28K21,644,experiment,36,↓,down,↓,0.6857894998975098,True,15
28K21,645,experiment,120,←,left,←,0.7816105999518186,True,15
28K21,646,experiment,36,→,right,→,0.8065182999707758,True,15
28K21,647,experiment,72,←,left,←,0.4946959000080824,True,15
28K21,648,experiment,24,↓,down,↓,0.7918399999616668,True,15
28K21,649,experiment,144,↓,down,↓,0.722454100032337,True,15
28K21,650,experiment,96,↑,up,↑,0.5401729999575764,True,15
28K21,651,experiment,36,↓,down,↓,0.5023112000199035,True,15
28K21,652,experiment,60,↑,right,→,0.7463902999879792,False,15
28K21,653,experiment,108,↓,down,↓,0.6920285999076441,True,15
28K21,654,experiment,12,↓,down,↓,0.7736587999388576,True,15
28K21,655,experiment,132,→,right,→,0.7529933999758214,True,15
28K21,656,experiment,120,→,right,→,0.5880834999261424,True,15
28K21,657,experiment,156,↑,up,↑,0.4724982000188902,True,15
28K21,658,experiment,48,→,right,→,0.6500440000090748,True,15
28K21,659,experiment,144,↓,down,↓,0.5422679999610409,True,15
28K21,660,experiment,48,↑,right,→,0.64129350008443,False,15
28K21,661,training,108,←,left,←,0.7785757998935878,True,14
28K21,662,training,108,←,down,↓,0.8035642000613734,False,14
28K21,663,training,36,→,right,→,0.6996304000495002,True,14
28K21,664,experiment,132,↑,down,↓,0.7353399000130594,False,14
28K21,665,experiment,84,↑,left,←,0.6953166000312194,False,14
28K21,666,experiment,180,↓,down,↓,0.5913081000326201,True,14
28K21,667,experiment,12,↑,up,↑,0.5532435999484733,True,14
28K21,668,experiment,24,↓,down,↓,0.6725588999688625,True,14
28K21,669,experiment,144,→,right,→,0.7328855000669137,True,14
28K21,670,experiment,48,↓,down,↓,0.6398324000183493,True,14
28K21,671,experiment,132,↓,down,↓,0.585722399991937,True,14
28K21,672,experiment,144,↑,up,↑,0.636589500005357,True,14
28K21,673,experiment,48,←,down,↓,0.5651499000377953,False,14
28K21,674,experiment,60,↓,down,↓,0.6160490999463946,True,14
28K21,675,experiment,168,←,left,←,0.7716654000105336,True,14
28K21,676,experiment,156,→,right,→,0.7091617999831215,True,14
28K21,677,experiment,156,↓,down,↓,0.7148830000078306,True,14
28K21,678,experiment,24,←,left,←,0.6698493000585586,True,14
28K21,679,experiment,108,↑,down,↓,0.639367499970831,False,14
28K21,680,experiment,72,↑,up,↑,0.4811178999952972,True,14
28K21,681,experiment,168,→,right,→,0.6587740000104532,True,14
28K21,682,experiment,48,→,right,→,0.5339894000208005,True,14
28K21,683,experiment,60,→,right,→,0.5598872000118718,True,14
28K21,684,experiment,84,↑,up,↑,0.5461329000536352,True,14
28K21,685,experiment,36,→,right,→,0.5844721000175923,True,14
28K21,686,experiment,60,↑,up,↑,0.42797090008389205,True,14
28K21,687,experiment,144,↓,up,↑,0.4941677999449894,False,14
28K21,688,experiment,168,↑,up,↑,0.5125024999724701,True,14
28K21,689,experiment,180,↑,down,↓,0.6887043999740854,False,14
28K21,690,experiment,180,←,up,↑,0.5056532999733463,False,14
28K21,691,experiment,132,↑,up,↑,1.027080199914053,True,14
28K21,692,experiment,120,←,left,←,0.7897134000668302,True,14
28K21,693,experiment,48,←,up,↑,0.7878153000492603,False,14
28K21,694,experiment,24,↑,up,↑,0.4143350999802351,True,14
28K21,695,experiment,156,←,right,→,0.8461806999985129,False,14
28K21,696,experiment,108,→,up,↑,0.5120289999758825,False,14
28K21,697,experiment,36,↑,up,↑,0.4258018999826163,True,14
28K21,698,experiment,144,←,left,←,0.6343804999487475,True,14
28K21,699,experiment,36,→,right,→,0.8358850000659004,True,14
28K21,700,experiment,60,↓,up,↑,0.424549899995327,False,14
28K21,701,experiment,120,↑,up,↑,0.8640110999112949,True,14
28K21,702,experiment,156,↑,up,↑,0.7708454000530764,True,14
28K21,703,experiment,180,↑,left,←,1.4818028999725357,False,14
28K21,704,experiment,108,←,left,←,0.6484226000029594,True,14
28K21,705,experiment,24,→,right,→,0.705614099977538,True,14
28K21,706,experiment,36,→,down,↓,0.7180794000159949,False,14
28K21,707,experiment,12,→,left,←,0.5039263999788091,False,14
28K21,708,experiment,108,←,left,←,0.5707678000908345,True,14
28K21,709,experiment,72,→,left,←,0.658060499932617,False,14
28K21,710,experiment,72,←,left,←,0.7542080000275746,True,14
28K21,711,experiment,120,←,left,←,0.6469938999507576,True,14
28K21,712,experiment,84,↓,down,↓,0.6565073999809101,True,14
28K21,713,experiment,84,→,left,←,0.7045557999517769,False,14
28K21,714,experiment,96,→,left,←,0.6674025999382138,False,14
28K21,715,experiment,96,←,left,←,0.5122534999391064,True,14
28K21,716,experiment,120,←,left,←,0.4747051999438554,True,14
28K21,717,experiment,72,↓,down,↓,0.8459957999875769,True,14
28K21,718,experiment,12,↓,down,↓,0.8741708999732509,True,14
28K21,719,experiment,96,↓,down,↓,0.5627703000791371,True,14
28K21,720,experiment,168,↑,up,↑,0.9045257000252604,True,14
28K21,721,experiment,96,→,left,←,1.030732199898921,False,14
28K21,722,experiment,12,↓,down,↓,0.5981415000278503,True,14
28K21,723,experiment,132,←,left,←,0.8293020999990404,True,14
28K21,724,training,180,↓,right,→,0.705029199947603,False,14
28K21,725,training,168,↓,down,↓,0.6622002000221983,True,14
28K21,726,training,108,↓,down,↓,0.5250438000075519,True,14
28K21,727,experiment,120,→,left,←,0.7534067000960931,False,14
28K21,728,experiment,12,↑,left,←,0.7004486999940127,False,14
28K21,729,experiment,12,←,right,→,0.76490880001802,False,14
28K21,730,experiment,144,↓,down,↓,0.6814631000161171,True,14
28K21,731,experiment,96,↑,right,→,0.8046378999715671,False,14
28K21,732,experiment,180,↑,up,↑,0.6315816999413073,True,14
28K21,733,experiment,168,↓,down,↓,0.6015664999140427,True,14
28K21,734,experiment,132,→,right,→,0.5734090000623837,True,14
28K21,735,experiment,60,→,right,→,0.5627437999937683,True,14
28K21,736,experiment,96,↑,up,↑,0.4965705999638885,True,14
28K21,737,experiment,72,↑,up,↑,0.4538596000056714,True,14
28K21,738,experiment,96,←,right,→,0.645765500026755,False,14
28K21,739,experiment,60,←,left,←,1.2124931999715045,True,14
28K21,740,experiment,48,→,right,→,0.5780344000086188,True,14
28K21,741,experiment,12,↓,down,↓,0.6441635999362916,True,14
28K21,742,experiment,156,←,left,←,0.7738271999405697,True,14
28K21,743,experiment,180,↑,up,↑,0.4388625000137836,True,14
28K21,744,experiment,96,↑,up,↑,0.44244740006979555,True,14
28K21,745,experiment,24,→,right,→,0.7886911999667063,True,14
28K21,746,experiment,36,→,right,→,0.7207778999581933,True,14
28K21,747,experiment,36,←,left,←,0.5025061999913305,True,14
28K21,748,experiment,180,←,down,↓,0.8941415000008419,False,14
28K21,749,experiment,132,↑,right,→,0.7047677000518888,False,14
28K21,750,experiment,12,←,left,←,0.5060421999078244,True,14
28K21,751,experiment,36,↓,down,↓,0.7066602000268176,True,14
28K21,752,experiment,24,→,left,←,0.5626350999809802,False,14
28K21,753,experiment,84,→,down,↓,0.5515230000019073,False,14
28K21,754,experiment,24,←,right,→,0.6101984999841079,False,14
28K21,755,experiment,156,↑,up,↑,0.7003346999408677,True,14
28K21,756,experiment,132,↓,down,↓,0.5388949000043795,True,14
28K21,757,experiment,60,↑,up,↑,0.4295648999977857,True,14
28K21,758,experiment,108,→,right,→,0.6028285000938922,True,14
28K21,759,experiment,168,↓,up,↑,0.501629100064747,False,14
28K21,760,experiment,84,↓,up,↑,0.5124513000482693,False,14
28K21,761,experiment,168,←,left,←,0.4630810000235215,True,14
28K21,762,experiment,120,↑,up,↑,0.47335510002449155,True,14
28K21,763,experiment,144,←,left,←,0.55403280002065,True,14
28K21,764,experiment,84,→,up,↑,0.6106692999601364,False,14
28K21,765,experiment,48,↓,down,↓,0.6253681000089273,True,14
28K21,766,experiment,48,↑,up,↑,1.029810499981977,True,14
28K21,767,experiment,48,↓,down,↓,0.5960539999650791,True,14
28K21,768,experiment,144,↓,down,↓,0.6659971000626683,True,14
28K21,769,experiment,180,→,down,↓,0.6222286000847816,False,14
28K21,770,experiment,72,↓,down,↓,0.5344084999524057,True,14
28K21,771,experiment,108,←,left,←,0.5357833999441937,True,14
28K21,772,experiment,60,→,right,→,0.5911823000060394,True,14
28K21,773,experiment,156,↑,up,↑,0.8053540999535471,True,14
28K21,774,experiment,108,→,right,→,0.6878701999085024,True,14
28K21,775,experiment,156,↓,down,↓,0.6480609000427648,True,14
28K21,776,experiment,72,↓,down,↓,0.5616482000332326,True,14
28K21,777,experiment,72,↑,up,↑,0.9231551999691874,True,14
28K21,778,experiment,36,↓,down,↓,0.6003273000242189,True,14
28K21,779,experiment,120,→,right,→,0.6877760000061244,True,14
28K21,780,experiment,168,←,left,←,0.6082425999920815,True,14
28K21,781,experiment,120,↑,up,↑,0.6047956999391317,True,14
28K21,782,experiment,144,→,up,↑,0.7842305999947712,False,14
28K21,783,experiment,108,↓,down,↓,0.6469582000281662,True,14
28K21,784,experiment,24,←,left,←,0.5940181999467313,True,14
28K21,785,experiment,132,↓,down,↓,0.7961099999956787,True,14
28K21,786,experiment,84,↑,up,↑,0.5456724000396207,True,14
28K21,787,training,156,↓,up,↑,0.7514830000000075,False,14
28K21,788,training,60,↑,down,↓,0.6381651000119746,False,14
28K21,789,training,108,↓,down,↓,0.5293798999628052,True,14
28K21,790,experiment,84,↑,down,↓,0.7050417000427842,False,14
28K21,791,experiment,108,←,left,←,0.501001299940981,True,14
28K21,792,experiment,120,→,right,→,0.6785223999759182,True,14
28K21,793,experiment,12,→,down,↓,0.9060097000328824,False,14
28K21,794,experiment,168,←,down,↓,0.7155542999971658,False,14
28K21,795,experiment,96,↓,up,↑,0.5213293000124395,False,14
28K21,796,experiment,96,↓,down,↓,0.6050565999466926,True,14
28K21,797,experiment,144,→,right,→,0.7174744000658393,True,14
28K21,798,experiment,108,↑,up,↑,0.6317152000265196,True,14
28K21,799,experiment,60,←,left,←,0.5402991001028568,True,14
28K21,800,experiment,96,→,right,→,0.5944853000110015,True,14
28K21,801,experiment,180,↑,down,↓,0.6349609999451786,False,14
28K21,802,experiment,36,→,left,←,0.6190724999178201,False,14
28K21,803,experiment,168,←,right,→,0.674141600029543,False,14
28K21,804,experiment,108,↑,down,↓,0.6390994000248611,False,14
28K21,805,experiment,132,→,up,↑,0.4610710999695584,False,14
28K21,806,experiment,60,←,left,←,0.7178720000665635,True,14
28K21,807,experiment,120,↓,down,↓,0.6284689999883994,True,14
28K21,808,experiment,168,↓,right,→,0.5227307000895962,False,14
28K21,809,experiment,156,↑,down,↓,0.6262964999768883,False,14
28K21,810,experiment,132,←,down,↓,0.7450972000369802,False,14
28K21,811,experiment,180,←,left,←,0.5224153000162914,True,14
28K21,812,experiment,24,↓,up,↑,0.7665827000746503,False,14
28K21,813,experiment,156,→,right,→,0.9106729000341147,True,14
28K21,814,experiment,12,↓,down,↓,0.6620401999680325,True,14
28K21,815,experiment,72,↓,down,↓,0.5820510999765247,True,14
28K21,816,experiment,180,↓,left,←,0.5985735000576824,False,14
28K21,817,experiment,48,↓,down,↓,0.6100201999070123,True,14
28K21,818,experiment,132,→,right,→,0.6334219999844208,True,14
28K21,819,experiment,84,←,down,↓,0.5994917000643909,False,14
28K21,820,experiment,72,↑,up,↑,0.5419684000080451,True,14
28K21,821,experiment,84,→,right,→,0.6451947999885306,True,14
28K21,822,experiment,72,↓,down,↓,0.6171536999754608,True,14
28K21,823,experiment,36,↓,up,↑,0.5461705999914557,False,14
28K21,824,experiment,156,↓,down,↓,0.7543764000292867,True,14
28K21,825,experiment,144,↑,up,↑,0.5747972000390291,True,14
28K21,826,experiment,24,←,down,↓,0.6417107000015676,False,14
28K21,827,experiment,96,→,right,→,0.7111752999480814,True,14
28K21,828,experiment,60,←,left,←,0.6366109999362379,True,14
28K21,829,experiment,12,↓,down,↓,0.5285876999842003,True,14
28K21,830,experiment,168,↑,down,↓,0.7160371999489143,False,14
28K21,831,experiment,132,↓,down,↓,0.5671198000200093,True,14
28K21,832,experiment,120,↑,down,↓,0.6054020998999476,False,14
28K21,833,experiment,144,→,right,→,0.5522792000556365,True,14
28K21,834,experiment,108,↑,down,↓,0.5315029999474064,False,14
28K21,835,experiment,180,←,left,←,0.8641659000422806,True,14
28K21,836,experiment,48,↑,up,↑,0.4254288000520319,True,14
28K21,837,experiment,120,→,right,→,0.5362953000003472,True,14
28K21,838,experiment,36,↑,left,←,0.6707556999754161,False,14
28K21,839,experiment,12,←,left,←,0.6437247000867501,True,14
28K21,840,experiment,144,←,left,←,0.5873483000323176,True,14
28K21,841,experiment,84,→,down,↓,0.6740425999742001,False,14
28K21,842,experiment,36,↑,down,↓,0.7124858999159187,False,14
28K21,843,experiment,48,→,right,→,0.5363487999420613,True,14
28K21,844,experiment,48,↑,left,←,1.2956857000244781,False,14
28K21,845,experiment,156,←,right,→,0.6950494999764487,False,14
28K21,846,experiment,24,→,right,→,0.6390417999355122,True,14
28K21,847,experiment,72,↑,up,↑,0.5216800000052899,True,14
28K21,848,experiment,60,→,left,←,0.7663444000063464,False,14
28K21,849,experiment,24,↑,up,↑,0.49001539999153465,True,14
