PART_ID,Trial_no,Trial_type,PDI,Stim_letter,Key_pressed,letter_choose,Rt,Corr,Stimulus Time
29K26,1,training,10,→,right,→,0.5171662000066135,True,30
29K26,2,training,10,→,right,→,0.367317299998831,True,30
29K26,3,training,10,←,left,←,0.5338646000018343,True,30
29K26,4,training,10,↑,up,↑,0.6951377000077628,True,30
29K26,5,training,10,→,right,→,0.8229300000093644,True,30
29K26,6,training,10,→,left,←,0.4338391000055708,False,30
29K26,7,training,10,↓,right,→,0.5505940000002738,False,30
29K26,8,training,10,↓,down,↓,0.45115850000001956,True,30
29K26,9,training,10,←,left,←,0.5838258000003407,True,30
29K26,10,training,10,↑,up,↑,1.7639136999932816,True,30
29K26,11,training,10,←,right,→,0.7633218000119086,False,30
29K26,12,training,10,→,right,→,0.5672902000078466,True,30
29K26,13,training,10,←,right,→,0.5836390999902505,False,30
29K26,14,training,10,→,right,→,0.4671133999945596,True,30
29K26,15,training,10,←,left,←,0.4672891999944113,True,30
29K26,16,training,10,→,right,→,0.682289899996249,True,30
29K26,17,training,10,→,right,→,0.4005821000027936,True,30
29K26,18,training,10,→,right,→,0.5337572999997064,True,30
29K26,19,training,10,→,right,→,0.41722350000054576,True,30
29K26,20,training,10,←,left,←,0.4506716000032611,True,30
29K26,21,training,10,↓,right,→,0.31731030000082683,False,18
29K26,22,training,10,→,right,→,0.4173069999960717,True,18
29K26,23,training,10,→,right,→,0.4723169999924721,True,18
29K26,24,training,10,↓,down,↓,0.5084052000020165,True,18
29K26,25,training,10,↑,right,→,0.43383670000184793,False,18
29K26,26,training,10,→,right,→,0.4005491999996593,True,18
29K26,27,training,10,↑,up,↑,0.5125276000035228,True,18
29K26,28,training,10,←,right,→,0.3672738000022946,False,18
29K26,29,training,10,←,right,→,0.350515500002075,False,18
29K26,30,training,10,↑,up,↑,0.5916621000069426,True,18
29K26,31,training,168,↓,up,↑,0.46392769999511074,False,15
29K26,32,training,180,→,up,↑,1.652284799987683,False,15
29K26,33,training,36,←,left,←,0.4343344000080833,True,15
29K26,34,experiment,60,↑,up,↑,0.5956818000122439,True,15
29K26,35,experiment,36,↑,up,↑,1.169817800007877,True,15
29K26,36,experiment,96,↓,up,↑,0.30065570000442676,False,15
29K26,37,experiment,24,←,up,↑,0.4992672000080347,False,15
29K26,38,experiment,12,↑,up,↑,1.819554399990011,True,15
29K26,39,experiment,72,↑,left,←,0.3006874999991851,False,15
29K26,40,experiment,108,←,up,↑,0.33379439999407623,False,15
29K26,41,experiment,24,→,right,→,0.5494039000041084,True,15
29K26,42,experiment,96,↓,right,→,0.2504753000102937,False,15
29K26,43,experiment,132,→,up,↑,0.08392199999070726,False,15
29K26,44,experiment,144,↑,up,↑,0.49083549999340903,True,15
29K26,45,experiment,60,←,up,↑,0.6012266999896383,False,15
29K26,46,experiment,36,→,right,→,0.4335453999956371,True,15
29K26,47,experiment,144,→,right,→,0.453075199999148,True,15
29K26,48,experiment,180,←,left,←,0.5426943000056781,True,15
29K26,49,experiment,132,→,up,↑,0.30110310000600293,False,15
29K26,50,experiment,144,←,left,←,0.25057260000903625,True,15
29K26,51,experiment,48,↑,left,←,1.2953768000006676,False,15
29K26,52,experiment,132,←,right,→,0.30049170000711456,False,15
29K26,53,experiment,108,→,right,→,1.2901336000068113,True,15
29K26,54,experiment,180,←,up,↑,0.9745857999951113,False,15
29K26,55,experiment,156,→,up,↑,0.4783192000031704,False,15
29K26,56,experiment,48,↑,up,↑,0.551791800011415,True,15
29K26,57,experiment,84,↓,up,↑,0.42285079999419395,False,15
29K26,58,experiment,168,→,left,←,0.35039510000206064,False,15
29K26,59,experiment,12,←,right,→,0.5940330000012182,False,15
29K26,60,experiment,72,↑,no_key,no_letter,-1.0,False,15
29K26,61,experiment,24,↑,right,→,0.3671941000065999,False,15
29K26,62,experiment,156,←,up,↑,0.5237908999988576,False,15
29K26,63,experiment,120,↓,up,↑,0.4496849999995902,False,15
29K26,64,experiment,120,↑,up,↑,0.35047689999919385,True,15
29K26,65,experiment,144,↑,up,↑,0.28388419999100734,True,15
29K26,66,experiment,132,↓,up,↑,0.23405579999962356,False,15
29K26,67,experiment,168,→,down,↓,0.5034522999922046,False,15
29K26,68,experiment,120,↓,right,→,0.33399549999739975,False,15
29K26,69,experiment,108,→,right,→,0.30084359999455046,True,15
29K26,70,experiment,84,↓,no_key,no_letter,-1.0,False,15
29K26,71,experiment,72,←,up,↑,1.0840324000018882,False,15
29K26,72,experiment,24,←,left,←,1.0110058999998728,True,15
29K26,73,experiment,48,←,up,↑,0.4483110000001034,False,15
29K26,74,experiment,180,→,right,→,0.33378539999830537,True,15
29K26,75,experiment,48,←,right,→,0.47728320000169333,False,15
29K26,76,experiment,84,←,right,→,0.3173238000017591,False,15
29K26,77,experiment,60,↓,no_key,no_letter,-1.0,False,15
29K26,78,experiment,168,→,no_key,no_letter,-1.0,False,15
29K26,79,experiment,156,↑,up,↑,0.7043247999972664,True,15
29K26,80,experiment,60,←,right,→,0.35053599999810103,False,15
29K26,81,experiment,96,→,right,→,0.3337020999897504,True,15
29K26,82,experiment,84,↑,up,↑,0.6200141000008443,True,15
29K26,83,experiment,156,←,left,←,0.44675309999729507,True,15
29K26,84,experiment,72,↓,no_key,no_letter,-1.0,False,15
29K26,85,experiment,96,→,down,↓,0.3671106999972835,False,15
29K26,86,experiment,180,↑,down,↓,0.3838672999991104,False,15
29K26,87,experiment,12,→,down,↓,1.1305654000025243,False,15
29K26,88,experiment,120,↑,down,↓,0.4734794999967562,False,15
29K26,89,experiment,108,←,right,→,0.4749967999960063,False,15
29K26,90,experiment,168,←,left,←,0.4877350999886403,True,15
29K26,91,experiment,12,←,no_key,no_letter,-1.0,False,15
29K26,92,experiment,36,↑,down,↓,0.5123602000094252,False,15
29K26,93,experiment,36,←,right,→,0.5120752999937395,False,15
29K26,94,training,96,←,right,→,0.516602799994871,False,16
29K26,95,training,48,←,left,←,1.582812600012403,True,16
29K26,96,training,72,→,right,→,0.3839134000008926,True,16
29K26,97,experiment,108,→,right,→,0.3171903999900678,True,16
29K26,98,experiment,96,←,left,←,0.4410420000058366,True,16
29K26,99,experiment,72,↑,down,↓,0.5802732000011019,False,16
29K26,100,experiment,168,←,right,→,0.38431490000220947,False,16
29K26,101,experiment,168,↓,left,←,0.5893383000075119,False,16
29K26,102,experiment,156,↑,left,←,0.4556857999996282,False,16
29K26,103,experiment,108,↓,up,↑,0.20054990000789985,False,16
29K26,104,experiment,168,↑,up,↑,0.35057480000250507,True,16
29K26,105,experiment,132,↑,up,↑,0.45287069999903906,True,16
29K26,106,experiment,144,←,down,↓,0.350544799992349,False,16
29K26,107,experiment,180,←,right,→,0.4730347000004258,False,16
29K26,108,experiment,36,→,right,→,0.4809709999972256,True,16
29K26,109,experiment,156,↑,up,↑,0.3839783000003081,True,16
29K26,110,experiment,156,↓,up,↑,0.4446239999961108,False,16
29K26,111,experiment,12,←,right,→,0.5135434999974677,False,16
29K26,112,experiment,48,→,left,←,0.38385830000333954,False,16
29K26,113,experiment,36,↓,left,←,0.28386689999024384,False,16
29K26,114,experiment,120,↑,up,↑,0.2679457999911392,True,16
29K26,115,experiment,132,↓,up,↑,0.3505334999936167,False,16
29K26,116,experiment,120,↓,down,↓,0.15041099999507423,True,16
29K26,117,experiment,168,↓,down,↓,0.3505278999946313,True,16
29K26,118,experiment,60,↓,down,↓,0.36714390000270214,True,16
29K26,119,experiment,144,↓,up,↑,0.23404110000410583,False,16
29K26,120,experiment,144,↓,down,↓,0.2671031999925617,True,16
29K26,121,experiment,72,↑,down,↓,0.4699167000071611,False,16
29K26,122,experiment,84,↓,up,↑,0.2506066999922041,False,16
29K26,123,experiment,36,↓,down,↓,0.5129570999997668,True,16
29K26,124,experiment,60,←,left,←,0.5745601999951759,True,16
29K26,125,experiment,180,↓,down,↓,0.21729890001006424,True,16
29K26,126,experiment,12,↑,down,↓,0.38383139998768456,False,16
29K26,127,experiment,120,→,up,↑,0.26706550001108553,False,16
29K26,128,experiment,180,←,up,↑,0.21712939999997616,False,16
29K26,129,experiment,144,↓,left,←,0.2171911000041291,False,16
29K26,130,experiment,60,↑,down,↓,0.2672230000025593,False,16
29K26,131,experiment,36,↓,up,↑,0.3172753999970155,False,16
29K26,132,experiment,96,→,up,↑,0.18389280000701547,False,16
29K26,133,experiment,24,→,left,←,0.5461928000004264,False,16
29K26,134,experiment,108,→,left,←,0.30057779999333434,False,16
29K26,135,experiment,180,←,right,→,0.23386050001136027,False,16
29K26,136,experiment,96,←,right,→,0.5445228000025963,False,16
29K26,137,experiment,72,→,right,→,0.2672906999941915,True,16
29K26,138,experiment,48,↑,right,→,0.26723450000281446,False,16
29K26,139,experiment,84,↑,left,←,0.23389220000535715,False,16
29K26,140,experiment,120,→,right,→,0.25059919999330305,True,16
29K26,141,experiment,132,↓,left,←,0.38386139999784064,False,16
29K26,142,experiment,84,←,left,←,0.26726700000290293,True,16
29K26,143,experiment,12,↑,up,↑,0.5336261000047671,True,16
29K26,144,experiment,96,↑,left,←,0.2339637999975821,False,16
29K26,145,experiment,156,↓,up,↑,0.21724129999347497,False,16
29K26,146,experiment,84,→,down,↓,0.217248799992376,False,16
29K26,147,experiment,132,←,down,↓,0.23403210000833496,False,16
29K26,148,experiment,12,↑,left,←,0.5334559000039008,False,16
29K26,149,experiment,24,↑,left,←,0.40042250000988133,False,16
29K26,150,experiment,72,←,up,↑,0.20056900000781752,False,16
29K26,151,experiment,60,↓,left,←,0.21720040000218432,False,16
29K26,152,experiment,108,↑,right,→,0.3339259000058519,False,16
29K26,153,experiment,24,↑,down,↓,0.4928879999933997,False,16
29K26,154,experiment,48,↑,up,↑,0.30032730000675656,True,16
29K26,155,experiment,48,←,down,↓,0.26717949999147095,False,16
29K26,156,experiment,24,←,right,→,0.3504569999931846,False,16
29K26,157,training,108,→,right,→,0.2835064999962924,True,17
29K26,158,training,84,←,left,←,0.2504285000031814,True,17
29K26,159,training,36,←,left,←,0.36732789999223314,True,17
29K26,160,experiment,168,←,left,←,0.30059039998741355,True,17
29K26,161,experiment,108,→,left,←,0.3504345999972429,False,17
29K26,162,experiment,48,↓,right,→,0.33377749999635853,False,17
29K26,163,experiment,120,↑,left,←,0.25027720000070985,False,17
29K26,164,experiment,60,←,left,←,0.36748179999995045,True,17
29K26,165,experiment,168,↑,right,→,0.2505215999990469,False,17
29K26,166,experiment,132,→,right,→,0.3674367999919923,True,17
29K26,167,experiment,180,←,left,←,0.2838420999905793,True,17
29K26,168,experiment,36,↓,up,↑,0.6779193999973359,False,17
29K26,169,experiment,168,←,left,←,1.200176600003033,True,17
29K26,170,experiment,12,→,left,←,0.5140391000022646,False,17
29K26,171,experiment,48,→,left,←,0.3171500000025844,False,17
29K26,172,experiment,24,→,right,→,0.3672537999955239,True,17
29K26,173,experiment,96,←,left,←,0.4175055999949109,True,17
29K26,174,experiment,108,←,left,←,0.45350809999217745,True,17
29K26,175,experiment,60,→,no_key,no_letter,-1.0,False,17
29K26,176,experiment,180,←,left,←,0.23387029999867082,True,17
29K26,177,experiment,60,↑,up,↑,0.4975128000078257,True,17
29K26,178,experiment,156,↑,up,↑,0.41719269999885,True,17
29K26,179,experiment,144,→,down,↓,0.35074000000895467,False,17
29K26,180,experiment,156,↓,down,↓,0.36744699999690056,True,17
29K26,181,experiment,180,←,down,↓,0.4006253999978071,False,17
29K26,182,experiment,168,→,right,→,0.38379960000747815,True,17
29K26,183,experiment,12,←,left,←,0.5177076999971177,True,17
29K26,184,experiment,108,↓,left,←,0.40069059999950696,False,17
29K26,185,experiment,132,↑,down,↓,0.33387230000516865,False,17
29K26,186,experiment,144,↑,left,←,0.38409110000065994,False,17
29K26,187,experiment,72,←,up,↑,0.28371669999614824,False,17
29K26,188,experiment,72,↑,left,←,0.5613631999876816,False,17
29K26,189,experiment,84,↓,up,↑,0.5142255999962799,False,17
29K26,190,experiment,72,↓,down,↓,0.1671593000064604,True,17
29K26,191,experiment,120,↑,down,↓,0.3505211000010604,False,17
29K26,192,experiment,108,↑,down,↓,0.26797310000984,False,17
29K26,193,experiment,12,→,up,↑,0.3003346000041347,False,17
29K26,194,experiment,120,↓,down,↓,0.4172127000056207,True,17
29K26,195,experiment,24,↑,right,→,0.31719950000115205,False,17
29K26,196,experiment,24,↓,up,↑,0.383861700000125,False,17
29K26,197,experiment,96,↑,down,↓,0.5496477999986382,False,17
29K26,198,experiment,120,↓,left,←,0.3674783999886131,False,17
29K26,199,experiment,48,←,down,↓,0.4827951000042958,False,17
29K26,200,experiment,156,↓,up,↑,0.7289297000097577,False,17
29K26,201,experiment,84,↑,down,↓,0.5373126000049524,False,17
29K26,202,experiment,36,↑,up,↑,0.40099609999742825,True,17
29K26,203,experiment,132,→,up,↑,0.4005128999997396,False,17
29K26,204,experiment,96,←,right,→,0.3506024999951478,False,17
29K26,205,experiment,132,↓,no_key,no_letter,-1.0,False,17
29K26,206,experiment,84,←,down,↓,0.30058580001059454,False,17
29K26,207,experiment,144,←,left,←,0.3171338999964064,True,17
29K26,208,experiment,96,←,left,←,0.35057189999497496,True,17
29K26,209,experiment,48,↓,left,←,0.41707100000348873,False,17
29K26,210,experiment,84,↓,left,←,0.35048700000334065,False,17
29K26,211,experiment,72,↓,down,↓,0.3172357000003103,True,17
29K26,212,experiment,24,→,down,↓,0.35062789999938104,False,17
29K26,213,experiment,12,↓,no_key,no_letter,-1.0,False,17
29K26,214,experiment,60,←,left,←,0.45496649999404326,True,17
29K26,215,experiment,180,↓,left,←,0.38394150001113303,False,17
29K26,216,experiment,156,↑,down,↓,0.2838094999897294,False,17
29K26,217,experiment,36,→,down,↓,0.2839218000008259,False,17
29K26,218,experiment,36,←,left,←,0.2516487999964738,True,17
29K26,219,experiment,144,→,left,←,0.5252461999916704,False,17
29K26,220,training,156,↓,down,↓,0.5809222000098089,True,18
29K26,221,training,84,↓,down,↓,0.3845926999929361,True,18
29K26,222,training,108,↑,up,↑,0.2839587000053143,True,18
29K26,223,experiment,84,←,up,↑,0.35049729999445844,False,18
29K26,224,experiment,96,↓,left,←,0.2673049000004539,False,18
29K26,225,experiment,120,→,down,↓,0.21726620000845287,False,18
29K26,226,experiment,36,↓,up,↑,0.4997634999890579,False,18
29K26,227,experiment,36,←,down,↓,0.30063470000459347,False,18
29K26,228,experiment,84,↓,left,←,0.1671121000108542,False,18
29K26,229,experiment,156,↑,down,↓,1.6937376000132645,False,18
29K26,230,experiment,60,→,up,↑,0.33499759998812806,False,18
29K26,231,experiment,156,←,right,→,0.2505468000017572,False,18
29K26,232,experiment,24,←,left,←,0.40037540000048466,True,18
29K26,233,experiment,72,↑,left,←,0.283548499995959,False,18
29K26,234,experiment,144,←,up,↑,0.2504979999939678,False,18
29K26,235,experiment,180,→,left,←,0.23395170000731014,False,18
29K26,236,experiment,132,→,right,→,0.18387490000168327,True,18
29K26,237,experiment,108,↑,left,←,0.2504805999924429,False,18
29K26,238,experiment,24,→,up,↑,0.30053540000517387,False,18
29K26,239,experiment,72,→,right,→,0.2838706999900751,True,18
29K26,240,experiment,144,↑,left,←,0.2838585999998031,False,18
29K26,241,experiment,12,↓,up,↑,1.0845192999986466,False,18
29K26,242,experiment,12,→,right,→,0.6123183000017889,True,18
29K26,243,experiment,48,↑,up,↑,0.4009865000116406,True,18
29K26,244,experiment,12,←,left,←,0.499943799994071,True,18
29K26,245,experiment,156,↓,left,←,0.25057489999744575,False,18
29K26,246,experiment,72,←,down,↓,0.2006377999932738,False,18
29K26,247,experiment,180,↑,left,←,0.28394540000590496,False,18
29K26,248,experiment,96,↑,up,↑,0.2505486000009114,True,18
29K26,249,experiment,96,→,right,→,0.3839903000043705,True,18
29K26,250,experiment,108,↑,up,↑,0.49678940000012517,True,18
29K26,251,experiment,84,↑,up,↑,0.2847113000025274,True,18
29K26,252,experiment,36,←,up,↑,0.3839699000091059,False,18
29K26,253,experiment,60,→,left,←,0.2840723999979673,False,18
29K26,254,experiment,168,↑,up,↑,0.434034400008386,True,18
29K26,255,experiment,108,←,right,→,0.31720380000479054,False,18
29K26,256,experiment,168,←,up,↑,0.33388259999628644,False,18
29K26,257,experiment,96,→,up,↑,0.21723210001073312,False,18
29K26,258,experiment,60,←,right,→,0.4004686000116635,False,18
29K26,259,experiment,132,→,right,→,0.35049379999691155,True,18
29K26,260,experiment,144,↑,up,↑,0.33385599999746773,True,18
29K26,261,experiment,24,↓,no_key,no_letter,-1.0,False,18
29K26,262,experiment,120,↓,up,↑,0.4171745000057854,False,18
29K26,263,experiment,144,↓,down,↓,0.9342526999971597,True,18
29K26,264,experiment,12,←,left,←,0.4816030999936629,True,18
29K26,265,experiment,108,↓,up,↑,0.3005128000077093,False,18
29K26,266,experiment,24,↓,down,↓,0.3005191999982344,True,18
29K26,267,experiment,156,←,left,←,0.4338467999914428,True,18
29K26,268,experiment,132,↓,down,↓,0.2173112000018591,True,18
29K26,269,experiment,120,↓,up,↑,0.3505155999882845,False,18
29K26,270,experiment,168,←,up,↑,0.40061460000288207,False,18
29K26,271,experiment,84,←,left,←,0.317217999996501,True,18
29K26,272,experiment,180,←,up,↑,0.3502982000063639,False,18
29K26,273,experiment,60,←,left,←,0.3008497999981046,True,18
29K26,274,experiment,48,↓,left,←,0.31723869999404997,False,18
29K26,275,experiment,48,↑,down,↓,0.41695549999712966,False,18
29K26,276,experiment,48,←,down,↓,0.283658700005617,False,18
29K26,277,experiment,180,↑,no_key,no_letter,-1.0,False,18
29K26,278,experiment,72,↓,left,←,0.2836805999977514,False,18
29K26,279,experiment,168,↑,down,↓,0.3506587000010768,False,18
29K26,280,experiment,36,↑,down,↓,0.3506221999996342,False,18
29K26,281,experiment,132,→,no_key,no_letter,-1.0,False,18
29K26,282,experiment,120,↓,right,→,0.3171905000053812,False,18
29K26,283,training,84,→,down,↓,0.699479099988821,False,18
29K26,284,training,84,←,right,→,0.417844999989029,False,18
29K26,285,training,108,←,left,←,0.30053330000373535,True,18
29K26,286,experiment,96,↓,up,↑,0.5294810000050347,False,18
29K26,287,experiment,36,↑,up,↑,0.5606932000082452,True,18
29K26,288,experiment,156,↓,up,↑,0.43393810000270605,False,18
29K26,289,experiment,144,←,down,↓,0.28396450000582263,False,18
29K26,290,experiment,84,↓,up,↑,0.4690987999929348,False,18
29K26,291,experiment,24,→,right,→,0.5155920000106562,True,18
29K26,292,experiment,156,↓,right,→,0.3004971000045771,False,18
29K26,293,experiment,36,←,down,↓,0.3672443999967072,False,18
29K26,294,experiment,120,←,left,←,0.35084830000414513,True,18
29K26,295,experiment,132,→,left,←,0.30102420000184793,False,18
29K26,296,experiment,180,←,right,→,0.317302200011909,False,18
29K26,297,experiment,144,↑,left,←,0.28382979999878444,False,18
29K26,298,experiment,156,←,left,←,0.47899030000553466,True,18
29K26,299,experiment,48,↓,left,←,0.3170019999961369,False,18
29K26,300,experiment,180,↓,down,↓,0.40048559999559075,True,18
29K26,301,experiment,72,↓,down,↓,0.3503629000042565,True,18
29K26,302,experiment,12,←,no_key,no_letter,-1.0,False,18
29K26,303,experiment,60,↑,right,→,0.33385830000042915,False,18
29K26,304,experiment,48,↑,down,↓,0.30051350001303945,False,18
29K26,305,experiment,72,↑,up,↑,0.2505582999874605,True,18
29K26,306,experiment,108,←,left,←,0.5134729999990668,True,18
29K26,307,experiment,108,→,left,←,0.31741869999677874,False,18
29K26,308,experiment,180,←,no_key,no_letter,-1.0,False,18
29K26,309,experiment,72,←,left,←,0.21716270000615623,True,18
29K26,310,experiment,84,↑,left,←,0.2839663000049768,False,18
29K26,311,experiment,60,→,right,→,0.5015480000001844,True,18
29K26,312,experiment,132,→,up,↑,0.3837391999986721,False,18
29K26,313,experiment,24,↑,right,→,0.38387710000097286,False,18
29K26,314,experiment,96,↑,up,↑,0.5403860999940662,True,18
29K26,315,experiment,108,←,right,→,0.30045850000169594,False,18
29K26,316,experiment,168,↑,left,←,0.28379890001087915,False,18
29K26,317,experiment,132,→,right,→,0.350357500006794,True,18
29K26,318,experiment,24,→,left,←,0.48681329999817535,False,18
29K26,319,experiment,48,↓,up,↑,0.4171726999920793,False,18
29K26,320,experiment,96,↓,down,↓,0.30040229999576695,True,18
29K26,321,experiment,168,→,right,→,0.333864199987147,True,18
29K26,322,experiment,12,←,left,←,0.5299670999957016,True,18
29K26,323,experiment,72,→,left,←,0.5411276000086218,False,18
29K26,324,experiment,144,←,left,←,0.38363440000102855,True,18
29K26,325,experiment,36,↓,down,↓,0.5221428999939235,True,18
29K26,326,experiment,180,↑,up,↑,0.5063668000075268,True,18
29K26,327,experiment,60,→,right,→,0.3006046999944374,True,18
29K26,328,experiment,120,↓,no_key,no_letter,-1.0,False,18
29K26,329,experiment,144,↓,no_key,no_letter,-1.0,False,18
29K26,330,experiment,156,→,right,→,0.3671452999988105,True,18
29K26,331,experiment,12,→,right,→,0.35055679999641143,True,18
29K26,332,experiment,120,←,left,←,0.49455599999055266,True,18
29K26,333,experiment,48,→,left,←,0.366914900005213,False,18
29K26,334,experiment,36,↑,right,→,0.3338971999910427,False,18
29K26,335,experiment,84,→,right,→,1.10816230000637,True,18
29K26,336,experiment,60,←,right,→,0.35055269999429584,False,18
29K26,337,experiment,24,←,left,←,0.4005587999999989,True,18
29K26,338,experiment,168,↑,up,↑,0.5034452999971109,True,18
29K26,339,experiment,108,↑,up,↑,0.517812900012359,True,18
29K26,340,experiment,120,←,up,↑,0.30061059999570716,False,18
29K26,341,experiment,168,→,right,→,0.3673236999893561,True,18
29K26,342,experiment,12,↓,up,↑,0.577617899994948,False,18
29K26,343,experiment,84,↓,down,↓,0.49521439999807626,True,18
29K26,344,experiment,132,↓,down,↓,0.20065810000232887,True,18
29K26,345,experiment,96,↓,down,↓,0.38387459999648854,True,18
29K26,346,training,12,→,left,←,0.400536999994074,False,18
29K26,347,training,36,→,right,→,0.3673017999972217,True,18
29K26,348,training,132,↑,right,→,0.31718650000402704,False,18
29K26,349,experiment,48,↑,left,←,0.3174872000090545,False,18
29K26,350,experiment,168,↑,down,↓,0.25055820000125095,False,18
29K26,351,experiment,48,↑,down,↓,0.20049799999105744,False,18
29K26,352,experiment,120,←,right,→,0.3170897999953013,False,18
29K26,353,experiment,60,↓,left,←,0.3008082000014838,False,18
29K26,354,experiment,96,↑,down,↓,0.2503968000091845,False,18
29K26,355,experiment,60,↑,down,↓,0.21720329999516252,False,18
29K26,356,experiment,24,←,down,↓,0.4005103999952553,False,18
29K26,357,experiment,84,↓,left,←,0.23381930000323337,False,18
29K26,358,experiment,132,→,left,←,0.26723160000983626,False,18
29K26,359,experiment,84,→,right,→,0.33377380001184065,True,18
29K26,360,experiment,24,←,down,↓,0.43374690000200644,False,18
29K26,361,experiment,72,↓,left,←,0.25054829999862704,False,18
29K26,362,experiment,72,↓,down,↓,0.2838942000089446,True,18
29K26,363,experiment,36,←,right,→,0.41729500000656117,False,18
29K26,364,experiment,168,→,down,↓,0.2005294000118738,False,18
29K26,365,experiment,132,↑,right,→,0.2504923000087729,False,18
29K26,366,experiment,96,↓,up,↑,0.26704479999898467,False,18
29K26,367,experiment,108,→,down,↓,0.2504099999932805,False,18
29K26,368,experiment,36,←,left,←,0.31721789999573957,True,18
29K26,369,experiment,120,←,left,←,0.2838871999992989,True,18
29K26,370,experiment,24,↑,left,←,0.36725950000982266,False,18
29K26,371,experiment,96,↑,up,↑,0.3839160999923479,True,18
29K26,372,experiment,180,→,right,→,0.31730830000014976,True,18
29K26,373,experiment,48,→,right,→,0.3504086000029929,True,18
29K26,374,experiment,12,←,right,→,0.417171099994448,False,18
29K26,375,experiment,144,→,left,←,0.30047030000423547,False,18
29K26,376,experiment,108,←,left,←,0.25020180000865366,True,18
29K26,377,experiment,132,↑,left,←,0.2671215000009397,False,18
29K26,378,experiment,144,←,up,↑,0.30067280000366736,False,18
29K26,379,experiment,168,↑,left,←,0.3005130000092322,False,18
29K26,380,experiment,144,↓,up,↑,0.36725559999467805,False,18
29K26,381,experiment,144,←,left,←,0.433654899999965,True,18
29K26,382,experiment,12,←,left,←,1.00358459999552,True,18
29K26,383,experiment,180,←,left,←,1.2464270000054967,True,18
29K26,384,experiment,132,→,left,←,0.3338819000055082,False,18
29K26,385,experiment,12,→,right,→,0.3671281999995699,True,18
29K26,386,experiment,156,↑,right,→,0.586318100002245,False,18
29K26,387,experiment,36,↓,left,←,0.6576894000027096,False,18
29K26,388,experiment,156,→,up,↑,0.18475369999941904,False,18
29K26,389,experiment,120,←,left,←,0.2505511000053957,True,18
29K26,390,experiment,108,←,right,→,0.31721060001291335,False,18
29K26,391,experiment,48,↓,left,←,0.30044469999847934,False,18
29K26,392,experiment,72,↑,up,↑,0.43402729999797884,True,18
29K26,393,experiment,36,↓,up,↑,0.36726009999983944,False,18
29K26,394,experiment,84,→,right,→,0.3672772999998415,True,18
29K26,395,experiment,108,↓,right,→,0.300610800011782,False,18
29K26,396,experiment,96,→,down,↓,0.26723040000069886,False,18
29K26,397,experiment,84,↓,down,↓,0.3172454000014113,True,18
29K26,398,experiment,156,↑,down,↓,0.1840299000032246,False,18
29K26,399,experiment,60,↓,down,↓,0.28384730000107083,True,18
29K26,400,experiment,72,→,down,↓,0.23385919998690952,False,18
29K26,401,experiment,12,↑,right,→,0.35037719999672845,False,18
29K26,402,experiment,24,↓,right,→,0.3505297000083374,False,18
29K26,403,experiment,60,←,no_key,no_letter,-1.0,False,18
29K26,404,experiment,120,←,left,←,0.2839776000037091,True,18
29K26,405,experiment,180,↑,left,←,0.2839224999916041,False,18
29K26,406,experiment,168,→,down,↓,0.21748680000018794,False,18
29K26,407,experiment,180,↓,down,↓,0.5563111000083154,True,18
29K26,408,experiment,156,↓,down,↓,0.2507919000054244,True,18
29K26,409,training,36,←,left,←,0.43376980000175536,True,18
29K26,410,training,120,↑,right,→,0.28379869999480434,False,18
29K26,411,training,12,↓,up,↑,0.550445300003048,False,18
29K26,412,experiment,156,←,left,←,0.300619599991478,True,18
29K26,413,experiment,48,↓,left,←,0.26815289999649394,False,18
29K26,414,experiment,84,↓,down,↓,0.30057370000577066,True,18
29K26,415,experiment,180,↓,down,↓,0.3505435999977635,True,18
29K26,416,experiment,24,↑,down,↓,0.33399179999832995,False,18
29K26,417,experiment,96,→,down,↓,0.2341009999945527,False,18
29K26,418,experiment,84,↑,right,→,0.30064719999791123,False,18
29K26,419,experiment,96,←,left,←,0.36754050001036376,True,18
29K26,420,experiment,12,←,left,←,0.41729639998811763,True,18
29K26,421,experiment,132,↑,right,→,0.26761949999490753,False,18
29K26,422,experiment,36,↓,up,↑,0.28388299999642186,False,18
29K26,423,experiment,132,←,down,↓,0.2011318000004394,False,18
29K26,424,experiment,120,↑,left,←,0.23381849999714177,False,18
29K26,425,experiment,12,↓,no_key,no_letter,-1.0,False,18
29K26,426,experiment,144,↓,left,←,0.3339004000008572,False,18
29K26,427,experiment,108,←,right,→,0.30044759999145754,False,18
29K26,428,experiment,144,↑,left,←,0.3171530999970855,False,18
29K26,429,experiment,180,←,left,←,0.2672140000067884,True,18
29K26,430,experiment,48,↑,up,↑,0.3838262999925064,True,18
29K26,431,experiment,108,→,up,↑,0.31722609999997076,False,18
29K26,432,experiment,132,↑,right,→,0.2672586999979103,False,18
29K26,433,experiment,72,→,right,→,0.35048269999970216,True,18
29K26,434,experiment,108,←,right,→,0.33359520000522025,False,18
29K26,435,experiment,144,↑,left,←,0.3841197000001557,False,18
29K26,436,experiment,156,↑,up,↑,0.3673927000054391,True,18
29K26,437,experiment,180,←,left,←,0.5826515999942785,True,18
29K26,438,experiment,36,↑,up,↑,0.5030864000000292,True,18
29K26,439,experiment,60,↓,up,↑,0.35056489999988116,False,18
29K26,440,experiment,156,→,down,↓,0.6635835000051884,False,18
29K26,441,experiment,24,→,no_key,no_letter,-1.0,False,18
29K26,442,experiment,12,→,no_key,no_letter,-1.0,False,18
29K26,443,experiment,180,←,down,↓,0.2670934999914607,False,18
29K26,444,experiment,132,↓,down,↓,1.7996814000071026,True,18
29K26,445,experiment,168,←,left,←,0.28385079999861773,True,18
29K26,446,experiment,84,←,left,←,0.26698680000845343,True,18
29K26,447,experiment,48,↓,left,←,0.3505633999884594,False,18
29K26,448,experiment,144,→,down,↓,0.2672237000078894,False,18
29K26,449,experiment,168,↑,right,→,0.40060839999932796,False,18
29K26,450,experiment,36,↓,down,↓,1.3154808999970555,True,18
29K26,451,experiment,60,↓,down,↓,0.28392979998898227,True,18
29K26,452,experiment,36,↑,down,↓,0.28396020000218414,False,18
29K26,453,experiment,120,→,up,↑,0.26717020000796765,False,18
29K26,454,experiment,72,←,up,↑,0.4766762000072049,False,18
29K26,455,experiment,48,↓,down,↓,0.497698399994988,True,18
29K26,456,experiment,24,↑,down,↓,0.3838279999908991,False,18
29K26,457,experiment,60,→,right,→,1.0856996000075014,True,18
29K26,458,experiment,60,↑,right,→,0.3672099999967031,False,18
29K26,459,experiment,72,↑,right,→,0.3006048999959603,False,18
29K26,460,experiment,96,↓,down,↓,0.4828087000059895,True,18
29K26,461,experiment,24,↑,down,↓,0.8982218000019202,False,18
29K26,462,experiment,84,←,right,→,0.5051536000100896,False,18
29K26,463,experiment,168,→,right,→,0.3338805999956094,True,18
29K26,464,experiment,156,↑,up,↑,0.5526153999962844,True,18
29K26,465,experiment,120,←,right,→,0.3175174999923911,False,18
29K26,466,experiment,96,←,left,←,0.28409780000220053,True,18
29K26,467,experiment,108,→,right,→,0.472809300001245,True,18
29K26,468,experiment,168,↑,right,→,0.2671820000105072,False,18
29K26,469,experiment,72,↓,left,←,0.3339014999946812,False,18
29K26,470,experiment,12,→,left,←,1.6589836999919498,False,18
29K26,471,experiment,120,↑,up,↑,0.35052389999327715,True,18
29K26,472,training,168,←,left,←,0.33385870000347495,True,18
29K26,473,training,132,↑,right,→,0.4173859000002267,False,18
29K26,474,training,24,↓,down,↓,0.7142010999959894,True,18
29K26,475,experiment,48,←,no_key,no_letter,-1.0,False,18
29K26,476,experiment,60,→,left,←,0.30059780000010505,False,18
29K26,477,experiment,168,↓,down,↓,0.4340018999937456,True,18
29K26,478,experiment,48,→,no_key,no_letter,-1.0,False,18
29K26,479,experiment,156,→,right,→,0.2672649000014644,True,18
29K26,480,experiment,156,↑,down,↓,0.433946899996954,False,18
29K26,481,experiment,108,→,up,↑,0.26687419999507256,False,18
29K26,482,experiment,180,↓,right,→,0.2672607999993488,False,18
29K26,483,experiment,144,↑,down,↓,0.21728929999517277,False,18
29K26,484,experiment,96,↓,up,↑,0.3005443000001833,False,18
29K26,485,experiment,144,↓,down,↓,0.3338335000007646,True,18
29K26,486,experiment,72,↓,right,→,0.3336596000008285,False,18
29K26,487,experiment,120,←,down,↓,0.33387229999061674,False,18
29K26,488,experiment,96,←,left,←,0.28380160000233445,True,18
29K26,489,experiment,120,↑,left,←,0.2838917999906698,False,18
29K26,490,experiment,84,←,left,←,0.4340262000041548,True,18
29K26,491,experiment,132,↑,left,←,0.26710079998883884,False,18
29K26,492,experiment,60,←,right,→,0.33394939999561757,False,18
29K26,493,experiment,84,←,left,←,0.23375749999831896,True,18
29K26,494,experiment,144,→,left,←,0.3172973000037018,False,18
29K26,495,experiment,24,←,right,→,0.43395230000896845,False,18
29K26,496,experiment,96,→,left,←,0.2505735999875469,False,18
29K26,497,experiment,72,↑,up,↑,0.5892503000068245,True,18
29K26,498,experiment,72,↑,left,←,0.25046159999328665,False,18
29K26,499,experiment,24,↑,up,↑,0.3337098999909358,True,18
29K26,500,experiment,36,←,up,↑,0.28388210000412073,False,18
29K26,501,experiment,12,←,left,←,0.35047729998768773,True,18
29K26,502,experiment,108,↑,left,←,0.2673559999966528,False,18
29K26,503,experiment,48,↑,no_key,no_letter,-1.0,False,18
29K26,504,experiment,132,←,left,←,1.1875168999977177,True,18
29K26,505,experiment,24,↑,left,←,0.23399870000139344,False,18
29K26,506,experiment,156,→,left,←,0.2839737000031164,False,18
29K26,507,experiment,108,↓,right,→,0.2839584999892395,False,18
29K26,508,experiment,60,←,down,↓,0.3005789000017103,False,18
29K26,509,experiment,48,→,left,←,0.3671821000025375,False,18
29K26,510,experiment,132,↓,down,↓,0.3170743000082439,True,18
29K26,511,experiment,36,↑,down,↓,0.30055570001422893,False,18
29K26,512,experiment,168,←,left,←,0.30065920000197366,True,18
29K26,513,experiment,108,↑,left,←,0.2505777000042144,False,18
29K26,514,experiment,168,→,right,→,0.5535833000030834,True,18
29K26,515,experiment,168,→,right,→,0.35051299999759067,True,18
29K26,516,experiment,60,↑,right,→,0.3005336000060197,False,18
29K26,517,experiment,72,←,right,→,0.300552400003653,False,18
29K26,518,experiment,12,↑,left,←,0.35053689999040216,False,18
29K26,519,experiment,144,←,left,←,0.3675690999953076,True,18
29K26,520,experiment,96,↓,left,←,0.3004114999930607,False,18
29K26,521,experiment,120,←,down,↓,0.26726669998606667,False,18
29K26,522,experiment,156,←,left,←,0.33372870000312105,True,18
29K26,523,experiment,180,→,left,←,0.3005803999985801,False,18
29K26,524,experiment,180,→,right,→,0.2504478999908315,True,18
29K26,525,experiment,36,→,right,→,0.417053199998918,True,18
29K26,526,experiment,132,→,right,→,0.21713390000513755,True,18
29K26,527,experiment,84,↑,right,→,0.2837926000065636,False,18
29K26,528,experiment,24,↓,up,↑,0.4338327000004938,False,18
29K26,529,experiment,120,←,right,→,0.25050829999963753,False,18
29K26,530,experiment,84,→,down,↓,0.5476442999934079,False,18
29K26,531,experiment,180,↑,right,→,0.30059300000721123,False,18
29K26,532,experiment,12,↓,up,↑,0.5844785999943269,False,18
29K26,533,experiment,36,↑,up,↑,0.2839218000008259,True,18
29K26,534,experiment,12,↑,up,↑,0.33391580000170507,True,18
29K26,535,training,36,→,right,→,0.4338681999943219,True,18
29K26,536,training,180,←,left,←,0.4005712000071071,True,18
29K26,537,training,132,↓,left,←,0.31753000000026077,False,18
29K26,538,experiment,72,←,left,←,0.4766683999914676,True,18
29K26,539,experiment,60,→,left,←,0.33390179999696556,False,18
29K26,540,experiment,120,↓,right,→,0.20061960000020918,False,18
29K26,541,experiment,96,↓,left,←,0.2837071000103606,False,18
29K26,542,experiment,180,←,down,↓,0.21731009999348316,False,18
29K26,543,experiment,144,↓,left,←,0.26728970000112895,False,18
29K26,544,experiment,84,→,down,↓,0.26730619999580085,False,18
29K26,545,experiment,132,→,right,→,0.21723819999897387,True,18
29K26,546,experiment,120,↓,down,↓,0.41726859999471344,True,18
29K26,547,experiment,72,←,down,↓,0.2504957000055583,False,18
29K26,548,experiment,84,↓,down,↓,0.4176191000005929,True,18
29K26,549,experiment,156,↑,down,↓,0.3337959999917075,False,18
29K26,550,experiment,144,←,left,←,0.23384570000052918,True,18
29K26,551,experiment,144,↑,up,↑,0.233881799998926,True,18
29K26,552,experiment,24,→,no_key,no_letter,-1.0,False,18
29K26,553,experiment,60,↑,left,←,0.2505016999930376,False,18
29K26,554,experiment,108,←,up,↑,0.2171991000068374,False,18
29K26,555,experiment,84,→,up,↑,0.23381700000027195,False,18
29K26,556,experiment,180,→,right,→,0.3507731999998214,True,18
29K26,557,experiment,36,→,right,→,0.30039279999618884,True,18
29K26,558,experiment,36,↑,right,→,0.23378110000339802,False,18
29K26,559,experiment,12,↓,up,↑,0.2504581999965012,False,18
29K26,560,experiment,96,↑,up,↑,0.2338630999875022,True,18
29K26,561,experiment,180,→,up,↑,0.2505156999977771,False,18
29K26,562,experiment,60,←,right,→,0.2337716000038199,False,18
29K26,563,experiment,24,→,left,←,0.2505181000015,False,18
29K26,564,experiment,48,→,right,→,0.2506403000006685,True,18
29K26,565,experiment,96,↓,right,→,0.26710430000093766,False,18
29K26,566,experiment,168,→,down,↓,0.2672882000042591,False,18
29K26,567,experiment,156,↓,down,↓,0.4171997000084957,True,18
29K26,568,experiment,120,↓,down,↓,0.26727820000087377,True,18
29K26,569,experiment,84,↑,down,↓,0.30019280000124127,False,18
29K26,570,experiment,156,←,right,→,0.3507305999955861,False,18
29K26,571,experiment,96,←,up,↑,0.23390339998877607,False,18
29K26,572,experiment,36,↑,left,←,0.2672504999936791,False,18
29K26,573,experiment,24,↑,up,↑,0.30065960000501946,True,18
29K26,574,experiment,168,↓,up,↑,0.3171208999992814,False,18
29K26,575,experiment,180,↑,down,↓,0.2670180999994045,False,18
29K26,576,experiment,48,↓,up,↑,0.2339064999978291,False,18
29K26,577,experiment,24,→,up,↑,0.33389019999594893,False,18
29K26,578,experiment,168,←,up,↑,0.4172855999931926,False,18
29K26,579,experiment,12,←,left,←,0.4685137000051327,True,18
29K26,580,experiment,132,→,right,→,0.4006798000045819,True,18
29K26,581,experiment,132,↓,down,↓,0.5076081000006525,True,18
29K26,582,experiment,108,→,down,↓,0.21726019999186974,False,18
29K26,583,experiment,156,←,right,→,0.2171983000007458,False,18
29K26,584,experiment,12,↓,left,←,0.28399850000278093,False,18
29K26,585,experiment,48,←,down,↓,0.21719280000252184,False,18
29K26,586,experiment,120,←,left,←,0.23371499999484513,True,18
29K26,587,experiment,108,↑,right,→,0.2671972999960417,False,18
29K26,588,experiment,72,↑,up,↑,0.23374080000212416,True,18
29K26,589,experiment,36,↓,up,↑,0.4171550000028219,False,18
29K26,590,experiment,144,←,down,↓,0.1673305000003893,False,18
29K26,591,experiment,60,→,left,←,0.2513330999936443,False,18
29K26,592,experiment,132,↑,right,→,0.21726230000786018,False,18
29K26,593,experiment,12,↑,no_key,no_letter,-1.0,False,18
29K26,594,experiment,168,←,up,↑,0.2503952999977628,False,18
29K26,595,experiment,72,↑,up,↑,0.30118140000558924,True,18
29K26,596,experiment,48,←,left,←,0.3673574999993434,True,18
29K26,597,experiment,108,↓,left,←,0.2338100999913877,False,18
29K26,598,training,168,←,left,←,0.3006365999899572,True,18
29K26,599,training,180,↓,left,←,0.3173279000038747,False,18
29K26,600,training,12,←,down,↓,0.4337968999898294,False,18
29K26,601,experiment,108,↓,left,←,0.2672236999933375,False,18
29K26,602,experiment,36,←,down,↓,0.31727260000479873,False,18
29K26,603,experiment,156,↑,left,←,0.25072609999915585,False,18
29K26,604,experiment,60,→,up,↑,0.28492089999781456,False,18
29K26,605,experiment,72,←,right,→,0.2505529000045499,False,18
29K26,606,experiment,12,→,left,←,1.0530922999896575,False,18
29K26,607,experiment,144,←,left,←,0.35059929999988526,True,18
29K26,608,experiment,180,←,left,←,0.2838430999981938,True,18
29K26,609,experiment,48,↑,left,←,0.36714780000329483,False,18
29K26,610,experiment,84,→,up,↑,0.28374620000249706,False,18
29K26,611,experiment,108,↓,right,→,0.3504953000083333,False,18
29K26,612,experiment,96,→,down,↓,0.20053630000620615,False,18
29K26,613,experiment,24,↓,right,→,0.40056160000676755,False,18
29K26,614,experiment,120,↑,down,↓,0.23406420000537764,False,18
29K26,615,experiment,168,↓,left,←,0.38387360000342596,False,18
29K26,616,experiment,180,↑,down,↓,0.23396620000130497,False,18
29K26,617,experiment,132,←,up,↑,0.3672806000104174,False,18
29K26,618,experiment,168,↑,left,←,0.26722229999722913,False,18
29K26,619,experiment,144,↑,up,↑,0.36731469999358524,True,18
29K26,620,experiment,156,→,left,←,0.28395179999643005,False,18
29K26,621,experiment,60,↑,right,→,0.3171213000023272,False,18
29K26,622,experiment,24,←,left,←,0.5222676999983378,True,18
29K26,623,experiment,60,↓,left,←,0.3006454999995185,False,18
29K26,624,experiment,84,→,down,↓,0.2172407000034582,False,18
29K26,625,experiment,168,→,right,→,0.21731870000076015,True,18
29K26,626,experiment,156,↓,right,→,0.21718310000142083,False,18
29K26,627,experiment,84,←,down,↓,0.23367430000507738,False,18
29K26,628,experiment,48,←,left,←,0.2339367999957176,True,18
29K26,629,experiment,48,↑,down,↓,0.3341405999963172,False,18
29K26,630,experiment,144,→,up,↑,0.26726390000840183,False,18
29K26,631,experiment,120,→,right,→,0.2506426000036299,True,18
29K26,632,experiment,48,↓,right,→,0.30063610000070184,False,18
29K26,633,experiment,180,↑,no_key,no_letter,-1.0,False,18
29K26,634,experiment,36,→,up,↑,0.43390579998958856,False,18
29K26,635,experiment,72,↑,right,→,0.3167276999884052,False,18
29K26,636,experiment,108,←,left,←,0.40060140000423416,True,18
29K26,637,experiment,144,←,left,←,0.23361960001057014,True,18
29K26,638,experiment,72,↓,left,←,0.23393789998954162,False,18
29K26,639,experiment,36,↑,down,↓,0.2672227000002749,False,18
29K26,640,experiment,132,←,left,←,0.40043369999330025,True,18
29K26,641,experiment,156,↑,up,↑,0.3508970999973826,True,18
29K26,642,experiment,36,→,up,↑,0.3002849000040442,False,18
29K26,643,experiment,12,→,right,→,0.8996268999908352,True,18
29K26,644,experiment,108,←,right,→,0.3171312000049511,False,18
29K26,645,experiment,132,→,left,←,0.21723550000751857,False,18
29K26,646,experiment,24,→,right,→,0.38371929999266285,True,18
29K26,647,experiment,120,→,right,→,0.28400680000777356,True,18
29K26,648,experiment,84,←,left,←,0.36725909999222495,True,18
29K26,649,experiment,24,↑,up,↑,0.5536799999972573,True,18
29K26,650,experiment,168,←,left,←,0.3171892999962438,True,18
29K26,651,experiment,72,←,left,←,0.3172000000049593,True,18
29K26,652,experiment,60,↓,left,←,0.23385609999240842,False,18
29K26,653,experiment,96,↓,left,←,0.20059819999733008,False,18
29K26,654,experiment,180,→,left,←,0.26731340000696946,False,18
29K26,655,experiment,96,↓,right,→,0.20056540000950918,False,18
29K26,656,experiment,12,↑,up,↑,0.5115846999979112,True,18
29K26,657,experiment,12,↓,up,↑,0.5472314000071492,False,18
29K26,658,experiment,132,→,up,↑,0.3171677000063937,False,18
29K26,659,experiment,120,↓,right,→,0.21718979999423027,False,18
29K26,660,experiment,96,←,down,↓,0.3004928000009386,False,18
29K26,661,training,84,↓,left,←,0.3506351999967592,False,18
29K26,662,training,132,←,down,↓,0.26718260000052396,False,18
29K26,663,training,24,↓,left,←,0.40039370000886265,False,18
29K26,664,experiment,108,↑,left,←,0.3337864999921294,False,18
29K26,665,experiment,36,→,right,→,0.43401250000169966,True,18
29K26,666,experiment,180,←,right,→,0.2338893999985885,False,18
29K26,667,experiment,72,←,left,←,0.2171602000016719,True,18
29K26,668,experiment,120,↓,up,↑,0.43340599999646656,False,18
29K26,669,experiment,96,→,right,→,0.3840265999897383,True,18
29K26,670,experiment,168,↓,left,←,0.26723839998885524,False,18
29K26,671,experiment,36,↑,down,↓,0.3005808000016259,False,18
29K26,672,experiment,84,↓,up,↑,0.20053329999791458,False,18
29K26,673,experiment,156,↓,up,↑,0.2004607999988366,False,18
29K26,674,experiment,24,→,down,↓,0.283765800006222,False,18
29K26,675,experiment,168,↓,right,→,0.25051620000158437,False,18
29K26,676,experiment,12,→,down,↓,0.38397329999133945,False,18
29K26,677,experiment,120,←,right,→,0.23388289999275003,False,18
29K26,678,experiment,108,↑,up,↑,0.5275882999994792,True,18
29K26,679,experiment,132,↑,up,↑,0.2505282000056468,True,18
29K26,680,experiment,132,↑,down,↓,0.21719840000150725,False,18
29K26,681,experiment,84,↑,up,↑,0.3172220999986166,True,18
29K26,682,experiment,48,↑,up,↑,0.250448899998446,True,18
29K26,683,experiment,12,→,up,↑,0.31723120000970084,False,18
29K26,684,experiment,156,→,right,→,0.21718249999685213,True,18
29K26,685,experiment,180,↑,up,↑,0.41722450000816025,True,18
29K26,686,experiment,60,→,right,→,0.5419897000101628,True,18
29K26,687,experiment,180,↑,down,↓,0.400653600008809,False,18
29K26,688,experiment,84,↓,down,↓,0.26729650000925176,True,18
29K26,689,experiment,180,←,down,↓,0.2338923000061186,False,18
29K26,690,experiment,144,↓,left,←,0.2336185000021942,False,18
29K26,691,experiment,120,←,down,↓,0.21715290000429377,False,18
29K26,692,experiment,12,←,left,←,0.4002302000008058,True,18
29K26,693,experiment,60,↑,no_key,no_letter,-1.0,False,18
29K26,694,experiment,120,→,left,←,0.2338302999996813,False,18
29K26,695,experiment,36,↓,right,→,0.3172837000020081,False,18
29K26,696,experiment,108,↓,down,↓,0.2505432000034489,True,18
29K26,697,experiment,24,↑,down,↓,0.30056959998910315,False,18
29K26,698,experiment,144,↓,right,→,0.267448600003263,False,18
29K26,699,experiment,96,←,down,↓,0.2338573000015458,False,18
29K26,700,experiment,168,←,left,←,0.2673064999980852,True,18
29K26,701,experiment,84,→,left,←,0.21717800000624266,False,18
29K26,702,experiment,156,↑,right,→,0.20053390000248328,False,18
29K26,703,experiment,24,→,up,↑,0.267068900007871,False,18
29K26,704,experiment,12,↓,no_key,no_letter,-1.0,False,18
29K26,705,experiment,156,↑,right,→,0.21721280000929255,False,18
29K26,706,experiment,108,↓,right,→,0.23391729999275412,False,18
29K26,707,experiment,144,↑,left,←,0.2838719999999739,False,18
29K26,708,experiment,48,←,left,←,0.28389060001063626,True,18
29K26,709,experiment,60,↓,left,←,0.2671922000008635,False,18
29K26,710,experiment,132,↑,right,→,0.38392799999564886,False,18
29K26,711,experiment,96,←,left,←,0.28383600000233855,True,18
29K26,712,experiment,36,↓,up,↑,0.41718209999089595,False,18
29K26,713,experiment,96,↑,left,←,0.2672429999947781,False,18
29K26,714,experiment,72,↓,up,↑,0.18389899999601766,False,18
29K26,715,experiment,72,←,down,↓,0.21720299999287818,False,18
29K26,716,experiment,24,→,left,←,0.23366949999763165,False,18
29K26,717,experiment,132,↓,right,→,0.2505267999949865,False,18
29K26,718,experiment,48,↓,down,↓,0.16720309999072924,True,18
29K26,719,experiment,48,←,up,↑,0.15066350001143292,False,18
29K26,720,experiment,168,↑,left,←,0.15051490000041667,False,18
29K26,721,experiment,60,↓,up,↑,0.2333448999997927,False,18
29K26,722,experiment,72,↑,down,↓,0.20036980000440963,False,18
29K26,723,experiment,144,↑,up,↑,0.20055860000138637,True,18
29K26,724,training,72,↑,left,←,0.23425910000514705,False,18
29K26,725,training,132,↑,down,↓,0.41639430000213906,False,18
29K26,726,training,48,←,left,←,0.4004155000002356,True,18
29K26,727,experiment,108,↓,right,→,0.2004472000116948,False,18
29K26,728,experiment,96,→,down,↓,0.26724689999537077,False,18
29K26,729,experiment,12,↓,no_key,no_letter,-1.0,False,18
29K26,730,experiment,72,↓,right,→,0.20056060000206344,False,18
29K26,731,experiment,12,→,down,↓,0.3170957999973325,False,18
29K26,732,experiment,72,→,right,→,0.20055110000248533,True,18
29K26,733,experiment,156,←,left,←,0.47796000000380445,True,18
29K26,734,experiment,84,→,down,↓,0.3006084000080591,False,18
29K26,735,experiment,84,←,right,→,0.3343585999973584,False,18
29K26,736,experiment,156,→,left,←,0.16708849999122322,False,18
29K26,737,experiment,168,←,left,←,0.1506221000017831,True,18
29K26,738,experiment,132,→,right,→,0.15055869999923743,True,18
29K26,739,experiment,60,↓,right,→,0.2005463000095915,False,18
29K26,740,experiment,24,↑,down,↓,0.25044740000157617,False,18
29K26,741,experiment,120,↓,up,↑,0.20044749999942724,False,18
29K26,742,experiment,120,↑,up,↑,0.23403230000985786,True,18
29K26,743,experiment,120,↓,up,↑,0.20049080000899266,False,18
29K26,744,experiment,168,↑,up,↑,0.23376060000737198,True,18
29K26,745,experiment,24,←,up,↑,0.26718809999874793,False,18
29K26,746,experiment,156,↑,left,←,0.2837567999958992,False,18
29K26,747,experiment,132,↓,up,↑,0.1839649999892572,False,18
29K26,748,experiment,36,↓,up,↑,0.8139595999964513,False,18
29K26,749,experiment,36,←,up,↑,0.25058700000226963,False,18
29K26,750,experiment,144,↓,left,←,0.21729149999737274,False,18
29K26,751,experiment,48,←,down,↓,0.2171123999869451,False,18
29K26,752,experiment,108,↑,left,←,0.2007238999940455,False,18
29K26,753,experiment,108,↑,left,←,0.3173473000060767,False,18
29K26,754,experiment,12,→,up,↑,0.28386480000335723,False,18
29K26,755,experiment,96,↓,right,→,0.18388060000143014,False,18
29K26,756,experiment,60,←,right,→,0.20056130000739358,False,18
29K26,757,experiment,48,←,down,↓,0.2348750000091968,False,18
29K26,758,experiment,132,↑,left,←,0.28386460000183433,False,18
29K26,759,experiment,168,↑,up,↑,0.15040839998982847,True,18
29K26,760,experiment,180,↓,up,↑,0.20065430000249762,False,18
29K26,761,experiment,168,←,down,↓,0.23398920000181533,False,18
29K26,762,experiment,72,←,right,→,0.5226585999917006,False,18
29K26,763,experiment,96,→,left,←,0.2173419000027934,False,18
29K26,764,experiment,24,↑,down,↓,0.2505922999989707,False,18
29K26,765,experiment,48,↓,up,↑,0.2172450999933062,False,18
29K26,766,experiment,72,→,left,←,0.1504304999980377,False,18
29K26,767,experiment,180,↓,right,→,0.21732359999441542,False,18
29K26,768,experiment,144,↓,down,↓,0.5584668999945279,True,18
29K26,769,experiment,180,↓,left,←,0.2672447000077227,False,18
29K26,770,experiment,144,←,up,↑,0.1673263999982737,False,18
29K26,771,experiment,36,→,right,→,0.23383149999426678,True,18
29K26,772,experiment,24,↓,left,←,0.2506361999985529,False,18
29K26,773,experiment,108,→,down,↓,0.25061730000015814,False,18
29K26,774,experiment,48,←,up,↑,0.3673406000016257,False,18
29K26,775,experiment,180,←,down,↓,0.18372549999912735,False,18
29K26,776,experiment,84,↓,right,→,0.30058830000052694,False,18
29K26,777,experiment,96,←,down,↓,0.2672835999983363,False,18
29K26,778,experiment,132,↓,left,←,0.38388779999513645,False,18
29K26,779,experiment,36,↓,down,↓,0.2672223999979906,True,18
29K26,780,experiment,60,→,down,↓,0.25056849999236874,False,18
29K26,781,experiment,84,↑,right,→,0.1339573000004748,False,18
29K26,782,experiment,120,↑,down,↓,0.21712030000344384,False,18
29K26,783,experiment,12,→,down,↓,0.43397559999721125,False,18
29K26,784,experiment,156,→,down,↓,0.3173746999964351,False,18
29K26,785,experiment,144,←,right,→,0.23453780000272673,False,18
29K26,786,experiment,60,→,left,←,0.28476619999855757,False,18
29K26,787,training,120,→,down,↓,0.2004769000050146,False,18
29K26,788,training,156,↓,right,→,0.21692229999462143,False,18
29K26,789,training,84,←,up,↑,0.21702389999700245,False,18
29K26,790,experiment,156,→,left,←,0.21699440000520553,False,18
29K26,791,experiment,96,↓,right,→,0.18360210000537336,False,18
29K26,792,experiment,144,←,down,↓,0.25021620000188705,False,18
29K26,793,experiment,12,→,no_key,no_letter,-1.0,False,18
29K26,794,experiment,24,↑,right,→,0.150262199997087,False,18
29K26,795,experiment,24,→,up,↑,0.23354730001301505,False,18
29K26,796,experiment,24,→,right,→,0.23344250000081956,True,18
29K26,797,experiment,72,↑,left,←,0.1670181999943452,False,18
29K26,798,experiment,72,↑,up,↑,0.41687220000312664,True,18
29K26,799,experiment,36,←,up,↑,0.23375769999984186,False,18
29K26,800,experiment,84,↑,left,←,0.20036099999560975,False,18
29K26,801,experiment,120,↓,up,↑,0.20086240000091493,False,18
29K26,802,experiment,36,↑,right,→,0.2671282999945106,False,18
29K26,803,experiment,168,→,down,↓,0.2169456999981776,False,18
29K26,804,experiment,96,↓,right,→,0.15056490000279155,False,18
29K26,805,experiment,24,↓,down,↓,0.2337542999885045,True,18
29K26,806,experiment,60,↑,down,↓,0.23341109999455512,False,18
29K26,807,experiment,180,↑,down,↓,0.13362559999222867,False,18
29K26,808,experiment,144,↑,down,↓,0.1839926000102423,False,18
29K26,809,experiment,36,←,down,↓,0.26711299999442417,False,18
29K26,810,experiment,108,↑,left,←,0.3003355999971973,False,18
29K26,811,experiment,108,↑,up,↑,0.28354619999299757,True,18
29K26,812,experiment,168,↑,up,↑,0.20026870000583585,True,18
29K26,813,experiment,96,↓,up,↑,0.183452600002056,False,18
29K26,814,experiment,180,←,up,↑,0.1839311999938218,False,18
29K26,815,experiment,120,→,left,←,0.2836693999997806,False,18
29K26,816,experiment,180,←,right,→,0.1503214999975171,False,18
29K26,817,experiment,12,↑,up,↑,0.4846061000134796,True,18
29K26,818,experiment,48,←,left,←,0.5654998000100022,True,18
29K26,819,experiment,108,↓,left,←,0.23406119999708608,False,18
29K26,820,experiment,84,↓,down,↓,0.1671463000093354,True,18
29K26,821,experiment,48,←,down,↓,0.2501810999965528,False,18
29K26,822,experiment,144,↑,left,←,0.2170951000007335,False,18
29K26,823,experiment,36,←,up,↑,0.3005972999962978,False,18
29K26,824,experiment,156,↓,right,→,0.15068170000449754,False,18
29K26,825,experiment,156,↑,left,←,0.2338378999993438,False,18
29K26,826,experiment,120,←,down,↓,0.15033009999024216,False,18
29K26,827,experiment,72,↑,left,←,0.23368449999543373,False,18
29K26,828,experiment,60,←,down,↓,0.20033859999966808,False,18
29K26,829,experiment,180,←,right,→,0.2337346999993315,False,18
29K26,830,experiment,168,↑,left,←,0.3838945000024978,False,18
29K26,831,experiment,12,↑,down,↓,0.3672033000038937,False,18
29K26,832,experiment,84,↓,down,↓,0.2336327000084566,True,18
29K26,833,experiment,72,→,down,↓,0.3503962999966461,False,18
29K26,834,experiment,168,→,down,↓,0.21714110000175424,False,18
29K26,835,experiment,132,→,down,↓,0.13369410000450443,False,18
29K26,836,experiment,144,→,down,↓,0.2006400000100257,False,18
29K26,837,experiment,60,←,left,←,0.23358899999584537,True,18
29K26,838,experiment,12,→,left,←,0.2670076000067638,False,18
29K26,839,experiment,48,↑,right,→,0.23353270000370685,False,18
29K26,840,experiment,120,←,right,→,0.2173107999988133,False,18
29K26,841,experiment,96,↓,left,←,0.21723730000667274,False,18
29K26,842,experiment,132,←,left,←,0.18389550001302268,True,18
29K26,843,experiment,132,↓,left,←,0.21723860000201967,False,18
29K26,844,experiment,84,←,left,←,0.21723999999812804,True,18
29K26,845,experiment,60,→,left,←,0.23361979999754112,False,18
29K26,846,experiment,48,↓,left,←,0.16685179999331012,False,18
29K26,847,experiment,156,←,left,←,0.18354460000409745,True,18
29K26,848,experiment,132,↓,right,→,0.3504484000004595,False,18
29K26,849,experiment,108,→,down,↓,0.18359610000334214,False,18
