PART_ID,Trial_no,Trial_type,PDI,Stim_letter,Key_pressed,letter_choose,Rt,Corr,Stimulus Time
29K21,1,training,10,←,no_key,no_letter,-1.0,False,30
29K21,2,training,10,←,right,→,1.0128919000271708,False,30
29K21,3,training,10,↑,no_key,no_letter,-1.0,False,30
29K21,4,training,10,↑,left,←,1.2738694000290707,False,30
29K21,5,training,10,→,right,→,1.6780144999502227,True,30
29K21,6,training,10,←,left,←,2.072798899956979,True,30
29K21,7,training,10,←,left,←,1.27838590007741,True,30
29K21,8,training,10,↓,down,↓,1.7852643999503925,True,30
29K21,9,training,10,↓,down,↓,1.4821905000135303,True,30
29K21,10,training,10,→,right,→,1.5323669000063092,True,30
29K21,11,training,10,←,left,←,1.3106475999811664,True,30
29K21,12,training,10,↑,up,↑,1.35261589998845,True,30
29K21,13,training,10,↓,down,↓,1.174781300011091,True,30
29K21,14,training,10,←,left,←,1.0105320999864489,True,30
29K21,15,training,10,↓,down,↓,1.2536076999967918,True,30
29K21,16,training,10,←,left,←,1.1544552000705153,True,30
29K21,17,training,10,←,left,←,1.0310543000232428,True,30
29K21,18,training,10,→,right,→,0.9018682000460103,True,30
29K21,19,training,10,↓,down,↓,1.0436668000184,True,30
29K21,20,training,10,↑,up,↑,0.924165999982506,True,30
29K21,21,training,10,↓,down,↓,1.1494927000021562,True,18
29K21,22,training,10,→,right,→,0.8882475999416783,True,18
29K21,23,training,10,↑,up,↑,0.896782899973914,True,18
29K21,24,training,10,↓,down,↓,0.8940103000495583,True,18
29K21,25,training,10,→,right,→,0.7638881000457332,True,18
29K21,26,training,10,←,left,←,0.7844999999506399,True,18
29K21,27,training,10,↓,down,↓,0.8812295000534505,True,18
29K21,28,training,10,→,right,→,0.6693642999744043,True,18
29K21,29,training,10,←,left,←,0.6884681000374258,True,18
29K21,30,training,10,↓,down,↓,0.7620771999936551,True,18
29K21,31,training,108,↑,up,↑,0.6736668000230566,True,15
29K21,32,training,60,↓,up,↑,0.9938580999150872,False,15
29K21,33,training,96,↓,down,↓,1.1479065000312403,True,15
29K21,34,experiment,60,←,down,↓,1.049973199958913,False,15
29K21,35,experiment,36,↓,up,↑,1.0725334000308067,False,15
29K21,36,experiment,108,↓,down,↓,0.7881532000610605,True,15
29K21,37,experiment,120,↓,down,↓,0.7101939000422135,True,15
29K21,38,experiment,84,↓,down,↓,0.7191153999883682,True,15
29K21,39,experiment,72,→,right,→,0.7163917999714613,True,15
29K21,40,experiment,48,→,left,←,0.9875153000466526,False,15
29K21,41,experiment,84,←,left,←,0.6284235999919474,True,15
29K21,42,experiment,84,←,left,←,0.618202600046061,True,15
29K21,43,experiment,48,→,left,←,1.79744989995379,False,15
29K21,44,experiment,72,→,right,→,0.6243886000011116,True,15
29K21,45,experiment,144,→,right,→,0.6795028001070023,True,15
29K21,46,experiment,12,←,right,→,0.843113400042057,False,15
29K21,47,experiment,168,↓,down,↓,0.7395402999827638,True,15
29K21,48,experiment,12,←,left,←,1.0216050000162795,True,15
29K21,49,experiment,24,←,left,←,0.9918633999768645,True,15
29K21,50,experiment,144,↑,up,↑,0.8267892999574542,True,15
29K21,51,experiment,24,→,right,→,0.7432025999296457,True,15
29K21,52,experiment,168,↓,down,↓,0.7973735999548808,True,15
29K21,53,experiment,96,↓,left,←,1.3956429999088868,False,15
29K21,54,experiment,60,←,left,←,0.7280754999956116,True,15
29K21,55,experiment,168,←,right,→,1.0846537000034004,False,15
29K21,56,experiment,180,↓,down,↓,0.7881679999409243,True,15
29K21,57,experiment,132,←,right,→,0.7871224000118673,False,15
29K21,58,experiment,180,↑,up,↑,0.997951400000602,True,15
29K21,59,experiment,12,→,up,↑,0.9264427999733016,False,15
29K21,60,experiment,156,↓,down,↓,0.826066100038588,True,15
29K21,61,experiment,180,↑,up,↑,0.9808833000715822,True,15
29K21,62,experiment,60,→,left,←,0.8332063000416383,False,15
29K21,63,experiment,132,↓,down,↓,0.7395548999775201,True,15
29K21,64,experiment,156,↓,down,↓,0.6689477999461815,True,15
29K21,65,experiment,84,↓,up,↑,1.0041620999109,False,15
29K21,66,experiment,96,↑,up,↑,1.1592713999561965,True,15
29K21,67,experiment,36,→,right,→,0.7268644999712706,True,15
29K21,68,experiment,108,→,right,→,0.6723504000110552,True,15
29K21,69,experiment,48,↓,down,↓,1.2416265999199823,True,15
29K21,70,experiment,12,↓,no_key,no_letter,-1.0,False,15
29K21,71,experiment,96,↑,up,↑,1.3864335999824107,True,15
29K21,72,experiment,144,←,left,←,0.785826800041832,True,15
29K21,73,experiment,144,→,left,←,0.7137207000050694,False,15
29K21,74,experiment,108,→,right,→,0.8132276999531314,True,15
29K21,75,experiment,180,→,left,←,1.0623774999985471,False,15
29K21,76,experiment,72,→,right,→,0.7670686999335885,True,15
29K21,77,experiment,24,↑,left,←,0.980300199938938,False,15
29K21,78,experiment,132,↑,left,←,1.0582141999620944,False,15
29K21,79,experiment,120,↑,up,↑,0.7284066000720486,True,15
29K21,80,experiment,120,→,right,→,0.9455344000598416,True,15
29K21,81,experiment,96,→,left,←,0.9986478000646457,False,15
29K21,82,experiment,156,↓,no_key,no_letter,-1.0,False,15
29K21,83,experiment,36,↓,right,→,1.2425362999783829,False,15
29K21,84,experiment,48,←,left,←,0.8179168000351638,True,15
29K21,85,experiment,60,←,left,←,0.9435417000204325,True,15
29K21,86,experiment,120,←,left,←,0.7708242000080645,True,15
29K21,87,experiment,108,↓,right,→,1.0459044000599533,False,15
29K21,88,experiment,156,↑,up,↑,1.8260033000260592,True,15
29K21,89,experiment,132,↓,down,↓,0.9826230000471696,True,15
29K21,90,experiment,72,↑,left,←,0.9831391000188887,False,15
29K21,91,experiment,24,↓,right,→,1.5890518999658525,False,15
29K21,92,experiment,168,←,left,←,0.6755407999735326,True,15
29K21,93,experiment,36,→,no_key,no_letter,-1.0,False,15
29K21,94,training,12,↓,up,↑,0.7659094000700861,False,15
29K21,95,training,120,↑,right,→,0.8843046999536455,False,15
29K21,96,training,12,↓,no_key,no_letter,-1.0,False,15
29K21,97,experiment,84,↓,up,↑,1.2499974999809638,False,15
29K21,98,experiment,24,↓,down,↓,0.7729078000411391,True,15
29K21,99,experiment,120,↑,up,↑,0.703217800008133,True,15
29K21,100,experiment,180,←,left,←,0.6147417000029236,True,15
29K21,101,experiment,72,←,left,←,0.7208555000834167,True,15
29K21,102,experiment,132,←,left,←,0.6808868999360129,True,15
29K21,103,experiment,108,↓,up,↑,1.348498999956064,False,15
29K21,104,experiment,72,←,no_key,no_letter,-1.0,False,15
29K21,105,experiment,168,↑,up,↑,0.8647432000143453,True,15
29K21,106,experiment,156,←,left,←,0.7234857999719679,True,15
29K21,107,experiment,12,↑,up,↑,0.7256651000352576,True,15
29K21,108,experiment,144,↓,down,↓,0.79730340000242,True,15
29K21,109,experiment,24,↑,up,↑,0.8164058999391273,True,15
29K21,110,experiment,36,→,right,→,0.6518269999651238,True,15
29K21,111,experiment,108,←,left,←,0.5885562000330538,True,15
29K21,112,experiment,12,→,right,→,0.6357032000087202,True,15
29K21,113,experiment,132,↓,down,↓,0.7498720000730827,True,15
29K21,114,experiment,132,←,left,←,0.6289762000087649,True,15
29K21,115,experiment,24,→,right,→,0.6172589999623597,True,15
29K21,116,experiment,84,←,left,←,0.5006474999245256,True,15
29K21,117,experiment,144,→,left,←,0.6091983000515029,False,15
29K21,118,experiment,108,↑,right,→,0.947577100014314,False,15
29K21,119,experiment,36,↓,left,←,0.7650520000606775,False,15
29K21,120,experiment,36,→,left,←,0.673775100032799,False,15
29K21,121,experiment,36,←,left,←,0.5561105000087991,True,15
29K21,122,experiment,96,↓,down,↓,0.7560785000678152,True,15
29K21,123,experiment,156,↓,down,↓,0.7341302999993786,True,15
29K21,124,experiment,60,↓,down,↓,0.6635034000501037,True,15
29K21,125,experiment,120,←,left,←,0.6521283000474796,True,15
29K21,126,experiment,84,→,right,→,0.5509409999940544,True,15
29K21,127,experiment,12,→,left,←,0.7628037999384105,False,15
29K21,128,experiment,48,↑,up,↑,0.6264712000265718,True,15
29K21,129,experiment,132,←,up,↑,1.4396488000638783,False,15
29K21,130,experiment,72,→,right,→,0.7158118000952527,True,15
29K21,131,experiment,96,→,right,→,0.6241580999922007,True,15
29K21,132,experiment,48,→,right,→,0.7489000000059605,True,15
29K21,133,experiment,72,↑,up,↑,0.8418577999109402,True,15
29K21,134,experiment,156,↓,down,↓,0.7128230000380427,True,15
29K21,135,experiment,96,→,right,→,0.5917316999984905,True,15
29K21,136,experiment,96,↑,up,↑,0.6076592000899836,True,15
29K21,137,experiment,144,→,right,→,0.49760389991570264,True,15
29K21,138,experiment,12,↓,up,↑,0.7007471000542864,False,15
29K21,139,experiment,84,↑,up,↑,0.49380910000763834,True,15
29K21,140,experiment,180,↓,down,↓,0.6723303000908345,True,15
29K21,141,experiment,48,→,up,↑,1.0731234999839216,False,15
29K21,142,experiment,60,←,left,←,0.7028497999999672,True,15
29K21,143,experiment,48,→,left,←,0.6915083000203595,False,15
29K21,144,experiment,108,←,right,→,0.5573514000279829,False,15
29K21,145,experiment,60,↑,up,↑,0.6290355999954045,True,15
29K21,146,experiment,24,→,left,←,0.6587286000140011,False,15
29K21,147,experiment,120,←,left,←,0.5596420000074431,True,15
29K21,148,experiment,156,↓,down,↓,0.6985424000304192,True,15
29K21,149,experiment,144,→,right,→,0.5209481000201777,True,15
29K21,150,experiment,180,↓,right,→,0.7581608999753371,False,15
29K21,151,experiment,60,↓,down,↓,0.7328479000134394,True,15
29K21,152,experiment,168,↓,down,↓,0.6395909999264404,True,15
29K21,153,experiment,168,↓,down,↓,0.5565182999707758,True,15
29K21,154,experiment,180,→,right,→,0.6813833999913186,True,15
29K21,155,experiment,168,↓,down,↓,0.5562845000531524,True,15
29K21,156,experiment,120,↓,down,↓,0.5744870000053197,True,15
29K21,157,training,180,←,left,←,0.7456446000142023,True,15
29K21,158,training,24,↑,down,↓,0.6513774000341073,False,15
29K21,159,training,84,↑,up,↑,0.7427254000212997,True,15
29K21,160,experiment,156,→,left,←,1.0210815999889746,False,15
29K21,161,experiment,156,↑,up,↑,0.5814280000049621,True,15
29K21,162,experiment,144,↓,down,↓,0.5795562999555841,True,15
29K21,163,experiment,48,←,left,←,0.6523745000595227,True,15
29K21,164,experiment,120,↓,down,↓,0.6427866000449285,True,15
29K21,165,experiment,12,←,left,←,0.6026589999673888,True,15
29K21,166,experiment,108,→,down,↓,0.7350226000417024,False,15
29K21,167,experiment,48,↑,up,↑,0.6024144999682903,True,15
29K21,168,experiment,36,↑,down,↓,0.7023215000517666,False,15
29K21,169,experiment,72,↑,up,↑,0.630484800087288,True,15
29K21,170,experiment,132,→,left,←,0.5194067999254912,False,15
29K21,171,experiment,180,←,left,←,0.520893800072372,True,15
29K21,172,experiment,144,→,right,→,0.564547699992545,True,15
29K21,173,experiment,168,←,left,←,0.5204695001011714,True,15
29K21,174,experiment,108,↓,down,↓,0.598074599984102,True,15
29K21,175,experiment,96,←,left,←,0.5581364000681788,True,15
29K21,176,experiment,120,↑,left,←,0.689589999965392,False,15
29K21,177,experiment,180,→,right,→,0.7448518000310287,True,15
29K21,178,experiment,12,↓,up,↑,0.6204229000722989,False,15
29K21,179,experiment,168,↑,up,↑,0.5554435000522062,True,15
29K21,180,experiment,72,←,right,→,0.7261529000243172,False,15
29K21,181,experiment,60,↑,down,↓,0.7961204999592155,False,15
29K21,182,experiment,48,←,left,←,0.4533092000056058,True,15
29K21,183,experiment,24,→,right,→,0.5889645999995992,True,15
29K21,184,experiment,36,↑,up,↑,0.521375700016506,True,15
29K21,185,experiment,168,↑,up,↑,0.4892210999969393,True,15
29K21,186,experiment,84,↓,up,↑,1.248226199997589,False,15
29K21,187,experiment,84,→,right,→,0.7019468999933451,True,15
29K21,188,experiment,84,↓,down,↓,0.673668000032194,True,15
29K21,189,experiment,36,↓,left,←,1.2012692000716925,False,15
29K21,190,experiment,60,→,right,→,1.283877299982123,True,15
29K21,191,experiment,132,↑,up,↑,0.5301663000136614,True,15
29K21,192,experiment,96,↑,up,↑,0.7021424999693409,True,15
29K21,193,experiment,180,↓,up,↑,0.9176442999159917,False,15
29K21,194,experiment,36,→,right,→,0.7317972999298945,True,15
29K21,195,experiment,120,↑,up,↑,0.8279465999221429,True,15
29K21,196,experiment,168,↓,down,↓,0.7581793999997899,True,15
29K21,197,experiment,108,←,left,←,0.7489176999079064,True,15
29K21,198,experiment,120,←,left,←,0.8797499000793323,True,15
29K21,199,experiment,60,←,left,←,0.7823796999873593,True,15
29K21,200,experiment,96,→,right,→,0.5353487000102177,True,15
29K21,201,experiment,24,↑,up,↑,0.7808305999496952,True,15
29K21,202,experiment,48,←,right,→,0.6878539000172168,False,15
29K21,203,experiment,180,↓,left,←,0.7553735999390483,False,15
29K21,204,experiment,132,↑,left,←,0.8128261000383645,False,15
29K21,205,experiment,24,↓,left,←,0.7710777999600396,False,15
29K21,206,experiment,24,→,right,→,0.6966145999031141,True,15
29K21,207,experiment,144,→,right,→,0.5564191999146715,True,15
29K21,208,experiment,156,→,left,←,0.5333962999284267,False,15
29K21,209,experiment,60,↓,down,↓,0.6909812999656424,True,15
29K21,210,experiment,72,←,left,←,0.5417205999838188,True,15
29K21,211,experiment,108,←,left,←,0.6319623000454158,True,15
29K21,212,experiment,72,↑,down,↓,0.7452361000468954,False,15
29K21,213,experiment,144,↓,down,↓,0.5907927999505773,True,15
29K21,214,experiment,12,↑,down,↓,0.7070165999466553,False,15
29K21,215,experiment,96,↓,down,↓,0.5397800999926403,True,15
29K21,216,experiment,132,↓,up,↑,0.9194572999840602,False,15
29K21,217,experiment,12,←,left,←,0.7270080999005586,True,15
29K21,218,experiment,156,←,left,←,0.6515685999765992,True,15
29K21,219,experiment,84,→,no_key,no_letter,-1.0,False,15
29K21,220,training,36,↓,left,←,0.8702102999668568,False,15
29K21,221,training,36,←,left,←,0.5972075000172481,True,15
29K21,222,training,72,→,right,→,0.5435761000262573,True,15
29K21,223,experiment,60,→,right,→,0.5327543000457808,True,15
29K21,224,experiment,24,←,left,←,0.567235599970445,True,15
29K21,225,experiment,180,↓,down,↓,0.6203665999928489,True,15
29K21,226,experiment,36,↑,up,↑,0.6185959000140429,True,15
29K21,227,experiment,60,←,right,→,0.5264431000687182,False,15
29K21,228,experiment,48,↓,up,↑,0.6249996999977157,False,15
29K21,229,experiment,168,↓,down,↓,0.6301604999462143,True,15
29K21,230,experiment,120,↓,down,↓,0.6434904000489041,True,15
29K21,231,experiment,48,↓,up,↑,0.7025507000507787,False,15
29K21,232,experiment,72,↓,up,↑,0.6902965999906883,False,15
29K21,233,experiment,132,↓,down,↓,0.5275081999134272,True,15
29K21,234,experiment,96,→,left,←,0.7746958000352606,False,15
29K21,235,experiment,132,↓,down,↓,1.0069281999021769,True,15
29K21,236,experiment,132,↓,down,↓,0.5966143000405282,True,15
29K21,237,experiment,60,↓,down,↓,0.6415552999824286,True,15
29K21,238,experiment,156,→,right,→,0.4771752000087872,True,15
29K21,239,experiment,180,↓,down,↓,0.7535910999868065,True,15
29K21,240,experiment,72,↑,up,↑,0.696726799942553,True,15
29K21,241,experiment,96,←,left,←,0.6279685000190511,True,15
29K21,242,experiment,156,→,right,→,0.634474299964495,True,15
29K21,243,experiment,12,→,right,→,0.5278009000467137,True,15
29K21,244,experiment,108,↑,up,↑,0.523156400071457,True,15
29K21,245,experiment,84,←,left,←,0.6114788999548182,True,15
29K21,246,experiment,168,←,left,←,0.6225597999291494,True,15
29K21,247,experiment,132,←,left,←,0.5675644000293687,True,15
29K21,248,experiment,72,↓,up,↑,0.8404585999669507,False,15
29K21,249,experiment,120,↓,down,↓,0.6206953999353573,True,15
29K21,250,experiment,24,←,left,←,0.5160716000245884,True,15
29K21,251,experiment,180,←,left,←,0.6267686999635771,True,15
29K21,252,experiment,108,←,left,←,0.5016522000078112,True,15
29K21,253,experiment,36,↓,down,↓,0.6494527000468224,True,15
29K21,254,experiment,24,→,right,→,0.4542954000644386,True,15
29K21,255,experiment,108,→,right,→,0.5371149000711739,True,15
29K21,256,experiment,12,→,left,←,0.61012159998063,False,15
29K21,257,experiment,96,↑,left,←,0.7367470000172034,False,15
29K21,258,experiment,48,←,left,←,0.5942877000197768,True,15
29K21,259,experiment,168,→,right,→,0.5942171999486163,True,15
29K21,260,experiment,144,↓,down,↓,0.6409285999834538,True,15
29K21,261,experiment,144,→,right,→,0.6507977000437677,True,15
29K21,262,experiment,72,←,left,←,0.5761501000961289,True,15
29K21,263,experiment,12,↓,down,↓,0.5850181999849156,True,15
29K21,264,experiment,84,↓,down,↓,0.5975690999766812,True,15
29K21,265,experiment,36,↑,up,↑,0.6207297999644652,True,15
29K21,266,experiment,120,←,left,←,0.5120242999400944,True,15
29K21,267,experiment,84,→,right,→,0.6044228000100702,True,15
29K21,268,experiment,144,↓,right,→,0.6878269999288023,False,15
29K21,269,experiment,96,←,left,←,0.7636663999874145,True,15
29K21,270,experiment,156,←,left,←,0.506984900101088,True,15
29K21,271,experiment,120,←,left,←,0.6889718999154866,True,15
29K21,272,experiment,156,↓,down,↓,0.6240154000697657,True,15
29K21,273,experiment,36,←,left,←,0.756114499992691,True,15
29K21,274,experiment,168,→,right,→,0.5092990000266582,True,15
29K21,275,experiment,12,↑,up,↑,0.8063819999806583,True,15
29K21,276,experiment,48,→,right,→,0.436260599992238,True,15
29K21,277,experiment,144,↓,down,↓,0.5258041000925004,True,15
29K21,278,experiment,24,→,right,→,0.6045833999523893,True,15
29K21,279,experiment,84,→,right,→,0.5289105999981984,True,15
29K21,280,experiment,60,←,left,←,0.5353160999948159,True,15
29K21,281,experiment,108,↑,right,→,0.6724030999466777,False,15
29K21,282,experiment,180,↓,down,↓,0.6752520999871194,True,15
29K21,283,training,12,←,right,→,1.358863899949938,False,15
29K21,284,training,24,←,left,←,0.569759999983944,True,15
29K21,285,training,120,↓,down,↓,0.6746578000020236,True,15
29K21,286,experiment,96,→,left,←,0.6192350999917835,False,15
29K21,287,experiment,72,←,left,←,0.5058901000302285,True,15
29K21,288,experiment,84,←,left,←,0.875821000081487,True,15
29K21,289,experiment,120,↑,up,↑,0.5699293999932706,True,15
29K21,290,experiment,60,↑,up,↑,0.5400820000795648,True,15
29K21,291,experiment,144,→,right,→,0.5263384999707341,True,15
29K21,292,experiment,36,↑,up,↑,0.6570872999727726,True,15
29K21,293,experiment,72,→,right,→,0.5798448999412358,True,15
29K21,294,experiment,144,↑,up,↑,0.5730606999713928,True,15
29K21,295,experiment,72,↑,up,↑,0.5540729000931606,True,15
29K21,296,experiment,24,→,right,→,0.5878655000124127,True,15
29K21,297,experiment,180,↑,up,↑,0.7087108999257907,True,15
29K21,298,experiment,180,→,right,→,0.569369800039567,True,15
29K21,299,experiment,24,←,up,↑,0.7176241000415757,False,15
29K21,300,experiment,48,↓,down,↓,0.6859966999618337,True,15
29K21,301,experiment,72,←,left,←,0.6800978000974283,True,15
29K21,302,experiment,132,↓,down,↓,0.6441545999841765,True,15
29K21,303,experiment,96,↓,down,↓,0.7692206000210717,True,15
29K21,304,experiment,48,↓,down,↓,0.7886679999064654,True,15
29K21,305,experiment,36,↑,up,↑,0.6607621000148356,True,15
29K21,306,experiment,120,→,right,→,0.6640744000906125,True,15
29K21,307,experiment,144,↑,up,↑,0.7408920000307262,True,15
29K21,308,experiment,180,↓,down,↓,0.6572465999051929,True,15
29K21,309,experiment,24,→,left,←,0.7649754999438301,False,15
29K21,310,experiment,60,←,left,←,0.5645098999375477,True,15
29K21,311,experiment,120,↑,up,↑,0.5743451999733225,True,15
29K21,312,experiment,156,←,left,←,0.6961726000299677,True,15
29K21,313,experiment,168,↓,down,↓,0.7947553999256343,True,15
29K21,314,experiment,12,→,up,↑,0.6486796999815851,False,15
29K21,315,experiment,180,↓,up,↑,0.725373400026001,False,15
29K21,316,experiment,132,→,right,→,0.5468869999749586,True,15
29K21,317,experiment,12,↓,no_key,no_letter,-1.0,False,15
29K21,318,experiment,84,←,left,←,0.5113068999489769,True,15
29K21,319,experiment,84,↓,down,↓,0.7167819000314921,True,15
29K21,320,experiment,108,→,left,←,0.5142624999862164,False,15
29K21,321,experiment,96,↑,up,↑,0.632501499960199,True,15
29K21,322,experiment,168,↑,up,↑,0.5520877001108602,True,15
29K21,323,experiment,108,→,left,←,0.6118072000099346,False,15
29K21,324,experiment,132,↑,up,↑,0.6395596000365913,True,15
29K21,325,experiment,156,↑,up,↑,0.5956579999765381,True,15
29K21,326,experiment,120,→,left,←,0.5866962000727654,False,15
29K21,327,experiment,12,↑,up,↑,0.5970745000522584,True,15
29K21,328,experiment,108,→,right,→,0.5255796000128612,True,15
29K21,329,experiment,108,↓,down,↓,0.6751816000323743,True,15
29K21,330,experiment,60,↑,up,↑,0.5369803999783471,True,15
29K21,331,experiment,60,→,right,→,0.5288385000312701,True,15
29K21,332,experiment,144,↓,down,↓,0.7274608999723569,True,15
29K21,333,experiment,84,←,left,←,0.5894145999336615,True,15
29K21,334,experiment,36,↑,up,↑,0.6607089000754058,True,15
29K21,335,experiment,36,←,left,←,0.48390190000645816,True,15
29K21,336,experiment,12,→,right,→,0.6671298999572173,True,15
29K21,337,experiment,156,←,left,←,0.5477876999648288,True,15
29K21,338,experiment,96,→,right,→,0.4919456000206992,True,15
29K21,339,experiment,132,↑,up,↑,0.6371381999924779,True,15
29K21,340,experiment,24,→,right,→,0.6891292999498546,True,15
29K21,341,experiment,168,→,right,→,0.5906495000235736,True,15
29K21,342,experiment,156,↑,up,↑,0.6423966999864206,True,15
29K21,343,experiment,48,→,left,←,0.6863960999762639,False,15
29K21,344,experiment,168,↑,up,↑,0.6201755000511184,True,15
29K21,345,experiment,48,↑,up,↑,0.8779202000005171,True,15
29K21,346,training,108,↑,up,↑,0.5234263999154791,True,15
29K21,347,training,72,↑,up,↑,0.48313940002117306,True,15
29K21,348,training,132,↑,up,↑,0.45817810005974025,True,15
29K21,349,experiment,12,↑,up,↑,0.5675410999683663,True,15
29K21,350,experiment,36,→,right,→,0.6438057000050321,True,15
29K21,351,experiment,48,↑,up,↑,0.4373207000317052,True,15
29K21,352,experiment,96,→,right,→,0.47573910001665354,True,15
29K21,353,experiment,12,←,left,←,0.576800899929367,True,15
29K21,354,experiment,12,↑,up,↑,0.5591993000125512,True,15
29K21,355,experiment,72,→,right,→,0.5819643000140786,True,15
29K21,356,experiment,180,←,left,←,0.5955309000564739,True,15
29K21,357,experiment,156,↑,up,↑,0.5002702999627218,True,15
29K21,358,experiment,60,→,right,→,0.5317232999950647,True,15
29K21,359,experiment,24,←,left,←,0.6518215000396594,True,15
29K21,360,experiment,120,↓,down,↓,0.6756079000188038,True,15
29K21,361,experiment,168,←,left,←,0.5918153000529855,True,15
29K21,362,experiment,132,→,left,←,0.6527565999422222,False,15
29K21,363,experiment,180,→,right,→,0.5318082000594586,True,15
29K21,364,experiment,96,↓,down,↓,0.7355179999722168,True,15
29K21,365,experiment,120,→,right,→,0.5198172000236809,True,15
29K21,366,experiment,144,↓,down,↓,0.6572587999980897,True,15
29K21,367,experiment,72,←,left,←,0.5218562000663951,True,15
29K21,368,experiment,108,←,left,←,0.5293397000059485,True,15
29K21,369,experiment,24,↓,down,↓,0.6595097000245005,True,15
29K21,370,experiment,144,↑,up,↑,0.5460725999437273,True,15
29K21,371,experiment,60,↓,down,↓,0.5048616999993101,True,15
29K21,372,experiment,108,↓,down,↓,0.4990770999575034,True,15
29K21,373,experiment,156,→,right,→,0.5650283999275416,True,15
29K21,374,experiment,168,←,left,←,0.5743592999642715,True,15
29K21,375,experiment,84,↑,up,↑,0.4563711000373587,True,15
29K21,376,experiment,144,←,right,→,0.53910670010373,False,15
29K21,377,experiment,132,←,left,←,0.5316960000200197,True,15
29K21,378,experiment,96,→,left,←,0.6039745999732986,False,15
29K21,379,experiment,132,→,left,←,0.4578631001058966,False,15
29K21,380,experiment,156,→,right,→,0.48077509994618595,True,15
29K21,381,experiment,48,←,left,←,0.6616715000709519,True,15
29K21,382,experiment,24,←,left,←,0.5774870000313967,True,15
29K21,383,experiment,180,↓,down,↓,0.6887676999904215,True,15
29K21,384,experiment,96,↑,up,↑,0.6574151000240818,True,15
29K21,385,experiment,60,↓,down,↓,0.6333984000375494,True,15
29K21,386,experiment,108,↑,up,↑,0.46261849999427795,True,15
29K21,387,experiment,168,←,left,←,0.5484736000653356,True,15
29K21,388,experiment,180,→,right,→,0.5250042999396101,True,15
29K21,389,experiment,84,↓,up,↑,0.7491525000659749,False,15
29K21,390,experiment,168,→,right,→,0.5905070001026616,True,15
29K21,391,experiment,132,↑,down,↓,0.622770799905993,False,15
29K21,392,experiment,144,↓,down,↓,0.889844199991785,True,15
29K21,393,experiment,84,↓,down,↓,0.650008299970068,True,15
29K21,394,experiment,108,↑,up,↑,0.6586586999474093,True,15
29K21,395,experiment,60,→,right,→,0.6277244000229985,True,15
29K21,396,experiment,24,↑,up,↑,0.6198602999793366,True,15
29K21,397,experiment,120,←,left,←,0.6648533999687061,True,15
29K21,398,experiment,36,←,left,←,0.5338920999784023,True,15
29K21,399,experiment,84,←,left,←,0.5154657000675797,True,15
29K21,400,experiment,72,↓,down,↓,0.6878311999607831,True,15
29K21,401,experiment,48,↑,up,↑,0.6104689000640064,True,15
29K21,402,experiment,48,←,left,←,0.6260101000079885,True,15
29K21,403,experiment,156,↑,up,↑,0.7503409000346437,True,15
29K21,404,experiment,36,↓,left,←,1.0893513000337407,False,15
29K21,405,experiment,120,↓,down,↓,0.7514284999342635,True,15
29K21,406,experiment,72,→,right,→,0.5719939999980852,True,15
29K21,407,experiment,36,↓,down,↓,0.6020469999639317,True,15
29K21,408,experiment,12,↓,down,↓,0.7282499000430107,True,15
29K21,409,training,84,↓,down,↓,0.578755599912256,True,15
29K21,410,training,132,←,left,←,0.6659937999211252,True,15
29K21,411,training,144,↓,down,↓,0.6055462999502197,True,15
29K21,412,experiment,132,↑,down,↓,0.6181179999839514,False,15
29K21,413,experiment,48,←,left,←,0.5783914999337867,True,15
29K21,414,experiment,180,→,left,←,0.45240389998070896,False,15
29K21,415,experiment,84,→,left,←,0.6611001000273973,False,15
29K21,416,experiment,84,→,right,→,0.6332780999364331,True,15
29K21,417,experiment,168,→,right,→,0.49270349997095764,True,15
29K21,418,experiment,120,↑,up,↑,0.5158319000620395,True,15
29K21,419,experiment,72,↓,down,↓,0.6190969999879599,True,15
29K21,420,experiment,96,←,left,←,0.6265590999973938,True,15
29K21,421,experiment,24,↓,down,↓,0.6167875999817625,True,15
29K21,422,experiment,24,→,right,→,0.5116909999633208,True,15
29K21,423,experiment,120,←,left,←,0.5019717999966815,True,15
29K21,424,experiment,72,←,left,←,0.5851376000791788,True,15
29K21,425,experiment,72,→,right,→,0.495741399936378,True,15
29K21,426,experiment,36,↓,right,→,0.766594700049609,False,15
29K21,427,experiment,120,←,left,←,0.619337199954316,True,15
29K21,428,experiment,144,↓,left,←,0.7280176000203937,False,15
29K21,429,experiment,36,←,left,←,0.5550473000621423,True,15
29K21,430,experiment,12,←,left,←,0.5191727000055835,True,15
29K21,431,experiment,108,→,right,→,0.47990489995572716,True,15
29K21,432,experiment,156,↑,up,↑,0.6079471000703052,True,15
29K21,433,experiment,12,→,left,←,0.5935775000834838,False,15
29K21,434,experiment,180,→,right,→,0.4852848999435082,True,15
29K21,435,experiment,96,→,right,→,0.5614300000015646,True,15
29K21,436,experiment,36,→,left,←,0.6217532999580726,False,15
29K21,437,experiment,168,→,right,→,0.5225776999723166,True,15
29K21,438,experiment,132,←,left,←,0.5628154999576509,True,15
29K21,439,experiment,24,←,left,←,0.4250838999869302,True,15
29K21,440,experiment,108,↑,up,↑,0.6143675000639632,True,15
29K21,441,experiment,168,↓,down,↓,0.5823390999576077,True,15
29K21,442,experiment,60,→,right,→,0.6061263000592589,True,15
29K21,443,experiment,84,↑,up,↑,0.5598806000780314,True,15
29K21,444,experiment,156,↑,down,↓,0.9117248000111431,False,15
29K21,445,experiment,132,↑,up,↑,0.66679219994694,True,15
29K21,446,experiment,72,→,right,→,0.5499301999807358,True,15
29K21,447,experiment,60,↑,up,↑,0.5481630000285804,True,15
29K21,448,experiment,144,↑,up,↑,0.47372020001057535,True,15
29K21,449,experiment,60,↑,up,↑,0.47788329992908984,True,15
29K21,450,experiment,36,→,left,←,0.6103652999736369,False,15
29K21,451,experiment,144,→,left,←,0.8806918999180198,False,15
29K21,452,experiment,144,→,up,↑,0.6959831999847665,False,15
29K21,453,experiment,132,←,left,←,0.6221928999293596,True,15
29K21,454,experiment,12,←,left,←,0.5520991999655962,True,15
29K21,455,experiment,180,←,left,←,0.590297499904409,True,15
29K21,456,experiment,120,←,left,←,0.6123896000208333,True,15
29K21,457,experiment,168,↓,up,↑,0.6998169999569654,False,15
29K21,458,experiment,96,←,right,→,0.8787447999930009,False,15
29K21,459,experiment,48,→,right,→,0.5517281000502408,True,15
29K21,460,experiment,96,↑,up,↑,1.4792348999762908,True,15
29K21,461,experiment,156,→,left,←,0.6222165999934077,False,15
29K21,462,experiment,180,→,right,→,0.6548900000052527,True,15
29K21,463,experiment,156,↑,right,→,0.6978169000940397,False,15
29K21,464,experiment,108,↑,up,↑,0.637147199944593,True,15
29K21,465,experiment,12,←,left,←,0.5552422000328079,True,15
29K21,466,experiment,60,→,right,→,0.5898362000007182,True,15
29K21,467,experiment,48,→,right,→,0.5883582000387833,True,15
29K21,468,experiment,24,→,right,→,0.5651228999486193,True,15
29K21,469,experiment,48,↓,down,↓,0.8284246999537572,True,15
29K21,470,experiment,84,←,left,←,0.6231864999281242,True,15
29K21,471,experiment,108,↑,up,↑,0.6647375000175089,True,15
29K21,472,training,156,↓,down,↓,1.1470138999866322,True,15
29K21,473,training,84,↓,down,↓,0.6009149000747129,True,15
29K21,474,training,12,↓,down,↓,0.6221600000280887,True,15
29K21,475,experiment,144,→,right,→,0.5810282999882475,True,15
29K21,476,experiment,132,↑,up,↑,0.6299865000182763,True,15
29K21,477,experiment,84,↓,down,↓,0.6310666999779642,True,15
29K21,478,experiment,36,←,left,←,0.5619035999989137,True,15
29K21,479,experiment,48,←,left,←,0.7576219999464229,True,15
29K21,480,experiment,168,↓,down,↓,0.6684077999088913,True,15
29K21,481,experiment,108,↓,down,↓,0.6088177999481559,True,15
29K21,482,experiment,72,←,left,←,0.6189242000691593,True,15
29K21,483,experiment,96,←,left,←,0.587421300006099,True,15
29K21,484,experiment,156,→,right,→,0.6213724000845104,True,15
29K21,485,experiment,120,←,left,←,0.6051962999626994,True,15
29K21,486,experiment,168,→,right,→,0.5439471999416128,True,15
29K21,487,experiment,60,←,left,←,0.5956893999828026,True,15
29K21,488,experiment,36,←,left,←,0.5464375999290496,True,15
29K21,489,experiment,168,←,left,←,0.5367232999997213,True,15
29K21,490,experiment,132,↓,left,←,0.6397138999309391,False,15
29K21,491,experiment,12,←,left,←,1.1815900000510737,True,15
29K21,492,experiment,96,↑,up,↑,0.6488693999126554,True,15
29K21,493,experiment,84,↓,up,↑,0.5522389999823645,False,15
29K21,494,experiment,12,→,left,←,0.6582185999723151,False,15
29K21,495,experiment,12,←,left,←,0.47463009995408356,True,15
29K21,496,experiment,24,→,right,→,0.5560106000630185,True,15
29K21,497,experiment,180,↑,up,↑,0.4712098999880254,True,15
29K21,498,experiment,24,↓,down,↓,0.7159675000002608,True,15
29K21,499,experiment,84,↓,down,↓,0.7189294999698177,True,15
29K21,500,experiment,120,←,left,←,0.5161437999922782,True,15
29K21,501,experiment,108,↓,down,↓,0.8418267000233755,True,15
29K21,502,experiment,48,←,left,←,0.5473243000451475,True,15
29K21,503,experiment,108,↑,down,↓,0.8250328999711201,False,15
29K21,504,experiment,108,←,left,←,0.8776211999356747,True,15
29K21,505,experiment,72,↑,up,↑,0.6457338999025524,True,15
29K21,506,experiment,24,↓,up,↑,0.5868611000478268,False,15
29K21,507,experiment,96,↓,no_key,no_letter,-1.0,False,15
29K21,508,experiment,36,←,left,←,0.5712026000255719,True,15
29K21,509,experiment,144,↑,up,↑,0.6821928999852389,True,15
29K21,510,experiment,132,→,right,→,0.6119514999445528,True,15
29K21,511,experiment,132,→,right,→,0.6352094999747351,True,15
29K21,512,experiment,168,→,right,→,0.6092232000082731,True,15
29K21,513,experiment,180,←,right,→,0.5782705000601709,False,15
29K21,514,experiment,36,←,left,←,0.8965748000191525,True,15
29K21,515,experiment,180,←,left,←,0.6635914000216872,True,15
29K21,516,experiment,120,↑,up,↑,0.5922257999191061,True,15
29K21,517,experiment,120,→,right,→,0.54911030002404,True,15
29K21,518,experiment,84,↓,up,↑,0.6135646000038832,False,15
29K21,519,experiment,156,→,left,←,0.6142913999501616,False,15
29K21,520,experiment,48,→,left,←,0.8149941000156105,False,15
29K21,521,experiment,156,→,right,→,0.6085191000020131,True,15
29K21,522,experiment,60,↓,left,←,0.8301039000507444,False,15
29K21,523,experiment,72,→,right,→,0.591652899980545,True,15
29K21,524,experiment,156,→,left,←,0.5646733000176027,False,15
29K21,525,experiment,24,←,left,←,0.5674160999478772,True,15
29K21,526,experiment,96,↑,up,↑,0.6124086999334395,True,15
29K21,527,experiment,144,↑,up,↑,0.6932165999896824,True,15
29K21,528,experiment,60,←,right,→,0.7183943999698386,False,15
29K21,529,experiment,12,←,left,←,0.5926488999975845,True,15
29K21,530,experiment,60,↑,down,↓,0.7227807000745088,False,15
29K21,531,experiment,144,↑,up,↑,0.4797980000730604,True,15
29K21,532,experiment,48,←,left,←,0.771143399993889,True,15
29K21,533,experiment,72,→,right,→,0.5922657999908552,True,15
29K21,534,experiment,180,↑,up,↑,0.4953429999295622,True,15
29K21,535,training,12,←,right,→,1.2768669000361115,False,15
29K21,536,training,24,←,left,←,0.6135447999695316,True,15
29K21,537,training,72,←,left,←,0.61984429997392,True,15
29K21,538,experiment,84,↓,down,↓,0.7632655000779778,True,15
29K21,539,experiment,96,←,left,←,0.5182874000165612,True,15
29K21,540,experiment,84,→,right,→,0.48685629991814494,True,15
29K21,541,experiment,120,↓,down,↓,0.5279867000645027,True,15
29K21,542,experiment,132,↓,down,↓,0.6639697999926284,True,15
29K21,543,experiment,108,←,left,←,0.45534220000263304,True,15
29K21,544,experiment,72,↓,down,↓,0.575713999918662,True,15
29K21,545,experiment,108,→,right,→,0.51113609992899,True,15
29K21,546,experiment,120,↑,up,↑,0.5852480001049116,True,15
29K21,547,experiment,48,↑,up,↑,0.7860837000189349,True,15
29K21,548,experiment,72,↓,down,↓,0.5467201999854296,True,15
29K21,549,experiment,156,→,right,→,0.568792000063695,True,15
29K21,550,experiment,180,←,left,←,0.5566415999783203,True,15
29K21,551,experiment,108,←,right,→,0.873006199952215,False,15
29K21,552,experiment,132,→,right,→,0.6758166999788955,True,15
29K21,553,experiment,168,↓,down,↓,0.9487940000835806,True,15
29K21,554,experiment,12,←,left,←,0.5683007000479847,True,15
29K21,555,experiment,24,→,right,→,0.5063053999328986,True,15
29K21,556,experiment,144,→,right,→,0.5549796000123024,True,15
29K21,557,experiment,180,←,left,←,0.5085721999639645,True,15
29K21,558,experiment,24,→,right,→,0.703746100072749,True,15
29K21,559,experiment,168,↑,up,↑,0.6130445000017062,True,15
29K21,560,experiment,12,←,left,←,0.5606570999370888,True,15
29K21,561,experiment,156,→,right,→,0.4384070000378415,True,15
29K21,562,experiment,48,←,left,←,0.5512242999393493,True,15
29K21,563,experiment,180,↑,up,↑,0.6074190000072122,True,15
29K21,564,experiment,48,→,right,→,0.5465534999966621,True,15
29K21,565,experiment,36,↑,down,↓,0.9234276000643149,False,15
29K21,566,experiment,132,↑,up,↑,0.5189986999612302,True,15
29K21,567,experiment,144,↓,down,↓,0.6783294000197202,True,15
29K21,568,experiment,168,←,left,←,0.5649299999931827,True,15
29K21,569,experiment,36,↓,down,↓,0.694605499971658,True,15
29K21,570,experiment,24,↑,up,↑,0.5689122000476345,True,15
29K21,571,experiment,12,↓,down,↓,0.6676185999531299,True,15
29K21,572,experiment,12,↑,down,↓,0.6696320000337437,False,15
29K21,573,experiment,72,←,left,←,0.6165728999767452,True,15
29K21,574,experiment,72,↑,up,↑,0.6299150000559166,True,15
29K21,575,experiment,60,→,right,→,0.6397323000710458,True,15
29K21,576,experiment,144,→,right,→,1.2398886000737548,True,15
29K21,577,experiment,60,↑,up,↑,0.6212937999516726,True,15
29K21,578,experiment,108,↓,down,↓,0.6360498000867665,True,15
29K21,579,experiment,36,→,right,→,0.8674051000270993,True,15
29K21,580,experiment,96,→,right,→,0.914777799975127,True,15
29K21,581,experiment,84,↑,up,↑,1.0629471000283957,True,15
29K21,582,experiment,132,↓,down,↓,0.6532182999653742,True,15
29K21,583,experiment,168,↓,down,↓,0.58607189997565,True,15
29K21,584,experiment,60,↓,down,↓,0.7848744000075385,True,15
29K21,585,experiment,120,↓,down,↓,0.6161508000222966,True,15
29K21,586,experiment,120,→,right,→,0.6086022000527009,True,15
29K21,587,experiment,48,←,left,←,0.7894734999863431,True,15
29K21,588,experiment,96,←,left,←,0.8564218000974506,True,15
29K21,589,experiment,36,↑,up,↑,0.6372720000799745,True,15
29K21,590,experiment,24,↑,up,↑,0.600103099946864,True,15
29K21,591,experiment,156,←,left,←,0.5500684999860823,True,15
29K21,592,experiment,96,↑,up,↑,0.5325179001083598,True,15
29K21,593,experiment,180,↑,up,↑,0.5327746999682859,True,15
29K21,594,experiment,60,←,left,←,0.6567820999771357,True,15
29K21,595,experiment,84,→,right,→,0.6735386999789625,True,15
29K21,596,experiment,156,←,right,→,0.8052463000640273,False,15
29K21,597,experiment,144,←,left,←,0.6582766999490559,True,15
29K21,598,training,144,←,left,←,0.5743336000014096,True,14
29K21,599,training,120,↓,down,↓,0.7849246999248862,True,14
29K21,600,training,84,↓,down,↓,0.6184203999582678,True,14
29K21,601,experiment,180,↑,up,↑,0.5196149999974295,True,14
29K21,602,experiment,36,↓,up,↑,0.4952718000859022,False,14
29K21,603,experiment,120,→,right,→,0.507526500034146,True,14
29K21,604,experiment,96,→,right,→,0.5244154999963939,True,14
29K21,605,experiment,168,↓,down,↓,0.6647608999628574,True,14
29K21,606,experiment,12,↓,down,↓,0.6987634999677539,True,14
29K21,607,experiment,72,←,left,←,0.6343785000499338,True,14
29K21,608,experiment,72,→,right,→,0.5572667000815272,True,14
29K21,609,experiment,168,↓,down,↓,0.6240631999680772,True,14
29K21,610,experiment,24,→,right,→,0.47472150006797165,True,14
29K21,611,experiment,108,←,right,→,0.7260891000041738,False,14
29K21,612,experiment,120,→,left,←,0.6235913999844342,False,14
29K21,613,experiment,96,↑,up,↑,0.6338481000857428,True,14
29K21,614,experiment,108,↓,up,↑,0.474655200028792,False,14
29K21,615,experiment,132,←,right,→,1.0820521999849007,False,14
29K21,616,experiment,108,←,left,←,0.4911884000757709,True,14
29K21,617,experiment,12,←,right,→,0.6680073000025004,False,14
29K21,618,experiment,24,↑,up,↑,0.5288626999827102,True,14
29K21,619,experiment,84,↓,up,↑,0.5563247000100091,False,14
29K21,620,experiment,60,→,right,→,0.5866983999731019,True,14
29K21,621,experiment,24,↑,up,↑,0.6302634999155998,True,14
29K21,622,experiment,48,↓,down,↓,0.5101096000289544,True,14
29K21,623,experiment,180,↓,down,↓,0.5740164000308141,True,14
29K21,624,experiment,84,←,down,↓,1.031589899910614,False,14
29K21,625,experiment,48,→,left,←,0.7747471999609843,False,14
29K21,626,experiment,156,↑,right,→,0.7664092000341043,False,14
29K21,627,experiment,156,↑,down,↓,0.6511218999512494,False,14
29K21,628,experiment,120,←,left,←,0.5278780000517145,True,14
29K21,629,experiment,60,→,right,→,0.41071930003818125,True,14
29K21,630,experiment,132,→,left,←,0.6484108000295237,False,14
29K21,631,experiment,36,↑,no_key,no_letter,-1.0,False,14
29K21,632,experiment,72,↑,left,←,0.44564659998286515,False,14
29K21,633,experiment,36,→,left,←,0.5977004000451416,False,14
29K21,634,experiment,168,←,right,→,0.7238315000431612,False,14
29K21,635,experiment,156,↑,up,↑,0.6653383999364451,True,14
29K21,636,experiment,132,←,right,→,0.6936270999722183,False,14
29K21,637,experiment,36,→,left,←,0.7523899000370875,False,14
29K21,638,experiment,84,↑,up,↑,0.5584744000807405,True,14
29K21,639,experiment,48,↓,up,↑,0.550704300054349,False,14
29K21,640,experiment,180,↓,down,↓,0.6879561999812722,True,14
29K21,641,experiment,144,↑,down,↓,0.7309141999576241,False,14
29K21,642,experiment,108,←,down,↓,0.6945242999354377,False,14
29K21,643,experiment,132,←,left,←,0.5213217999553308,True,14
29K21,644,experiment,144,←,left,←,0.6622236999683082,True,14
29K21,645,experiment,24,←,right,→,0.7527589000528678,False,14
29K21,646,experiment,96,↑,up,↑,0.5499289999715984,True,14
29K21,647,experiment,60,↓,up,↑,0.5359666999429464,False,14
29K21,648,experiment,168,↓,up,↑,0.5143894000211731,False,14
29K21,649,experiment,84,↑,up,↑,0.5466854999540374,True,14
29K21,650,experiment,144,↓,up,↑,0.9807933999691159,False,14
29K21,651,experiment,12,↑,down,↓,0.9071957999840379,False,14
29K21,652,experiment,180,←,left,←,0.5741615999722853,True,14
29K21,653,experiment,12,←,left,←,1.4337582000298426,True,14
29K21,654,experiment,96,←,left,←,0.5869649000233039,True,14
29K21,655,experiment,144,←,right,→,1.2763077999697998,False,14
29K21,656,experiment,156,→,left,←,0.6445873000193387,False,14
29K21,657,experiment,72,→,up,↑,1.0417475000722334,False,14
29K21,658,experiment,120,←,left,←,0.5846968000987545,True,14
29K21,659,experiment,60,→,left,←,1.443343700026162,False,14
29K21,660,experiment,48,←,left,←,1.0459427000023425,True,14
29K21,661,training,84,↑,up,↑,0.5779234999790788,True,15
29K21,662,training,168,↑,up,↑,0.609257600037381,True,15
29K21,663,training,84,←,left,←,0.5859388000098988,True,15
29K21,664,experiment,180,↓,down,↓,0.6893256999319419,True,15
29K21,665,experiment,144,→,right,→,1.1742770000128075,True,15
29K21,666,experiment,60,↓,down,↓,0.5346834999509156,True,15
29K21,667,experiment,12,↓,down,↓,0.5802978000137955,True,15
29K21,668,experiment,132,→,right,→,0.6859521999722347,True,15
29K21,669,experiment,144,↓,down,↓,0.7523762999335304,True,15
29K21,670,experiment,120,↓,down,↓,0.7833340000361204,True,15
29K21,671,experiment,24,→,left,←,0.8871921000536531,False,15
29K21,672,experiment,72,↑,down,↓,1.5765557999256998,False,15
29K21,673,experiment,12,→,right,→,0.6395568998996168,True,15
29K21,674,experiment,96,←,left,←,0.6746202000649646,True,15
29K21,675,experiment,24,↓,down,↓,0.6903442000038922,True,15
29K21,676,experiment,60,←,left,←,0.5219731000252068,True,15
29K21,677,experiment,48,↑,up,↑,0.625853699981235,True,15
29K21,678,experiment,132,↓,up,↑,0.6726917000487447,False,15
29K21,679,experiment,108,←,left,←,0.8890095000388101,True,15
29K21,680,experiment,120,←,left,←,0.5570793999359012,True,15
29K21,681,experiment,168,→,left,←,0.5780692000407726,False,15
29K21,682,experiment,156,→,right,→,0.6368618999840692,True,15
29K21,683,experiment,96,→,right,→,0.8593020000262186,True,15
29K21,684,experiment,36,↓,down,↓,0.6580063999863341,True,15
29K21,685,experiment,60,→,left,←,0.8687472000019625,False,15
29K21,686,experiment,180,↓,down,↓,0.6377805999945849,True,15
29K21,687,experiment,120,←,left,←,0.628333400003612,True,15
29K21,688,experiment,84,↓,left,←,0.9387106000212952,False,15
29K21,689,experiment,48,→,right,→,0.7011749000521377,True,15
29K21,690,experiment,96,→,right,→,0.5066552000353113,True,15
29K21,691,experiment,108,↓,down,↓,0.5835115999216214,True,15
29K21,692,experiment,36,↑,up,↑,0.7049802000401542,True,15
29K21,693,experiment,144,→,right,→,0.669815499917604,True,15
29K21,694,experiment,120,←,left,←,0.7272651999955997,True,15
29K21,695,experiment,180,↑,down,↓,0.7451416000258178,False,15
29K21,696,experiment,144,↓,down,↓,0.5901150999125093,True,15
29K21,697,experiment,60,↓,right,→,1.0258903000503778,False,15
29K21,698,experiment,132,→,right,→,0.5184747000457719,True,15
29K21,699,experiment,156,↑,up,↑,0.6371776000596583,True,15
29K21,700,experiment,108,↓,up,↑,0.7913990000961348,False,15
29K21,701,experiment,36,→,right,→,0.6785552999936044,True,15
29K21,702,experiment,36,←,left,←,0.5021884000161663,True,15
29K21,703,experiment,72,→,right,→,0.6639161999337375,True,15
29K21,704,experiment,168,↑,up,↑,0.5285919000161812,True,15
29K21,705,experiment,24,↓,up,↑,0.5310461000772193,False,15
29K21,706,experiment,72,↑,up,↑,0.5160894999280572,True,15
29K21,707,experiment,168,←,right,→,0.8919550999999046,False,15
29K21,708,experiment,156,→,right,→,0.6602347000734881,True,15
29K21,709,experiment,48,↑,up,↑,0.47193300002254546,True,15
29K21,710,experiment,72,↓,up,↑,0.6296502000186592,False,15
29K21,711,experiment,108,→,up,↑,0.6756623000837862,False,15
29K21,712,experiment,84,←,left,←,0.5608935999916866,True,15
29K21,713,experiment,48,↓,down,↓,0.6716812000377104,True,15
29K21,714,experiment,84,↑,up,↑,0.5718669999623671,True,15
29K21,715,experiment,132,←,left,←,0.47953489993233234,True,15
29K21,716,experiment,12,←,left,←,0.6285048000281677,True,15
29K21,717,experiment,24,↓,up,↑,0.6130369999445975,False,15
29K21,718,experiment,168,↑,up,↑,0.6370271000778303,True,15
29K21,719,experiment,12,↑,up,↑,0.6837837999919429,True,15
29K21,720,experiment,156,→,left,←,1.042982199927792,False,15
29K21,721,experiment,96,↑,left,←,0.6123243001056835,False,15
29K21,722,experiment,84,→,right,→,0.46893410000484437,True,15
29K21,723,experiment,180,←,left,←,0.6077962999697775,True,15
29K21,724,training,168,←,left,←,1.1807514999527484,True,15
29K21,725,training,120,↓,down,↓,0.6625586000736803,True,15
29K21,726,training,120,↑,left,←,0.6695723000448197,False,15
29K21,727,experiment,12,→,right,→,0.5898817999986932,True,15
29K21,728,experiment,48,↓,down,↓,0.600294999894686,True,15
29K21,729,experiment,36,↓,down,↓,0.5521585000678897,True,15
29K21,730,experiment,84,↓,down,↓,0.4874518000287935,True,15
29K21,731,experiment,12,←,left,←,0.5782773999962956,True,15
29K21,732,experiment,36,↑,down,↓,0.6267883999971673,False,15
29K21,733,experiment,72,↑,down,↓,0.8226287999423221,False,15
29K21,734,experiment,180,→,right,→,0.685395999928005,True,15
29K21,735,experiment,144,↑,up,↑,0.6571441000560299,True,15
29K21,736,experiment,72,→,right,→,0.5183043999131769,True,15
29K21,737,experiment,84,→,right,→,0.6357012999942526,True,15
29K21,738,experiment,84,↑,up,↑,0.6124658000189811,True,15
29K21,739,experiment,168,←,left,←,0.6034440000075847,True,15
29K21,740,experiment,60,↑,up,↑,0.5809770999476314,True,15
29K21,741,experiment,156,↓,up,↑,0.5842524999752641,False,15
29K21,742,experiment,12,→,right,→,0.5356105000246316,True,15
29K21,743,experiment,96,↑,up,↑,0.541354599990882,True,15
29K21,744,experiment,60,→,up,↑,0.8110748999752104,False,15
29K21,745,experiment,108,←,left,←,0.6195006999187171,True,15
29K21,746,experiment,120,→,right,→,0.7963973999721929,True,15
29K21,747,experiment,144,→,right,→,0.6569658999796957,True,15
29K21,748,experiment,96,→,right,→,0.791615099995397,True,15
29K21,749,experiment,108,←,right,→,0.4880093999672681,False,15
29K21,750,experiment,96,↓,up,↑,0.49509710003621876,False,15
29K21,751,experiment,96,↑,up,↑,0.45093399996403605,True,15
29K21,752,experiment,108,↓,down,↓,0.6592291000997648,True,15
29K21,753,experiment,108,→,left,←,0.6480722998967394,False,15
29K21,754,experiment,120,↓,up,↑,0.5448744999011979,False,15
29K21,755,experiment,132,→,right,→,0.6288793999701738,True,15
29K21,756,experiment,132,↓,down,↓,0.8908105000155047,True,15
29K21,757,experiment,156,→,left,←,0.7774259999860078,False,15
29K21,758,experiment,36,←,left,←,0.6820128000108525,True,15
29K21,759,experiment,132,↓,left,←,0.587473800056614,False,15
29K21,760,experiment,24,←,left,←,0.7098587000509724,True,15
29K21,761,experiment,180,←,left,←,0.727995700086467,True,15
29K21,762,experiment,156,↓,up,↑,0.5849752000067383,False,15
29K21,763,experiment,24,→,right,→,0.6995443999767303,True,15
29K21,764,experiment,48,←,left,←,0.5402407000074163,True,15
29K21,765,experiment,72,↑,up,↑,0.579389699967578,True,15
29K21,766,experiment,120,←,left,←,0.5008804999524727,True,15
29K21,767,experiment,120,↑,up,↑,0.47455099993385375,True,15
29K21,768,experiment,132,→,right,→,0.6316422999370843,True,15
29K21,769,experiment,48,↑,up,↑,1.7811432000016794,True,15
29K21,770,experiment,144,↓,up,↑,0.5975599999073893,False,15
29K21,771,experiment,72,↓,down,↓,0.6518016000045463,True,15
29K21,772,experiment,24,←,left,←,0.6196582999546081,True,15
29K21,773,experiment,180,→,right,→,0.48763520002830774,True,15
29K21,774,experiment,36,←,no_key,no_letter,-1.0,False,15
29K21,775,experiment,12,←,left,←,0.608262800029479,True,15
29K21,776,experiment,60,→,right,→,0.623972300090827,True,15
29K21,777,experiment,24,↑,up,↑,0.683138299966231,True,15
29K21,778,experiment,168,↓,down,↓,0.4940972999902442,True,15
29K21,779,experiment,180,↓,down,↓,0.7130295999813825,True,15
29K21,780,experiment,84,→,right,→,0.5700518999947235,True,15
29K21,781,experiment,144,←,left,←,0.7070821999805048,True,15
29K21,782,experiment,48,↓,down,↓,0.647117399959825,True,15
29K21,783,experiment,60,←,left,←,0.6790850999532267,True,15
29K21,784,experiment,156,→,right,→,0.49016869999468327,True,15
29K21,785,experiment,168,→,left,←,0.48859710001852363,False,15
29K21,786,experiment,168,←,left,←,0.5705535999732092,True,15
29K21,787,training,96,←,left,←,0.5636530999327078,True,15
29K21,788,training,120,↑,up,↑,0.6583208999363706,True,15
29K21,789,training,120,→,left,←,0.4719824999338016,False,15
29K21,790,experiment,84,↓,down,↓,0.7351514000911266,True,15
29K21,791,experiment,48,→,right,→,0.4938683999935165,True,15
29K21,792,experiment,24,↓,down,↓,0.6218748000683263,True,15
29K21,793,experiment,120,←,right,→,0.618225899990648,False,15
29K21,794,experiment,60,↓,no_key,no_letter,-1.0,False,15
29K21,795,experiment,60,↓,down,↓,0.5919227000558749,True,15
29K21,796,experiment,180,→,left,←,0.5745392999378964,False,15
29K21,797,experiment,48,↓,down,↓,0.7251696999883279,True,15
29K21,798,experiment,12,←,right,→,0.6090564000187442,False,15
29K21,799,experiment,12,→,left,←,0.5511648999527097,False,15
29K21,800,experiment,156,←,left,←,0.5995141000021249,True,15
29K21,801,experiment,96,←,left,←,0.5158013999462128,True,15
29K21,802,experiment,60,←,left,←,0.535338900052011,True,15
29K21,803,experiment,84,←,left,←,0.6029553998960182,True,15
29K21,804,experiment,144,←,left,←,0.5438501000171527,True,15
29K21,805,experiment,12,↑,up,↑,0.5983750999439508,True,15
29K21,806,experiment,132,↓,down,↓,0.8309562000213191,True,15
29K21,807,experiment,36,↓,down,↓,0.5086512999841943,True,15
29K21,808,experiment,108,↑,up,↑,0.4973105000099167,True,15
29K21,809,experiment,36,←,left,←,0.46915709995664656,True,15
29K21,810,experiment,144,↑,up,↑,0.7384191000601277,True,15
29K21,811,experiment,168,↓,up,↑,0.7636559000238776,False,15
29K21,812,experiment,24,↑,up,↑,0.49891700001899153,True,15
29K21,813,experiment,132,↑,up,↑,0.5806750999763608,True,15
29K21,814,experiment,180,↑,up,↑,0.4652810998959467,True,15
29K21,815,experiment,96,→,right,→,0.5310069000115618,True,15
29K21,816,experiment,132,←,left,←,0.48162229999434203,True,15
29K21,817,experiment,168,↑,left,←,0.7878146000439301,False,15
29K21,818,experiment,144,←,left,←,0.5086562999058515,True,15
29K21,819,experiment,36,←,left,←,0.42475999996531755,True,15
29K21,820,experiment,84,↑,up,↑,0.4708045000443235,True,15
29K21,821,experiment,144,↑,no_key,no_letter,-1.0,False,15
29K21,822,experiment,24,→,right,→,0.5442864000797272,True,15
29K21,823,experiment,108,←,left,←,0.3839558999752626,True,15
29K21,824,experiment,120,↑,up,↑,0.45533489994704723,True,15
29K21,825,experiment,72,→,left,←,0.7415056999307126,False,15
29K21,826,experiment,48,↓,up,↑,0.650218200054951,False,15
29K21,827,experiment,108,→,right,→,0.5571292999666184,True,15
29K21,828,experiment,156,←,left,←,0.5066508000018075,True,15
29K21,829,experiment,168,→,right,→,0.5413438000250608,True,15
29K21,830,experiment,72,←,left,←,0.4651729000033811,True,15
29K21,831,experiment,108,↓,down,↓,0.6628094000043347,True,15
29K21,832,experiment,180,→,up,↑,1.531725800014101,False,15
29K21,833,experiment,72,↓,down,↓,0.4826069000409916,True,15
29K21,834,experiment,72,↓,down,↓,0.5802415999351069,True,15
29K21,835,experiment,24,↓,down,↓,0.6006145999999717,True,15
29K21,836,experiment,36,↑,up,↑,0.427102499990724,True,15
29K21,837,experiment,168,↓,down,↓,0.6132133000064641,True,15
29K21,838,experiment,132,↓,up,↑,0.8118096999824047,False,15
29K21,839,experiment,60,↓,down,↓,0.5685013000620529,True,15
29K21,840,experiment,156,↑,down,↓,0.8067362000001594,False,15
29K21,841,experiment,84,↓,down,↓,0.6742416999768466,True,15
29K21,842,experiment,48,↑,up,↑,0.5942078999942169,True,15
29K21,843,experiment,96,↓,down,↓,0.5507054999470711,True,15
29K21,844,experiment,180,↓,down,↓,0.7080665999092162,True,15
29K21,845,experiment,156,↑,down,↓,0.6806177999824286,False,15
29K21,846,experiment,120,↑,up,↑,0.536015999969095,True,15
29K21,847,experiment,12,←,left,←,0.5521357998950407,True,15
29K21,848,experiment,96,→,right,→,0.6150203000288457,True,15
29K21,849,experiment,120,↑,up,↑,0.4849907999159768,True,15
