PART_ID,Trial_no,Trial_type,PDI,Stim_letter,Key_pressed,letter_choose,Rt,Corr,Stimulus Time
30M34,1,training,10,↓,down,↓,0.860891400006949,True,30
30M34,2,training,10,↑,up,↑,0.9076524999982212,True,30
30M34,3,training,10,↓,down,↓,0.7348528000002261,True,30
30M34,4,training,10,↑,up,↑,0.7080616000021109,True,30
30M34,5,training,10,←,left,←,0.5338162999978522,True,30
30M34,6,training,10,↓,down,↓,0.5838399000058416,True,30
30M34,7,training,10,↑,up,↑,0.7121778000000631,True,30
30M34,8,training,10,←,left,←,0.9819019999995362,True,30
30M34,9,training,10,←,up,↑,1.8647849999979371,False,30
30M34,10,training,10,↓,down,↓,0.701077300007455,True,30
30M34,11,training,10,→,right,→,0.7031117000005906,True,30
30M34,12,training,10,↑,up,↑,0.7410649999947054,True,30
30M34,13,training,10,→,right,→,0.915895800004364,True,30
30M34,14,training,10,↓,down,↓,0.8223771000048146,True,30
30M34,15,training,10,↑,up,↑,0.8812066000100458,True,30
30M34,16,training,10,→,right,→,0.6168747000047006,True,30
30M34,17,training,10,←,left,←,0.7421058999898378,True,30
30M34,18,training,10,←,left,←,0.6878734000056284,True,30
30M34,19,training,10,↑,up,↑,0.7272832000016933,True,30
30M34,20,training,10,↓,down,↓,0.7684086999943247,True,30
30M34,21,training,10,↓,down,↓,0.7639178999961587,True,18
30M34,22,training,10,→,right,→,0.6738277999975253,True,18
30M34,23,training,10,↓,down,↓,0.5385707999957958,True,18
30M34,24,training,10,→,right,→,0.5962642999948002,True,18
30M34,25,training,10,→,right,→,0.6031782999925781,True,18
30M34,26,training,10,→,right,→,0.6510276999906637,True,18
30M34,27,training,10,↓,down,↓,0.7415851999976439,True,18
30M34,28,training,10,↑,up,↑,0.7821277000039117,True,18
30M34,29,training,10,↑,up,↑,0.8697420000098646,True,18
30M34,30,training,10,↓,down,↓,0.5823200000013458,True,18
30M34,31,training,84,→,right,→,1.316654299997026,True,15
30M34,32,training,24,→,right,→,0.7201747000071919,True,15
30M34,33,training,96,↑,up,↑,0.8141663999995217,True,15
30M34,34,experiment,12,←,down,↓,0.8697825999988709,False,15
30M34,35,experiment,156,↑,right,→,0.9766589000064414,False,15
30M34,36,experiment,168,↑,up,↑,0.8375684000056935,True,15
30M34,37,experiment,12,→,down,↓,1.001137800005381,False,15
30M34,38,experiment,84,↑,up,↑,0.7213774999981979,True,15
30M34,39,experiment,132,↓,down,↓,0.6850812999909976,True,15
30M34,40,experiment,156,↓,down,↓,0.7067554000095697,True,15
30M34,41,experiment,144,↓,down,↓,0.6803729999955976,True,15
30M34,42,experiment,36,↓,left,←,1.0486891000036849,False,15
30M34,43,experiment,132,→,right,→,0.636264000000665,True,15
30M34,44,experiment,36,↓,up,↑,0.8189305999985663,False,15
30M34,45,experiment,156,↓,down,↓,0.6474147000117227,True,15
30M34,46,experiment,60,→,right,→,0.6705970000039088,True,15
30M34,47,experiment,36,→,right,→,0.5859962999966228,True,15
30M34,48,experiment,24,→,left,←,1.4411141000018688,False,15
30M34,49,experiment,48,→,left,←,1.10749080000096,False,15
30M34,50,experiment,168,→,right,→,0.6117153000086546,True,15
30M34,51,experiment,96,↑,down,↓,0.7357989000011003,False,15
30M34,52,experiment,180,←,left,←,0.6130510000075446,True,15
30M34,53,experiment,24,→,left,←,0.6635163000028115,False,15
30M34,54,experiment,168,→,right,→,0.6062420999951428,True,15
30M34,55,experiment,156,↑,left,←,0.8165736000082688,False,15
30M34,56,experiment,120,↓,down,↓,0.7806493000098271,True,15
30M34,57,experiment,168,↑,up,↑,0.7351129000016954,True,15
30M34,58,experiment,60,→,right,→,0.8445158999966225,True,15
30M34,59,experiment,120,←,left,←,0.6473171999969054,True,15
30M34,60,experiment,48,←,left,←,0.5509935000009136,True,15
30M34,61,experiment,180,↓,down,↓,0.9264277000038419,True,15
30M34,62,experiment,108,↑,down,↓,0.6017525999923237,False,15
30M34,63,experiment,84,↑,up,↑,0.6977076000039233,True,15
30M34,64,experiment,72,↓,up,↑,0.8506658999976935,False,15
30M34,65,experiment,96,→,right,→,0.7196067000040784,True,15
30M34,66,experiment,120,↑,up,↑,0.7176883999927668,True,15
30M34,67,experiment,48,↑,up,↑,0.6352913000009721,True,15
30M34,68,experiment,12,←,right,→,0.7884590000030585,False,15
30M34,69,experiment,36,→,right,→,0.6454709000099683,True,15
30M34,70,experiment,108,↑,up,↑,1.1991364000132307,True,15
30M34,71,experiment,108,↓,down,↓,0.8433231999952113,True,15
30M34,72,experiment,96,↓,down,↓,0.770978999993531,True,15
30M34,73,experiment,96,↓,down,↓,0.6386111000028905,True,15
30M34,74,experiment,72,←,down,↓,0.7681272000045283,False,15
30M34,75,experiment,144,↓,down,↓,0.7299488999997266,True,15
30M34,76,experiment,84,→,down,↓,1.3602981000003638,False,15
30M34,77,experiment,24,←,left,←,0.6319081999972695,True,15
30M34,78,experiment,180,↓,down,↓,0.8779148000030546,True,15
30M34,79,experiment,60,→,down,↓,0.9621683999866946,False,15
30M34,80,experiment,24,↓,down,↓,0.7935748000018066,True,15
30M34,81,experiment,132,←,left,←,0.7787091999925906,True,15
30M34,82,experiment,48,→,right,→,0.7810660999966785,True,15
30M34,83,experiment,120,↑,up,↑,0.7229309000103967,True,15
30M34,84,experiment,144,←,left,←,0.7017552000033902,True,15
30M34,85,experiment,72,→,right,→,0.6942908000055468,True,15
30M34,86,experiment,108,→,left,←,0.9159631999937119,False,15
30M34,87,experiment,12,→,left,←,0.8357761000079336,False,15
30M34,88,experiment,72,↑,left,←,0.5980520000011893,False,15
30M34,89,experiment,144,↓,down,↓,0.760384699999122,True,15
30M34,90,experiment,84,↓,down,↓,0.5746214000100736,True,15
30M34,91,experiment,60,←,down,↓,0.8116373000084423,False,15
30M34,92,experiment,180,↓,down,↓,0.600610500012408,True,15
30M34,93,experiment,132,↓,down,↓,0.7171371000004001,True,15
30M34,94,training,24,↑,right,→,1.122560199990403,False,15
30M34,95,training,12,↑,right,→,1.1836240999982692,False,15
30M34,96,training,96,↓,right,→,0.6162723000015831,False,15
30M34,97,experiment,48,←,left,←,0.631558799999766,True,15
30M34,98,experiment,156,→,right,→,0.7023708999913651,True,15
30M34,99,experiment,60,→,right,→,0.655902700003935,True,15
30M34,100,experiment,132,←,left,←,0.5998716000030981,True,15
30M34,101,experiment,96,↓,down,↓,1.0915695000003325,True,15
30M34,102,experiment,72,↑,up,↑,0.852863599997363,True,15
30M34,103,experiment,72,↑,up,↑,0.7790477000089595,True,15
30M34,104,experiment,60,↑,up,↑,0.7380337999929907,True,15
30M34,105,experiment,108,↑,up,↑,0.6146915999997873,True,15
30M34,106,experiment,132,←,right,→,0.6844211999996332,False,15
30M34,107,experiment,84,→,right,→,0.6840307000093162,True,15
30M34,108,experiment,168,←,left,←,0.5917952000017976,True,15
30M34,109,experiment,60,→,right,→,0.8182355000026291,True,15
30M34,110,experiment,84,↓,left,←,0.7475351000030059,False,15
30M34,111,experiment,144,←,left,←,0.6095130000030622,True,15
30M34,112,experiment,120,↓,right,→,0.7777198999974644,False,15
30M34,113,experiment,60,↓,up,↑,0.8701471000094898,False,15
30M34,114,experiment,156,↓,down,↓,0.7012953999947058,True,15
30M34,115,experiment,36,←,left,←,0.6981902000115952,True,15
30M34,116,experiment,96,↓,left,←,1.8649310999899171,False,15
30M34,117,experiment,12,↑,up,↑,1.0372994000063045,True,15
30M34,118,experiment,144,↓,down,↓,0.7078266000025906,True,15
30M34,119,experiment,48,↑,down,↓,1.708699999988312,False,15
30M34,120,experiment,96,←,left,←,0.6068317000026582,True,15
30M34,121,experiment,120,→,right,→,0.6205920000065817,True,15
30M34,122,experiment,180,→,right,→,0.7115257999976166,True,15
30M34,123,experiment,108,↓,down,↓,0.7691414000000805,True,15
30M34,124,experiment,168,↑,right,→,1.0011412000021664,False,15
30M34,125,experiment,84,←,left,←,0.6611707999982173,True,15
30M34,126,experiment,156,→,right,→,0.5837441000039689,True,15
30M34,127,experiment,168,↑,up,↑,0.6806027999991784,True,15
30M34,128,experiment,24,↓,left,←,1.0836861999996472,False,15
30M34,129,experiment,156,↑,up,↑,0.8082694000040647,True,15
30M34,130,experiment,36,←,up,↑,0.9197685000108322,False,15
30M34,131,experiment,108,←,right,→,1.0389626999967732,False,15
30M34,132,experiment,36,→,left,←,0.7209883000032278,False,15
30M34,133,experiment,84,↓,down,↓,0.774208799994085,True,15
30M34,134,experiment,48,↓,down,↓,0.828684299995075,True,15
30M34,135,experiment,12,↑,down,↓,0.9384816000092542,False,15
30M34,136,experiment,180,→,right,→,0.6835468000062974,True,15
30M34,137,experiment,96,→,right,→,0.8092190000024857,True,15
30M34,138,experiment,144,←,left,←,1.1173106000060216,True,15
30M34,139,experiment,48,←,left,←,0.6374685000046156,True,15
30M34,140,experiment,12,←,left,←,0.6484095999912824,True,15
30M34,141,experiment,24,→,no_key,no_letter,-1.0,False,15
30M34,142,experiment,120,←,left,←,0.6238088999962201,True,15
30M34,143,experiment,72,←,left,←,0.5788115000032121,True,15
30M34,144,experiment,180,→,left,←,0.6198567999963416,False,15
30M34,145,experiment,180,→,right,→,0.83560320000106,True,15
30M34,146,experiment,108,↑,up,↑,0.7797197000036249,True,15
30M34,147,experiment,132,→,left,←,0.8405658999981824,False,15
30M34,148,experiment,168,↑,up,↑,0.9210687999875518,True,15
30M34,149,experiment,12,←,right,→,0.7935607999970671,False,15
30M34,150,experiment,24,←,down,↓,1.4878364000032889,False,15
30M34,151,experiment,120,←,left,←,0.8730036999913864,True,15
30M34,152,experiment,24,←,left,←,0.8564183999988018,True,15
30M34,153,experiment,36,↓,up,↑,1.4887741999991704,False,15
30M34,154,experiment,72,←,up,↑,0.844395699998131,False,15
30M34,155,experiment,132,↑,down,↓,1.2025779999967199,False,15
30M34,156,experiment,144,←,left,←,0.7712341000005836,True,15
30M34,157,training,36,→,right,→,0.6501759999955539,True,15
30M34,158,training,168,↓,right,→,1.004076500001247,False,15
30M34,159,training,48,↓,right,→,0.9468067999987397,False,15
30M34,160,experiment,72,↑,down,↓,0.8522754000005079,False,15
30M34,161,experiment,168,↑,up,↑,0.8131438999989768,True,15
30M34,162,experiment,108,←,right,→,0.8212749999947846,False,15
30M34,163,experiment,108,↑,right,→,0.8075974999956088,False,15
30M34,164,experiment,12,←,left,←,0.7378466000081971,True,15
30M34,165,experiment,12,↓,right,→,0.6862198999879183,False,15
30M34,166,experiment,144,↑,right,→,0.9152792999957455,False,15
30M34,167,experiment,48,→,right,→,0.7378328000049805,True,15
30M34,168,experiment,132,→,left,←,0.9633270999911474,False,15
30M34,169,experiment,24,↓,right,→,0.8881365999986883,False,15
30M34,170,experiment,60,↓,down,↓,0.685793199998443,True,15
30M34,171,experiment,156,←,left,←,0.5883047999959672,True,15
30M34,172,experiment,156,↓,down,↓,0.8959152000024915,True,15
30M34,173,experiment,84,←,right,→,0.5640833999932511,False,15
30M34,174,experiment,132,→,right,→,0.5569687999959569,True,15
30M34,175,experiment,12,↑,left,←,0.6185575999988941,False,15
30M34,176,experiment,84,↓,down,↓,1.6424303999956464,True,15
30M34,177,experiment,108,↑,up,↑,0.7303531000070507,True,15
30M34,178,experiment,72,↑,up,↑,0.5917163999984041,True,15
30M34,179,experiment,180,↓,down,↓,0.7505004999984521,True,15
30M34,180,experiment,48,↑,left,←,1.082765000013751,False,15
30M34,181,experiment,120,↓,down,↓,1.13652450000518,True,15
30M34,182,experiment,36,→,right,→,0.7103156999946805,True,15
30M34,183,experiment,36,→,right,→,0.8309086999943247,True,15
30M34,184,experiment,144,↓,down,↓,0.8131105000065872,True,15
30M34,185,experiment,168,↑,down,↓,1.0493193000002066,False,15
30M34,186,experiment,24,↑,down,↓,0.8906118000013521,False,15
30M34,187,experiment,108,↑,right,→,0.6192230999877211,False,15
30M34,188,experiment,132,→,right,→,0.9359319000068353,True,15
30M34,189,experiment,96,↓,down,↓,0.9910674999991897,True,15
30M34,190,experiment,180,↑,up,↑,0.736458200000925,True,15
30M34,191,experiment,36,↑,up,↑,0.9436669999995502,True,15
30M34,192,experiment,132,↓,up,↑,0.7789564999984577,False,15
30M34,193,experiment,144,↑,up,↑,0.8034250000055181,True,15
30M34,194,experiment,72,↑,up,↑,0.7286634999909438,True,15
30M34,195,experiment,120,↑,up,↑,0.713325500008068,True,15
30M34,196,experiment,156,↑,up,↑,0.7627449999999953,True,15
30M34,197,experiment,144,←,left,←,0.6304214000119828,True,15
30M34,198,experiment,120,↓,up,↑,0.6285731999960262,False,15
30M34,199,experiment,72,↑,up,↑,0.6819251999986591,True,15
30M34,200,experiment,180,↑,up,↑,0.6138612999930046,True,15
30M34,201,experiment,12,↑,up,↑,0.7434814000007464,True,15
30M34,202,experiment,120,↓,up,↑,0.81776410000748,False,15
30M34,203,experiment,48,→,right,→,0.7048203999875113,True,15
30M34,204,experiment,156,←,left,←,0.6422199999942677,True,15
30M34,205,experiment,60,↑,right,→,1.1688229999999749,False,15
30M34,206,experiment,96,←,left,←,1.0323003999947105,True,15
30M34,207,experiment,60,↑,up,↑,0.9538740999996662,True,15
30M34,208,experiment,24,←,up,↑,1.107324199998402,False,15
30M34,209,experiment,84,↑,up,↑,0.6696056999935536,True,15
30M34,210,experiment,24,→,up,↑,1.2912576000089757,False,15
30M34,211,experiment,36,↓,down,↓,0.7756691000104183,True,15
30M34,212,experiment,96,↑,up,↑,0.8351602999900933,True,15
30M34,213,experiment,84,→,right,→,0.810308799991617,True,15
30M34,214,experiment,60,←,left,←,0.6863639000075636,True,15
30M34,215,experiment,48,↓,down,↓,0.7351097000064328,True,15
30M34,216,experiment,180,↓,down,↓,0.8124367999989772,True,15
30M34,217,experiment,168,→,right,→,0.8000663999991957,True,15
30M34,218,experiment,96,↓,down,↓,0.7623380000004545,True,15
30M34,219,experiment,168,↑,up,↑,0.9004014999954961,True,15
30M34,220,training,12,←,no_key,no_letter,-1.0,False,15
30M34,221,training,144,←,left,←,1.3588045000069542,True,15
30M34,222,training,144,↑,up,↑,0.7413589999923715,True,15
30M34,223,experiment,60,→,right,→,0.6957265999953961,True,15
30M34,224,experiment,144,←,left,←,0.7446486999979243,True,15
30M34,225,experiment,24,↓,left,←,0.667997500000638,False,15
30M34,226,experiment,144,→,left,←,1.1317972000106238,False,15
30M34,227,experiment,108,→,right,→,0.5879001000139397,True,15
30M34,228,experiment,12,↓,left,←,0.7397728000069037,False,15
30M34,229,experiment,96,←,right,→,0.8231549999909475,False,15
30M34,230,experiment,132,→,left,←,0.709014499996556,False,15
30M34,231,experiment,120,→,right,→,0.6938240000017686,True,15
30M34,232,experiment,24,↑,right,→,0.9221298000047682,False,15
30M34,233,experiment,72,↑,up,↑,0.766569299987168,True,15
30M34,234,experiment,96,↓,down,↓,0.7970375000004424,True,15
30M34,235,experiment,36,→,right,→,0.89671110000927,True,15
30M34,236,experiment,132,↑,up,↑,0.8456931999971857,True,15
30M34,237,experiment,156,→,right,→,0.8596118000132265,True,15
30M34,238,experiment,12,↑,up,↑,0.8342571000102907,True,15
30M34,239,experiment,12,←,up,↑,0.760399699996924,False,15
30M34,240,experiment,144,↑,up,↑,0.6848060000047553,True,15
30M34,241,experiment,72,↓,down,↓,0.9031250000116415,True,15
30M34,242,experiment,96,↓,down,↓,0.892457399997511,True,15
30M34,243,experiment,108,↑,up,↑,0.7775620000029448,True,15
30M34,244,experiment,156,↑,up,↑,0.761973400003626,True,15
30M34,245,experiment,60,↓,down,↓,0.7594797000056133,True,15
30M34,246,experiment,36,←,left,←,0.727145400000154,True,15
30M34,247,experiment,168,→,right,→,0.9341184999939287,True,15
30M34,248,experiment,168,↓,down,↓,0.8151549999893177,True,15
30M34,249,experiment,96,↓,down,↓,0.7366863999923225,True,15
30M34,250,experiment,132,↑,left,←,0.834827700004098,False,15
30M34,251,experiment,168,↑,up,↑,0.606079499993939,True,15
30M34,252,experiment,84,←,left,←,0.7132884000020567,True,15
30M34,253,experiment,24,→,right,→,0.6070789999939734,True,15
30M34,254,experiment,48,←,left,←,0.7228980000072625,True,15
30M34,255,experiment,108,→,right,→,0.6330176999908872,True,15
30M34,256,experiment,120,↓,down,↓,0.7963981999928365,True,15
30M34,257,experiment,168,↑,up,↑,0.9856124000070849,True,15
30M34,258,experiment,48,↓,down,↓,0.8587720000068657,True,15
30M34,259,experiment,120,→,right,→,0.9789789999922505,True,15
30M34,260,experiment,48,↓,left,←,0.832978299993556,False,15
30M34,261,experiment,48,→,right,→,1.3959934999875259,True,15
30M34,262,experiment,84,↑,up,↑,0.7135119000013219,True,15
30M34,263,experiment,156,←,right,→,0.9838451999967219,False,15
30M34,264,experiment,36,↓,left,←,0.5914243000006536,False,15
30M34,265,experiment,180,←,right,→,0.9017273999925237,False,15
30M34,266,experiment,180,↓,down,↓,0.8739230000064708,True,15
30M34,267,experiment,84,↑,down,↓,0.9387121999898227,False,15
30M34,268,experiment,144,→,right,→,0.9105668999982299,True,15
30M34,269,experiment,60,↑,up,↑,0.8894017999991775,True,15
30M34,270,experiment,24,↓,no_key,no_letter,-1.0,False,15
30M34,271,experiment,12,↑,left,←,1.7254558999993606,False,15
30M34,272,experiment,60,→,right,→,0.8973855999938678,True,15
30M34,273,experiment,156,→,right,→,0.9582972000062,True,15
30M34,274,experiment,132,↑,right,→,1.0960555000056047,False,15
30M34,275,experiment,84,↑,up,↑,0.7969401000009384,True,15
30M34,276,experiment,72,→,right,→,0.9451142000034451,True,15
30M34,277,experiment,180,→,right,→,0.7346921999996994,True,15
30M34,278,experiment,108,←,left,←,1.6970523999916622,True,15
30M34,279,experiment,180,↑,up,↑,1.0406521999975666,True,15
30M34,280,experiment,120,↓,up,↑,0.8362646000023233,False,15
30M34,281,experiment,36,→,right,→,0.6959485999977915,True,15
30M34,282,experiment,72,↑,up,↑,1.0439776999992318,True,15
30M34,283,training,96,←,left,←,0.5378068999998504,True,15
30M34,284,training,72,←,right,→,0.7739564999938011,False,15
30M34,285,training,108,→,right,→,0.4703139000048395,True,15
30M34,286,experiment,108,↓,left,←,0.7835675999958767,False,15
30M34,287,experiment,60,→,right,→,0.5328502000047592,True,15
30M34,288,experiment,168,↑,up,↑,0.872921000001952,True,15
30M34,289,experiment,48,↓,down,↓,0.686803400007193,True,15
30M34,290,experiment,72,←,left,←,0.7622455000091577,True,15
30M34,291,experiment,156,→,right,→,0.6662336999870604,True,15
30M34,292,experiment,144,←,left,←,0.6452711000019917,True,15
30M34,293,experiment,84,←,left,←,0.7460036999982549,True,15
30M34,294,experiment,12,↑,right,→,0.6878357999958098,False,15
30M34,295,experiment,120,←,left,←,0.599668599999859,True,15
30M34,296,experiment,96,↓,down,↓,0.7907478999986779,True,15
30M34,297,experiment,60,↓,down,↓,0.6903106999961892,True,15
30M34,298,experiment,120,↓,down,↓,0.9952366999932565,True,15
30M34,299,experiment,180,↓,down,↓,0.6868378999934066,True,15
30M34,300,experiment,168,↓,down,↓,0.8263331999914953,True,15
30M34,301,experiment,48,↑,down,↓,0.7887510000000475,False,15
30M34,302,experiment,108,←,right,→,0.7289768000046024,False,15
30M34,303,experiment,72,←,left,←,0.8214724999997998,True,15
30M34,304,experiment,132,←,left,←,0.4980548000021372,True,15
30M34,305,experiment,156,↑,right,→,0.7247268999926746,False,15
30M34,306,experiment,132,←,left,←,0.5627538000117056,True,15
30M34,307,experiment,84,→,right,→,0.6312196000071708,True,15
30M34,308,experiment,24,↓,right,→,0.8713081000023521,False,15
30M34,309,experiment,24,→,right,→,0.6769822999922326,True,15
30M34,310,experiment,48,↑,right,→,0.8866085000045132,False,15
30M34,311,experiment,72,↑,left,←,1.6919396000012057,False,15
30M34,312,experiment,108,↑,no_key,no_letter,-1.0,False,15
30M34,313,experiment,72,↑,up,↑,0.830491600005189,True,15
30M34,314,experiment,180,→,left,←,0.9381117999873823,False,15
30M34,315,experiment,144,↑,up,↑,0.9016837000090163,True,15
30M34,316,experiment,96,↓,down,↓,0.7097862999944482,True,15
30M34,317,experiment,144,→,right,→,0.8131808000034653,True,15
30M34,318,experiment,12,→,left,←,0.8330572999984724,False,15
30M34,319,experiment,180,→,right,→,0.7375642999977572,True,15
30M34,320,experiment,60,→,right,→,0.7261765000002924,True,15
30M34,321,experiment,36,→,left,←,0.9445426999882329,False,15
30M34,322,experiment,96,←,left,←,0.710248400006094,True,15
30M34,323,experiment,36,→,right,→,0.9430543000053149,True,15
30M34,324,experiment,180,→,left,←,1.1452830999915022,False,15
30M34,325,experiment,144,←,left,←,0.6579997000080766,True,15
30M34,326,experiment,84,←,left,←,0.9357496000011452,True,15
30M34,327,experiment,12,↑,no_key,no_letter,-1.0,False,15
30M34,328,experiment,12,→,right,→,0.7931150000076741,True,15
30M34,329,experiment,84,←,left,←,1.0547329999972135,True,15
30M34,330,experiment,24,→,no_key,no_letter,-1.0,False,15
30M34,331,experiment,96,→,up,↑,1.5764987000002293,False,15
30M34,332,experiment,108,→,right,→,0.7794332999910694,True,15
30M34,333,experiment,120,→,right,→,0.6559848000033526,True,15
30M34,334,experiment,156,→,right,→,0.9840848000021651,True,15
30M34,335,experiment,156,→,right,→,0.6084704999957466,True,15
30M34,336,experiment,36,↓,right,→,1.8479932000045665,False,15
30M34,337,experiment,132,↑,up,↑,0.7733781999995699,True,15
30M34,338,experiment,36,→,up,↑,0.7665260000067065,False,15
30M34,339,experiment,168,→,right,→,1.5903019000106724,True,15
30M34,340,experiment,120,←,left,←,0.8411802000046009,True,15
30M34,341,experiment,60,↓,down,↓,0.7756997999968007,True,15
30M34,342,experiment,168,→,right,→,0.6871111000073142,True,15
30M34,343,experiment,24,→,down,↓,0.8366801999945892,False,15
30M34,344,experiment,132,→,down,↓,0.8773148000036599,False,15
30M34,345,experiment,48,↓,right,→,1.164011400003801,False,15
30M34,346,training,72,↑,up,↑,0.7952581999998074,True,15
30M34,347,training,156,←,left,←,0.6547385000012582,True,15
30M34,348,training,12,↑,up,↑,0.5980361999972956,True,15
30M34,349,experiment,36,←,left,←,0.7756973999930779,True,15
30M34,350,experiment,156,←,left,←,0.6829910000087693,True,15
30M34,351,experiment,168,↓,down,↓,0.8582803000026615,True,15
30M34,352,experiment,156,↑,up,↑,0.8457521999953315,True,15
30M34,353,experiment,60,↑,up,↑,0.6086926999996649,True,15
30M34,354,experiment,72,↓,down,↓,0.6967090999969514,True,15
30M34,355,experiment,120,↓,down,↓,0.7294773000030546,True,15
30M34,356,experiment,108,↓,down,↓,0.7032732000079704,True,15
30M34,357,experiment,60,↓,down,↓,0.6654988000082085,True,15
30M34,358,experiment,120,↑,down,↓,0.6628766999929212,False,15
30M34,359,experiment,180,↑,left,←,0.9310200000036275,False,15
30M34,360,experiment,60,←,left,←,0.5532412000029581,True,15
30M34,361,experiment,120,←,left,←,0.5794543999945745,True,15
30M34,362,experiment,12,↓,down,↓,0.5676115999958711,True,15
30M34,363,experiment,48,↑,up,↑,0.7582146999920951,True,15
30M34,364,experiment,72,↓,down,↓,0.7549557000020286,True,15
30M34,365,experiment,96,↓,down,↓,0.7755946999968728,True,15
30M34,366,experiment,156,→,no_key,no_letter,-1.0,False,15
30M34,367,experiment,144,←,left,←,0.5928224000090268,True,15
30M34,368,experiment,12,→,left,←,0.7975119999900926,False,15
30M34,369,experiment,48,↑,up,↑,0.7330843000090681,True,15
30M34,370,experiment,84,↑,down,↓,0.9557979000092018,False,15
30M34,371,experiment,84,←,up,↑,0.9012676999991527,False,15
30M34,372,experiment,132,→,right,→,0.7787096999963978,True,15
30M34,373,experiment,168,↑,left,←,0.6392637999961153,False,15
30M34,374,experiment,144,→,right,→,0.664218299993081,True,15
30M34,375,experiment,132,↓,down,↓,0.8086360000015702,True,15
30M34,376,experiment,60,←,down,↓,1.1418189000105485,False,15
30M34,377,experiment,180,↑,up,↑,0.7486039999930654,True,15
30M34,378,experiment,24,→,up,↑,0.7712751999933971,False,15
30M34,379,experiment,120,↓,up,↑,0.6224318999884417,False,15
30M34,380,experiment,180,→,right,→,0.6845124999963446,True,15
30M34,381,experiment,96,→,right,→,0.8081975999957649,True,15
30M34,382,experiment,132,↑,no_key,no_letter,-1.0,False,15
30M34,383,experiment,156,↓,right,→,0.8653986999997869,False,15
30M34,384,experiment,84,↓,right,→,0.5296057999948971,False,15
30M34,385,experiment,36,→,left,←,0.6047899999975925,False,15
30M34,386,experiment,96,→,right,→,0.7066415000008419,True,15
30M34,387,experiment,168,↑,right,→,0.8014097999985097,False,15
30M34,388,experiment,144,←,left,←,0.9503815000061877,True,15
30M34,389,experiment,132,↓,down,↓,0.8898082999949111,True,15
30M34,390,experiment,108,↓,down,↓,0.8196961000066949,True,15
30M34,391,experiment,84,↑,up,↑,0.9086397999926703,True,15
30M34,392,experiment,48,↓,down,↓,0.8286378000047989,True,15
30M34,393,experiment,24,←,down,↓,0.8444804000027943,False,15
30M34,394,experiment,24,↑,up,↑,0.6915524999931222,True,15
30M34,395,experiment,96,↓,up,↑,0.781325600008131,False,15
30M34,396,experiment,108,↑,up,↑,0.9341688999993494,True,15
30M34,397,experiment,144,↑,up,↑,0.8752452999906382,True,15
30M34,398,experiment,12,→,up,↑,0.7099661999964155,False,15
30M34,399,experiment,72,←,no_key,no_letter,-1.0,False,15
30M34,400,experiment,36,↓,no_key,no_letter,-1.0,False,15
30M34,401,experiment,108,→,right,→,0.6937242999993032,True,15
30M34,402,experiment,24,←,left,←,1.1780788000032771,True,15
30M34,403,experiment,72,↓,down,↓,0.7438088999915635,True,15
30M34,404,experiment,180,↑,down,↓,1.0982673000107752,False,15
30M34,405,experiment,48,→,right,→,0.703451599998516,True,15
30M34,406,experiment,168,↓,down,↓,0.8267237999971258,True,15
30M34,407,experiment,12,↑,down,↓,1.494139600006747,False,15
30M34,408,experiment,36,←,left,←,0.6656810999993468,True,15
30M34,409,training,72,→,right,→,0.47224189998814836,True,15
30M34,410,training,168,↑,up,↑,0.7498768999939784,True,15
30M34,411,training,36,↓,down,↓,0.6935827999986941,True,15
30M34,412,experiment,84,↓,left,←,1.2859532000002218,False,15
30M34,413,experiment,84,↑,up,↑,0.7629445000056876,True,15
30M34,414,experiment,12,↑,up,↑,0.8596763999958057,True,15
30M34,415,experiment,84,→,no_key,no_letter,-1.0,False,15
30M34,416,experiment,108,↓,down,↓,0.7807024999929126,True,15
30M34,417,experiment,168,←,left,←,0.7388298000005307,True,15
30M34,418,experiment,60,↑,right,→,0.8755553000082728,False,15
30M34,419,experiment,24,→,right,→,0.8728177000011783,True,15
30M34,420,experiment,132,↓,down,↓,0.699152300003334,True,15
30M34,421,experiment,48,←,left,←,0.8858631000039168,True,15
30M34,422,experiment,144,↓,down,↓,0.7174673000117764,True,15
30M34,423,experiment,60,→,right,→,0.7646875999926124,True,15
30M34,424,experiment,48,↓,down,↓,0.7455798000009963,True,15
30M34,425,experiment,144,↑,down,↓,0.5922664000099758,False,15
30M34,426,experiment,132,←,right,→,0.7385546000004979,False,15
30M34,427,experiment,144,↓,down,↓,0.731893799995305,True,15
30M34,428,experiment,24,←,down,↓,0.7528617999923881,False,15
30M34,429,experiment,36,↑,up,↑,0.7308679999987362,True,15
30M34,430,experiment,120,↑,up,↑,0.8575237000040943,True,15
30M34,431,experiment,180,←,left,←,0.6805660999962129,True,15
30M34,432,experiment,156,→,right,→,0.9181346999976085,True,15
30M34,433,experiment,48,↓,right,→,0.7798806999926455,False,15
30M34,434,experiment,120,↑,up,↑,0.6724934999947436,True,15
30M34,435,experiment,156,→,no_key,no_letter,-1.0,False,15
30M34,436,experiment,48,←,left,←,0.6421441999991657,True,15
30M34,437,experiment,156,↑,left,←,0.8770904000120936,False,15
30M34,438,experiment,12,←,left,←,1.1324950999987777,True,15
30M34,439,experiment,168,←,left,←,0.8011762999958592,True,15
30M34,440,experiment,168,↓,down,↓,1.1561215999972774,True,15
30M34,441,experiment,96,↓,right,→,0.9992307999928016,False,15
30M34,442,experiment,132,↑,right,→,0.5964621000020998,False,15
30M34,443,experiment,84,↑,no_key,no_letter,-1.0,False,15
30M34,444,experiment,24,↓,down,↓,0.8095630000025267,True,15
30M34,445,experiment,132,↑,down,↓,0.8287850000051549,False,15
30M34,446,experiment,108,←,left,←,0.9261973999964539,True,15
30M34,447,experiment,156,→,right,→,0.6623950999928638,True,15
30M34,448,experiment,120,↓,down,↓,0.6796682000131113,True,15
30M34,449,experiment,12,→,down,↓,0.8407303999993019,False,15
30M34,450,experiment,36,↑,down,↓,0.6356263999914518,False,15
30M34,451,experiment,180,←,right,→,0.7151375999965239,False,15
30M34,452,experiment,36,↑,right,→,0.9025148999935482,False,15
30M34,453,experiment,96,↓,down,↓,0.8339466000034008,True,15
30M34,454,experiment,72,→,up,↑,0.8863692999875639,False,15
30M34,455,experiment,60,→,right,→,0.7227631999994628,True,15
30M34,456,experiment,72,↑,up,↑,0.8677323000010801,True,15
30M34,457,experiment,168,→,right,→,0.9505868999985978,True,15
30M34,458,experiment,120,↓,down,↓,0.7669161999947391,True,15
30M34,459,experiment,60,←,down,↓,0.8693509000004269,False,15
30M34,460,experiment,96,→,right,→,0.6628232999937609,True,15
30M34,461,experiment,180,↓,down,↓,0.8721322999917902,True,15
30M34,462,experiment,96,↓,down,↓,0.8229380999982823,True,15
30M34,463,experiment,108,←,right,→,0.8795484000002034,False,15
30M34,464,experiment,24,↓,no_key,no_letter,-1.0,False,15
30M34,465,experiment,72,←,left,←,0.8476273999986006,True,15
30M34,466,experiment,72,↓,down,↓,1.057007399998838,True,15
30M34,467,experiment,144,↓,no_key,no_letter,-1.0,False,15
30M34,468,experiment,108,↑,up,↑,0.7283263999997871,True,15
30M34,469,experiment,36,↓,down,↓,1.1577225999935763,True,15
30M34,470,experiment,12,↓,up,↑,1.1857531999994535,False,15
30M34,471,experiment,180,→,right,→,0.7331490000069607,True,15
30M34,472,training,24,←,left,←,0.6023494999972172,True,15
30M34,473,training,180,↑,right,→,0.6914152999961516,False,15
30M34,474,training,120,↑,up,↑,0.7945760000002338,True,15
30M34,475,experiment,84,→,right,→,0.5732310000021243,True,15
30M34,476,experiment,36,→,right,→,0.6284354999952484,True,15
30M34,477,experiment,180,↓,right,→,0.6081427999888547,False,15
30M34,478,experiment,96,↓,right,→,0.5266603000054602,False,15
30M34,479,experiment,120,↑,left,←,0.6708822000073269,False,15
30M34,480,experiment,144,→,right,→,0.7928918999969028,True,15
30M34,481,experiment,84,→,right,→,0.6627696000068681,True,15
30M34,482,experiment,60,↓,down,↓,0.7324506000004476,True,15
30M34,483,experiment,12,→,down,↓,0.938489699998172,False,15
30M34,484,experiment,48,←,left,←,0.8170945000019856,True,15
30M34,485,experiment,120,→,down,↓,0.9536769000114873,False,15
30M34,486,experiment,108,↓,up,↑,1.0018965999915963,False,15
30M34,487,experiment,180,→,left,←,0.9605697999941185,False,15
30M34,488,experiment,72,←,left,←,0.6005874999973457,True,15
30M34,489,experiment,84,↓,left,←,0.5976176999974996,False,15
30M34,490,experiment,60,↓,left,←,1.3545860000012908,False,15
30M34,491,experiment,96,←,left,←,0.6507445000024745,True,15
30M34,492,experiment,24,→,left,←,0.6832457999989856,False,15
30M34,493,experiment,108,→,right,→,0.7573154000128852,True,15
30M34,494,experiment,96,↑,up,↑,0.7008850000129314,True,15
30M34,495,experiment,168,→,up,↑,1.1273187999904621,False,15
30M34,496,experiment,36,←,left,←,0.6362073999916902,True,15
30M34,497,experiment,12,↓,left,←,0.5887549000035506,False,15
30M34,498,experiment,48,→,right,→,0.8283277000009548,True,15
30M34,499,experiment,156,↓,right,→,0.8005063999880804,False,15
30M34,500,experiment,120,↓,left,←,0.7882203999906778,False,15
30M34,501,experiment,132,→,right,→,0.9283086999930674,True,15
30M34,502,experiment,156,←,left,←,0.777664499997627,True,15
30M34,503,experiment,156,→,right,→,0.6332535000110511,True,15
30M34,504,experiment,168,←,left,←,0.763064700004179,True,15
30M34,505,experiment,120,→,right,→,0.8702844000072218,True,15
30M34,506,experiment,180,→,right,→,0.6075064000033308,True,15
30M34,507,experiment,48,←,left,←,0.600067500010482,True,15
30M34,508,experiment,72,↑,up,↑,0.6806607000035001,True,15
30M34,509,experiment,24,←,down,↓,0.651854399999138,False,15
30M34,510,experiment,108,←,left,←,0.5927721999905771,True,15
30M34,511,experiment,84,←,left,←,0.5456370000028983,True,15
30M34,512,experiment,24,↑,left,←,1.3634565999964252,False,15
30M34,513,experiment,168,↑,up,↑,0.6730750999995507,True,15
30M34,514,experiment,144,↓,left,←,0.609752300006221,False,15
30M34,515,experiment,144,→,right,→,0.8188713999988977,True,15
30M34,516,experiment,168,↑,up,↑,0.6524042999953963,True,15
30M34,517,experiment,156,↓,up,↑,0.5934500000003027,False,15
30M34,518,experiment,36,→,up,↑,1.4229378000018187,False,15
30M34,519,experiment,96,←,up,↑,0.4911753000051249,False,15
30M34,520,experiment,132,↑,left,←,0.45384080000803806,False,15
30M34,521,experiment,60,↓,left,←,0.5806655999913346,False,15
30M34,522,experiment,132,←,left,←,0.5113495999976294,True,15
30M34,523,experiment,12,↑,up,↑,0.6294696999975713,True,15
30M34,524,experiment,132,↓,down,↓,0.7007529999973485,True,15
30M34,525,experiment,72,←,right,→,0.6227317000011681,False,15
30M34,526,experiment,180,↓,down,↓,0.5423359999986133,True,15
30M34,527,experiment,48,↓,up,↑,0.9693170999962604,False,15
30M34,528,experiment,144,→,down,↓,0.23379310000746045,False,15
30M34,529,experiment,36,←,down,↓,0.6335894000076223,False,15
30M34,530,experiment,108,↑,down,↓,0.283899999994901,False,15
30M34,531,experiment,12,→,down,↓,0.4719712999940384,False,15
30M34,532,experiment,60,→,left,←,0.7210465000098338,False,15
30M34,533,experiment,72,←,left,←,0.6066571999981534,True,15
30M34,534,experiment,24,→,right,→,0.6185140000015963,True,15
30M34,535,training,156,↑,up,↑,0.8529677000042284,True,16
30M34,536,training,156,↑,up,↑,0.8711355999985244,True,16
30M34,537,training,96,↓,down,↓,0.6113561999954982,True,16
30M34,538,experiment,36,→,right,→,0.6573602999997092,True,16
30M34,539,experiment,60,←,left,←,0.6762290000042412,True,16
30M34,540,experiment,96,←,left,←,0.6600192000041716,True,16
30M34,541,experiment,72,→,right,→,0.7019244999974035,True,16
30M34,542,experiment,120,→,right,→,0.5831925999955274,True,16
30M34,543,experiment,84,↑,left,←,0.625711600005161,False,16
30M34,544,experiment,24,←,left,←,0.6528963000018848,True,16
30M34,545,experiment,144,↓,down,↓,0.7894547000032617,True,16
30M34,546,experiment,156,↑,up,↑,1.330568100005621,True,16
30M34,547,experiment,144,↓,up,↑,0.7636356000002706,False,16
30M34,548,experiment,84,←,left,←,0.7092531999951461,True,16
30M34,549,experiment,72,←,left,←,0.6259147999953711,True,16
30M34,550,experiment,84,↑,up,↑,0.7777588000026299,True,16
30M34,551,experiment,108,→,right,→,0.7043097999994643,True,16
30M34,552,experiment,132,←,right,→,0.6879118999931961,False,16
30M34,553,experiment,120,←,left,←,0.5446182000014232,True,16
30M34,554,experiment,96,↓,down,↓,0.830696999997599,True,16
30M34,555,experiment,48,→,right,→,0.5562649999919813,True,16
30M34,556,experiment,48,→,right,→,0.5710661000048276,True,16
30M34,557,experiment,168,↓,left,←,0.8714508999983082,False,16
30M34,558,experiment,60,↑,up,↑,0.7950034999958007,True,16
30M34,559,experiment,168,←,left,←,0.928613399999449,True,16
30M34,560,experiment,168,→,right,→,0.7004195000045002,True,16
30M34,561,experiment,108,↓,up,↑,0.8605483999999706,False,16
30M34,562,experiment,72,←,left,←,0.6444224000006216,True,16
30M34,563,experiment,108,→,right,→,0.4638840999978129,True,16
30M34,564,experiment,36,→,right,→,0.6360419999982696,True,16
30M34,565,experiment,60,→,left,←,0.5450444999878528,False,16
30M34,566,experiment,168,→,right,→,0.6741006000083871,True,16
30M34,567,experiment,156,↓,down,↓,0.7726771000016015,True,16
30M34,568,experiment,96,↓,down,↓,0.724281400005566,True,16
30M34,569,experiment,60,←,left,←,0.6637368999945465,True,16
30M34,570,experiment,144,←,left,←,0.5912982000008924,True,16
30M34,571,experiment,36,→,left,←,0.7171419000078458,False,16
30M34,572,experiment,36,↑,up,↑,0.7413399999932153,True,16
30M34,573,experiment,180,←,left,←,0.6278980000060983,True,16
30M34,574,experiment,132,↓,down,↓,0.9079920000076527,True,16
30M34,575,experiment,48,↓,left,←,1.0242901000019629,False,16
30M34,576,experiment,12,↑,left,←,0.8911281000036979,False,16
30M34,577,experiment,12,↓,up,↑,0.6890863000007812,False,16
30M34,578,experiment,156,↑,up,↑,0.7249443999899086,True,16
30M34,579,experiment,24,←,left,←,1.3150901999906637,True,16
30M34,580,experiment,96,↑,up,↑,0.6711293999978807,True,16
30M34,581,experiment,48,↑,up,↑,0.7874599999922793,True,16
30M34,582,experiment,72,←,left,←,0.6301761000067927,True,16
30M34,583,experiment,120,↑,up,↑,0.6306433999998262,True,16
30M34,584,experiment,120,↓,down,↓,0.9034121000004234,True,16
30M34,585,experiment,132,←,left,←,0.6752173999993829,True,16
30M34,586,experiment,84,→,right,→,0.8475234999932582,True,16
30M34,587,experiment,180,↓,down,↓,0.7770238999946741,True,16
30M34,588,experiment,108,↓,down,↓,0.6195237999927485,True,16
30M34,589,experiment,12,←,left,←,0.6469550000037998,True,16
30M34,590,experiment,156,←,left,←,0.4596999999921536,True,16
30M34,591,experiment,180,→,right,→,0.48461590000079013,True,16
30M34,592,experiment,12,→,right,→,0.8294087999965996,True,16
30M34,593,experiment,144,↑,right,→,0.5618428000016138,False,16
30M34,594,experiment,24,←,right,→,0.48276079999050125,False,16
30M34,595,experiment,180,↑,no_key,no_letter,-1.0,False,16
30M34,596,experiment,132,↓,down,↓,0.6836942000081763,True,16
30M34,597,experiment,24,↓,down,↓,1.0134269000118366,True,16
30M34,598,training,168,↓,down,↓,0.7179379000008339,True,16
30M34,599,training,180,→,right,→,0.5098367000027793,True,16
30M34,600,training,12,↑,left,←,0.9619930999906501,False,16
30M34,601,experiment,60,→,right,→,0.7472563999908743,True,16
30M34,602,experiment,36,↑,up,↑,0.7725485999981174,True,16
30M34,603,experiment,108,↓,down,↓,0.7746476000029361,True,16
30M34,604,experiment,72,→,right,→,0.5913892999960808,True,16
30M34,605,experiment,84,↑,up,↑,0.7343593000114197,True,16
30M34,606,experiment,96,←,left,←,0.6913062000094214,True,16
30M34,607,experiment,48,↑,up,↑,0.7469988000084413,True,16
30M34,608,experiment,12,←,left,←,0.6637453000003006,True,16
30M34,609,experiment,24,↓,down,↓,0.723518700004206,True,16
30M34,610,experiment,24,↓,down,↓,0.6687985000025947,True,16
30M34,611,experiment,120,←,right,→,1.055469600003562,False,16
30M34,612,experiment,84,→,right,→,0.6151747000112664,True,16
30M34,613,experiment,72,↓,down,↓,0.8604703000019072,True,16
30M34,614,experiment,24,→,right,→,0.6768830000073649,True,16
30M34,615,experiment,168,←,left,←,0.8669601000001421,True,16
30M34,616,experiment,108,↑,up,↑,0.7656374000071082,True,16
30M34,617,experiment,144,↑,up,↑,0.7038870999967912,True,16
30M34,618,experiment,120,↓,down,↓,0.8183783999993466,True,16
30M34,619,experiment,36,→,down,↓,1.0237984999985201,False,16
30M34,620,experiment,120,←,left,←,0.71105979999993,True,16
30M34,621,experiment,84,↓,down,↓,0.8634621999954106,True,16
30M34,622,experiment,36,↑,up,↑,0.7198962999973446,True,16
30M34,623,experiment,12,→,left,←,1.3457968000002438,False,16
30M34,624,experiment,144,↓,left,←,0.5189102000003913,False,16
30M34,625,experiment,108,↓,up,↑,0.818881400002283,False,16
30M34,626,experiment,156,↑,up,↑,0.7644125999941025,True,16
30M34,627,experiment,12,↑,up,↑,0.5702825000043958,True,16
30M34,628,experiment,12,↓,down,↓,0.6645577000017511,True,16
30M34,629,experiment,132,←,down,↓,0.8070835999969859,False,16
30M34,630,experiment,72,←,left,←,0.6613823999941815,True,16
30M34,631,experiment,132,→,right,→,0.6887800000113202,True,16
30M34,632,experiment,168,←,left,←,0.5791982000082498,True,16
30M34,633,experiment,168,↓,right,→,0.9946809000102803,False,16
30M34,634,experiment,96,→,down,↓,0.6808648000005633,False,16
30M34,635,experiment,144,↓,up,↑,0.9961910999991233,False,16
30M34,636,experiment,60,↑,up,↑,0.917439299999387,True,16
30M34,637,experiment,60,←,down,↓,0.5124722000036854,False,16
30M34,638,experiment,156,←,left,←,0.9471990000020014,True,16
30M34,639,experiment,48,→,left,←,0.6772341000032611,False,16
30M34,640,experiment,132,→,right,→,0.7604617000033613,True,16
30M34,641,experiment,72,↑,up,↑,0.8146482000011019,True,16
30M34,642,experiment,108,↑,up,↑,0.7671108999929857,True,16
30M34,643,experiment,156,↑,up,↑,0.21712210000259802,True,16
30M34,644,experiment,96,↑,up,↑,0.5602029999863589,True,16
30M34,645,experiment,60,↑,up,↑,0.4506126000051154,True,16
30M34,646,experiment,180,←,left,←,0.6304594999965047,True,16
30M34,647,experiment,48,↓,down,↓,0.8657422999967821,True,16
30M34,648,experiment,120,←,left,←,0.5449614999961341,True,16
30M34,649,experiment,96,←,left,←,0.49433430000499357,True,16
30M34,650,experiment,168,↑,right,→,0.9623732000036398,False,16
30M34,651,experiment,180,←,left,←,0.7427658999949927,True,16
30M34,652,experiment,24,→,left,←,1.1573521999962395,False,16
30M34,653,experiment,84,↑,right,→,0.7916836999938823,False,16
30M34,654,experiment,36,→,right,→,0.622932900005253,True,16
30M34,655,experiment,132,↑,up,↑,0.7812211000127718,True,16
30M34,656,experiment,48,→,right,→,0.870637899992289,True,16
30M34,657,experiment,144,←,right,→,0.6372126000060234,False,16
30M34,658,experiment,180,↓,left,←,0.5131303000089247,False,16
30M34,659,experiment,180,←,left,←,0.6816113999957452,True,16
30M34,660,experiment,156,↑,left,←,0.704466199997114,False,16
30M34,661,training,60,→,left,←,0.812017599993851,False,16
30M34,662,training,144,←,no_key,no_letter,-1.0,False,16
30M34,663,training,180,→,right,→,0.7150517999980366,True,16
30M34,664,experiment,120,↑,right,→,0.8652770999906352,False,16
30M34,665,experiment,60,←,left,←,0.6414389999990817,True,16
30M34,666,experiment,96,←,left,←,0.8133597999985795,True,16
30M34,667,experiment,108,↑,left,←,0.5790831000049366,False,16
30M34,668,experiment,144,↑,no_key,no_letter,-1.0,False,16
30M34,669,experiment,12,↓,right,→,1.1025356000027386,False,16
30M34,670,experiment,144,←,left,←,0.7263496999948984,True,16
30M34,671,experiment,108,↓,down,↓,0.8714496000029612,True,16
30M34,672,experiment,156,←,left,←,0.7360256000101799,True,16
30M34,673,experiment,132,→,left,←,0.6563397999998415,False,16
30M34,674,experiment,72,←,left,←,0.6092950999882305,True,16
30M34,675,experiment,180,→,right,→,0.6977810999960639,True,16
30M34,676,experiment,84,↑,down,↓,0.8771396000083769,False,16
30M34,677,experiment,132,↓,down,↓,0.7746783999900799,True,16
30M34,678,experiment,144,→,right,→,0.6187711000093259,True,16
30M34,679,experiment,72,↓,down,↓,0.7593745000049239,True,16
30M34,680,experiment,36,→,left,←,1.0586707999900682,False,16
30M34,681,experiment,36,←,right,→,0.9309596000093734,False,16
30M34,682,experiment,132,←,left,←,0.8372855999914464,True,16
30M34,683,experiment,48,←,right,→,0.9673724000022048,False,16
30M34,684,experiment,48,↓,up,↑,0.9019554000115022,False,16
30M34,685,experiment,24,→,left,←,0.8430281000037212,False,16
30M34,686,experiment,60,↓,down,↓,0.8848116000008304,True,16
30M34,687,experiment,144,←,left,←,0.9103166999993846,True,16
30M34,688,experiment,84,←,right,→,0.4496711999963736,False,16
30M34,689,experiment,96,←,right,→,0.33380909998959396,False,16
30M34,690,experiment,156,↓,right,→,1.090025900004548,False,16
30M34,691,experiment,168,→,right,→,0.8045886999898357,True,16
30M34,692,experiment,156,→,left,←,0.588637299995753,False,16
30M34,693,experiment,180,↓,no_key,no_letter,-1.0,False,16
30M34,694,experiment,72,↓,no_key,no_letter,-1.0,False,16
30M34,695,experiment,132,←,left,←,0.7288427000021329,True,16
30M34,696,experiment,156,↓,down,↓,1.03693299999577,True,16
30M34,697,experiment,12,↓,up,↑,1.086682799999835,False,16
30M34,698,experiment,24,↑,up,↑,0.5810895999893546,True,16
30M34,699,experiment,120,←,left,←,0.5851946000038879,True,16
30M34,700,experiment,96,↓,left,←,0.5250137999973958,False,16
30M34,701,experiment,24,↑,left,←,0.565595400010352,False,16
30M34,702,experiment,60,↑,up,↑,0.7717214000003878,True,16
30M34,703,experiment,12,↑,up,↑,0.6340251000074204,True,16
30M34,704,experiment,48,←,left,←,0.7746658999967622,True,16
30M34,705,experiment,108,←,left,←,0.6122104000096442,True,16
30M34,706,experiment,84,→,left,←,0.44447080000827555,False,16
30M34,707,experiment,168,↑,up,↑,0.6884869999921648,True,16
30M34,708,experiment,48,←,up,↑,0.5186039999971399,False,16
30M34,709,experiment,36,↓,up,↑,0.4574453999957768,False,16
30M34,710,experiment,72,←,up,↑,0.3838822999969125,False,16
30M34,711,experiment,12,↑,up,↑,0.4893026999925496,True,16
30M34,712,experiment,180,→,up,↑,0.49180499999783933,False,16
30M34,713,experiment,168,←,left,←,0.6447715999966022,True,16
30M34,714,experiment,120,←,left,←,0.6211275999958161,True,16
30M34,715,experiment,60,↑,up,↑,1.348572199989576,True,16
30M34,716,experiment,36,↑,down,↓,0.8949204000091413,False,16
30M34,717,experiment,84,↓,down,↓,1.3248459000024013,True,16
30M34,718,experiment,24,↓,down,↓,1.1893924000032712,True,16
30M34,719,experiment,96,←,left,←,0.6923748000117484,True,16
30M34,720,experiment,108,←,left,←,0.6291373999993084,True,16
30M34,721,experiment,168,→,left,←,0.6489225999976043,False,16
30M34,722,experiment,180,↑,down,↓,0.8456923000048846,False,16
30M34,723,experiment,120,↑,up,↑,0.7200828999921214,True,16
30M34,724,training,156,←,left,←,0.5747078999993391,True,17
30M34,725,training,168,→,right,→,0.49167109999689274,True,17
30M34,726,training,156,←,left,←,0.6446051000093576,True,17
30M34,727,experiment,48,→,left,←,0.7870733000017935,False,17
30M34,728,experiment,24,←,left,←,0.6355275000096299,True,17
30M34,729,experiment,144,←,left,←,0.5721984999981942,True,17
30M34,730,experiment,48,←,left,←,0.5928844999871217,True,17
30M34,731,experiment,132,↓,down,↓,0.9033692999946652,True,17
30M34,732,experiment,180,↑,up,↑,0.8819170000060694,True,17
30M34,733,experiment,108,↓,down,↓,0.7165633999975398,True,17
30M34,734,experiment,84,↑,down,↓,0.729018800004269,False,17
30M34,735,experiment,180,↓,down,↓,0.9769618999998784,True,17
30M34,736,experiment,156,→,down,↓,0.7546447999920929,False,17
30M34,737,experiment,24,↓,down,↓,0.83769939999911,True,17
30M34,738,experiment,72,↓,left,←,0.6521655999968061,False,17
30M34,739,experiment,60,↓,down,↓,0.9316224999929545,True,17
30M34,740,experiment,96,↓,down,↓,0.7431034999899566,True,17
30M34,741,experiment,180,↓,right,→,0.9044276000058744,False,17
30M34,742,experiment,36,←,right,→,1.067891900005634,False,17
30M34,743,experiment,84,←,left,←,0.8264688999915961,True,17
30M34,744,experiment,60,↓,left,←,1.1948184000066249,False,17
30M34,745,experiment,60,↑,left,←,0.6420882999955211,False,17
30M34,746,experiment,108,↑,up,↑,0.9477927000116324,True,17
30M34,747,experiment,96,←,left,←,0.7794070999952964,True,17
30M34,748,experiment,36,↓,up,↑,1.5392454999964684,False,17
30M34,749,experiment,96,→,right,→,0.9234117000014521,True,17
30M34,750,experiment,12,←,left,←,0.7388118999951985,True,17
30M34,751,experiment,120,↓,left,←,0.9636639999953331,False,17
30M34,752,experiment,24,→,right,→,0.5946278000046732,True,17
30M34,753,experiment,72,←,right,→,0.6705384999950184,False,17
30M34,754,experiment,120,↓,up,↑,0.5909571999945911,False,17
30M34,755,experiment,48,↓,up,↑,0.8823390000034124,False,17
30M34,756,experiment,96,↓,down,↓,0.847072600008687,True,17
30M34,757,experiment,60,←,left,←,0.8138221999979578,True,17
30M34,758,experiment,156,↑,right,→,0.7970442000078037,False,17
30M34,759,experiment,24,→,right,→,0.6972654999990482,True,17
30M34,760,experiment,132,↓,down,↓,0.7229350999987219,True,17
30M34,761,experiment,168,→,down,↓,1.0985437000053935,False,17
30M34,762,experiment,72,↑,right,→,0.9515432000043802,False,17
30M34,763,experiment,144,↓,left,←,1.7906290999962948,False,17
30M34,764,experiment,12,←,left,←,0.6901629000058165,True,17
30M34,765,experiment,36,↑,left,←,0.6424622000049567,False,17
30M34,766,experiment,48,→,right,→,0.5289357000001473,True,17
30M34,767,experiment,144,→,right,→,0.7718670000031125,True,17
30M34,768,experiment,12,↓,no_key,no_letter,-1.0,False,17
30M34,769,experiment,84,→,left,←,0.5629379000019981,False,17
30M34,770,experiment,168,↓,left,←,0.7994201999972574,False,17
30M34,771,experiment,168,→,no_key,no_letter,-1.0,False,17
30M34,772,experiment,120,↑,down,↓,0.9205646000045817,False,17
30M34,773,experiment,180,↑,down,↓,0.5616431000089506,False,17
30M34,774,experiment,108,←,down,↓,0.600368300001719,False,17
30M34,775,experiment,156,←,down,↓,1.4196560999989742,False,17
30M34,776,experiment,132,→,right,→,0.9112446000071941,True,17
30M34,777,experiment,168,→,right,→,0.5655232999997679,True,17
30M34,778,experiment,120,↑,right,→,0.8782944999984466,False,17
30M34,779,experiment,72,←,left,←,0.5238072999927681,True,17
30M34,780,experiment,156,↑,left,←,0.6976199000055203,False,17
30M34,781,experiment,36,↓,left,←,0.7117339000105858,False,17
30M34,782,experiment,12,↓,left,←,0.7740810999966925,False,17
30M34,783,experiment,144,→,right,→,0.7073253999988083,True,17
30M34,784,experiment,132,←,left,←,0.5729680000076769,True,17
30M34,785,experiment,108,↓,down,↓,0.8330554999993183,True,17
30M34,786,experiment,84,←,left,←,0.688949200004572,True,17
30M34,787,training,84,↓,right,→,0.5248263999965275,False,18
30M34,788,training,84,↓,down,↓,0.8064539000042714,True,18
30M34,789,training,180,←,left,←,0.6811680999962846,True,18
30M34,790,experiment,48,→,right,→,0.7611665000003995,True,18
30M34,791,experiment,144,↑,up,↑,1.1461807000014232,True,18
30M34,792,experiment,120,↓,right,→,0.580895099992631,False,18
30M34,793,experiment,72,→,right,→,0.7147353999898769,True,18
30M34,794,experiment,96,←,right,→,0.7578139999968698,False,18
30M34,795,experiment,168,↑,right,→,0.5695009000046412,False,18
30M34,796,experiment,132,←,left,←,0.6915460000018356,True,18
30M34,797,experiment,36,←,left,←,0.5934670999995433,True,18
30M34,798,experiment,96,→,right,→,0.6621174000028986,True,18
30M34,799,experiment,72,←,right,→,0.5628865999897243,False,18
30M34,800,experiment,144,→,right,→,0.6418198000028497,True,18
30M34,801,experiment,168,↑,right,→,0.87846449999779,False,18
30M34,802,experiment,120,←,left,←,0.6267147999897134,True,18
30M34,803,experiment,60,↓,down,↓,1.001488200010499,True,18
30M34,804,experiment,156,←,left,←,0.6829542000050424,True,18
30M34,805,experiment,48,→,right,→,0.7410050000034971,True,18
30M34,806,experiment,96,→,right,→,0.8605551000073319,True,18
30M34,807,experiment,132,↑,down,↓,0.8837942000100156,False,18
30M34,808,experiment,12,→,down,↓,0.8236254999937955,False,18
30M34,809,experiment,24,→,right,→,0.8290377999946941,True,18
30M34,810,experiment,24,↑,up,↑,1.003789099995629,True,18
30M34,811,experiment,144,↑,up,↑,0.8658558000024641,True,18
30M34,812,experiment,180,→,right,→,0.6758788999868557,True,18
30M34,813,experiment,60,↑,up,↑,0.8886965999990935,True,18
30M34,814,experiment,48,↓,down,↓,0.7733088999957545,True,18
30M34,815,experiment,132,→,right,→,0.7245307999983197,True,18
30M34,816,experiment,84,↑,up,↑,0.7059452999965288,True,18
30M34,817,experiment,12,→,right,→,0.6041709000128321,True,18
30M34,818,experiment,120,←,left,←,0.5618678000028012,True,18
30M34,819,experiment,24,↓,up,↑,1.4860855000006268,False,18
30M34,820,experiment,36,←,left,←,0.6581908999942243,True,18
30M34,821,experiment,108,↓,right,→,0.5797083999932511,False,18
30M34,822,experiment,84,←,left,←,0.6849931000033394,True,18
30M34,823,experiment,108,↓,down,↓,0.7929506999935256,True,18
30M34,824,experiment,36,↓,down,↓,0.8773862000089139,True,18
30M34,825,experiment,168,↑,up,↑,0.8152686999965226,True,18
30M34,826,experiment,156,←,left,←,0.9258299000066472,True,18
30M34,827,experiment,60,←,right,→,0.6156951000011759,False,18
30M34,828,experiment,72,↑,up,↑,0.8675805999955628,True,18
30M34,829,experiment,84,→,up,↑,1.2685472000011941,False,18
30M34,830,experiment,36,←,up,↑,0.9657775000086986,False,18
30M34,831,experiment,48,→,right,→,0.5620954999903915,True,18
30M34,832,experiment,60,←,left,←,0.602447299999767,True,18
30M34,833,experiment,96,←,up,↑,0.8305155999987619,False,18
30M34,834,experiment,144,↓,down,↓,0.7726184000057401,True,18
30M34,835,experiment,72,→,up,↑,1.1116278000117745,False,18
30M34,836,experiment,156,↑,up,↑,0.784150999999838,True,18
30M34,837,experiment,132,↓,up,↑,0.9485987000080058,False,18
30M34,838,experiment,156,↓,down,↓,0.7181328000006033,True,18
30M34,839,experiment,108,↓,down,↓,0.6456074000016088,True,18
30M34,840,experiment,84,←,down,↓,0.48653929999272805,False,18
30M34,841,experiment,12,↓,down,↓,0.9728796999988845,True,18
30M34,842,experiment,108,←,left,←,0.564105199999176,True,18
30M34,843,experiment,180,←,up,↑,0.8034795999992639,False,18
30M34,844,experiment,24,←,up,↑,0.6137905000068713,False,18
30M34,845,experiment,180,←,left,←,0.615071899999748,True,18
30M34,846,experiment,120,↑,up,↑,0.7361701000045286,True,18
30M34,847,experiment,180,→,right,→,0.8410718999948585,True,18
30M34,848,experiment,168,↑,up,↑,0.8464414999907603,True,18
30M34,849,experiment,12,→,right,→,0.925315500004217,True,18
