PART_ID,Trial_no,Trial_type,PDI,Stim_letter,Key_pressed,letter_choose,Rt,Corr,Stimulus Time
32K40,1,training,10,→,no_key,no_letter,-1.0,False,30
32K40,2,training,10,←,left,←,1.9095083000138402,True,30
32K40,3,training,10,→,right,→,1.0196557000745088,True,30
32K40,4,training,10,↓,down,↓,1.391123600071296,True,30
32K40,5,training,10,→,left,←,2.1572288000024855,False,30
32K40,6,training,10,→,right,→,1.2529331999830902,True,30
32K40,7,training,10,←,left,←,1.303911800030619,True,30
32K40,8,training,10,↓,down,↓,1.4740845998749137,True,30
32K40,9,training,10,↑,down,↓,1.1996695999987423,False,30
32K40,10,training,10,↑,up,↑,1.5316078998148441,True,30
32K40,11,training,10,←,left,←,1.5290165999904275,True,30
32K40,12,training,10,↑,up,↑,1.2005248998757452,True,30
32K40,13,training,10,→,right,→,0.8810644000768661,True,30
32K40,14,training,10,←,no_key,no_letter,-1.0,False,30
32K40,15,training,10,↑,down,↓,1.5341314000543207,False,30
32K40,16,training,10,←,left,←,1.3361686998978257,True,30
32K40,17,training,10,←,left,←,1.2109352999832481,True,30
32K40,18,training,10,↑,up,↑,1.27531210007146,True,30
32K40,19,training,10,↓,down,↓,1.326447700150311,True,30
32K40,20,training,10,→,right,→,0.8044157000258565,True,30
32K40,21,training,10,↓,down,↓,1.2392703997902572,True,18
32K40,22,training,10,←,no_key,no_letter,-1.0,False,18
32K40,23,training,10,→,right,→,1.6530748999211937,True,18
32K40,24,training,10,→,right,→,0.953142800135538,True,18
32K40,25,training,10,↑,down,↓,1.0994526001159102,False,18
32K40,26,training,10,←,left,←,0.9587225001305342,True,18
32K40,27,training,10,↓,down,↓,1.0208023998420686,True,18
32K40,28,training,10,→,right,→,0.7809995000716299,True,18
32K40,29,training,10,↑,up,↑,1.0579110998660326,True,18
32K40,30,training,10,←,left,←,0.9213630999438465,True,18
32K40,31,training,180,→,right,→,1.3965721998829395,True,15
32K40,32,training,24,→,left,←,1.1584336999803782,False,15
32K40,33,training,108,↓,down,↓,1.1499834000132978,True,15
32K40,34,experiment,36,↑,down,↓,0.989550800062716,False,15
32K40,35,experiment,96,↑,down,↓,1.1008121001068503,False,15
32K40,36,experiment,120,→,right,→,1.1902735000476241,True,15
32K40,37,experiment,120,→,down,↓,0.9150889001321048,False,15
32K40,38,experiment,120,↓,down,↓,0.9691617002245039,True,15
32K40,39,experiment,36,↓,down,↓,0.708796399878338,True,15
32K40,40,experiment,84,↑,down,↓,0.8008723000530154,False,15
32K40,41,experiment,24,↓,down,↓,0.639039000030607,True,15
32K40,42,experiment,180,←,down,↓,0.8819615000393242,False,15
32K40,43,experiment,36,↑,down,↓,0.772912799846381,False,15
32K40,44,experiment,12,↑,down,↓,1.0429762999992818,False,15
32K40,45,experiment,144,↑,down,↓,0.7800408999901265,False,15
32K40,46,experiment,132,↑,down,↓,0.8676270002033561,False,15
32K40,47,experiment,120,↑,left,←,0.9472440998069942,False,15
32K40,48,experiment,168,↓,no_key,no_letter,-1.0,False,15
32K40,49,experiment,60,↑,down,↓,0.7628761001396924,False,15
32K40,50,experiment,168,→,down,↓,0.7638675000052899,False,15
32K40,51,experiment,156,↓,down,↓,1.0069615000393242,True,15
32K40,52,experiment,72,↑,down,↓,0.8740513999946415,False,15
32K40,53,experiment,24,↓,down,↓,0.8647470998112112,True,15
32K40,54,experiment,84,↓,down,↓,0.9885392999276519,True,15
32K40,55,experiment,156,↓,down,↓,0.8159785999450833,True,15
32K40,56,experiment,96,↑,down,↓,0.9781294998247176,False,15
32K40,57,experiment,48,↑,right,→,1.0594950001686811,False,15
32K40,58,experiment,72,↑,down,↓,1.0295436000451446,False,15
32K40,59,experiment,144,↑,down,↓,0.7830359998624772,False,15
32K40,60,experiment,24,←,down,↓,0.8705446000676602,False,15
32K40,61,experiment,108,↑,down,↓,0.8020581998862326,False,15
32K40,62,experiment,48,↑,down,↓,1.712327100103721,False,15
32K40,63,experiment,48,↓,down,↓,0.9386005001142621,True,15
32K40,64,experiment,60,←,left,←,0.856900000013411,True,15
32K40,65,experiment,180,↓,left,←,1.1732397000305355,False,15
32K40,66,experiment,132,→,left,←,1.2875820000190288,False,15
32K40,67,experiment,96,→,right,→,0.8013255000114441,True,15
32K40,68,experiment,108,←,right,→,0.5452654000837356,False,15
32K40,69,experiment,96,→,right,→,0.9003812000155449,True,15
32K40,70,experiment,48,←,left,←,0.788381600053981,True,15
32K40,71,experiment,12,↓,right,→,0.9017811000812799,False,15
32K40,72,experiment,108,↓,down,↓,1.0007040998898447,True,15
32K40,73,experiment,36,↑,down,↓,0.9223631999921054,False,15
32K40,74,experiment,144,→,right,→,0.6954208998940885,True,15
32K40,75,experiment,168,→,left,←,1.0358876998070627,False,15
32K40,76,experiment,180,←,right,→,0.6258340000640601,False,15
32K40,77,experiment,84,↓,down,↓,1.1065553000662476,True,15
32K40,78,experiment,72,↓,down,↓,0.8539702999405563,True,15
32K40,79,experiment,84,←,right,→,1.1939010000787675,False,15
32K40,80,experiment,144,↑,up,↑,1.039613800123334,True,15
32K40,81,experiment,180,↑,down,↓,1.8963392998557538,False,15
32K40,82,experiment,156,→,right,→,0.9114763999823481,True,15
32K40,83,experiment,24,↓,down,↓,0.9121743000578135,True,15
32K40,84,experiment,60,←,right,→,0.8905404000543058,False,15
32K40,85,experiment,156,↑,right,→,1.0772139998152852,False,15
32K40,86,experiment,12,→,down,↓,1.0347253000363708,False,15
32K40,87,experiment,12,↑,down,↓,0.8050156999379396,False,15
32K40,88,experiment,132,→,right,→,1.8223635000176728,True,15
32K40,89,experiment,108,←,right,→,0.927929500117898,False,15
32K40,90,experiment,72,↑,down,↓,1.006725399987772,False,15
32K40,91,experiment,132,←,right,→,1.091296800179407,False,15
32K40,92,experiment,168,↑,down,↓,0.9138257000595331,False,15
32K40,93,experiment,60,↑,down,↓,1.2011418999172747,False,15
32K40,94,training,12,←,left,←,1.1768318000249565,True,16
32K40,95,training,48,←,right,→,1.1025615998078138,False,16
32K40,96,training,120,←,right,→,1.2911541000939906,False,16
32K40,97,experiment,168,←,left,←,0.9105785000137985,True,16
32K40,98,experiment,144,↑,right,→,0.7156839000526816,False,16
32K40,99,experiment,48,↓,right,→,1.2890624001156539,False,16
32K40,100,experiment,72,↓,down,↓,1.047505100024864,True,16
32K40,101,experiment,84,→,right,→,0.879058999940753,True,16
32K40,102,experiment,24,→,right,→,1.2290879001375288,True,16
32K40,103,experiment,96,↓,down,↓,1.0592845999635756,True,16
32K40,104,experiment,36,↑,down,↓,1.0947595001198351,False,16
32K40,105,experiment,168,←,right,→,1.1954995999112725,False,16
32K40,106,experiment,48,↑,up,↑,1.0870050000958145,True,16
32K40,107,experiment,168,←,down,↓,1.0909660998731852,False,16
32K40,108,experiment,60,↑,up,↑,1.0862112999893725,True,16
32K40,109,experiment,108,↑,right,→,0.652457500109449,False,16
32K40,110,experiment,132,↓,right,→,0.7919451999478042,False,16
32K40,111,experiment,144,↓,right,→,0.676246999995783,False,16
32K40,112,experiment,180,→,right,→,0.7393433002289385,True,16
32K40,113,experiment,156,←,left,←,1.1057823000010103,True,16
32K40,114,experiment,132,↑,down,↓,1.0789282000623643,False,16
32K40,115,experiment,120,←,no_key,no_letter,-1.0,False,16
32K40,116,experiment,24,↑,left,←,1.2552331001497805,False,16
32K40,117,experiment,60,→,left,←,1.0023717998992652,False,16
32K40,118,experiment,132,→,right,→,0.9529967000707984,True,16
32K40,119,experiment,48,↓,right,→,1.0678999000228941,False,16
32K40,120,experiment,12,←,right,→,1.5773254001978785,False,16
32K40,121,experiment,120,↓,down,↓,1.0219325001817197,True,16
32K40,122,experiment,12,↑,down,↓,0.8653426999226213,False,16
32K40,123,experiment,84,→,down,↓,1.1598010000307113,False,16
32K40,124,experiment,36,↑,right,→,1.0692205999512225,False,16
32K40,125,experiment,132,→,left,←,1.778034099843353,False,16
32K40,126,experiment,72,↑,left,←,1.1800401001237333,False,16
32K40,127,experiment,120,↓,down,↓,1.0659486998338252,True,16
32K40,128,experiment,84,→,left,←,1.0070873000659049,False,16
32K40,129,experiment,144,←,left,←,1.5717422000598162,True,16
32K40,130,experiment,36,↓,down,↓,1.0415129999164492,True,16
32K40,131,experiment,180,↓,down,↓,1.3620855999179184,True,16
32K40,132,experiment,108,↓,up,↑,1.222556000109762,False,16
32K40,133,experiment,108,↓,left,←,1.1887592999264598,False,16
32K40,134,experiment,84,↑,down,↓,1.173442600062117,False,16
32K40,135,experiment,24,→,down,↓,1.0187141001224518,False,16
32K40,136,experiment,180,→,right,→,0.8779572998173535,True,16
32K40,137,experiment,24,↓,down,↓,1.113847899949178,True,16
32K40,138,experiment,96,↓,down,↓,0.9174548999872059,True,16
32K40,139,experiment,60,←,right,→,1.0060358000919223,False,16
32K40,140,experiment,144,→,right,→,1.0041765000205487,True,16
32K40,141,experiment,156,←,right,→,1.02563549997285,False,16
32K40,142,experiment,48,→,left,←,1.0822521999944001,False,16
32K40,143,experiment,156,↑,right,→,1.221685899887234,False,16
32K40,144,experiment,12,↓,right,→,1.0033732000738382,False,16
32K40,145,experiment,36,←,right,→,0.6945473998785019,False,16
32K40,146,experiment,96,↓,right,→,0.8005550999660045,False,16
32K40,147,experiment,60,→,left,←,0.8065549999009818,False,16
32K40,148,experiment,120,↑,down,↓,1.2443196000531316,False,16
32K40,149,experiment,156,↓,right,→,0.6668812001589686,False,16
32K40,150,experiment,96,→,right,→,0.8126552999019623,True,16
32K40,151,experiment,168,←,left,←,1.072979599935934,True,16
32K40,152,experiment,180,↑,down,↓,1.266654800157994,False,16
32K40,153,experiment,12,↑,no_key,no_letter,-1.0,False,16
32K40,154,experiment,72,↓,right,→,0.5783859000075608,False,16
32K40,155,experiment,108,→,right,→,1.494672300061211,True,16
32K40,156,experiment,72,↑,no_key,no_letter,-1.0,False,16
32K40,157,training,48,↑,down,↓,1.2571988999843597,False,17
32K40,158,training,60,←,down,↓,1.1379354998935014,False,17
32K40,159,training,108,←,down,↓,1.0598747001495212,False,17
32K40,160,experiment,132,↓,right,→,1.358839799882844,False,17
32K40,161,experiment,60,→,right,→,1.1107292999513447,True,17
32K40,162,experiment,36,↑,down,↓,1.0013184000272304,False,17
32K40,163,experiment,48,←,right,→,0.9871420001145452,False,17
32K40,164,experiment,24,←,left,←,1.0942959000822157,True,17
32K40,165,experiment,48,↓,down,↓,1.2256827000528574,True,17
32K40,166,experiment,48,↓,right,→,0.7634568000212312,False,17
32K40,167,experiment,180,↑,right,→,1.1931684000883251,False,17
32K40,168,experiment,108,↓,down,↓,1.1293762000277638,True,17
32K40,169,experiment,72,→,down,↓,1.21924680005759,False,17
32K40,170,experiment,60,→,right,→,0.8847648999653757,True,17
32K40,171,experiment,36,→,right,→,1.5094460002146661,True,17
32K40,172,experiment,36,↑,down,↓,1.0557150999084115,False,17
32K40,173,experiment,168,←,left,←,1.5792188998311758,True,17
32K40,174,experiment,96,↑,right,→,1.0845564000774175,False,17
32K40,175,experiment,120,←,left,←,1.1537365999538451,True,17
32K40,176,experiment,60,←,no_key,no_letter,-1.0,False,17
32K40,177,experiment,168,↑,down,↓,1.0767560000531375,False,17
32K40,178,experiment,120,→,right,→,1.2633533999323845,True,17
32K40,179,experiment,60,↑,up,↑,1.1000665999017656,True,17
32K40,180,experiment,132,←,up,↑,1.234437400009483,False,17
32K40,181,experiment,144,←,up,↑,1.2508955001831055,False,17
32K40,182,experiment,120,←,down,↓,1.2767681998666376,False,17
32K40,183,experiment,96,↓,up,↑,0.9289259000215679,False,17
32K40,184,experiment,108,←,right,→,1.3631844997871667,False,17
32K40,185,experiment,12,→,no_key,no_letter,-1.0,False,17
32K40,186,experiment,24,↓,right,→,1.2589241999667138,False,17
32K40,187,experiment,36,→,no_key,no_letter,-1.0,False,17
32K40,188,experiment,120,→,right,→,1.231140400050208,True,17
32K40,189,experiment,144,←,left,←,0.9768463000655174,True,17
32K40,190,experiment,84,↓,left,←,1.0590542999561876,False,17
32K40,191,experiment,96,←,no_key,no_letter,-1.0,False,17
32K40,192,experiment,96,→,no_key,no_letter,-1.0,False,17
32K40,193,experiment,168,↓,right,→,1.4534495999105275,False,17
32K40,194,experiment,84,→,no_key,no_letter,-1.0,False,17
32K40,195,experiment,48,↓,right,→,1.3385653998702765,False,17
32K40,196,experiment,24,↑,left,←,0.9707917999476194,False,17
32K40,197,experiment,84,←,right,→,1.0768658998422325,False,17
32K40,198,experiment,156,→,left,←,1.8225702000781894,False,17
32K40,199,experiment,12,↓,left,←,1.061805299948901,False,17
32K40,200,experiment,108,↓,no_key,no_letter,-1.0,False,17
32K40,201,experiment,72,↑,right,→,0.708957799943164,False,17
32K40,202,experiment,156,→,right,→,0.7271283001173288,True,17
32K40,203,experiment,12,←,no_key,no_letter,-1.0,False,17
32K40,204,experiment,72,←,right,→,0.7899128999561071,False,17
32K40,205,experiment,180,↓,right,→,0.7619471999350935,False,17
32K40,206,experiment,108,↓,left,←,0.7274705001618713,False,17
32K40,207,experiment,156,↓,down,↓,1.2560773000586778,True,17
32K40,208,experiment,132,←,up,↑,1.3158330000005662,False,17
32K40,209,experiment,84,↑,right,→,0.9798733999487013,False,17
32K40,210,experiment,180,→,left,←,1.0906706000678241,False,17
32K40,211,experiment,180,→,right,→,1.065989200025797,True,17
32K40,212,experiment,168,←,right,→,0.8397703999653459,False,17
32K40,213,experiment,24,←,right,→,1.0026334999129176,False,17
32K40,214,experiment,144,→,right,→,1.4565993000287563,True,17
32K40,215,experiment,12,↓,right,→,1.0778439999558032,False,17
32K40,216,experiment,144,↑,up,↑,1.3035731001291424,True,17
32K40,217,experiment,72,↑,down,↓,1.9435372999869287,False,17
32K40,218,experiment,132,←,left,←,0.8843920000363141,True,17
32K40,219,experiment,156,↑,up,↑,1.0798397997859865,True,17
32K40,220,training,168,→,right,→,1.0116604999639094,True,18
32K40,221,training,60,←,right,→,1.0526932999491692,False,18
32K40,222,training,84,↓,right,→,1.019899999955669,False,18
32K40,223,experiment,156,↑,down,↓,0.9788263998925686,False,18
32K40,224,experiment,24,↑,down,↓,1.2997121000662446,False,18
32K40,225,experiment,48,↑,down,↓,1.1170825001318008,False,18
32K40,226,experiment,72,↓,down,↓,0.888264800189063,True,18
32K40,227,experiment,36,←,left,←,0.7965226999949664,True,18
32K40,228,experiment,168,↓,left,←,1.1161233000457287,False,18
32K40,229,experiment,48,↓,right,→,1.0590307000093162,False,18
32K40,230,experiment,12,↓,right,→,1.1963453001808375,False,18
32K40,231,experiment,60,←,left,←,0.6957461000420153,True,18
32K40,232,experiment,120,↓,left,←,0.5032440000213683,False,18
32K40,233,experiment,132,→,right,→,0.8691883999854326,True,18
32K40,234,experiment,72,↑,left,←,1.4782275999896228,False,18
32K40,235,experiment,144,↓,down,↓,1.4598360999953002,True,18
32K40,236,experiment,156,↓,down,↓,0.9718480999581516,True,18
32K40,237,experiment,60,↓,down,↓,1.0791315999813378,True,18
32K40,238,experiment,180,↓,down,↓,1.1245403999928385,True,18
32K40,239,experiment,180,↓,down,↓,0.7119092000648379,True,18
32K40,240,experiment,132,→,right,→,0.9512670000549406,True,18
32K40,241,experiment,180,→,down,↓,1.4462949999142438,False,18
32K40,242,experiment,156,↑,down,↓,1.0727843998465687,False,18
32K40,243,experiment,36,↑,down,↓,0.9200008998159319,False,18
32K40,244,experiment,168,↑,right,→,1.1537876001093537,False,18
32K40,245,experiment,168,→,no_key,no_letter,-1.0,False,18
32K40,246,experiment,96,←,left,←,1.7713919999077916,True,18
32K40,247,experiment,12,←,left,←,0.9039697998668998,True,18
32K40,248,experiment,144,↑,down,↓,1.1487971001770347,False,18
32K40,249,experiment,72,←,right,→,0.6308032001834363,False,18
32K40,250,experiment,180,↑,down,↓,1.218396999873221,False,18
32K40,251,experiment,12,←,left,←,0.914662100141868,True,18
32K40,252,experiment,48,↑,right,→,1.0310668000020087,False,18
32K40,253,experiment,84,↑,up,↑,1.1731815999373794,True,18
32K40,254,experiment,60,←,down,↓,1.1516899999696761,False,18
32K40,255,experiment,96,→,right,→,0.7812729999423027,True,18
32K40,256,experiment,24,→,right,→,0.8334335000254214,True,18
32K40,257,experiment,132,←,left,←,0.9136919998563826,True,18
32K40,258,experiment,84,↓,down,↓,0.9697848001960665,True,18
32K40,259,experiment,120,→,down,↓,1.2404024000279605,False,18
32K40,260,experiment,132,→,left,←,1.139102199813351,False,18
32K40,261,experiment,120,←,left,←,1.0823264000937343,True,18
32K40,262,experiment,108,↓,left,←,1.185190600110218,False,18
32K40,263,experiment,24,←,left,←,1.1433419999666512,True,18
32K40,264,experiment,120,↑,down,↓,1.237544700037688,False,18
32K40,265,experiment,84,←,down,↓,1.069579599890858,False,18
32K40,266,experiment,168,←,left,←,1.223231399897486,True,18
32K40,267,experiment,144,→,right,→,1.047616499941796,True,18
32K40,268,experiment,60,←,left,←,1.663478699978441,True,18
32K40,269,experiment,108,→,left,←,1.2677228001412004,False,18
32K40,270,experiment,36,↓,left,←,0.9781365999951959,False,18
32K40,271,experiment,12,→,left,←,0.7469683999661356,False,18
32K40,272,experiment,108,↓,left,←,0.8368487001862377,False,18
32K40,273,experiment,36,↑,left,←,0.6991673999000341,False,18
32K40,274,experiment,108,↑,left,←,0.6968944000545889,False,18
32K40,275,experiment,96,←,down,↓,0.7646322001237422,False,18
32K40,276,experiment,84,↓,down,↓,0.6319514000788331,True,18
32K40,277,experiment,144,↑,down,↓,0.6994241999927908,False,18
32K40,278,experiment,48,↑,down,↓,0.596863699844107,False,18
32K40,279,experiment,24,←,no_key,no_letter,-1.0,False,18
32K40,280,experiment,72,←,down,↓,0.7170827998779714,False,18
32K40,281,experiment,156,↑,down,↓,0.06714139995165169,False,18
32K40,282,experiment,96,→,down,↓,0.6977284997701645,False,18
32K40,283,training,132,↓,down,↓,1.2559872998390347,True,18
32K40,284,training,144,→,right,→,0.7064052999485284,True,18
32K40,285,training,168,→,left,←,0.6103345998562872,False,18
32K40,286,experiment,156,↓,left,←,0.7445247999858111,False,18
32K40,287,experiment,48,→,left,←,1.5399949999991804,False,18
32K40,288,experiment,144,↑,down,↓,0.6439916000235826,False,18
32K40,289,experiment,132,↓,down,↓,0.6359891998581588,True,18
32K40,290,experiment,36,↓,down,↓,0.604780999943614,True,18
32K40,291,experiment,132,↑,down,↓,0.7493058000691235,False,18
32K40,292,experiment,60,→,down,↓,0.6725421000737697,False,18
32K40,293,experiment,72,↓,down,↓,0.6990032000467181,True,18
32K40,294,experiment,96,→,right,→,0.9396581000182778,True,18
32K40,295,experiment,48,→,right,→,0.7909919999074191,True,18
32K40,296,experiment,36,↓,left,←,1.3426506000105292,False,18
32K40,297,experiment,12,→,right,→,1.1577551001682878,True,18
32K40,298,experiment,48,←,left,←,0.9243561001494527,True,18
32K40,299,experiment,132,↑,no_key,no_letter,-1.0,False,18
32K40,300,experiment,12,→,right,→,0.8077248998451978,True,18
32K40,301,experiment,72,←,right,→,0.7372451999690384,False,18
32K40,302,experiment,156,↓,right,→,0.6853463998995721,False,18
32K40,303,experiment,156,←,right,→,0.6479815999045968,False,18
32K40,304,experiment,48,←,right,→,0.8091798999812454,False,18
32K40,305,experiment,72,→,right,→,0.6106127998791635,True,18
32K40,306,experiment,108,↓,right,→,0.6228507999330759,False,18
32K40,307,experiment,180,↑,right,→,0.7277518000919372,False,18
32K40,308,experiment,144,↑,left,←,0.8530635999049991,False,18
32K40,309,experiment,60,←,down,↓,0.7818744999822229,False,18
32K40,310,experiment,84,←,right,→,0.7248178999871016,False,18
32K40,311,experiment,60,↑,up,↑,1.2198771999683231,True,18
32K40,312,experiment,120,←,up,↑,1.206094600027427,False,18
32K40,313,experiment,144,←,right,→,1.0853709001094103,False,18
32K40,314,experiment,132,↑,left,←,1.1276245000772178,False,18
32K40,315,experiment,60,→,left,←,0.8031380998436362,False,18
32K40,316,experiment,168,↓,left,←,0.8362296000123024,False,18
32K40,317,experiment,12,↑,left,←,0.8654521000571549,False,18
32K40,318,experiment,24,↑,no_key,no_letter,-1.0,False,18
32K40,319,experiment,24,←,left,←,0.53909289999865,True,18
32K40,320,experiment,108,↑,left,←,0.631123699946329,False,18
32K40,321,experiment,24,↓,left,←,0.6489449001383036,False,18
32K40,322,experiment,36,↑,right,→,1.569839800009504,False,18
32K40,323,experiment,108,←,right,→,1.1701505000237375,False,18
32K40,324,experiment,84,↑,right,→,1.121866700006649,False,18
32K40,325,experiment,168,↓,down,↓,1.176806400064379,True,18
32K40,326,experiment,144,←,right,→,1.224429699825123,False,18
32K40,327,experiment,12,↓,down,↓,0.6098782999906689,True,18
32K40,328,experiment,84,↓,down,↓,0.5445439999457449,True,18
32K40,329,experiment,72,↑,up,↑,1.1154281999915838,True,18
32K40,330,experiment,96,→,up,↑,1.372735399985686,False,18
32K40,331,experiment,168,←,left,←,0.9518959999550134,True,18
32K40,332,experiment,180,↓,left,←,1.1595085998997092,False,18
32K40,333,experiment,96,↓,down,↓,1.037288699997589,True,18
32K40,334,experiment,108,→,left,←,0.9741464999970049,False,18
32K40,335,experiment,120,↓,down,↓,0.9505580000113696,True,18
32K40,336,experiment,156,→,down,↓,1.0249147000722587,False,18
32K40,337,experiment,180,←,left,←,0.9557612000498921,True,18
32K40,338,experiment,96,↑,up,↑,1.1940217998344451,True,18
32K40,339,experiment,180,←,left,←,0.8335466999560595,True,18
32K40,340,experiment,120,↑,right,→,1.1378474000375718,False,18
32K40,341,experiment,168,←,left,←,1.0693841997999698,True,18
32K40,342,experiment,120,→,right,→,1.0002935999073088,True,18
32K40,343,experiment,84,↓,down,↓,0.9174233998637646,True,18
32K40,344,experiment,24,↑,right,→,0.8655677000060678,False,18
32K40,345,experiment,36,←,right,→,0.6601744999643415,False,18
32K40,346,training,168,↑,down,↓,1.543885000050068,False,18
32K40,347,training,156,↑,up,↑,1.1884528999216855,True,18
32K40,348,training,96,→,right,→,0.951551599893719,True,18
32K40,349,experiment,156,↓,down,↓,1.010717400116846,True,18
32K40,350,experiment,156,↑,right,→,0.8182630001101643,False,18
32K40,351,experiment,12,↑,up,↑,1.0368096001911908,True,18
32K40,352,experiment,72,↑,right,→,0.6551980001386255,False,18
32K40,353,experiment,12,↓,down,↓,0.7494838000275195,True,18
32K40,354,experiment,72,←,left,←,0.847630999982357,True,18
32K40,355,experiment,132,→,right,→,0.7809791001491249,True,18
32K40,356,experiment,96,↑,right,→,1.0724684000015259,False,18
32K40,357,experiment,60,→,right,→,0.8988310000859201,True,18
32K40,358,experiment,180,↓,right,→,0.7792930998839438,False,18
32K40,359,experiment,24,←,left,←,0.7834967998787761,True,18
32K40,360,experiment,48,↑,left,←,0.8081075001973659,False,18
32K40,361,experiment,60,↓,left,←,0.956737200031057,False,18
32K40,362,experiment,48,→,left,←,0.49799620010890067,False,18
32K40,363,experiment,144,↑,up,↑,1.080210599815473,True,18
32K40,364,experiment,48,↓,down,↓,1.304939999943599,True,18
32K40,365,experiment,168,↑,right,→,0.8356454998720437,False,18
32K40,366,experiment,144,↑,left,←,0.9431666999589652,False,18
32K40,367,experiment,180,↓,left,←,1.047775600105524,False,18
32K40,368,experiment,96,←,down,↓,1.8594803002197295,False,18
32K40,369,experiment,108,→,right,→,1.5224530999548733,True,18
32K40,370,experiment,72,↑,down,↓,1.1362032000906765,False,18
32K40,371,experiment,108,↑,down,↓,1.0382388001307845,False,18
32K40,372,experiment,120,←,left,←,1.1244600000791252,True,18
32K40,373,experiment,108,→,right,→,1.1263831998221576,True,18
32K40,374,experiment,60,↑,right,→,1.1258466001600027,False,18
32K40,375,experiment,144,↓,no_key,no_letter,-1.0,False,18
32K40,376,experiment,168,↓,down,↓,1.3289586999453604,True,18
32K40,377,experiment,132,←,left,←,1.4620351998601109,True,18
32K40,378,experiment,84,↓,down,↓,1.1701217000372708,True,18
32K40,379,experiment,48,↑,down,↓,0.9524714997969568,False,18
32K40,380,experiment,24,↑,right,→,1.0148956999182701,False,18
32K40,381,experiment,96,→,left,←,0.8187706999015063,False,18
32K40,382,experiment,84,↑,right,→,0.9396569000091404,False,18
32K40,383,experiment,36,↑,right,→,0.7048442999366671,False,18
32K40,384,experiment,24,↓,up,↑,1.2413399999495596,False,18
32K40,385,experiment,168,←,right,→,1.073655600193888,False,18
32K40,386,experiment,168,←,right,→,0.8338125001173466,False,18
32K40,387,experiment,84,↑,left,←,0.7418659999966621,False,18
32K40,388,experiment,120,←,left,←,0.543551999842748,True,18
32K40,389,experiment,36,↑,right,→,0.6770270001143217,False,18
32K40,390,experiment,36,↑,right,→,0.529985100030899,False,18
32K40,391,experiment,156,→,left,←,0.7391765001229942,False,18
32K40,392,experiment,156,→,left,←,0.5221403001341969,False,18
32K40,393,experiment,120,↓,right,→,1.3815892999991775,False,18
32K40,394,experiment,132,←,right,→,1.2067485998850316,False,18
32K40,395,experiment,12,↓,down,↓,0.7592939999885857,True,18
32K40,396,experiment,180,↑,left,←,0.6553982000332326,False,18
32K40,397,experiment,60,↑,left,←,0.7121559998486191,False,18
32K40,398,experiment,96,↑,down,↓,0.6587797999382019,False,18
32K40,399,experiment,24,→,right,→,1.0712193998042494,True,18
32K40,400,experiment,132,←,left,←,0.7018285999074578,True,18
32K40,401,experiment,180,↑,left,←,0.647692299913615,False,18
32K40,402,experiment,108,→,right,→,0.661852200049907,True,18
32K40,403,experiment,12,←,no_key,no_letter,-1.0,False,18
32K40,404,experiment,120,←,right,→,0.720968300011009,False,18
32K40,405,experiment,72,↓,left,←,0.8005119999870658,False,18
32K40,406,experiment,144,→,right,→,0.8172751001548022,True,18
32K40,407,experiment,84,←,right,→,0.4004283999092877,False,18
32K40,408,experiment,36,↓,right,→,0.511325899977237,False,18
32K40,409,training,24,←,left,←,1.2671699998900294,True,18
32K40,410,training,144,←,right,→,0.9376121000386775,False,18
32K40,411,training,180,←,right,→,0.9398910000454634,False,18
32K40,412,experiment,180,↑,down,↓,1.3320492000784725,False,18
32K40,413,experiment,60,↓,down,↓,0.9311079001054168,True,18
32K40,414,experiment,12,→,right,→,0.859071800019592,True,18
32K40,415,experiment,108,←,left,←,0.5318932000081986,True,18
32K40,416,experiment,84,→,left,←,0.9212803000118583,False,18
32K40,417,experiment,156,↓,left,←,0.9760366000700742,False,18
32K40,418,experiment,48,↓,right,→,0.9028966999612749,False,18
32K40,419,experiment,144,↓,right,→,0.4171992000192404,False,18
32K40,420,experiment,132,→,right,→,0.40037050005048513,True,18
32K40,421,experiment,144,↑,right,→,0.6361849000677466,False,18
32K40,422,experiment,108,←,left,←,1.2417281998787075,True,18
32K40,423,experiment,36,←,right,→,1.126479099970311,False,18
32K40,424,experiment,108,→,left,←,0.5722265997901559,False,18
32K40,425,experiment,96,←,no_key,no_letter,-1.0,False,18
32K40,426,experiment,96,←,left,←,0.6260587000288069,True,18
32K40,427,experiment,36,↓,left,←,0.683407099917531,False,18
32K40,428,experiment,24,→,right,→,0.8166264998726547,True,18
32K40,429,experiment,60,↓,right,→,1.0732512001413852,False,18
32K40,430,experiment,132,←,right,→,0.5530054999981076,False,18
32K40,431,experiment,24,←,left,←,0.7547698998823762,True,18
32K40,432,experiment,60,←,left,←,1.0759880999103189,True,18
32K40,433,experiment,12,↑,up,↑,1.2369423999916762,True,18
32K40,434,experiment,120,↓,down,↓,0.9536548000760376,True,18
32K40,435,experiment,12,←,left,←,0.891623199917376,True,18
32K40,436,experiment,84,↓,down,↓,1.0268664001487195,True,18
32K40,437,experiment,156,↓,down,↓,0.991831700084731,True,18
32K40,438,experiment,48,↑,down,↓,0.6383789000101388,False,18
32K40,439,experiment,84,↓,down,↓,0.5999694000929594,True,18
32K40,440,experiment,120,↑,up,↑,1.202003400074318,True,18
32K40,441,experiment,36,↓,no_key,no_letter,-1.0,False,18
32K40,442,experiment,48,→,right,→,0.8719509998336434,True,18
32K40,443,experiment,72,←,left,←,0.8322693000081927,True,18
32K40,444,experiment,180,↓,right,→,0.5114345999900252,False,18
32K40,445,experiment,168,↓,left,←,0.953054599929601,False,18
32K40,446,experiment,168,→,right,→,1.121254500001669,True,18
32K40,447,experiment,48,↓,down,↓,0.9721988001838326,True,18
32K40,448,experiment,72,←,right,→,0.7420397999230772,False,18
32K40,449,experiment,36,↑,down,↓,0.9638334999326617,False,18
32K40,450,experiment,96,↑,down,↓,0.8761563999578357,False,18
32K40,451,experiment,132,→,right,→,0.626575700007379,True,18
32K40,452,experiment,156,←,left,←,0.615559299942106,True,18
32K40,453,experiment,24,↑,left,←,0.5735283000394702,False,18
32K40,454,experiment,168,↑,up,↑,1.0348296999000013,True,18
32K40,455,experiment,144,→,right,→,0.9139700999949127,True,18
32K40,456,experiment,168,↓,down,↓,1.3198907999321818,True,18
32K40,457,experiment,108,→,right,→,0.7047061000484973,True,18
32K40,458,experiment,156,↓,down,↓,0.8365461998619139,True,18
32K40,459,experiment,144,↓,right,→,0.5503735998645425,False,18
32K40,460,experiment,96,↑,right,→,0.7860441000666469,False,18
32K40,461,experiment,72,←,no_key,no_letter,-1.0,False,18
32K40,462,experiment,132,↓,left,←,1.1070834998972714,False,18
32K40,463,experiment,84,↑,down,↓,1.2417381999548525,False,18
32K40,464,experiment,24,←,left,←,0.8187143001705408,True,18
32K40,465,experiment,72,↓,down,↓,0.845984699903056,True,18
32K40,466,experiment,180,←,no_key,no_letter,-1.0,False,18
32K40,467,experiment,120,↓,down,↓,1.3037405000068247,True,18
32K40,468,experiment,12,↓,right,→,1.6079176999628544,False,18
32K40,469,experiment,180,↑,down,↓,0.9408370000310242,False,18
32K40,470,experiment,120,↓,down,↓,0.8981552000623196,True,18
32K40,471,experiment,60,→,down,↓,0.8866520998999476,False,18
32K40,472,training,120,←,left,←,0.9276721999049187,True,18
32K40,473,training,72,→,right,→,0.7957605998963118,True,18
32K40,474,training,24,←,left,←,0.8746713001746684,True,18
32K40,475,experiment,60,←,right,→,0.5614461998920888,False,18
32K40,476,experiment,84,↓,left,←,0.8964962000027299,False,18
32K40,477,experiment,72,↑,down,↓,0.7073349999263883,False,18
32K40,478,experiment,156,↓,down,↓,0.6811016001738608,True,18
32K40,479,experiment,24,→,down,↓,0.6878598998300731,False,18
32K40,480,experiment,156,↑,right,→,0.8104026999790221,False,18
32K40,481,experiment,84,↓,down,↓,0.5512592000886798,True,18
32K40,482,experiment,24,→,right,→,0.8875027999747545,True,18
32K40,483,experiment,144,↑,up,↑,1.2049308000132442,True,18
32K40,484,experiment,132,↓,down,↓,0.7339810999110341,True,18
32K40,485,experiment,168,←,right,→,1.0233795000240207,False,18
32K40,486,experiment,60,↑,right,→,0.6542707998305559,False,18
32K40,487,experiment,36,↓,right,→,0.8196748001500964,False,18
32K40,488,experiment,180,→,right,→,0.6997087001800537,True,18
32K40,489,experiment,180,→,right,→,0.5480042998678982,True,18
32K40,490,experiment,180,↓,down,↓,1.322565499925986,True,18
32K40,491,experiment,12,↓,no_key,no_letter,-1.0,False,18
32K40,492,experiment,132,↓,left,←,1.011773700127378,False,18
32K40,493,experiment,48,→,right,→,1.0258701001293957,True,18
32K40,494,experiment,84,←,right,→,0.7088758000172675,False,18
32K40,495,experiment,180,←,right,→,0.31718900008127093,False,18
32K40,496,experiment,168,↓,left,←,0.6052206000313163,False,18
32K40,497,experiment,156,↓,down,↓,0.5012133000418544,True,18
32K40,498,experiment,48,←,left,←,0.9159794999286532,True,18
32K40,499,experiment,96,↑,right,→,0.5113133999984711,False,18
32K40,500,experiment,108,→,right,→,0.5098867998458445,True,18
32K40,501,experiment,36,←,right,→,0.8047269999515265,False,18
32K40,502,experiment,36,↓,down,↓,1.1187565999571234,True,18
32K40,503,experiment,144,→,right,→,0.9038424999453127,True,18
32K40,504,experiment,12,↓,down,↓,0.9904932999052107,True,18
32K40,505,experiment,96,→,right,→,0.7451530999969691,True,18
32K40,506,experiment,120,→,right,→,0.5343128000386059,True,18
32K40,507,experiment,72,↓,right,→,0.4843357999343425,False,18
32K40,508,experiment,96,↓,down,↓,0.6555053000338376,True,18
32K40,509,experiment,36,↑,right,→,0.8826295000035316,False,18
32K40,510,experiment,48,←,right,→,1.4959740999620408,False,18
32K40,511,experiment,12,↑,right,→,0.7886713000480086,False,18
32K40,512,experiment,24,→,right,→,1.3261720000300556,True,18
32K40,513,experiment,84,↓,down,↓,0.9578128000721335,True,18
32K40,514,experiment,96,↑,down,↓,0.2504382999613881,False,18
32K40,515,experiment,12,←,down,↓,0.868350800126791,False,18
32K40,516,experiment,60,←,up,↑,0.6599181999918073,False,18
32K40,517,experiment,132,←,right,→,1.361318700015545,False,18
32K40,518,experiment,120,↓,down,↓,0.951268499949947,True,18
32K40,519,experiment,168,←,up,↑,0.8545130998827517,False,18
32K40,520,experiment,156,↑,down,↓,0.3337528998963535,False,18
32K40,521,experiment,108,↓,up,↑,1.0589739000424743,False,18
32K40,522,experiment,144,←,down,↓,0.40040650009177625,False,18
32K40,523,experiment,168,←,left,←,0.9086627999786288,True,18
32K40,524,experiment,120,→,right,→,0.6750835999846458,True,18
32K40,525,experiment,108,↓,left,←,1.126236000098288,False,18
32K40,526,experiment,72,↑,left,←,0.8249921000096947,False,18
32K40,527,experiment,24,↓,left,←,0.9004269998986274,False,18
32K40,528,experiment,60,↑,right,→,0.704557100078091,False,18
32K40,529,experiment,132,↓,down,↓,0.8264599998947233,True,18
32K40,530,experiment,48,←,left,←,0.5985417999327183,True,18
32K40,531,experiment,72,←,left,←,0.894263599999249,True,18
32K40,532,experiment,144,↑,left,←,0.6949773000087589,False,18
32K40,533,experiment,120,←,right,→,0.5971339999232441,False,18
32K40,534,experiment,108,→,left,←,0.5831278001423925,False,18
32K40,535,training,144,→,right,→,1.2204116000793874,True,18
32K40,536,training,12,↓,right,→,0.9483957998454571,False,18
32K40,537,training,96,←,left,←,0.6148335998877883,True,18
32K40,538,experiment,48,↑,left,←,0.5889570999424905,False,18
32K40,539,experiment,144,←,left,←,1.4465920000802726,True,18
32K40,540,experiment,144,←,right,→,0.03378649987280369,False,18
32K40,541,experiment,84,→,right,→,1.042076600017026,True,18
32K40,542,experiment,36,↓,up,↑,1.230068099917844,False,18
32K40,543,experiment,60,↑,right,→,0.8190427001100034,False,18
32K40,544,experiment,36,→,right,→,1.4471088000573218,True,18
32K40,545,experiment,180,←,left,←,0.7954720000270754,True,18
32K40,546,experiment,96,↑,right,→,0.8992004999890924,False,18
32K40,547,experiment,60,→,right,→,0.6706745000556111,True,18
32K40,548,experiment,36,→,no_key,no_letter,-1.0,False,18
32K40,549,experiment,48,↑,up,↑,1.0401604000944644,True,18
32K40,550,experiment,108,→,right,→,0.9249899000860751,True,18
32K40,551,experiment,72,←,left,←,0.809954300057143,True,18
32K40,552,experiment,72,↓,down,↓,0.9260484999977052,True,18
32K40,553,experiment,24,↑,down,↓,0.8651078001130372,False,18
32K40,554,experiment,12,↓,down,↓,1.028346300125122,True,18
32K40,555,experiment,168,↓,down,↓,0.8636794998310506,True,18
32K40,556,experiment,180,←,right,→,0.7926260000094771,False,18
32K40,557,experiment,132,↓,down,↓,0.6823692000471056,True,18
32K40,558,experiment,108,←,down,↓,0.4762346998322755,False,18
32K40,559,experiment,144,→,right,→,0.8639035997912288,True,18
32K40,560,experiment,24,↑,up,↑,1.0573378999251872,True,18
32K40,561,experiment,120,←,left,←,0.8179846999701113,True,18
32K40,562,experiment,168,↓,up,↑,1.1459662998095155,False,18
32K40,563,experiment,48,←,right,→,1.0930033000186086,False,18
32K40,564,experiment,24,↓,down,↓,0.7564922999590635,True,18
32K40,565,experiment,84,←,left,←,0.7830998999997973,True,18
32K40,566,experiment,96,↓,down,↓,0.906811699969694,True,18
32K40,567,experiment,132,←,right,→,0.6807826000731438,False,18
32K40,568,experiment,180,↓,down,↓,0.8071916000917554,True,18
32K40,569,experiment,12,↓,down,↓,0.7427594000473619,True,18
32K40,570,experiment,12,↓,down,↓,0.49417500011622906,True,18
32K40,571,experiment,108,↓,down,↓,0.46761689987033606,True,18
32K40,572,experiment,96,←,down,↓,0.38380849990062416,False,18
32K40,573,experiment,96,→,right,→,0.6549623000901192,True,18
32K40,574,experiment,120,↑,down,↓,0.8974611999001354,False,18
32K40,575,experiment,180,←,down,↓,0.6098931999877095,False,18
32K40,576,experiment,108,↑,up,↑,0.9670106000266969,True,18
32K40,577,experiment,48,→,right,→,0.8534531998448074,True,18
32K40,578,experiment,84,↓,right,→,0.9219670000020415,False,18
32K40,579,experiment,12,→,right,→,1.031622199807316,True,18
32K40,580,experiment,36,→,right,→,0.6964888998772949,True,18
32K40,581,experiment,72,↑,right,→,0.4740542999934405,False,18
32K40,582,experiment,156,↓,no_key,no_letter,-1.0,False,18
32K40,583,experiment,84,↑,down,↓,1.0395272001624107,False,18
32K40,584,experiment,156,↓,down,↓,0.8856049000751227,True,18
32K40,585,experiment,60,↑,right,→,1.0535884997807443,False,18
32K40,586,experiment,168,←,left,←,0.8773580000270158,True,18
32K40,587,experiment,132,↓,no_key,no_letter,-1.0,False,18
32K40,588,experiment,156,↓,up,↑,0.4771926000248641,False,18
32K40,589,experiment,120,↑,down,↓,0.8867289999034256,False,18
32K40,590,experiment,72,→,left,←,0.6445045000873506,False,18
32K40,591,experiment,156,→,right,→,0.7565510000567883,True,18
32K40,592,experiment,132,↓,left,←,1.1104063000530005,False,18
32K40,593,experiment,24,←,left,←,0.5953623000532389,True,18
32K40,594,experiment,120,↓,right,→,0.5403213000390679,False,18
32K40,595,experiment,144,↑,no_key,no_letter,-1.0,False,18
32K40,596,experiment,60,↓,right,→,0.38386270008049905,False,18
32K40,597,experiment,168,↓,no_key,no_letter,-1.0,False,18
32K40,598,training,180,←,right,→,0.8436904000118375,False,18
32K40,599,training,12,←,left,←,0.9625423999968916,True,18
32K40,600,training,84,↓,right,→,0.43373909988440573,False,18
32K40,601,experiment,120,←,right,→,0.5184933999553323,False,18
32K40,602,experiment,24,→,right,→,1.0673583000898361,True,18
32K40,603,experiment,12,↓,right,→,1.0066283999476582,False,18
32K40,604,experiment,180,↑,up,↑,1.1054760001134127,True,18
32K40,605,experiment,120,→,right,→,0.7411982000339776,True,18
32K40,606,experiment,60,←,left,←,0.9198865001089871,True,18
32K40,607,experiment,96,→,right,→,0.5700970001053065,True,18
32K40,608,experiment,144,→,left,←,1.1806382001377642,False,18
32K40,609,experiment,120,↑,left,←,0.8255647998303175,False,18
32K40,610,experiment,84,→,right,→,0.49697660002857447,True,18
32K40,611,experiment,156,←,left,←,0.549907699925825,True,18
32K40,612,experiment,48,↑,right,→,0.6499706001486629,False,18
32K40,613,experiment,180,↓,right,→,0.9164470001123846,False,18
32K40,614,experiment,24,→,right,→,0.6004242999479175,True,18
32K40,615,experiment,168,↓,right,→,0.3670541997998953,False,18
32K40,616,experiment,12,↓,right,→,0.7831953999120742,False,18
32K40,617,experiment,132,↑,down,↓,0.6728270000312477,False,18
32K40,618,experiment,48,←,down,↓,0.946958800079301,False,18
32K40,619,experiment,24,←,left,←,0.8659983000252396,True,18
32K40,620,experiment,96,↓,left,←,0.6856221999041736,False,18
32K40,621,experiment,108,↓,down,↓,0.30052120005711913,True,18
32K40,622,experiment,180,↑,right,→,0.9276144998148084,False,18
32K40,623,experiment,36,→,right,→,1.733564699999988,True,18
32K40,624,experiment,132,↑,down,↓,0.8832032999489456,False,18
32K40,625,experiment,84,→,down,↓,0.8488683998584747,False,18
32K40,626,experiment,180,→,right,→,0.8329857001081109,True,18
32K40,627,experiment,144,↓,right,→,0.7192705001216382,False,18
32K40,628,experiment,60,←,right,→,0.6733478000387549,False,18
32K40,629,experiment,156,↓,down,↓,0.8611655000131577,True,18
32K40,630,experiment,72,↓,right,→,1.4598816998768598,False,18
32K40,631,experiment,60,←,down,↓,0.9642976000905037,False,18
32K40,632,experiment,72,↓,right,→,0.7802718000020832,False,18
32K40,633,experiment,24,↑,up,↑,1.2116265001241118,True,18
32K40,634,experiment,96,←,left,←,0.9788007999304682,True,18
32K40,635,experiment,12,↓,down,↓,1.3060459999833256,True,18
32K40,636,experiment,120,→,right,→,0.8821453999262303,True,18
32K40,637,experiment,132,←,down,↓,1.1051437999121845,False,18
32K40,638,experiment,108,→,down,↓,0.3171619998756796,False,18
32K40,639,experiment,168,↑,down,↓,0.5490952001418918,False,18
32K40,640,experiment,96,↓,right,→,0.6431751002091914,False,18
32K40,641,experiment,108,→,left,←,0.631404799874872,False,18
32K40,642,experiment,168,→,left,←,0.6165380999445915,False,18
32K40,643,experiment,72,→,down,↓,0.7843237000051886,False,18
32K40,644,experiment,144,→,right,→,0.657110100146383,True,18
32K40,645,experiment,132,↓,right,→,0.7803255000617355,False,18
32K40,646,experiment,12,↑,right,→,1.2601491000968963,False,18
32K40,647,experiment,36,→,right,→,1.1272249000612646,True,18
32K40,648,experiment,144,←,left,←,0.6941011000890285,True,18
32K40,649,experiment,60,↓,down,↓,1.1025363998487592,True,18
32K40,650,experiment,48,↑,left,←,0.9498509999830276,False,18
32K40,651,experiment,36,→,right,→,0.7033395001199096,True,18
32K40,652,experiment,84,↓,left,←,0.9393642998766154,False,18
32K40,653,experiment,156,←,left,←,1.0033082000445575,True,18
32K40,654,experiment,48,↓,right,→,0.9108309000730515,False,18
32K40,655,experiment,72,→,left,←,0.8391078999266028,False,18
32K40,656,experiment,36,↓,right,→,0.5387486000545323,False,18
32K40,657,experiment,156,↑,right,→,0.6952128999400884,False,18
32K40,658,experiment,108,→,left,←,1.4380345998797566,False,18
32K40,659,experiment,168,←,down,↓,1.9602920000907034,False,18
32K40,660,experiment,84,↓,down,↓,0.3503922999370843,True,18
32K40,661,training,120,←,right,→,1.0091405999846756,False,18
32K40,662,training,156,←,right,→,0.7470974000170827,False,18
32K40,663,training,48,↑,left,←,1.3275355000514537,False,18
32K40,664,experiment,156,↑,left,←,0.9818889000453055,False,18
32K40,665,experiment,60,↑,left,←,0.8178514998871833,False,18
32K40,666,experiment,120,↓,right,→,0.4787165999878198,False,18
32K40,667,experiment,168,←,right,→,0.3504550999496132,False,18
32K40,668,experiment,168,↓,right,→,0.3014446999877691,False,18
32K40,669,experiment,72,←,right,→,0.7961895000189543,False,18
32K40,670,experiment,12,→,right,→,0.8489898999687284,True,18
32K40,671,experiment,24,↓,left,←,0.9127627999987453,False,18
32K40,672,experiment,24,←,right,→,1.4828606001101434,False,18
32K40,673,experiment,108,→,right,→,0.8458397998474538,True,18
32K40,674,experiment,132,→,left,←,1.1905667998362333,False,18
32K40,675,experiment,180,←,right,→,0.8300180998630822,False,18
32K40,676,experiment,84,→,right,→,0.6649021001067013,True,18
32K40,677,experiment,96,→,right,→,0.7470337001141161,True,18
32K40,678,experiment,96,↑,no_key,no_letter,-1.0,False,18
32K40,679,experiment,156,→,right,→,0.973794000223279,True,18
32K40,680,experiment,120,→,left,←,1.3815876999869943,False,18
32K40,681,experiment,144,↑,up,↑,1.313344500027597,True,18
32K40,682,experiment,12,←,no_key,no_letter,-1.0,False,18
32K40,683,experiment,72,→,left,←,0.9752541999332607,False,18
32K40,684,experiment,12,↑,up,↑,1.0927124998997897,True,18
32K40,685,experiment,36,→,no_key,no_letter,-1.0,False,18
32K40,686,experiment,180,←,right,→,0.7265767999924719,False,18
32K40,687,experiment,24,→,left,←,1.872634399915114,False,18
32K40,688,experiment,72,↓,up,↑,1.015711999963969,False,18
32K40,689,experiment,168,↑,no_key,no_letter,-1.0,False,18
32K40,690,experiment,144,↓,right,→,0.579151300014928,False,18
32K40,691,experiment,48,→,up,↑,1.2306823001708835,False,18
32K40,692,experiment,108,←,right,→,0.6987429999280721,False,18
32K40,693,experiment,36,←,right,→,0.7183638999704272,False,18
32K40,694,experiment,144,→,right,→,0.5110750000458211,True,18
32K40,695,experiment,36,↑,up,↑,1.2218468999490142,True,18
32K40,696,experiment,60,←,right,→,0.6020773998461664,False,18
32K40,697,experiment,96,→,right,→,0.6703293998725712,True,18
32K40,698,experiment,48,→,right,→,0.9654075999278575,True,18
32K40,699,experiment,12,↑,up,↑,1.0377829999197274,True,18
32K40,700,experiment,168,←,left,←,0.6771539999172091,True,18
32K40,701,experiment,60,↓,right,→,0.5749788000248373,False,18
32K40,702,experiment,156,→,left,←,0.9101882998365909,False,18
32K40,703,experiment,36,↑,right,→,0.9805978001095355,False,18
32K40,704,experiment,180,↑,right,→,0.7266702000051737,False,18
32K40,705,experiment,132,→,right,→,0.38383119995705783,True,18
32K40,706,experiment,72,←,left,←,0.7164964999537915,True,18
32K40,707,experiment,144,→,left,←,0.6958878000732511,False,18
32K40,708,experiment,96,↑,right,→,0.920345599995926,False,18
32K40,709,experiment,48,→,left,←,1.6520087998360395,False,18
32K40,710,experiment,120,←,left,←,1.1956406999379396,True,18
32K40,711,experiment,84,↓,right,→,0.6425636000931263,False,18
32K40,712,experiment,60,↓,down,↓,1.063203499885276,True,18
32K40,713,experiment,132,↑,down,↓,1.1731614000163972,False,18
32K40,714,experiment,180,→,right,→,0.85823730006814,True,18
32K40,715,experiment,84,→,no_key,no_letter,-1.0,False,18
32K40,716,experiment,132,←,right,→,1.075648199999705,False,18
32K40,717,experiment,84,→,right,→,0.5396266998723149,True,18
32K40,718,experiment,108,↑,left,←,0.528843600070104,False,18
32K40,719,experiment,120,→,right,→,0.7096398000139743,True,18
32K40,720,experiment,48,→,down,↓,0.8980389998760074,False,18
32K40,721,experiment,108,←,right,→,0.3837624997831881,False,18
32K40,722,experiment,156,←,right,→,0.7004333001095802,False,18
32K40,723,experiment,24,↑,down,↓,0.7616427999455482,False,18
32K40,724,training,108,↑,down,↓,1.0947623001411557,False,18
32K40,725,training,36,←,left,←,0.9748581999447197,True,18
32K40,726,training,120,↑,down,↓,1.0599344000220299,False,18
32K40,727,experiment,156,↑,right,→,0.8045028001070023,False,18
32K40,728,experiment,180,→,left,←,0.9180115000344813,False,18
32K40,729,experiment,72,↑,down,↓,1.1666900999844074,False,18
32K40,730,experiment,60,→,down,↓,1.0577419998589903,False,18
32K40,731,experiment,108,↓,down,↓,1.3240972999483347,True,18
32K40,732,experiment,84,←,right,→,1.0074706999585032,False,18
32K40,733,experiment,72,↑,down,↓,0.8732640999369323,False,18
32K40,734,experiment,144,↑,right,→,0.6992216999642551,False,18
32K40,735,experiment,96,←,right,→,0.7666086000390351,False,18
32K40,736,experiment,36,↑,no_key,no_letter,-1.0,False,18
32K40,737,experiment,84,→,no_key,no_letter,-1.0,False,18
32K40,738,experiment,144,↑,right,→,0.6183442999608815,False,18
32K40,739,experiment,12,↓,right,→,0.65730269998312,False,18
32K40,740,experiment,36,←,left,←,0.7433829000219703,True,18
32K40,741,experiment,12,↓,left,←,0.6523530001286417,False,18
32K40,742,experiment,108,↑,left,←,0.544856799999252,False,18
32K40,743,experiment,72,←,left,←,1.2842838999349624,True,18
32K40,744,experiment,48,→,right,→,0.7737139000091702,True,18
32K40,745,experiment,120,↑,up,↑,1.13671510014683,True,18
32K40,746,experiment,60,↑,right,→,0.6479716999456286,False,18
32K40,747,experiment,156,↓,down,↓,1.0128051000647247,True,18
32K40,748,experiment,36,→,right,→,0.7455845000222325,True,18
32K40,749,experiment,96,→,right,→,0.47189070004969835,True,18
32K40,750,experiment,36,←,no_key,no_letter,-1.0,False,18
32K40,751,experiment,132,←,left,←,1.1730968998745084,True,18
32K40,752,experiment,12,↑,no_key,no_letter,-1.0,False,18
32K40,753,experiment,120,↑,down,↓,1.204446000047028,False,18
32K40,754,experiment,24,→,right,→,0.923870800063014,True,18
32K40,755,experiment,156,←,right,→,0.7531375999096781,False,18
32K40,756,experiment,24,↓,down,↓,1.1190758999437094,True,18
32K40,757,experiment,12,→,right,→,1.0009288000874221,True,18
32K40,758,experiment,60,→,right,→,1.0582258000504225,True,18
32K40,759,experiment,144,↑,up,↑,1.111217699944973,True,18
32K40,760,experiment,180,←,down,↓,0.8632561999838799,False,18
32K40,761,experiment,132,↑,right,→,0.30050619994290173,False,18
32K40,762,experiment,132,←,right,→,0.7558576997835189,False,18
32K40,763,experiment,180,←,left,←,1.2483039998915046,True,18
32K40,764,experiment,120,←,right,→,0.6679453998804092,False,18
32K40,765,experiment,180,→,right,→,1.0306705001275986,True,18
32K40,766,experiment,156,←,left,←,0.83510070014745,True,18
32K40,767,experiment,108,↓,left,←,0.40059110010042787,False,18
32K40,768,experiment,48,→,right,→,1.966347300214693,True,18
32K40,769,experiment,24,↓,left,←,0.8863283998798579,False,18
32K40,770,experiment,168,↓,left,←,1.0423407999332994,False,18
32K40,771,experiment,168,←,no_key,no_letter,-1.0,False,18
32K40,772,experiment,96,↓,no_key,no_letter,-1.0,False,18
32K40,773,experiment,132,↑,no_key,no_letter,-1.0,False,18
32K40,774,experiment,48,↑,right,→,0.6076322998851538,False,18
32K40,775,experiment,84,↑,up,↑,0.7788331001065671,True,18
32K40,776,experiment,144,↓,down,↓,1.025740799959749,True,18
32K40,777,experiment,96,↓,down,↓,0.8866620999760926,True,18
32K40,778,experiment,108,↑,right,→,0.6485230999533087,False,18
32K40,779,experiment,168,→,right,→,0.4991270999889821,True,18
32K40,780,experiment,72,↑,down,↓,0.537142800167203,False,18
32K40,781,experiment,84,↓,down,↓,0.6503137999679893,True,18
32K40,782,experiment,168,↓,down,↓,0.9453116999939084,True,18
32K40,783,experiment,24,↓,right,→,1.4373185997828841,False,18
32K40,784,experiment,48,↑,right,→,0.8301022998057306,False,18
32K40,785,experiment,60,↑,down,↓,0.9336345000192523,False,18
32K40,786,experiment,120,↓,right,→,0.5016113999299705,False,18
32K40,787,training,84,↑,no_key,no_letter,-1.0,False,18
32K40,788,training,72,→,right,→,0.8538962998427451,True,18
32K40,789,training,24,↓,down,↓,1.0690720998682082,True,18
32K40,790,experiment,24,↓,down,↓,0.6497307999525219,True,18
32K40,791,experiment,72,→,right,→,0.6889954002108425,True,18
32K40,792,experiment,144,↑,down,↓,0.8323199998121709,False,18
32K40,793,experiment,168,←,down,↓,0.6643642999697477,False,18
32K40,794,experiment,12,←,right,→,1.195235799998045,False,18
32K40,795,experiment,48,↓,right,→,1.0187275998760015,False,18
32K40,796,experiment,108,→,right,→,0.6677192999050021,True,18
32K40,797,experiment,12,↑,down,↓,0.803471100050956,False,18
32K40,798,experiment,180,↓,right,→,0.6730325000826269,False,18
32K40,799,experiment,84,↓,right,→,0.9851576001383364,False,18
32K40,800,experiment,84,↑,right,→,1.7378330000210553,False,18
32K40,801,experiment,156,→,right,→,0.7513561998493969,True,18
32K40,802,experiment,180,↑,right,→,1.1177101000212133,False,18
32K40,803,experiment,108,↓,right,→,0.9444303000345826,False,18
32K40,804,experiment,108,→,right,→,0.6663825998548418,True,18
32K40,805,experiment,36,↑,right,→,0.8820803000126034,False,18
32K40,806,experiment,132,→,right,→,0.7264241001103073,True,18
32K40,807,experiment,48,→,right,→,0.8710672000888735,True,18
32K40,808,experiment,132,→,left,←,1.1009303000755608,False,18
32K40,809,experiment,156,→,left,←,1.6185731999576092,False,18
32K40,810,experiment,180,→,left,←,0.9370383999776095,False,18
32K40,811,experiment,24,←,left,←,0.8503912000451237,True,18
32K40,812,experiment,144,↑,left,←,0.7461810000240803,False,18
32K40,813,experiment,120,→,right,→,0.7377137001603842,True,18
32K40,814,experiment,168,↓,down,↓,0.8302066000178456,True,18
32K40,815,experiment,72,↓,down,↓,0.5608188998885453,True,18
32K40,816,experiment,24,↓,down,↓,0.5038105000276119,True,18
32K40,817,experiment,96,→,right,→,0.7354827001690865,True,18
32K40,818,experiment,132,→,right,→,1.102049200097099,True,18
32K40,819,experiment,108,↑,up,↑,1.1451502998825163,True,18
32K40,820,experiment,180,←,right,→,0.734100499888882,False,18
32K40,821,experiment,120,←,right,→,0.6463988998439163,False,18
32K40,822,experiment,96,←,right,→,0.5858561999630183,False,18
32K40,823,experiment,36,↑,down,↓,1.031791100045666,False,18
32K40,824,experiment,132,↑,no_key,no_letter,-1.0,False,18
32K40,825,experiment,120,→,no_key,no_letter,-1.0,False,18
32K40,826,experiment,72,←,left,←,0.8090200999286026,True,18
32K40,827,experiment,24,←,right,→,0.7363698999397457,False,18
32K40,828,experiment,96,←,left,←,0.5408544999081641,True,18
32K40,829,experiment,84,→,left,←,0.5371650999877602,False,18
32K40,830,experiment,168,→,right,→,0.4338501999154687,True,18
32K40,831,experiment,60,←,left,←,0.7415789000224322,True,18
32K40,832,experiment,144,→,right,→,0.03366680000908673,True,18
32K40,833,experiment,96,↓,down,↓,1.2816647998988628,True,18
32K40,834,experiment,120,←,right,→,0.48896209988743067,False,18
32K40,835,experiment,48,↓,down,↓,0.6098768999800086,True,18
32K40,836,experiment,144,→,right,→,0.8542481998447329,True,18
32K40,837,experiment,60,↓,right,→,0.6933399999979883,False,18
32K40,838,experiment,156,↑,right,→,0.4171407001558691,False,18
32K40,839,experiment,84,→,right,→,0.41714349994435906,True,18
32K40,840,experiment,168,↑,right,→,0.3171956001315266,False,18
32K40,841,experiment,60,↑,left,←,0.3337601001840085,False,18
32K40,842,experiment,36,→,down,↓,0.5121099997777492,False,18
32K40,843,experiment,156,→,right,→,0.3503611998166889,True,18
32K40,844,experiment,12,→,right,→,0.5680172999855131,True,18
32K40,845,experiment,36,→,left,←,0.38370050000958145,False,18
32K40,846,experiment,12,↓,left,←,0.7135640000924468,False,18
32K40,847,experiment,48,↓,left,←,0.43381650000810623,False,18
32K40,848,experiment,60,→,down,↓,0.7015688000246882,False,18
32K40,849,experiment,72,↑,down,↓,0.5760379999410361,False,18
