PART_ID,Trial_no,Trial_type,PDI,Stim_letter,Key_pressed,letter_choose,Rt,Corr,Stimulus Time
32M45,1,training,10,↓,left,←,0.41714649999994435,False,30
32M45,2,training,10,→,right,→,0.7089708000003156,True,30
32M45,3,training,10,→,right,→,0.6739132000002428,True,30
32M45,4,training,10,↓,down,↓,1.1661948000000848,True,30
32M45,5,training,10,↓,down,↓,0.7237951999995857,True,30
32M45,6,training,10,↑,up,↑,1.3144247000000178,True,30
32M45,7,training,10,←,left,←,0.9087220999990677,True,30
32M45,8,training,10,→,right,→,0.7510302999999112,True,30
32M45,9,training,10,←,left,←,0.7599492999997892,True,30
32M45,10,training,10,↑,no_key,no_letter,-1.0,False,30
32M45,11,training,10,←,left,←,0.467270400000416,True,30
32M45,12,training,10,←,left,←,0.3674893000006705,True,30
32M45,13,training,10,↓,right,→,0.5337151999992784,False,30
32M45,14,training,10,↓,down,↓,0.8136990999992122,True,30
32M45,15,training,10,→,right,→,1.1098058999996283,True,30
32M45,16,training,10,←,no_key,no_letter,-1.0,False,30
32M45,17,training,10,↑,right,→,1.0483727999999246,False,30
32M45,18,training,10,↓,down,↓,0.7004599000010785,True,30
32M45,19,training,10,↓,down,↓,0.8190764000009949,True,30
32M45,20,training,10,↓,down,↓,0.5668471999997564,True,30
32M45,21,training,10,↑,up,↑,0.6634055000013177,True,18
32M45,22,training,10,←,no_key,no_letter,-1.0,False,18
32M45,23,training,10,→,up,↑,1.3634476999995968,False,18
32M45,24,training,10,→,right,→,0.7052488000008452,True,18
32M45,25,training,10,↓,down,↓,0.8919201000007888,True,18
32M45,26,training,10,↑,up,↑,0.5657995000001392,True,18
32M45,27,training,10,↓,right,→,0.8688292000006186,False,18
32M45,28,training,10,↓,down,↓,0.7344382999999652,True,18
32M45,29,training,10,↓,down,↓,0.6076425999999628,True,18
32M45,30,training,10,←,left,←,0.48499470000024303,True,18
32M45,31,training,60,←,left,←,0.8449378999994224,True,15
32M45,32,training,168,↑,left,←,1.6387105000012525,False,15
32M45,33,training,180,←,left,←,0.7251874000012322,True,15
32M45,34,experiment,12,↑,left,←,1.8515633000006346,False,15
32M45,35,experiment,24,←,left,←,0.44749729999966803,True,15
32M45,36,experiment,36,←,right,→,0.8187361000000237,False,15
32M45,37,experiment,96,↑,up,↑,0.6640647999993234,True,15
32M45,38,experiment,120,→,right,→,0.7507198999992397,True,15
32M45,39,experiment,156,←,left,←,0.6618908000000374,True,15
32M45,40,experiment,108,↓,down,↓,0.7184259000005113,True,15
32M45,41,experiment,24,↓,down,↓,0.4409122000015486,True,15
32M45,42,experiment,180,←,down,↓,0.9965534999992087,False,15
32M45,43,experiment,168,↓,down,↓,0.7494432999992569,True,15
32M45,44,experiment,60,←,left,←,0.6002420999993774,True,15
32M45,45,experiment,168,←,left,←,0.4958721000002697,True,15
32M45,46,experiment,180,←,left,←,1.1820398999989266,True,15
32M45,47,experiment,36,→,left,←,1.37807950000024,False,15
32M45,48,experiment,72,↑,down,↓,0.9644091000009212,False,15
32M45,49,experiment,96,↑,right,→,1.1799393000001146,False,15
32M45,50,experiment,96,↓,left,←,1.9047620000001189,False,15
32M45,51,experiment,108,↓,down,↓,0.585406399999556,True,15
32M45,52,experiment,180,→,left,←,1.0027425999996922,False,15
32M45,53,experiment,168,→,right,→,0.6471732999998494,True,15
32M45,54,experiment,132,→,left,←,0.8531775999999809,False,15
32M45,55,experiment,180,←,left,←,0.531299799999033,True,15
32M45,56,experiment,144,→,right,→,0.5119236999998975,True,15
32M45,57,experiment,36,↑,left,←,1.34932900000058,False,15
32M45,58,experiment,120,↓,right,→,1.1305646000000706,False,15
32M45,59,experiment,84,→,right,→,0.543421500000477,True,15
32M45,60,experiment,168,→,left,←,0.4552899000009347,False,15
32M45,61,experiment,36,↑,up,↑,0.6859162000000651,True,15
32M45,62,experiment,156,↓,down,↓,0.7818071999990934,True,15
32M45,63,experiment,84,↓,right,→,0.9276112999996258,False,15
32M45,64,experiment,144,↓,right,→,1.5526204999987385,False,15
32M45,65,experiment,156,↑,up,↑,1.1547018999990541,True,15
32M45,66,experiment,60,→,right,→,0.4487275999999838,True,15
32M45,67,experiment,48,↑,up,↑,1.121690400001171,True,15
32M45,68,experiment,60,→,right,→,0.5165975999989314,True,15
32M45,69,experiment,48,↓,down,↓,0.6379498000005697,True,15
32M45,70,experiment,144,→,right,→,0.825241400001687,True,15
32M45,71,experiment,72,←,left,←,0.7269298000010167,True,15
32M45,72,experiment,108,→,right,→,0.5399407999993855,True,15
32M45,73,experiment,24,↓,no_key,no_letter,-1.0,False,15
32M45,74,experiment,72,↑,right,→,0.7041641000014351,False,15
32M45,75,experiment,12,←,right,→,0.6239355000016076,False,15
32M45,76,experiment,84,←,left,←,0.6972808999998961,True,15
32M45,77,experiment,132,→,right,→,0.7364457999992737,True,15
32M45,78,experiment,132,←,left,←,0.5364236000004894,True,15
32M45,79,experiment,72,↑,up,↑,0.7290874000009353,True,15
32M45,80,experiment,120,↓,left,←,1.3755154000009497,False,15
32M45,81,experiment,84,→,right,→,0.6187430999998469,True,15
32M45,82,experiment,12,↑,right,→,0.7849009999990813,False,15
32M45,83,experiment,96,↑,down,↓,0.7729987000002438,False,15
32M45,84,experiment,120,→,right,→,0.8703384000000369,True,15
32M45,85,experiment,60,←,right,→,0.5478844999997818,False,15
32M45,86,experiment,108,↓,left,←,0.8890064000006532,False,15
32M45,87,experiment,24,←,left,←,0.4642512999998871,True,15
32M45,88,experiment,48,↓,right,→,0.592967900000076,False,15
32M45,89,experiment,132,←,right,→,0.6384725000007165,False,15
32M45,90,experiment,144,↑,up,↑,0.64693299999999,True,15
32M45,91,experiment,48,←,right,→,0.4292043999994348,False,15
32M45,92,experiment,12,↑,up,↑,0.6236952999988716,True,15
32M45,93,experiment,156,→,right,→,0.7104712000000291,True,15
32M45,94,training,12,←,left,←,0.4461028999994596,True,16
32M45,95,training,12,↓,up,↑,0.987793899999815,False,16
32M45,96,training,60,↓,down,↓,0.6704437000007601,True,16
32M45,97,experiment,84,↑,up,↑,0.577073600001313,True,16
32M45,98,experiment,24,↓,down,↓,0.5961709999992308,True,16
32M45,99,experiment,12,←,right,→,0.6243045999999595,False,16
32M45,100,experiment,144,→,up,↑,1.6678897999991023,False,16
32M45,101,experiment,24,→,right,→,0.7249567999988358,True,16
32M45,102,experiment,84,←,left,←,0.7188292999999248,True,16
32M45,103,experiment,84,→,right,→,0.5731899000002159,True,16
32M45,104,experiment,24,↓,down,↓,0.821594199998799,True,16
32M45,105,experiment,132,↓,down,↓,0.8513187999997172,True,16
32M45,106,experiment,36,→,right,→,0.6939872000002651,True,16
32M45,107,experiment,132,←,right,→,0.6359522999991896,False,16
32M45,108,experiment,120,↓,left,←,1.2590319999999338,False,16
32M45,109,experiment,108,↑,up,↑,1.6621044999992591,True,16
32M45,110,experiment,60,↓,down,↓,0.9075398999993922,True,16
32M45,111,experiment,144,←,left,←,1.3317067999996652,True,16
32M45,112,experiment,48,↓,down,↓,0.9038657000000967,True,16
32M45,113,experiment,60,→,down,↓,0.9826756000002206,False,16
32M45,114,experiment,48,→,left,←,1.2688566000015271,False,16
32M45,115,experiment,24,→,left,←,0.9594527999997808,False,16
32M45,116,experiment,72,↓,down,↓,0.7427795000003243,True,16
32M45,117,experiment,72,↓,down,↓,0.6720022999998037,True,16
32M45,118,experiment,60,←,right,→,0.7805747999991581,False,16
32M45,119,experiment,12,→,right,→,0.8655143999985739,True,16
32M45,120,experiment,84,↓,right,→,0.7767531999998027,False,16
32M45,121,experiment,12,↓,left,←,1.0509782999997697,False,16
32M45,122,experiment,168,↑,up,↑,1.2371627000011358,True,16
32M45,123,experiment,96,←,left,←,1.1192561000007117,True,16
32M45,124,experiment,180,↓,right,→,1.426048900000751,False,16
32M45,125,experiment,96,→,left,←,1.0807268000007753,False,16
32M45,126,experiment,180,↑,right,→,1.2235023000012006,False,16
32M45,127,experiment,144,↑,left,←,1.0726928999993106,False,16
32M45,128,experiment,96,←,left,←,0.917548600000373,True,16
32M45,129,experiment,180,↑,right,→,1.3769282000012026,False,16
32M45,130,experiment,156,→,right,→,0.6466055000000779,True,16
32M45,131,experiment,12,→,left,←,0.587425899999289,False,16
32M45,132,experiment,36,←,left,←,0.9404022999988229,True,16
32M45,133,experiment,180,↑,right,→,0.9730847999999241,False,16
32M45,134,experiment,156,↓,right,→,0.6900524000011501,False,16
32M45,135,experiment,48,←,left,←,0.7048979999999574,True,16
32M45,136,experiment,36,↑,left,←,1.4422061999994185,False,16
32M45,137,experiment,132,←,left,←,1.0440977000016574,True,16
32M45,138,experiment,60,↓,left,←,1.3959961000000476,False,16
32M45,139,experiment,120,←,right,→,0.8230280000007042,False,16
32M45,140,experiment,48,←,left,←,0.7691826000009314,True,16
32M45,141,experiment,156,←,left,←,0.9567994999997609,True,16
32M45,142,experiment,168,↑,up,↑,1.219097299999703,True,16
32M45,143,experiment,144,↑,left,←,0.8347233999993477,False,16
32M45,144,experiment,72,↑,up,↑,0.6623725999997987,True,16
32M45,145,experiment,72,↑,up,↑,0.7106764000000112,True,16
32M45,146,experiment,156,→,right,→,0.6882255000000441,True,16
32M45,147,experiment,108,↓,down,↓,0.7055880000007164,True,16
32M45,148,experiment,108,↑,left,←,1.5605682999994315,False,16
32M45,149,experiment,108,↑,left,←,1.0078826999997545,False,16
32M45,150,experiment,120,→,right,→,0.6840253999998822,True,16
32M45,151,experiment,168,↑,up,↑,0.6311272000002646,True,16
32M45,152,experiment,96,↑,up,↑,1.123295600000347,True,16
32M45,153,experiment,168,↑,up,↑,1.0218375000004016,True,16
32M45,154,experiment,120,←,left,←,1.0782392999990407,True,16
32M45,155,experiment,132,↑,up,↑,1.0621620999991137,True,16
32M45,156,experiment,36,←,left,←,0.8895899999988615,True,16
32M45,157,training,60,→,right,→,0.4718496999994386,True,16
32M45,158,training,84,↓,down,↓,0.6694231000001309,True,16
32M45,159,training,132,↑,down,↓,1.068970199999967,False,16
32M45,160,experiment,96,↓,down,↓,0.8450367999994342,True,16
32M45,161,experiment,108,←,left,←,0.8717333000004146,True,16
32M45,162,experiment,120,↑,up,↑,0.6816772999991372,True,16
32M45,163,experiment,96,↑,right,→,0.9027748999997129,False,16
32M45,164,experiment,24,↓,down,↓,0.9764826000009634,True,16
32M45,165,experiment,132,→,right,→,0.606938099999752,True,16
32M45,166,experiment,60,←,left,←,0.6387536000002001,True,16
32M45,167,experiment,108,↓,no_key,no_letter,-1.0,False,16
32M45,168,experiment,120,←,right,→,1.1087299999999232,False,16
32M45,169,experiment,156,↑,left,←,1.0557976000000053,False,16
32M45,170,experiment,132,↓,right,→,1.0435713999995642,False,16
32M45,171,experiment,84,←,left,←,0.5354495999999926,True,16
32M45,172,experiment,36,↑,up,↑,1.043402100000094,True,16
32M45,173,experiment,72,↓,down,↓,0.9042969000001904,True,16
32M45,174,experiment,24,↑,left,←,1.5031183999999485,False,16
32M45,175,experiment,48,←,left,←,0.6453754999984085,True,16
32M45,176,experiment,72,→,right,→,0.7656982999997126,True,16
32M45,177,experiment,12,←,right,→,0.8205022999991343,False,16
32M45,178,experiment,60,←,left,←,0.6697414999998728,True,16
32M45,179,experiment,156,↓,down,↓,0.8541879999993398,True,16
32M45,180,experiment,60,←,left,←,0.6702702999991743,True,16
32M45,181,experiment,144,←,left,←,0.6378625000015745,True,16
32M45,182,experiment,96,↓,down,↓,0.6582385999990947,True,16
32M45,183,experiment,12,→,right,→,1.2551817000003211,True,16
32M45,184,experiment,72,←,left,←,0.7198320000006788,True,16
32M45,185,experiment,96,↓,down,↓,0.8499891999999818,True,16
32M45,186,experiment,60,←,left,←,0.9131139000000985,True,16
32M45,187,experiment,180,←,left,←,1.4447777000004862,True,16
32M45,188,experiment,72,→,left,←,0.5929062000013801,False,16
32M45,189,experiment,120,↓,down,↓,1.3889648000003945,True,16
32M45,190,experiment,36,←,left,←,0.8985142999990785,True,16
32M45,191,experiment,48,↓,down,↓,0.6788097999997262,True,16
32M45,192,experiment,168,→,left,←,1.6270285999999032,False,16
32M45,193,experiment,168,→,right,→,0.6658048999997845,True,16
32M45,194,experiment,156,←,left,←,0.6918671999992512,True,16
32M45,195,experiment,84,←,left,←,0.6543810999992274,True,16
32M45,196,experiment,144,←,left,←,0.8135839000005944,True,16
32M45,197,experiment,156,←,left,←,0.6504335999998148,True,16
32M45,198,experiment,132,→,right,→,0.7597393000014563,True,16
32M45,199,experiment,108,→,right,→,0.8131980999987718,True,16
32M45,200,experiment,108,←,left,←,0.68926300000021,True,16
32M45,201,experiment,36,↓,right,→,1.0311695000000327,False,16
32M45,202,experiment,180,→,left,←,1.0968606999995245,False,16
32M45,203,experiment,144,↑,right,→,0.8431015999994997,False,16
32M45,204,experiment,132,↑,right,→,0.8612479000003077,False,16
32M45,205,experiment,168,→,left,←,0.6873419000003196,False,16
32M45,206,experiment,180,←,right,→,0.6243582999995851,False,16
32M45,207,experiment,144,←,left,←,0.58125629999995,True,16
32M45,208,experiment,12,↑,right,→,1.0163382999999158,False,16
32M45,209,experiment,84,←,right,→,0.687654700001076,False,16
32M45,210,experiment,180,←,right,→,0.8804380999990826,False,16
32M45,211,experiment,36,↓,down,↓,0.8245737999986886,True,16
32M45,212,experiment,48,←,right,→,0.9095797000009043,False,16
32M45,213,experiment,24,↓,down,↓,0.8216083999996044,True,16
32M45,214,experiment,84,→,right,→,0.6086147999994864,True,16
32M45,215,experiment,48,↑,right,→,0.7438753999995242,False,16
32M45,216,experiment,12,→,right,→,0.7253092000009929,True,16
32M45,217,experiment,24,↑,up,↑,0.9404561999999714,True,16
32M45,218,experiment,168,↑,up,↑,1.2088947000011103,True,16
32M45,219,experiment,120,↓,down,↓,0.7189474999995582,True,16
32M45,220,training,36,→,right,→,0.6342297999999573,True,16
32M45,221,training,180,→,right,→,0.7733841000008397,True,16
32M45,222,training,156,↑,right,→,0.7418490999989444,False,16
32M45,223,experiment,36,↑,up,↑,0.7840166999994835,True,16
32M45,224,experiment,72,↓,right,→,0.930409000000509,False,16
32M45,225,experiment,24,↓,down,↓,0.9916561999998521,True,16
32M45,226,experiment,24,→,right,→,0.6259036000010383,True,16
32M45,227,experiment,84,←,right,→,0.6353421000003436,False,16
32M45,228,experiment,24,↓,right,→,0.7784691999986535,False,16
32M45,229,experiment,108,↓,down,↓,0.725605199999336,True,16
32M45,230,experiment,168,↑,up,↑,1.0878646000001027,True,16
32M45,231,experiment,12,→,right,→,0.8250115999999252,True,16
32M45,232,experiment,60,←,left,←,0.7345126000000164,True,16
32M45,233,experiment,84,→,left,←,1.0989835000000312,False,16
32M45,234,experiment,12,→,right,→,0.6272073999989516,True,16
32M45,235,experiment,48,←,left,←,0.5773406000007526,True,16
32M45,236,experiment,72,→,left,←,1.5202175000013085,False,16
32M45,237,experiment,144,←,no_key,no_letter,-1.0,False,16
32M45,238,experiment,48,↑,up,↑,0.6395053999985976,True,16
32M45,239,experiment,168,↑,up,↑,0.6794129999998404,True,16
32M45,240,experiment,180,↑,up,↑,0.7040914999997767,True,16
32M45,241,experiment,168,→,right,→,0.6541054000008444,True,16
32M45,242,experiment,120,↑,up,↑,0.7703906999995525,True,16
32M45,243,experiment,96,↓,right,→,1.2600702999989153,False,16
32M45,244,experiment,72,↑,up,↑,1.7726873999999953,True,16
32M45,245,experiment,96,↑,left,←,1.3024382999992667,False,16
32M45,246,experiment,156,←,right,→,0.5541014999998879,False,16
32M45,247,experiment,60,→,left,←,0.8908506999996462,False,16
32M45,248,experiment,108,↑,up,↑,0.5899530000006052,True,16
32M45,249,experiment,12,↓,right,→,0.6595483000000968,False,16
32M45,250,experiment,84,←,right,→,0.6013628000000608,False,16
32M45,251,experiment,96,→,right,→,0.5883995000003779,True,16
32M45,252,experiment,36,↓,down,↓,0.8495782999998482,True,16
32M45,253,experiment,180,↑,up,↑,0.7112041000000318,True,16
32M45,254,experiment,180,←,left,←,0.6294247000005271,True,16
32M45,255,experiment,12,→,no_key,no_letter,-1.0,False,16
32M45,256,experiment,144,↓,right,→,0.7590522000009514,False,16
32M45,257,experiment,48,↑,up,↑,1.030326399999467,True,16
32M45,258,experiment,156,←,left,←,0.7831229000003077,True,16
32M45,259,experiment,84,←,left,←,1.00614140000107,True,16
32M45,260,experiment,120,↑,left,←,0.9595606999992015,False,16
32M45,261,experiment,48,↓,down,↓,0.8213804000006348,True,16
32M45,262,experiment,132,←,left,←,0.47416080000039074,True,16
32M45,263,experiment,60,↓,down,↓,0.7430997999999818,True,16
32M45,264,experiment,132,↑,down,↓,0.729539099998874,False,16
32M45,265,experiment,108,↓,down,↓,0.7579617999999755,True,16
32M45,266,experiment,180,↑,up,↑,1.2562964000007923,True,16
32M45,267,experiment,132,→,left,←,0.5424764999988838,False,16
32M45,268,experiment,120,↓,down,↓,0.8707947000002605,True,16
32M45,269,experiment,96,→,right,→,0.7262506999995821,True,16
32M45,270,experiment,132,→,right,→,0.51713700000073,True,16
32M45,271,experiment,36,→,right,→,0.7814448999997694,True,16
32M45,272,experiment,120,→,right,→,0.4864299000000756,True,16
32M45,273,experiment,168,↑,right,→,0.8277785999998741,False,16
32M45,274,experiment,144,↓,up,↑,0.7115415000007488,False,16
32M45,275,experiment,60,↑,right,→,0.676368000000366,False,16
32M45,276,experiment,36,←,left,←,0.9496208999989904,True,16
32M45,277,experiment,144,↓,down,↓,0.7873872999989544,True,16
32M45,278,experiment,24,←,no_key,no_letter,-1.0,False,16
32M45,279,experiment,156,→,right,→,1.135474400000021,True,16
32M45,280,experiment,72,←,left,←,0.6450411999994685,True,16
32M45,281,experiment,108,→,left,←,0.9178567999988445,False,16
32M45,282,experiment,156,↓,down,↓,1.0927754000003915,True,16
32M45,283,training,36,←,left,←,0.7346017999989272,True,16
32M45,284,training,60,→,right,→,0.6630260999991151,True,16
32M45,285,training,60,↓,down,↓,0.5873236999996152,True,16
32M45,286,experiment,24,↑,up,↑,0.6773529000001872,True,16
32M45,287,experiment,36,↓,down,↓,0.8993755999999848,True,16
32M45,288,experiment,120,→,right,→,0.6346594999995432,True,16
32M45,289,experiment,84,↓,down,↓,0.541727499999979,True,16
32M45,290,experiment,108,←,left,←,0.6454364999990503,True,16
32M45,291,experiment,96,←,left,←,0.6371620999998413,True,16
32M45,292,experiment,84,←,left,←,0.5951875999999174,True,16
32M45,293,experiment,36,→,left,←,0.7673473000013473,False,16
32M45,294,experiment,24,←,no_key,no_letter,-1.0,False,16
32M45,295,experiment,84,↑,down,↓,0.9128541999998561,False,16
32M45,296,experiment,120,←,right,→,1.2115459999986342,False,16
32M45,297,experiment,108,←,no_key,no_letter,-1.0,False,16
32M45,298,experiment,144,←,right,→,1.0248544000005495,False,16
32M45,299,experiment,144,↓,down,↓,0.6714026999998168,True,16
32M45,300,experiment,72,↑,up,↑,0.6625437000002421,True,16
32M45,301,experiment,48,↑,up,↑,0.7293399999998655,True,16
32M45,302,experiment,36,←,left,←,0.5740433999999368,True,16
32M45,303,experiment,72,→,right,→,0.5849007999986497,True,16
32M45,304,experiment,132,↓,down,↓,0.7417361999996501,True,16
32M45,305,experiment,168,↓,down,↓,0.7011481000008644,True,16
32M45,306,experiment,132,←,left,←,0.5509021999987453,True,16
32M45,307,experiment,12,↓,left,←,1.6892595999997866,False,16
32M45,308,experiment,48,↓,left,←,0.9857594999994035,False,16
32M45,309,experiment,156,←,no_key,no_letter,-1.0,False,16
32M45,310,experiment,108,←,left,←,0.7524794999990263,True,16
32M45,311,experiment,72,→,right,→,0.5861803000007058,True,16
32M45,312,experiment,48,→,right,→,0.7855335000003834,True,16
32M45,313,experiment,120,←,right,→,0.9446877000009408,False,16
32M45,314,experiment,96,↑,up,↑,1.0141562999997404,True,16
32M45,315,experiment,180,←,left,←,0.6250598999995418,True,16
32M45,316,experiment,132,←,left,←,1.0098800999985542,True,16
32M45,317,experiment,144,↑,up,↑,0.9468915999987075,True,16
32M45,318,experiment,168,↓,down,↓,0.8818909999990865,True,16
32M45,319,experiment,60,→,right,→,0.8864080999992439,True,16
32M45,320,experiment,36,←,left,←,0.5023825999996916,True,16
32M45,321,experiment,60,←,down,↓,1.070843800000148,False,16
32M45,322,experiment,96,↓,left,←,1.915099799998643,False,16
32M45,323,experiment,24,↑,right,→,0.9441074000005756,False,16
32M45,324,experiment,156,↓,up,↑,1.215967100000853,False,16
32M45,325,experiment,48,→,right,→,0.8387142999999924,True,16
32M45,326,experiment,132,→,right,→,0.7265659000004234,True,16
32M45,327,experiment,12,↑,up,↑,0.9158555000012711,True,16
32M45,328,experiment,156,↑,up,↑,0.8586288999995304,True,16
32M45,329,experiment,156,↑,up,↑,0.8406050999983563,True,16
32M45,330,experiment,12,→,right,→,0.6123477000001003,True,16
32M45,331,experiment,168,→,right,→,0.6652184999984456,True,16
32M45,332,experiment,84,↓,down,↓,0.7702160999997432,True,16
32M45,333,experiment,120,↑,down,↓,0.6448736999991524,False,16
32M45,334,experiment,96,↑,up,↑,0.6863904999991064,True,16
32M45,335,experiment,168,→,right,→,0.863799900000231,True,16
32M45,336,experiment,60,↑,up,↑,0.7240705999993224,True,16
32M45,337,experiment,12,←,right,→,1.4458594000006997,False,16
32M45,338,experiment,180,→,right,→,0.6088106000006519,True,16
32M45,339,experiment,180,↓,down,↓,0.7999029999991762,True,16
32M45,340,experiment,60,↑,down,↓,0.794990799999141,False,16
32M45,341,experiment,108,←,right,→,0.8423087999999552,False,16
32M45,342,experiment,180,→,right,→,0.5986023999994359,True,16
32M45,343,experiment,72,→,left,←,0.8093597000006412,False,16
32M45,344,experiment,144,←,right,→,1.0212368000011338,False,16
32M45,345,experiment,24,↓,down,↓,0.7191289000002143,True,16
32M45,346,training,156,←,left,←,0.6017589999992197,True,16
32M45,347,training,12,↓,down,↓,0.9853879000002053,True,16
32M45,348,training,96,↑,up,↑,0.6650248999994801,True,16
32M45,349,experiment,84,→,right,→,0.8545895999995992,True,16
32M45,350,experiment,84,→,right,→,0.5554807999997138,True,16
32M45,351,experiment,12,↑,up,↑,1.0959296000000904,True,16
32M45,352,experiment,60,↓,down,↓,0.7037356999990152,True,16
32M45,353,experiment,132,↑,up,↑,0.8577716999989207,True,16
32M45,354,experiment,12,↑,up,↑,0.5582226000005903,True,16
32M45,355,experiment,36,←,left,←,0.5295749999986583,True,16
32M45,356,experiment,48,←,left,←,0.6680474999993748,True,16
32M45,357,experiment,144,↑,down,↓,0.7341892000004009,False,16
32M45,358,experiment,60,↓,down,↓,0.6758224000004702,True,16
32M45,359,experiment,120,→,right,→,0.6314800000000105,True,16
32M45,360,experiment,24,↓,down,↓,0.7061087000001862,True,16
32M45,361,experiment,120,→,right,→,0.5564302999991924,True,16
32M45,362,experiment,144,←,left,←,1.00214269999924,True,16
32M45,363,experiment,180,↑,down,↓,0.7839253000001918,False,16
32M45,364,experiment,84,↓,down,↓,0.6571734000008291,True,16
32M45,365,experiment,72,→,right,→,0.7385357999992266,True,16
32M45,366,experiment,12,←,left,←,0.5951624000008451,True,16
32M45,367,experiment,36,↓,down,↓,0.7976103000000876,True,16
32M45,368,experiment,24,←,left,←,0.5623462999992626,True,16
32M45,369,experiment,72,↑,up,↑,0.7727347000000009,True,16
32M45,370,experiment,96,↑,down,↓,1.757443799999237,False,16
32M45,371,experiment,144,←,left,←,0.7319358000004286,True,16
32M45,372,experiment,72,←,left,←,0.7194729999991978,True,16
32M45,373,experiment,156,→,right,→,0.6404482000016287,True,16
32M45,374,experiment,96,↑,up,↑,0.767270100001042,True,16
32M45,375,experiment,120,→,right,→,1.786287999999331,True,16
32M45,376,experiment,108,→,right,→,0.6496215999995911,True,16
32M45,377,experiment,36,→,right,→,0.5533379999997123,True,16
32M45,378,experiment,180,↑,left,←,1.020530100000542,False,16
32M45,379,experiment,156,↓,down,↓,1.391228399999818,True,16
32M45,380,experiment,180,→,right,→,0.7313012999984494,True,16
32M45,381,experiment,108,←,left,←,1.0332675999998173,True,16
32M45,382,experiment,96,↑,right,→,1.6054655000007187,False,16
32M45,383,experiment,96,←,left,←,0.6497177999990527,True,16
32M45,384,experiment,48,↓,left,←,0.7203227000009065,False,16
32M45,385,experiment,144,↑,up,↑,0.694597599998815,True,16
32M45,386,experiment,156,←,left,←,0.6254790000002686,True,16
32M45,387,experiment,168,↓,down,↓,0.6661512999999104,True,16
32M45,388,experiment,36,←,left,←,0.8184864000013476,True,16
32M45,389,experiment,24,↑,up,↑,0.7923420999995869,True,16
32M45,390,experiment,60,←,left,←,0.7231020999988687,True,16
32M45,391,experiment,60,↓,down,↓,0.8837151999996422,True,16
32M45,392,experiment,132,↑,down,↓,0.7903525000001537,False,16
32M45,393,experiment,48,↑,down,↓,1.9134802000007767,False,16
32M45,394,experiment,48,←,left,←,0.63366490000044,True,16
32M45,395,experiment,168,↓,down,↓,0.8915976999996928,True,16
32M45,396,experiment,84,←,left,←,0.6584723999985727,True,16
32M45,397,experiment,168,→,right,→,0.6691010000013193,True,16
32M45,398,experiment,168,→,left,←,0.7185090000002674,False,16
32M45,399,experiment,108,←,right,→,0.670519699999204,False,16
32M45,400,experiment,132,↑,left,←,0.8349010999991151,False,16
32M45,401,experiment,120,←,no_key,no_letter,-1.0,False,16
32M45,402,experiment,24,↓,up,↑,1.0353023999996367,False,16
32M45,403,experiment,12,→,right,→,0.9257835000007617,True,16
32M45,404,experiment,108,↓,down,↓,0.6200642999992851,True,16
32M45,405,experiment,72,↑,left,←,1.058603999999832,False,16
32M45,406,experiment,132,↑,left,←,0.9419893000012962,False,16
32M45,407,experiment,180,↓,down,↓,0.8347660999988875,True,16
32M45,408,experiment,156,↑,down,↓,0.7401412999988679,False,16
32M45,409,training,120,↓,right,→,0.9170541999992565,False,16
32M45,410,training,48,↑,up,↑,0.5475114000000758,True,16
32M45,411,training,60,→,right,→,0.7028136999997514,True,16
32M45,412,experiment,24,↓,down,↓,0.566663100000369,True,16
32M45,413,experiment,144,←,right,→,0.5961471999999048,False,16
32M45,414,experiment,12,→,left,←,0.7732243000009476,False,16
32M45,415,experiment,168,→,left,←,0.9109661000002234,False,16
32M45,416,experiment,60,↑,up,↑,0.6361403000009886,True,16
32M45,417,experiment,72,→,right,→,0.774725600000238,True,16
32M45,418,experiment,180,↓,down,↓,0.7022054000008211,True,16
32M45,419,experiment,12,↑,up,↑,0.654513900000893,True,16
32M45,420,experiment,132,↓,right,→,0.8332534000001033,False,16
32M45,421,experiment,120,↓,up,↑,1.1663461999996798,False,16
32M45,422,experiment,156,↑,down,↓,0.7136288999990938,False,16
32M45,423,experiment,144,←,left,←,0.6463664999992034,True,16
32M45,424,experiment,48,↓,down,↓,1.0110726000002614,True,16
32M45,425,experiment,72,↑,up,↑,0.691519399999379,True,16
32M45,426,experiment,108,↑,up,↑,0.6924985000005108,True,16
32M45,427,experiment,120,→,right,→,0.6681938999990962,True,16
32M45,428,experiment,180,→,right,→,0.5379129000011744,True,16
32M45,429,experiment,36,↓,right,→,1.0404256999991048,False,16
32M45,430,experiment,96,↑,left,←,0.9407542999997531,False,16
32M45,431,experiment,48,→,left,←,0.9260771999997814,False,16
32M45,432,experiment,144,←,left,←,0.6639505999992252,True,16
32M45,433,experiment,96,↑,up,↑,0.6107991000008042,True,16
32M45,434,experiment,168,↓,left,←,0.9443479000001389,False,16
32M45,435,experiment,120,←,right,→,1.2581059000003734,False,16
32M45,436,experiment,36,↓,left,←,1.1198356999993848,False,16
32M45,437,experiment,24,←,left,←,0.6454485000012937,True,16
32M45,438,experiment,84,↑,left,←,0.8140896999993856,False,16
32M45,439,experiment,84,↓,down,↓,0.8087155999983224,True,16
32M45,440,experiment,120,←,left,←,0.7382701000005909,True,16
32M45,441,experiment,132,↑,up,↑,1.8723430999998527,True,16
32M45,442,experiment,72,↓,down,↓,0.6773771999996825,True,16
32M45,443,experiment,132,↓,left,←,0.990991299999223,False,16
32M45,444,experiment,180,↑,down,↓,0.8778420000016922,False,16
32M45,445,experiment,12,↑,up,↑,0.7021127999996679,True,16
32M45,446,experiment,156,→,right,→,0.633188900001187,True,16
32M45,447,experiment,36,↓,down,↓,0.4807972000016889,True,16
32M45,448,experiment,24,→,left,←,0.8411030999996001,False,16
32M45,449,experiment,96,↑,up,↑,0.887548999999126,True,16
32M45,450,experiment,96,←,left,←,0.7948924000011175,True,16
32M45,451,experiment,84,↓,left,←,1.0059721999987232,False,16
32M45,452,experiment,144,←,left,←,0.7015821000004507,True,16
32M45,453,experiment,60,→,right,→,0.6723814999986644,True,16
32M45,454,experiment,132,↓,left,←,0.6680668999997579,False,16
32M45,455,experiment,12,→,right,→,0.7374034999993455,True,16
32M45,456,experiment,36,↑,up,↑,0.6075898999988567,True,16
32M45,457,experiment,108,←,left,←,0.4722950999985187,True,16
32M45,458,experiment,168,↓,up,↑,1.3005821000006108,False,16
32M45,459,experiment,60,←,left,←,0.4673887000008108,True,16
32M45,460,experiment,60,←,left,←,0.6195551000000705,True,16
32M45,461,experiment,108,↑,up,↑,0.7160930999998527,True,16
32M45,462,experiment,168,←,left,←,0.5162373000002844,True,16
32M45,463,experiment,180,↑,up,↑,0.7400522000007186,True,16
32M45,464,experiment,48,↓,down,↓,0.9911969999993744,True,16
32M45,465,experiment,48,↓,down,↓,0.7223386000005121,True,16
32M45,466,experiment,72,→,left,←,0.7143952999995236,False,16
32M45,467,experiment,84,←,right,→,0.8119129999995494,False,16
32M45,468,experiment,108,↓,left,←,1.0852825000001758,False,16
32M45,469,experiment,156,←,left,←,0.730344800000239,True,16
32M45,470,experiment,24,→,right,→,0.5326698999997461,True,16
32M45,471,experiment,156,↑,up,↑,0.7456971000010526,True,16
32M45,472,training,132,↓,down,↓,0.8523709999990388,True,16
32M45,473,training,156,→,right,→,0.8587509999997565,True,16
32M45,474,training,144,↑,up,↑,1.5391182000003027,True,16
32M45,475,experiment,108,←,left,←,0.6489428000004409,True,16
32M45,476,experiment,36,←,left,←,0.4798283000000083,True,16
32M45,477,experiment,24,→,right,→,0.5601996000004874,True,16
32M45,478,experiment,132,↑,right,→,1.351090900001509,False,16
32M45,479,experiment,60,←,left,←,0.6708851000003051,True,16
32M45,480,experiment,156,↓,left,←,0.7402638000003208,False,16
32M45,481,experiment,24,↑,up,↑,0.6773321000000578,True,16
32M45,482,experiment,156,↓,down,↓,0.7606737999994948,True,16
32M45,483,experiment,96,↑,down,↓,1.6118375000005472,False,16
32M45,484,experiment,132,→,right,→,0.5745526000009704,True,16
32M45,485,experiment,48,↑,up,↑,0.8107405000009749,True,16
32M45,486,experiment,48,←,left,←,0.5531441999992239,True,16
32M45,487,experiment,60,←,left,←,0.5771555000010267,True,16
32M45,488,experiment,120,→,right,→,0.6874255999991874,True,16
32M45,489,experiment,180,↓,down,↓,0.9237766000005649,True,16
32M45,490,experiment,60,↑,right,→,0.7340897000012774,False,16
32M45,491,experiment,144,←,left,←,0.7574380999994901,True,16
32M45,492,experiment,180,←,left,←,0.9596075999997993,True,16
32M45,493,experiment,144,←,left,←,0.7374466999990545,True,16
32M45,494,experiment,84,↑,up,↑,0.8965165999998135,True,16
32M45,495,experiment,96,↓,up,↑,1.0723907000010513,False,16
32M45,496,experiment,72,↓,down,↓,0.7014249999992899,True,16
32M45,497,experiment,48,←,right,→,0.6557736000013392,False,16
32M45,498,experiment,168,→,right,→,0.7178621999992174,True,16
32M45,499,experiment,48,↓,down,↓,0.8450120999987121,True,16
32M45,500,experiment,168,↑,right,→,0.7447761999992508,False,16
32M45,501,experiment,12,↓,left,←,1.0874275999995007,False,16
32M45,502,experiment,36,→,right,→,1.2556957000015245,True,16
32M45,503,experiment,132,←,left,←,0.6769598000009864,True,16
32M45,504,experiment,72,→,right,→,0.5840978000014729,True,16
32M45,505,experiment,60,→,right,→,0.8860915999994177,True,16
32M45,506,experiment,144,←,left,←,0.6184668999994756,True,16
32M45,507,experiment,72,↓,down,↓,0.9070756999990408,True,16
32M45,508,experiment,12,↓,down,↓,0.5837327999997797,True,16
32M45,509,experiment,180,→,left,←,0.7631471999993664,False,16
32M45,510,experiment,84,←,left,←,0.4764617000000726,True,16
32M45,511,experiment,156,↑,left,←,1.1109173000004375,False,16
32M45,512,experiment,168,↑,left,←,0.7816030999983923,False,16
32M45,513,experiment,156,←,left,←,0.6253023999997822,True,16
32M45,514,experiment,132,←,right,→,1.1330665000004956,False,16
32M45,515,experiment,108,→,left,←,1.0842893999997614,False,16
32M45,516,experiment,36,←,left,←,0.755517300000065,True,16
32M45,517,experiment,144,←,left,←,0.677474500000244,True,16
32M45,518,experiment,72,→,right,→,0.7534888999998657,True,16
32M45,519,experiment,120,↑,down,↓,0.7159750999999233,False,16
32M45,520,experiment,84,↓,down,↓,0.7639201000001776,True,16
32M45,521,experiment,12,↑,down,↓,1.4575098999994225,False,16
32M45,522,experiment,12,↓,down,↓,0.6038924999993469,True,16
32M45,523,experiment,24,↓,down,↓,0.6316322999991826,True,16
32M45,524,experiment,84,↓,down,↓,0.6562195999995311,True,16
32M45,525,experiment,96,←,left,←,0.6678762000010465,True,16
32M45,526,experiment,168,→,left,←,0.6203447000007145,False,16
32M45,527,experiment,120,←,left,←,0.586108299999978,True,16
32M45,528,experiment,120,→,left,←,0.5125842999987071,False,16
32M45,529,experiment,36,→,right,→,1.2791563999999198,True,16
32M45,530,experiment,24,→,right,→,0.4919344000009005,True,16
32M45,531,experiment,108,←,right,→,0.6994771999998193,False,16
32M45,532,experiment,180,↓,down,↓,1.0056453000015608,True,16
32M45,533,experiment,96,←,left,←,0.6670028999997157,True,16
32M45,534,experiment,108,→,right,→,0.6309930999996141,True,16
32M45,535,training,144,←,left,←,0.9420241999996506,True,16
32M45,536,training,120,↑,up,↑,0.9720216999994591,True,16
32M45,537,training,108,←,left,←,0.7064169000004767,True,16
32M45,538,experiment,120,←,left,←,0.6691790999993827,True,16
32M45,539,experiment,12,↑,left,←,1.6797355999988213,False,16
32M45,540,experiment,12,←,left,←,0.46612479999930656,True,16
32M45,541,experiment,108,↑,left,←,1.186434699999154,False,16
32M45,542,experiment,36,→,right,→,0.7030985000001237,True,16
32M45,543,experiment,156,←,left,←,0.631401000000551,True,16
32M45,544,experiment,144,↑,left,←,0.889376799999809,False,16
32M45,545,experiment,12,↓,up,↑,0.9983862999997655,False,16
32M45,546,experiment,96,↑,up,↑,0.8520552000009047,True,16
32M45,547,experiment,84,↑,up,↑,0.6545705999997153,True,16
32M45,548,experiment,72,→,right,→,0.7093373000006977,True,16
32M45,549,experiment,96,↑,up,↑,0.8095275999985461,True,16
32M45,550,experiment,120,↓,up,↑,0.8934365000004618,False,16
32M45,551,experiment,168,→,right,→,0.6368585999989591,True,16
32M45,552,experiment,156,→,right,→,0.5689908000003925,True,16
32M45,553,experiment,84,↓,up,↑,0.7836647999993147,False,16
32M45,554,experiment,60,↓,right,→,1.3145206999997754,False,16
32M45,555,experiment,72,↓,right,→,0.7093660999998974,False,16
32M45,556,experiment,180,→,right,→,0.7155307000011817,True,16
32M45,557,experiment,24,↓,right,→,1.2004256999989593,False,16
32M45,558,experiment,156,→,right,→,0.6544419999991078,True,16
32M45,559,experiment,84,→,right,→,0.9219142999991163,True,16
32M45,560,experiment,180,↑,right,→,0.7224810999996407,False,16
32M45,561,experiment,96,↓,right,→,0.9735302000008232,False,16
32M45,562,experiment,72,→,right,→,0.679258000000118,True,16
32M45,563,experiment,48,↑,up,↑,0.9214311999985512,True,16
32M45,564,experiment,120,→,right,→,0.6009114999997109,True,16
32M45,565,experiment,24,←,right,→,0.7938224999998056,False,16
32M45,566,experiment,96,←,right,→,1.8859948000008444,False,16
32M45,567,experiment,72,←,left,←,0.7840054000007513,True,16
32M45,568,experiment,24,↑,no_key,no_letter,-1.0,False,16
32M45,569,experiment,12,→,right,→,1.5668994000006933,True,16
32M45,570,experiment,60,↓,right,→,0.7757902000012109,False,16
32M45,571,experiment,132,↓,left,←,0.9925640000001295,False,16
32M45,572,experiment,144,↓,down,↓,0.8170618000003742,True,16
32M45,573,experiment,36,←,no_key,no_letter,-1.0,False,16
32M45,574,experiment,48,←,left,←,1.058438699999897,True,16
32M45,575,experiment,132,↑,up,↑,0.6900771999989956,True,16
32M45,576,experiment,36,↓,down,↓,0.6943463000006886,True,16
32M45,577,experiment,108,→,right,→,0.7121051000012812,True,16
32M45,578,experiment,144,↓,down,↓,0.7117574000003515,True,16
32M45,579,experiment,24,↓,down,↓,0.5546726000011404,True,16
32M45,580,experiment,84,↑,up,↑,0.9256715000010445,True,16
32M45,581,experiment,36,→,right,→,0.6242246999991039,True,16
32M45,582,experiment,132,←,left,←,0.45548479999888514,True,16
32M45,583,experiment,60,←,left,←,0.7870357000010699,True,16
32M45,584,experiment,144,↓,down,↓,0.7224135999986174,True,16
32M45,585,experiment,108,↓,down,↓,0.6796560000002501,True,16
32M45,586,experiment,168,←,left,←,0.6274499999999534,True,16
32M45,587,experiment,48,→,left,←,0.5714630999991641,False,16
32M45,588,experiment,120,→,right,→,0.5967335000004823,True,16
32M45,589,experiment,180,←,right,→,0.7375738999999157,False,16
32M45,590,experiment,156,←,right,→,0.6511736000011297,False,16
32M45,591,experiment,168,↑,up,↑,0.7366932000004454,True,16
32M45,592,experiment,48,→,right,→,0.5324992000005295,True,16
32M45,593,experiment,180,↓,down,↓,1.7720659999995405,True,16
32M45,594,experiment,132,↓,down,↓,0.8762623999991774,True,16
32M45,595,experiment,168,↑,down,↓,0.9184921999985818,False,16
32M45,596,experiment,60,↓,down,↓,0.5723347000002832,True,16
32M45,597,experiment,108,→,right,→,0.5573241999991296,True,16
32M45,598,training,84,←,left,←,0.5945561000007729,True,16
32M45,599,training,144,→,right,→,0.5688384999994014,True,16
32M45,600,training,108,↓,down,↓,0.6449434999994992,True,16
32M45,601,experiment,168,↓,down,↓,0.5800651000008656,True,16
32M45,602,experiment,108,↑,down,↓,0.5972569000005024,False,16
32M45,603,experiment,48,↓,down,↓,0.6150755000016943,True,16
32M45,604,experiment,60,←,left,←,0.7011095999987447,True,16
32M45,605,experiment,144,↓,down,↓,0.769077599999946,True,16
32M45,606,experiment,120,←,left,←,0.5593532000002597,True,16
32M45,607,experiment,72,↑,down,↓,0.8848775999995269,False,16
32M45,608,experiment,156,←,left,←,0.6583479999990232,True,16
32M45,609,experiment,120,←,left,←,0.4579316999988805,True,16
32M45,610,experiment,120,↓,down,↓,1.2637460000005376,True,16
32M45,611,experiment,84,→,right,→,0.6890158999995037,True,16
32M45,612,experiment,48,→,right,→,0.48066560000006575,True,16
32M45,613,experiment,120,↓,right,→,1.2681651999992027,False,16
32M45,614,experiment,108,→,right,→,0.6377541999991081,True,16
32M45,615,experiment,72,↑,right,→,0.8550641999991058,False,16
32M45,616,experiment,144,→,right,→,0.7802585999997973,True,16
32M45,617,experiment,24,↑,up,↑,0.7358060000005935,True,16
32M45,618,experiment,84,→,right,→,1.2688787999995839,True,16
32M45,619,experiment,60,←,right,→,0.900210199999492,False,16
32M45,620,experiment,72,↓,up,↑,0.8340885000015987,False,16
32M45,621,experiment,132,↑,up,↑,0.7466614000004483,True,16
32M45,622,experiment,60,←,left,←,0.6184628999999404,True,16
32M45,623,experiment,36,↑,up,↑,0.7310129000015877,True,16
32M45,624,experiment,156,←,left,←,0.4560748000003514,True,16
32M45,625,experiment,168,←,right,→,0.6897704999992129,False,16
32M45,626,experiment,96,↓,down,↓,0.6659621999988303,True,16
32M45,627,experiment,144,↓,down,↓,0.6134552000003168,True,16
32M45,628,experiment,180,↑,up,↑,0.715306199999759,True,16
32M45,629,experiment,180,↑,down,↓,0.6544952000003832,False,16
32M45,630,experiment,156,←,left,←,0.5283003999993525,True,16
32M45,631,experiment,132,→,down,↓,0.8268971999987116,False,16
32M45,632,experiment,24,→,right,→,0.6646684000006644,True,16
32M45,633,experiment,180,←,right,→,0.9083105999998224,False,16
32M45,634,experiment,72,↑,right,→,0.7394755000004807,False,16
32M45,635,experiment,168,←,left,←,1.2056868999989092,True,16
32M45,636,experiment,96,↓,down,↓,0.7328333999994356,True,16
32M45,637,experiment,96,↑,down,↓,1.0533905000011146,False,16
32M45,638,experiment,84,→,right,→,0.6629357999991043,True,16
32M45,639,experiment,12,↑,up,↑,0.9695482999995875,True,16
32M45,640,experiment,156,↑,up,↑,0.8241039999993518,True,16
32M45,641,experiment,24,←,left,←,0.7113240999988193,True,16
32M45,642,experiment,96,↑,up,↑,1.0686378999998851,True,16
32M45,643,experiment,12,→,left,←,0.7380009000007703,False,16
32M45,644,experiment,48,→,left,←,0.4357486000008066,False,16
32M45,645,experiment,24,↓,left,←,1.032849700000952,False,16
32M45,646,experiment,168,←,left,←,0.6476818000010098,True,16
32M45,647,experiment,180,←,left,←,0.6642424000001483,True,16
32M45,648,experiment,12,←,right,→,0.9130967000000965,False,16
32M45,649,experiment,108,↑,down,↓,0.8841680000004999,False,16
32M45,650,experiment,12,→,left,←,1.0039570999997522,False,16
32M45,651,experiment,108,↑,left,←,0.6908530999990035,False,16
32M45,652,experiment,48,↑,down,↓,1.132446900001014,False,16
32M45,653,experiment,144,↑,down,↓,0.7912446999998792,False,16
32M45,654,experiment,36,↓,down,↓,0.8814548999998806,True,16
32M45,655,experiment,36,←,left,←,0.6886703000000125,True,16
32M45,656,experiment,60,↑,up,↑,0.6737467000002653,True,16
32M45,657,experiment,84,→,right,→,0.7574163999997836,True,16
32M45,658,experiment,36,↑,up,↑,0.8623038000005181,True,16
32M45,659,experiment,132,↓,down,↓,0.6995511000004626,True,16
32M45,660,experiment,132,↓,up,↑,0.9588079999994079,False,16
32M45,661,training,72,↓,down,↓,0.9271662999999535,True,16
32M45,662,training,156,↑,up,↑,0.9017408999989129,True,16
32M45,663,training,108,→,right,→,0.8644561000000976,True,16
32M45,664,experiment,96,→,right,→,0.7181041999992885,True,16
32M45,665,experiment,72,↑,left,←,0.9281995999990613,False,16
32M45,666,experiment,108,↑,left,←,0.8748367999996844,False,16
32M45,667,experiment,156,→,right,→,0.752251800000522,True,16
32M45,668,experiment,96,↑,up,↑,0.8095453999994788,True,16
32M45,669,experiment,24,↓,down,↓,0.7282248000010441,True,16
32M45,670,experiment,156,→,right,→,0.6072363000002952,True,16
32M45,671,experiment,132,↑,up,↑,0.688306800000646,True,16
32M45,672,experiment,120,→,right,→,0.7114758000006987,True,16
32M45,673,experiment,156,↓,up,↑,1.1492065000002185,False,16
32M45,674,experiment,84,→,right,→,0.6170201999993878,True,16
32M45,675,experiment,60,→,left,←,0.7514169000005495,False,16
32M45,676,experiment,144,↓,right,→,0.7719426000003295,False,16
32M45,677,experiment,24,↓,left,←,1.4171949999999924,False,16
32M45,678,experiment,36,↓,down,↓,0.7494685000001482,True,16
32M45,679,experiment,168,→,right,→,0.584295700000439,True,16
32M45,680,experiment,12,←,no_key,no_letter,-1.0,False,16
32M45,681,experiment,168,↑,left,←,0.33387869999933173,False,16
32M45,682,experiment,108,→,left,←,1.5910316000008606,False,16
32M45,683,experiment,12,→,right,→,0.632568100001663,True,16
32M45,684,experiment,12,↑,up,↑,0.5999869000006584,True,16
32M45,685,experiment,132,↓,up,↑,0.8480978999996296,False,16
32M45,686,experiment,36,←,left,←,0.6322931999984576,True,16
32M45,687,experiment,72,↓,down,↓,0.8919480999993539,True,16
32M45,688,experiment,12,↑,down,↓,0.6677455999997619,False,16
32M45,689,experiment,144,→,right,→,0.6402351999986422,True,16
32M45,690,experiment,84,↑,up,↑,0.6547418999998627,True,16
32M45,691,experiment,144,←,right,→,0.6512414000007993,False,16
32M45,692,experiment,120,←,left,←,0.767575099998794,True,16
32M45,693,experiment,144,←,left,←,0.9713469999987865,True,16
32M45,694,experiment,36,←,left,←,0.5289743000012095,True,16
32M45,695,experiment,180,↓,left,←,0.8319383999987622,False,16
32M45,696,experiment,132,→,right,→,0.8955131000002439,True,16
32M45,697,experiment,120,↓,left,←,0.7659322999988945,False,16
32M45,698,experiment,132,→,left,←,0.9020328000005975,False,16
32M45,699,experiment,120,↑,no_key,no_letter,-1.0,False,16
32M45,700,experiment,36,↓,no_key,no_letter,-1.0,False,16
32M45,701,experiment,84,↓,no_key,no_letter,-1.0,False,16
32M45,702,experiment,168,↑,no_key,no_letter,-1.0,False,16
32M45,703,experiment,180,↑,up,↑,0.7557261000001745,True,16
32M45,704,experiment,24,←,left,←,0.4668931000014709,True,16
32M45,705,experiment,180,←,left,←,0.690542499998628,True,16
32M45,706,experiment,156,→,right,→,0.5500898000009329,True,16
32M45,707,experiment,48,←,left,←,0.676272799999424,True,16
32M45,708,experiment,48,→,right,→,0.5932675000003655,True,16
32M45,709,experiment,60,↓,down,↓,0.7834037999982684,True,16
32M45,710,experiment,60,↓,down,↓,0.7491165999999794,True,16
32M45,711,experiment,96,←,left,←,0.5341608999988239,True,16
32M45,712,experiment,48,←,left,←,0.556376900000032,True,16
32M45,713,experiment,72,↑,up,↑,0.8398924000011903,True,16
32M45,714,experiment,108,↑,down,↓,0.6447122000008676,False,16
32M45,715,experiment,96,↓,down,↓,0.6142791999991459,True,16
32M45,716,experiment,72,↑,up,↑,0.6182229000005464,True,16
32M45,717,experiment,180,↓,down,↓,0.7112931000010576,True,16
32M45,718,experiment,108,↓,up,↑,0.8323882999993657,False,16
32M45,719,experiment,48,→,right,→,0.5999474000000191,True,16
32M45,720,experiment,60,→,right,→,0.550376099999994,True,16
32M45,721,experiment,84,→,right,→,0.5039042999997037,True,16
32M45,722,experiment,168,←,left,←,0.762826900001528,True,16
32M45,723,experiment,24,↓,up,↑,1.6084614999999758,False,16
32M45,724,training,132,→,right,→,0.4466757999998663,True,16
32M45,725,training,144,→,right,→,0.6875837000006868,True,16
32M45,726,training,72,↓,down,↓,0.8327153000009275,True,16
32M45,727,experiment,132,←,left,←,0.6141496000000188,True,16
32M45,728,experiment,168,↓,down,↓,0.6796525000008842,True,16
32M45,729,experiment,108,←,left,←,0.7445706000016798,True,16
32M45,730,experiment,48,↓,down,↓,0.8269188000012946,True,16
32M45,731,experiment,120,→,right,→,0.6042790000010427,True,16
32M45,732,experiment,72,→,right,→,0.6576359999999113,True,16
32M45,733,experiment,108,↑,up,↑,0.7800712000007479,True,16
32M45,734,experiment,180,↓,down,↓,0.7675065000003087,True,16
32M45,735,experiment,24,↓,left,←,1.066772400001355,False,16
32M45,736,experiment,132,→,right,→,0.8853873999996722,True,16
32M45,737,experiment,60,←,left,←,0.696279499999946,True,16
32M45,738,experiment,48,↑,up,↑,0.6653683999993518,True,16
32M45,739,experiment,96,←,left,←,0.6957691000006889,True,16
32M45,740,experiment,120,←,right,→,0.9566407999991497,False,16
32M45,741,experiment,156,↑,up,↑,0.665080400000079,True,16
32M45,742,experiment,84,←,left,←,0.5943627999986347,True,16
32M45,743,experiment,72,←,left,←,0.6954820999999356,True,16
32M45,744,experiment,48,↑,up,↑,0.887303299999985,True,16
32M45,745,experiment,168,←,left,←,0.6551951000001281,True,16
32M45,746,experiment,60,↓,left,←,0.8017997999995714,False,16
32M45,747,experiment,12,↓,left,←,1.1033336000000418,False,16
32M45,748,experiment,144,→,left,←,1.7407043000002886,False,16
32M45,749,experiment,180,←,left,←,0.6419391999988875,True,16
32M45,750,experiment,60,←,left,←,0.44719420000001264,True,16
32M45,751,experiment,168,↑,up,↑,0.6919742000009137,True,16
32M45,752,experiment,84,→,left,←,0.5139297999994596,False,16
32M45,753,experiment,144,←,left,←,0.4519569000003685,True,16
32M45,754,experiment,156,→,right,→,0.759457600001042,True,16
32M45,755,experiment,12,↑,no_key,no_letter,-1.0,False,16
32M45,756,experiment,108,←,left,←,0.7615617999999813,True,16
32M45,757,experiment,36,↓,left,←,1.2504019000007247,False,16
32M45,758,experiment,36,→,right,→,0.6775485999987723,True,16
32M45,759,experiment,12,→,right,→,0.6906113000004552,True,16
32M45,760,experiment,24,←,left,←,0.6547716000004584,True,16
32M45,761,experiment,24,↓,down,↓,0.9004838000000746,True,16
32M45,762,experiment,36,→,right,→,0.8666458000006969,True,16
32M45,763,experiment,168,↑,left,←,0.7988736999996036,False,16
32M45,764,experiment,36,←,left,←,0.6033280999999988,True,16
32M45,765,experiment,180,↑,up,↑,0.8592215000007855,True,16
32M45,766,experiment,96,→,right,→,0.7474930999997014,True,16
32M45,767,experiment,84,→,left,←,1.0853282000007312,False,16
32M45,768,experiment,156,←,left,←,0.6917346999998699,True,16
32M45,769,experiment,72,←,left,←,0.7251338999994914,True,16
32M45,770,experiment,60,↓,up,↑,0.9684063999993668,False,16
32M45,771,experiment,72,↓,down,↓,0.9725093999986711,True,16
32M45,772,experiment,12,←,no_key,no_letter,-1.0,False,16
32M45,773,experiment,48,↑,left,←,1.038644899999781,False,16
32M45,774,experiment,144,↓,down,↓,0.748693400000775,True,16
32M45,775,experiment,156,←,left,←,0.6068107000010059,True,16
32M45,776,experiment,96,↓,down,↓,0.9392713000015647,True,16
32M45,777,experiment,180,↓,down,↓,0.5788229000008869,True,16
32M45,778,experiment,24,↓,down,↓,1.1596255999993446,True,16
32M45,779,experiment,132,↑,no_key,no_letter,-1.0,False,16
32M45,780,experiment,84,←,left,←,0.5264193999992131,True,16
32M45,781,experiment,96,↑,up,↑,0.7872557000009692,True,16
32M45,782,experiment,120,←,left,←,0.5986673000006704,True,16
32M45,783,experiment,120,↓,down,↓,0.7198523999995814,True,16
32M45,784,experiment,108,←,left,←,0.6302462000003288,True,16
32M45,785,experiment,144,↓,down,↓,0.6715148000002955,True,16
32M45,786,experiment,132,←,left,←,0.7269863000001351,True,16
32M45,787,training,120,→,left,←,0.9521555999999691,False,16
32M45,788,training,156,↑,up,↑,1.1628376000007847,True,16
32M45,789,training,84,↓,left,←,0.7530093999994278,False,16
32M45,790,experiment,60,↓,down,↓,0.7630341000003682,True,16
32M45,791,experiment,96,↓,down,↓,0.6794712999999319,True,16
32M45,792,experiment,60,←,left,←,0.8224737000000459,True,16
32M45,793,experiment,120,→,right,→,0.6960281000010582,True,16
32M45,794,experiment,180,→,right,→,0.898404000001392,True,16
32M45,795,experiment,168,↓,down,↓,0.7773082999992766,True,16
32M45,796,experiment,24,↓,left,←,1.044057499999326,False,16
32M45,797,experiment,24,↑,no_key,no_letter,-1.0,False,16
32M45,798,experiment,48,↑,left,←,0.40062569999827247,False,16
32M45,799,experiment,156,→,right,→,1.2804388999993535,True,16
32M45,800,experiment,48,←,left,←,0.7532919000004767,True,16
32M45,801,experiment,72,←,no_key,no_letter,-1.0,False,16
32M45,802,experiment,120,→,right,→,0.9678497000004427,True,16
32M45,803,experiment,24,↓,no_key,no_letter,-1.0,False,16
32M45,804,experiment,72,→,right,→,0.9298776999985421,True,16
32M45,805,experiment,48,↑,up,↑,0.9487980000012612,True,16
32M45,806,experiment,72,↑,up,↑,0.9920359999996435,True,16
32M45,807,experiment,144,↑,left,←,1.3112907000013365,False,16
32M45,808,experiment,132,↑,up,↑,0.6623746000004758,True,16
32M45,809,experiment,12,←,right,→,1.0587341999998898,False,16
32M45,810,experiment,156,↓,left,←,1.6408075999988796,False,16
32M45,811,experiment,12,↓,right,→,1.5593866999988677,False,16
32M45,812,experiment,180,↑,up,↑,0.804431200000181,True,16
32M45,813,experiment,168,↓,down,↓,0.7219670999984373,True,16
32M45,814,experiment,108,→,right,→,0.6762011999999231,True,16
32M45,815,experiment,36,↓,right,→,1.3496954000002006,False,16
32M45,816,experiment,96,↓,down,↓,1.1478501000001415,True,16
32M45,817,experiment,144,←,left,←,0.6008710000005522,True,16
32M45,818,experiment,156,↑,up,↑,1.312414500000159,True,16
32M45,819,experiment,36,→,left,←,0.767256199998883,False,16
32M45,820,experiment,168,←,left,←,0.710481100000834,True,16
32M45,821,experiment,96,↑,no_key,no_letter,-1.0,False,16
32M45,822,experiment,12,↓,no_key,no_letter,-1.0,False,16
32M45,823,experiment,12,→,right,→,0.6217434000009234,True,16
32M45,824,experiment,144,←,right,→,0.6099118999991333,False,16
32M45,825,experiment,108,↑,up,↑,0.9065434999993158,True,16
32M45,826,experiment,48,←,left,←,0.6729082999991078,True,16
32M45,827,experiment,36,↑,up,↑,0.5686722999998892,True,16
32M45,828,experiment,156,→,right,→,0.7933508999994956,True,16
32M45,829,experiment,96,↓,left,←,1.086476999998922,False,16
32M45,830,experiment,84,↓,left,←,0.9835096999995585,False,16
32M45,831,experiment,36,↓,up,↑,0.9297504000005574,False,16
32M45,832,experiment,72,↑,up,↑,0.7343146000002889,True,16
32M45,833,experiment,180,↓,down,↓,0.6299891999988176,True,16
32M45,834,experiment,168,→,left,←,1.1239363999993657,False,16
32M45,835,experiment,60,←,right,→,0.8900876000006974,False,16
32M45,836,experiment,132,↑,down,↓,0.9913565999995626,False,16
32M45,837,experiment,84,←,left,←,0.8027787000009994,True,16
32M45,838,experiment,108,←,right,→,0.7055755000001227,False,16
32M45,839,experiment,180,↓,down,↓,0.8976937000006728,True,16
32M45,840,experiment,60,←,left,←,0.842950700000074,True,16
32M45,841,experiment,120,↑,left,←,0.6517015999997966,False,16
32M45,842,experiment,144,←,left,←,0.707874300000185,True,16
32M45,843,experiment,120,←,left,←,0.5985075000007782,True,16
32M45,844,experiment,132,→,right,→,0.5612418000000616,True,16
32M45,845,experiment,84,←,left,←,0.630621100001008,True,16
32M45,846,experiment,108,→,right,→,0.46849350000047707,True,16
32M45,847,experiment,24,→,right,→,0.5221292999995057,True,16
32M45,848,experiment,84,←,left,←,0.6368218000006891,True,16
32M45,849,experiment,132,→,right,→,0.598371699999916,True,16
