PART_ID,Trial_no,Trial_type,PDI,Stim_letter,Key_pressed,letter_choose,Rt,Corr,Stimulus Time
3A-MK2912K28,1,training,10,←,left,←,1.6928842999623157,True,30
3A-MK2912K28,2,training,10,↓,left,←,1.0368368999916129,False,30
3A-MK2912K28,3,training,10,↓,right,→,0.8466524999821559,False,30
3A-MK2912K28,4,training,10,↓,down,↓,1.0173912000027485,True,30
3A-MK2912K28,5,training,10,↑,up,↑,1.0257446999894455,True,30
3A-MK2912K28,6,training,10,←,left,←,1.0509375000256114,True,30
3A-MK2912K28,7,training,10,→,right,→,0.8360400999663398,True,30
3A-MK2912K28,8,training,10,→,right,→,1.4421511000255123,True,30
3A-MK2912K28,9,training,10,↓,down,↓,0.9384500000160187,True,30
3A-MK2912K28,10,training,10,↑,up,↑,0.928378899989184,True,30
3A-MK2912K28,11,training,10,→,right,→,0.7448619999922812,True,30
3A-MK2912K28,12,training,10,↑,up,↑,0.7930309000075795,True,30
3A-MK2912K28,13,training,10,→,right,→,0.7269402000238188,True,30
3A-MK2912K28,14,training,10,←,left,←,0.9240255000186153,True,30
3A-MK2912K28,15,training,10,↓,left,←,1.003937900008168,False,30
3A-MK2912K28,16,training,10,↓,down,↓,0.969333499961067,True,30
3A-MK2912K28,17,training,10,↑,right,→,0.8670571999973617,False,30
3A-MK2912K28,18,training,10,↓,up,↑,0.9759121999959461,False,30
3A-MK2912K28,19,training,10,←,right,→,0.7180687999934889,False,30
3A-MK2912K28,20,training,10,→,left,←,0.8074156999937259,False,30
3A-MK2912K28,21,training,10,↓,up,↑,0.6695920000202022,False,18
3A-MK2912K28,22,training,10,→,right,→,0.6767290999996476,True,18
3A-MK2912K28,23,training,10,←,left,←,1.0246030999696814,True,18
3A-MK2912K28,24,training,10,↓,down,↓,0.8112779000075534,True,18
3A-MK2912K28,25,training,10,→,right,→,0.7344523000065237,True,18
3A-MK2912K28,26,training,10,→,right,→,0.963129999989178,True,18
3A-MK2912K28,27,training,10,↓,down,↓,0.8245148999849334,True,18
3A-MK2912K28,28,training,10,←,left,←,0.8901331999804825,True,18
3A-MK2912K28,29,training,10,→,right,→,0.5187550999689847,True,18
3A-MK2912K28,30,training,10,←,left,←,0.7248498999979347,True,18
3A-MK2912K28,31,training,84,←,left,←,0.9130941000184976,True,15
3A-MK2912K28,32,training,96,←,left,←,0.5497292999643832,True,15
3A-MK2912K28,33,training,132,←,right,→,0.6739794000168331,False,15
3A-MK2912K28,34,experiment,36,↓,left,←,1.0791954000014812,False,15
3A-MK2912K28,35,experiment,120,→,right,→,0.5283711000229232,True,15
3A-MK2912K28,36,experiment,132,↓,left,←,0.7380613000132143,False,15
3A-MK2912K28,37,experiment,84,↑,up,↑,0.8162957000313327,True,15
3A-MK2912K28,38,experiment,12,↓,down,↓,1.101777600008063,True,15
3A-MK2912K28,39,experiment,72,↓,down,↓,0.7637540000141598,True,15
3A-MK2912K28,40,experiment,156,→,right,→,0.7964692999958061,True,15
3A-MK2912K28,41,experiment,168,↓,down,↓,0.9259623000398278,True,15
3A-MK2912K28,42,experiment,144,←,right,→,0.7254568999633193,False,15
3A-MK2912K28,43,experiment,108,↓,up,↑,0.7589465999626555,False,15
3A-MK2912K28,44,experiment,12,←,left,←,0.8399597000097856,True,15
3A-MK2912K28,45,experiment,24,↓,down,↓,0.6709508000058122,True,15
3A-MK2912K28,46,experiment,84,→,left,←,0.777612199948635,False,15
3A-MK2912K28,47,experiment,156,↓,up,↑,0.6998075000010431,False,15
3A-MK2912K28,48,experiment,120,↓,right,→,0.6485957000404596,False,15
3A-MK2912K28,49,experiment,60,←,right,→,0.6565480999997817,False,15
3A-MK2912K28,50,experiment,180,↑,up,↑,0.7618509999592789,True,15
3A-MK2912K28,51,experiment,12,←,left,←,0.6844281999510713,True,15
3A-MK2912K28,52,experiment,132,↓,down,↓,0.8578850000048988,True,15
3A-MK2912K28,53,experiment,96,←,right,→,0.6345311000477523,False,15
3A-MK2912K28,54,experiment,144,↓,right,→,0.5912766000255942,False,15
3A-MK2912K28,55,experiment,72,↓,right,→,0.7154581999639049,False,15
3A-MK2912K28,56,experiment,48,←,right,→,0.8551720999530517,False,15
3A-MK2912K28,57,experiment,24,↓,right,→,0.9375508999801241,False,15
3A-MK2912K28,58,experiment,168,←,left,←,0.7621362000354566,True,15
3A-MK2912K28,59,experiment,180,↓,up,↑,1.3272007000050507,False,15
3A-MK2912K28,60,experiment,24,←,left,←,0.9198565999977291,True,15
3A-MK2912K28,61,experiment,84,↑,down,↓,0.8555729000363499,False,15
3A-MK2912K28,62,experiment,132,→,left,←,1.0863215000135824,False,15
3A-MK2912K28,63,experiment,132,↑,right,→,0.7512503999751061,False,15
3A-MK2912K28,64,experiment,96,↓,left,←,0.8275418000412174,False,15
3A-MK2912K28,65,experiment,60,↓,left,←,0.9188590000267141,False,15
3A-MK2912K28,66,experiment,156,←,left,←,1.2888663000194356,True,15
3A-MK2912K28,67,experiment,12,↑,up,↑,0.798308499972336,True,15
3A-MK2912K28,68,experiment,60,→,right,→,0.8979158000438474,True,15
3A-MK2912K28,69,experiment,180,↓,right,→,0.7844508999842219,False,15
3A-MK2912K28,70,experiment,108,↑,left,←,0.8090626999619417,False,15
3A-MK2912K28,71,experiment,48,→,right,→,0.8010283999610692,True,15
3A-MK2912K28,72,experiment,156,↑,right,→,0.6892914000200108,False,15
3A-MK2912K28,73,experiment,96,↑,up,↑,1.0676967999897897,True,15
3A-MK2912K28,74,experiment,48,↑,up,↑,0.7703754000249319,True,15
3A-MK2912K28,75,experiment,108,↓,right,→,0.8875150999519974,False,15
3A-MK2912K28,76,experiment,108,↓,left,←,0.7689076999668032,False,15
3A-MK2912K28,77,experiment,96,→,up,↑,0.7552964999922551,False,15
3A-MK2912K28,78,experiment,144,↓,right,→,0.7121982999960892,False,15
3A-MK2912K28,79,experiment,120,↑,up,↑,0.7480966000002809,True,15
3A-MK2912K28,80,experiment,168,↓,right,→,0.7266448000445962,False,15
3A-MK2912K28,81,experiment,36,←,left,←,0.783350599987898,True,15
3A-MK2912K28,82,experiment,48,↑,up,↑,0.7692676999722607,True,15
3A-MK2912K28,83,experiment,60,←,right,→,0.6785289999679662,False,15
3A-MK2912K28,84,experiment,36,→,left,←,0.7848855999764055,False,15
3A-MK2912K28,85,experiment,84,←,left,←,0.7317424999782816,True,15
3A-MK2912K28,86,experiment,24,→,right,→,0.8434322000248358,True,15
3A-MK2912K28,87,experiment,72,↑,right,→,0.7153706999961287,False,15
3A-MK2912K28,88,experiment,120,↑,left,←,0.7274778000428341,False,15
3A-MK2912K28,89,experiment,36,↑,right,→,0.7369877999881282,False,15
3A-MK2912K28,90,experiment,180,↓,left,←,1.2466082000173628,False,15
3A-MK2912K28,91,experiment,144,←,left,←,0.7512570999679156,True,15
3A-MK2912K28,92,experiment,168,↓,right,→,0.720122899976559,False,15
3A-MK2912K28,93,experiment,72,↓,left,←,0.8604849000112154,False,15
3A-MK2912K28,94,training,36,↓,left,←,1.0874296000110917,False,16
3A-MK2912K28,95,training,180,↓,right,→,0.8974321999703534,False,16
3A-MK2912K28,96,training,36,↑,up,↑,0.781780700024683,True,16
3A-MK2912K28,97,experiment,144,←,left,←,0.8143983000190929,True,16
3A-MK2912K28,98,experiment,24,→,right,→,0.7873232000274584,True,16
3A-MK2912K28,99,experiment,144,←,left,←,0.7542596999555826,True,16
3A-MK2912K28,100,experiment,156,↓,down,↓,0.7688800999894738,True,16
3A-MK2912K28,101,experiment,132,←,right,→,0.6129507999867201,False,16
3A-MK2912K28,102,experiment,84,↑,up,↑,0.7205792000168003,True,16
3A-MK2912K28,103,experiment,108,←,right,→,0.9343441000091843,False,16
3A-MK2912K28,104,experiment,168,↓,up,↑,0.7054607999743894,False,16
3A-MK2912K28,105,experiment,168,→,right,→,0.7707342999638058,True,16
3A-MK2912K28,106,experiment,144,↑,left,←,0.8628281999845058,False,16
3A-MK2912K28,107,experiment,60,↑,up,↑,0.8838599000009708,True,16
3A-MK2912K28,108,experiment,168,↓,down,↓,0.9049704999779351,True,16
3A-MK2912K28,109,experiment,48,↓,down,↓,0.9960549999959767,True,16
3A-MK2912K28,110,experiment,60,↓,up,↑,0.831778799998574,False,16
3A-MK2912K28,111,experiment,156,→,right,→,0.8480559999588877,True,16
3A-MK2912K28,112,experiment,60,→,right,→,0.7851904999697581,True,16
3A-MK2912K28,113,experiment,12,↑,left,←,0.9163073999807239,False,16
3A-MK2912K28,114,experiment,96,↑,left,←,0.8555689000058919,False,16
3A-MK2912K28,115,experiment,132,→,right,→,0.8355069999815896,True,16
3A-MK2912K28,116,experiment,84,↑,left,←,0.9347841000417247,False,16
3A-MK2912K28,117,experiment,108,↓,down,↓,0.7930214999942109,True,16
3A-MK2912K28,118,experiment,180,←,left,←,0.7994885999942198,True,16
3A-MK2912K28,119,experiment,72,→,right,→,0.8081977000110783,True,16
3A-MK2912K28,120,experiment,12,↑,up,↑,0.8552958000218496,True,16
3A-MK2912K28,121,experiment,96,↑,down,↓,0.8989416999975219,False,16
3A-MK2912K28,122,experiment,48,←,left,←,0.6002085999934934,True,16
3A-MK2912K28,123,experiment,156,↑,up,↑,0.710656699957326,True,16
3A-MK2912K28,124,experiment,144,→,right,→,0.7553910000133328,True,16
3A-MK2912K28,125,experiment,72,←,left,←,0.6892220000154339,True,16
3A-MK2912K28,126,experiment,24,↓,up,↑,0.827404799987562,False,16
3A-MK2912K28,127,experiment,168,↓,down,↓,0.6794940000399947,True,16
3A-MK2912K28,128,experiment,24,→,left,←,0.781876299995929,False,16
3A-MK2912K28,129,experiment,120,→,left,←,1.0388287999667227,False,16
3A-MK2912K28,130,experiment,132,↑,up,↑,0.7562650999752805,True,16
3A-MK2912K28,131,experiment,96,↑,down,↓,0.9904256000299938,False,16
3A-MK2912K28,132,experiment,108,↑,up,↑,0.9580273000174202,True,16
3A-MK2912K28,133,experiment,36,→,right,→,0.7776287999586202,True,16
3A-MK2912K28,134,experiment,120,↓,up,↑,0.8922699999529868,False,16
3A-MK2912K28,135,experiment,36,↑,up,↑,1.0493855999666266,True,16
3A-MK2912K28,136,experiment,84,→,right,→,0.6779506999882869,True,16
3A-MK2912K28,137,experiment,180,↓,up,↑,0.6699938999954611,False,16
3A-MK2912K28,138,experiment,108,→,left,←,0.818618300021626,False,16
3A-MK2912K28,139,experiment,12,→,right,→,0.7842896999791265,True,16
3A-MK2912K28,140,experiment,48,↓,down,↓,0.6301402999670245,True,16
3A-MK2912K28,141,experiment,36,↓,up,↑,0.7576956000411883,False,16
3A-MK2912K28,142,experiment,72,←,left,←,0.6142678000032902,True,16
3A-MK2912K28,143,experiment,180,↓,down,↓,0.9909010999836028,True,16
3A-MK2912K28,144,experiment,84,←,right,→,0.9122976000071503,False,16
3A-MK2912K28,145,experiment,48,↑,up,↑,0.6602300999802537,True,16
3A-MK2912K28,146,experiment,72,→,right,→,0.7150143000180833,True,16
3A-MK2912K28,147,experiment,24,↓,down,↓,0.9767580999759957,True,16
3A-MK2912K28,148,experiment,96,↓,up,↑,0.8791146000148728,False,16
3A-MK2912K28,149,experiment,36,↓,up,↑,0.8471029999782331,False,16
3A-MK2912K28,150,experiment,60,←,left,←,0.5651656999834813,True,16
3A-MK2912K28,151,experiment,156,↓,right,→,0.7196269999840297,False,16
3A-MK2912K28,152,experiment,132,↓,left,←,0.9739256000029854,False,16
3A-MK2912K28,153,experiment,180,←,left,←,0.7204160999972373,True,16
3A-MK2912K28,154,experiment,120,↑,up,↑,0.6001659000176005,True,16
3A-MK2912K28,155,experiment,12,→,right,→,1.169205599988345,True,16
3A-MK2912K28,156,experiment,120,←,left,←,0.5797035000286996,True,16
3A-MK2912K28,157,training,48,→,right,→,0.701763299992308,True,16
3A-MK2912K28,158,training,108,↓,up,↑,1.1414131000055932,False,16
3A-MK2912K28,159,training,60,→,right,→,0.6424236000166275,True,16
3A-MK2912K28,160,experiment,72,↓,up,↑,0.856589300034102,False,16
3A-MK2912K28,161,experiment,84,←,left,←,0.8350599000114016,True,16
3A-MK2912K28,162,experiment,108,←,left,←,0.8264454000163823,True,16
3A-MK2912K28,163,experiment,48,↑,up,↑,0.7412840999895707,True,16
3A-MK2912K28,164,experiment,36,←,right,→,0.8678919000085443,False,16
3A-MK2912K28,165,experiment,132,→,right,→,0.6835035000112839,True,16
3A-MK2912K28,166,experiment,24,→,right,→,0.7533579000155441,True,16
3A-MK2912K28,167,experiment,48,←,left,←,0.780128100013826,True,16
3A-MK2912K28,168,experiment,96,→,right,→,0.5606460999697447,True,16
3A-MK2912K28,169,experiment,156,↑,up,↑,0.6825117000262253,True,16
3A-MK2912K28,170,experiment,168,←,left,←,0.702333900029771,True,16
3A-MK2912K28,171,experiment,144,→,right,→,0.7535791000118479,True,16
3A-MK2912K28,172,experiment,72,↓,up,↑,0.9914353000349365,False,16
3A-MK2912K28,173,experiment,84,←,right,→,0.6534889999893494,False,16
3A-MK2912K28,174,experiment,168,←,left,←,0.7250182999996468,True,16
3A-MK2912K28,175,experiment,180,↓,up,↑,0.6844079999718815,False,16
3A-MK2912K28,176,experiment,84,↑,up,↑,0.7348200000124052,True,16
3A-MK2912K28,177,experiment,108,↑,up,↑,0.723014300048817,True,16
3A-MK2912K28,178,experiment,120,→,right,→,0.6655805000336841,True,16
3A-MK2912K28,179,experiment,120,→,right,→,0.6590527999796905,True,16
3A-MK2912K28,180,experiment,108,↑,up,↑,1.0129263999988325,True,16
3A-MK2912K28,181,experiment,12,↑,left,←,1.1179666999960318,False,16
3A-MK2912K28,182,experiment,168,↑,right,→,0.6739784000092186,False,16
3A-MK2912K28,183,experiment,120,→,right,→,0.7496584000182338,True,16
3A-MK2912K28,184,experiment,180,→,right,→,0.7003385999705642,True,16
3A-MK2912K28,185,experiment,60,↓,up,↑,0.7241945000132546,False,16
3A-MK2912K28,186,experiment,132,↓,up,↑,0.9201444999780506,False,16
3A-MK2912K28,187,experiment,72,↓,down,↓,0.7109504000400193,True,16
3A-MK2912K28,188,experiment,36,→,right,→,0.6690155999967828,True,16
3A-MK2912K28,189,experiment,36,→,right,→,0.7183590999920852,True,16
3A-MK2912K28,190,experiment,156,↑,left,←,0.9467729000025429,False,16
3A-MK2912K28,191,experiment,156,↑,left,←,0.9014631999889389,False,16
3A-MK2912K28,192,experiment,120,→,right,→,0.646357599995099,True,16
3A-MK2912K28,193,experiment,72,↑,up,↑,0.6894136999617331,True,16
3A-MK2912K28,194,experiment,12,←,left,←,0.7282630000263453,True,16
3A-MK2912K28,195,experiment,144,←,left,←,0.8251621999661438,True,16
3A-MK2912K28,196,experiment,60,←,left,←,0.8584605000214651,True,16
3A-MK2912K28,197,experiment,132,→,left,←,0.699475999979768,False,16
3A-MK2912K28,198,experiment,96,→,right,→,0.5872290999977849,True,16
3A-MK2912K28,199,experiment,24,↑,up,↑,0.6681326999678276,True,16
3A-MK2912K28,200,experiment,180,→,right,→,0.8413448999635875,True,16
3A-MK2912K28,201,experiment,48,↓,up,↑,0.8874065999989398,False,16
3A-MK2912K28,202,experiment,48,←,left,←,0.7965205000364222,True,16
3A-MK2912K28,203,experiment,84,↓,up,↑,0.7493491999921389,False,16
3A-MK2912K28,204,experiment,24,↓,down,↓,0.7083888999768533,True,16
3A-MK2912K28,205,experiment,144,↑,left,←,0.665280899964273,False,16
3A-MK2912K28,206,experiment,24,↓,right,→,0.8418828999856487,False,16
3A-MK2912K28,207,experiment,180,→,right,→,0.5566641000332311,True,16
3A-MK2912K28,208,experiment,132,↑,left,←,0.76384660002077,False,16
3A-MK2912K28,209,experiment,168,↓,right,→,0.6814454999985173,False,16
3A-MK2912K28,210,experiment,36,↑,left,←,0.7775826000142843,False,16
3A-MK2912K28,211,experiment,12,←,left,←,0.8188509000465274,True,16
3A-MK2912K28,212,experiment,156,↑,up,↑,0.9619501999695785,True,16
3A-MK2912K28,213,experiment,108,←,right,→,0.7125846999697387,False,16
3A-MK2912K28,214,experiment,144,→,right,→,0.6935497000231408,True,16
3A-MK2912K28,215,experiment,60,→,right,→,0.7411387000465766,True,16
3A-MK2912K28,216,experiment,96,↑,right,→,0.7286466999794357,False,16
3A-MK2912K28,217,experiment,96,↓,right,→,0.667017699975986,False,16
3A-MK2912K28,218,experiment,12,←,left,←,1.0398282000096515,True,16
3A-MK2912K28,219,experiment,60,↓,right,→,1.0487582999630831,False,16
3A-MK2912K28,220,training,144,←,right,→,0.8988866999861784,False,16
3A-MK2912K28,221,training,180,↑,right,→,0.5960698000271805,False,16
3A-MK2912K28,222,training,36,←,left,←,0.7368263999815099,True,16
3A-MK2912K28,223,experiment,156,←,left,←,0.5994066999992356,True,16
3A-MK2912K28,224,experiment,132,↑,left,←,0.6791680000023916,False,16
3A-MK2912K28,225,experiment,132,↑,right,→,0.5480543000157923,False,16
3A-MK2912K28,226,experiment,48,←,left,←,0.7264407000038773,True,16
3A-MK2912K28,227,experiment,72,←,left,←,0.8384020000230521,True,16
3A-MK2912K28,228,experiment,96,→,right,→,0.6452894000103697,True,16
3A-MK2912K28,229,experiment,180,↑,left,←,0.6932240999885835,False,16
3A-MK2912K28,230,experiment,48,↓,left,←,0.7855964999762364,False,16
3A-MK2912K28,231,experiment,24,↓,left,←,0.7173760999576189,False,16
3A-MK2912K28,232,experiment,24,↑,right,→,0.6957485000020824,False,16
3A-MK2912K28,233,experiment,36,↑,left,←,0.698615700006485,False,16
3A-MK2912K28,234,experiment,168,↑,left,←,0.7608225999865681,False,16
3A-MK2912K28,235,experiment,108,↓,right,→,0.6819610999664292,False,16
3A-MK2912K28,236,experiment,24,↓,left,←,0.7462736999732442,False,16
3A-MK2912K28,237,experiment,108,↓,right,→,0.5816805000067689,False,16
3A-MK2912K28,238,experiment,96,↓,left,←,0.7127462000353262,False,16
3A-MK2912K28,239,experiment,156,→,right,→,0.6753624000120908,True,16
3A-MK2912K28,240,experiment,36,→,right,→,0.6740158000029624,True,16
3A-MK2912K28,241,experiment,120,↓,right,→,0.6239382000057958,False,16
3A-MK2912K28,242,experiment,48,↓,left,←,0.7326978999772109,False,16
3A-MK2912K28,243,experiment,156,↑,up,↑,0.8354906000313349,True,16
3A-MK2912K28,244,experiment,144,↑,up,↑,1.0439669000334106,True,16
3A-MK2912K28,245,experiment,168,↓,down,↓,0.7748883999884129,True,16
3A-MK2912K28,246,experiment,144,↓,down,↓,0.7307759000104852,True,16
3A-MK2912K28,247,experiment,60,↓,up,↑,0.9105477000121027,False,16
3A-MK2912K28,248,experiment,60,→,right,→,0.6928495999891311,True,16
3A-MK2912K28,249,experiment,72,↓,left,←,0.8356436000321992,False,16
3A-MK2912K28,250,experiment,156,←,right,→,0.7345809999969788,False,16
3A-MK2912K28,251,experiment,144,↑,right,→,0.6586243999772705,False,16
3A-MK2912K28,252,experiment,96,→,left,←,0.8042431999929249,False,16
3A-MK2912K28,253,experiment,132,←,left,←,0.8236230999464169,True,16
3A-MK2912K28,254,experiment,180,→,right,→,0.6919313999824226,True,16
3A-MK2912K28,255,experiment,180,↑,left,←,0.7055107999476604,False,16
3A-MK2912K28,256,experiment,36,↑,up,↑,0.827010499953758,True,16
3A-MK2912K28,257,experiment,12,←,left,←,0.6664435000275262,True,16
3A-MK2912K28,258,experiment,168,←,left,←,0.6579385999939404,True,16
3A-MK2912K28,259,experiment,72,←,left,←,0.6279034999897704,True,16
3A-MK2912K28,260,experiment,96,↓,down,↓,0.7333176000392996,True,16
3A-MK2912K28,261,experiment,120,←,left,←,0.7701560000423342,True,16
3A-MK2912K28,262,experiment,84,↓,down,↓,0.6013474999926984,True,16
3A-MK2912K28,263,experiment,120,↓,down,↓,0.7156302999937907,True,16
3A-MK2912K28,264,experiment,48,→,right,→,0.5894606999936514,True,16
3A-MK2912K28,265,experiment,60,→,right,→,0.631379900034517,True,16
3A-MK2912K28,266,experiment,132,↑,down,↓,0.6578032000106759,False,16
3A-MK2912K28,267,experiment,108,↓,down,↓,0.7800318999798037,True,16
3A-MK2912K28,268,experiment,144,↑,down,↓,0.602836899983231,False,16
3A-MK2912K28,269,experiment,108,↑,right,→,0.6781791999819688,False,16
3A-MK2912K28,270,experiment,12,→,right,→,0.8113371999934316,True,16
3A-MK2912K28,271,experiment,180,←,right,→,0.668530999973882,False,16
3A-MK2912K28,272,experiment,12,→,right,→,0.6382456999854185,True,16
3A-MK2912K28,273,experiment,36,↓,right,→,0.7929426000337116,False,16
3A-MK2912K28,274,experiment,84,↓,right,→,0.8217216999619268,False,16
3A-MK2912K28,275,experiment,72,→,right,→,0.6691137999878265,True,16
3A-MK2912K28,276,experiment,84,↓,down,↓,0.7365993999992497,True,16
3A-MK2912K28,277,experiment,24,→,right,→,1.0672437999746762,True,16
3A-MK2912K28,278,experiment,60,↑,down,↓,0.7120300000533462,False,16
3A-MK2912K28,279,experiment,12,↑,right,→,0.9462431999854743,False,16
3A-MK2912K28,280,experiment,84,←,right,→,0.7275920999818482,False,16
3A-MK2912K28,281,experiment,120,→,right,→,0.6243123000022024,True,16
3A-MK2912K28,282,experiment,168,→,right,→,0.6383492000168189,True,16
3A-MK2912K28,283,training,84,↑,right,→,0.6446032000239938,False,17
3A-MK2912K28,284,training,108,→,right,→,0.6507709000143223,True,17
3A-MK2912K28,285,training,144,→,right,→,0.5477045999723487,True,17
3A-MK2912K28,286,experiment,168,→,left,←,0.9301484000170603,False,17
3A-MK2912K28,287,experiment,84,←,right,→,0.5097621000022627,False,17
3A-MK2912K28,288,experiment,156,→,right,→,0.8594304000143893,True,17
3A-MK2912K28,289,experiment,24,↑,left,←,0.811524200020358,False,17
3A-MK2912K28,290,experiment,120,→,right,→,0.5461450999719091,True,17
3A-MK2912K28,291,experiment,144,←,left,←,0.8062596000381745,True,17
3A-MK2912K28,292,experiment,120,→,right,→,0.46142119995784014,True,17
3A-MK2912K28,293,experiment,96,→,right,→,0.6660530000226572,True,17
3A-MK2912K28,294,experiment,96,←,right,→,0.821168199996464,False,17
3A-MK2912K28,295,experiment,72,←,left,←,0.6703205000376329,True,17
3A-MK2912K28,296,experiment,120,←,right,→,0.6448952999780886,False,17
3A-MK2912K28,297,experiment,12,←,right,→,0.5959421999868937,False,17
3A-MK2912K28,298,experiment,72,→,right,→,0.6485413999762386,True,17
3A-MK2912K28,299,experiment,168,←,left,←,0.7172486000345089,True,17
3A-MK2912K28,300,experiment,72,↓,right,→,0.6049569000024348,False,17
3A-MK2912K28,301,experiment,36,→,right,→,0.5740922999684699,True,17
3A-MK2912K28,302,experiment,48,→,right,→,0.5844442999805324,True,17
3A-MK2912K28,303,experiment,180,↓,right,→,0.6457116000237875,False,17
3A-MK2912K28,304,experiment,24,←,left,←,0.6498783000279218,True,17
3A-MK2912K28,305,experiment,108,↑,up,↑,1.1097459999728017,True,17
3A-MK2912K28,306,experiment,12,↓,up,↑,0.8933159000007436,False,17
3A-MK2912K28,307,experiment,180,→,right,→,0.6811936000012793,True,17
3A-MK2912K28,308,experiment,60,↓,no_key,no_letter,-1.0,False,17
3A-MK2912K28,309,experiment,72,↓,right,→,0.7194545000093058,False,17
3A-MK2912K28,310,experiment,24,←,left,←,0.7705275999614969,True,17
3A-MK2912K28,311,experiment,60,→,right,→,0.9783305000164546,True,17
3A-MK2912K28,312,experiment,24,←,right,→,0.8035395000479184,False,17
3A-MK2912K28,313,experiment,48,→,right,→,0.8878935999819078,True,17
3A-MK2912K28,314,experiment,36,↑,right,→,1.5023146999883465,False,17
3A-MK2912K28,315,experiment,180,→,right,→,1.5418389000114985,True,17
3A-MK2912K28,316,experiment,48,↑,up,↑,1.0434949999907985,True,17
3A-MK2912K28,317,experiment,84,←,right,→,1.1177497999742627,False,17
3A-MK2912K28,318,experiment,96,↑,up,↑,1.5370879999827594,True,17
3A-MK2912K28,319,experiment,132,→,right,→,1.1642394999507815,True,17
3A-MK2912K28,320,experiment,48,↑,left,←,0.8389398000435904,False,17
3A-MK2912K28,321,experiment,12,←,up,↑,0.9713217999669723,False,17
3A-MK2912K28,322,experiment,156,→,left,←,0.5792595999664627,False,17
3A-MK2912K28,323,experiment,132,←,right,→,0.5030631000408903,False,17
3A-MK2912K28,324,experiment,60,↓,up,↑,0.7986006999853998,False,17
3A-MK2912K28,325,experiment,36,↑,up,↑,0.7408372000209056,True,17
3A-MK2912K28,326,experiment,144,→,left,←,0.7417159999604337,False,17
3A-MK2912K28,327,experiment,180,→,left,←,0.5284851000178605,False,17
3A-MK2912K28,328,experiment,168,→,no_key,no_letter,-1.0,False,17
3A-MK2912K28,329,experiment,120,↓,up,↑,0.746686199971009,False,17
3A-MK2912K28,330,experiment,144,→,right,→,0.5441800000262447,True,17
3A-MK2912K28,331,experiment,108,←,up,↑,0.7938419000129215,False,17
3A-MK2912K28,332,experiment,60,←,left,←,0.732591699983459,True,17
3A-MK2912K28,333,experiment,108,↓,right,→,0.5628429999924265,False,17
3A-MK2912K28,334,experiment,156,←,right,→,0.6515981999691576,False,17
3A-MK2912K28,335,experiment,84,→,left,←,0.5279788000043482,False,17
3A-MK2912K28,336,experiment,84,↑,up,↑,0.8378354999586008,True,17
3A-MK2912K28,337,experiment,36,↓,left,←,0.6620421999832615,False,17
3A-MK2912K28,338,experiment,96,←,up,↑,0.7316971000400372,False,17
3A-MK2912K28,339,experiment,108,↑,right,→,0.7040565999923274,False,17
3A-MK2912K28,340,experiment,144,↑,up,↑,0.9536348000401631,True,17
3A-MK2912K28,341,experiment,132,←,left,←,0.9721598000032827,True,17
3A-MK2912K28,342,experiment,156,→,right,→,0.5716867000446655,True,17
3A-MK2912K28,343,experiment,168,↓,right,→,0.6496537000057288,False,17
3A-MK2912K28,344,experiment,132,←,right,→,0.5401565000065602,False,17
3A-MK2912K28,345,experiment,12,↓,right,→,0.6151374999899417,False,17
3A-MK2912K28,346,training,24,→,right,→,0.6564137000241317,True,18
3A-MK2912K28,347,training,72,→,right,→,0.5063769000116736,True,18
3A-MK2912K28,348,training,144,↑,right,→,0.5463180999504402,False,18
3A-MK2912K28,349,experiment,48,→,left,←,0.5365277999662794,False,18
3A-MK2912K28,350,experiment,180,↑,right,→,1.5597256000037305,False,18
3A-MK2912K28,351,experiment,24,↑,up,↑,1.3714525999967009,True,18
3A-MK2912K28,352,experiment,36,→,left,←,0.6937468000105582,False,18
3A-MK2912K28,353,experiment,120,↓,up,↑,1.038155399961397,False,18
3A-MK2912K28,354,experiment,156,↓,right,→,1.015210899990052,False,18
3A-MK2912K28,355,experiment,84,←,right,→,1.2738040999975055,False,18
3A-MK2912K28,356,experiment,60,←,left,←,0.9112624999834225,True,18
3A-MK2912K28,357,experiment,96,→,right,→,0.6858896000194363,True,18
3A-MK2912K28,358,experiment,36,↓,left,←,0.7376671999809332,False,18
3A-MK2912K28,359,experiment,24,↓,up,↑,0.9147723999922164,False,18
3A-MK2912K28,360,experiment,108,←,right,→,0.6991249000420794,False,18
3A-MK2912K28,361,experiment,72,↓,left,←,0.6045930000254884,False,18
3A-MK2912K28,362,experiment,180,→,right,→,0.6858055000193417,True,18
3A-MK2912K28,363,experiment,156,↑,left,←,0.8982962999725714,False,18
3A-MK2912K28,364,experiment,12,↓,left,←,0.8105908999568783,False,18
3A-MK2912K28,365,experiment,24,←,right,→,0.7617587000131607,False,18
3A-MK2912K28,366,experiment,108,←,left,←,0.7502094000228681,True,18
3A-MK2912K28,367,experiment,72,↓,right,→,0.5572924999869429,False,18
3A-MK2912K28,368,experiment,60,←,left,←,0.6411771000130102,True,18
3A-MK2912K28,369,experiment,180,↑,right,→,0.5636176999541931,False,18
3A-MK2912K28,370,experiment,12,↑,left,←,0.7297780999797396,False,18
3A-MK2912K28,371,experiment,96,↑,right,→,0.8012557000038214,False,18
3A-MK2912K28,372,experiment,120,↑,up,↑,1.118118400045205,True,18
3A-MK2912K28,373,experiment,132,↓,right,→,0.7269776000175625,False,18
3A-MK2912K28,374,experiment,168,↑,left,←,0.5989367000292987,False,18
3A-MK2912K28,375,experiment,48,↑,left,←,0.9670883999788202,False,18
3A-MK2912K28,376,experiment,180,↓,left,←,0.5399064000230283,False,18
3A-MK2912K28,377,experiment,156,←,right,→,0.5815602999646217,False,18
3A-MK2912K28,378,experiment,132,←,left,←,0.6488496999954805,True,18
3A-MK2912K28,379,experiment,168,→,left,←,0.5924371000146493,False,18
3A-MK2912K28,380,experiment,144,→,right,→,0.6133989000227302,True,18
3A-MK2912K28,381,experiment,84,←,left,←,0.5647048000246286,True,18
3A-MK2912K28,382,experiment,84,↑,left,←,0.7318260999745689,False,18
3A-MK2912K28,383,experiment,156,↑,right,→,0.686494900030084,False,18
3A-MK2912K28,384,experiment,168,↑,left,←,0.7315138999838382,False,18
3A-MK2912K28,385,experiment,72,↓,up,↑,0.9060114999883808,False,18
3A-MK2912K28,386,experiment,144,↓,left,←,0.7946394000318833,False,18
3A-MK2912K28,387,experiment,12,↓,right,→,0.8019002000219189,False,18
3A-MK2912K28,388,experiment,108,←,up,↑,0.7734053999884054,False,18
3A-MK2912K28,389,experiment,60,→,right,→,0.6104556999634951,True,18
3A-MK2912K28,390,experiment,108,↓,up,↑,0.7810846999636851,False,18
3A-MK2912K28,391,experiment,120,←,left,←,0.9584659999818541,True,18
3A-MK2912K28,392,experiment,96,←,left,←,0.5563665999798104,True,18
3A-MK2912K28,393,experiment,132,↑,up,↑,0.5567980000050738,True,18
3A-MK2912K28,394,experiment,48,↓,down,↓,0.8211451999959536,True,18
3A-MK2912K28,395,experiment,120,↑,up,↑,0.6542546999990009,True,18
3A-MK2912K28,396,experiment,72,←,left,←,0.7101635999861173,True,18
3A-MK2912K28,397,experiment,168,→,right,→,0.5986215000157245,True,18
3A-MK2912K28,398,experiment,132,↓,up,↑,0.7607774000498466,False,18
3A-MK2912K28,399,experiment,144,→,left,←,0.7945986000122502,False,18
3A-MK2912K28,400,experiment,36,→,right,→,0.6014846000471152,True,18
3A-MK2912K28,401,experiment,96,↓,up,↑,0.6471393999527209,False,18
3A-MK2912K28,402,experiment,84,↓,right,→,0.6020067000063136,False,18
3A-MK2912K28,403,experiment,12,↓,up,↑,0.8105259000440128,False,18
3A-MK2912K28,404,experiment,36,→,right,→,0.5698912999941967,True,18
3A-MK2912K28,405,experiment,48,↓,down,↓,0.8354977000271901,True,18
3A-MK2912K28,406,experiment,60,→,up,↑,0.6163411000161432,False,18
3A-MK2912K28,407,experiment,24,↓,right,→,0.7398386999848299,False,18
3A-MK2912K28,408,experiment,144,←,right,→,0.6760855999891646,False,18
3A-MK2912K28,409,training,144,→,right,→,1.1590496000135317,True,18
3A-MK2912K28,410,training,180,↑,up,↑,0.6082227999577299,True,18
3A-MK2912K28,411,training,24,↓,down,↓,0.7986796999466605,True,18
3A-MK2912K28,412,experiment,180,←,up,↑,0.5905182000133209,False,18
3A-MK2912K28,413,experiment,84,↓,left,←,0.9506459999829531,False,18
3A-MK2912K28,414,experiment,36,→,right,→,0.6085457999724895,True,18
3A-MK2912K28,415,experiment,60,↑,up,↑,0.6179006999591365,True,18
3A-MK2912K28,416,experiment,12,←,left,←,0.7760479000280611,True,18
3A-MK2912K28,417,experiment,108,↓,up,↑,0.8035417000064626,False,18
3A-MK2912K28,418,experiment,156,→,right,→,0.8701320000109263,True,18
3A-MK2912K28,419,experiment,120,→,right,→,0.6162830999819562,True,18
3A-MK2912K28,420,experiment,168,↓,up,↑,0.9304297999478877,False,18
3A-MK2912K28,421,experiment,108,↓,left,←,0.7486036000191234,False,18
3A-MK2912K28,422,experiment,36,↓,right,→,0.7165977999684401,False,18
3A-MK2912K28,423,experiment,48,←,right,→,0.6567006999976002,False,18
3A-MK2912K28,424,experiment,120,↑,right,→,0.6633062000037171,False,18
3A-MK2912K28,425,experiment,168,→,right,→,0.7592696000356227,True,18
3A-MK2912K28,426,experiment,72,←,left,←,0.7643376999767497,True,18
3A-MK2912K28,427,experiment,12,↓,up,↑,0.878633699961938,False,18
3A-MK2912K28,428,experiment,132,↑,right,→,0.568128600018099,False,18
3A-MK2912K28,429,experiment,132,↑,right,→,0.600254799996037,False,18
3A-MK2912K28,430,experiment,132,→,right,→,0.5780651000095531,True,18
3A-MK2912K28,431,experiment,36,←,right,→,0.6647324999794364,False,18
3A-MK2912K28,432,experiment,96,↑,up,↑,0.8444261000258848,True,18
3A-MK2912K28,433,experiment,84,←,left,←,0.6043885999824852,True,18
3A-MK2912K28,434,experiment,84,←,right,→,0.7128317999886349,False,18
3A-MK2912K28,435,experiment,24,←,left,←,0.7533801000099629,True,18
3A-MK2912K28,436,experiment,24,←,left,←,0.7385551999905147,True,18
3A-MK2912K28,437,experiment,48,↓,down,↓,0.6993847000412643,True,18
3A-MK2912K28,438,experiment,72,→,right,→,0.6064098999486305,True,18
3A-MK2912K28,439,experiment,36,↑,up,↑,0.7246886999928392,True,18
3A-MK2912K28,440,experiment,96,←,no_key,no_letter,-1.0,False,18
3A-MK2912K28,441,experiment,144,→,right,→,0.6033299000118859,True,18
3A-MK2912K28,442,experiment,24,→,right,→,0.7619278999627568,True,18
3A-MK2912K28,443,experiment,108,↓,no_key,no_letter,-1.0,False,18
3A-MK2912K28,444,experiment,120,←,left,←,0.7620907000382431,True,18
3A-MK2912K28,445,experiment,84,↓,right,→,0.9362174000125378,False,18
3A-MK2912K28,446,experiment,156,←,left,←,1.00876120000612,True,18
3A-MK2912K28,447,experiment,72,↑,up,↑,0.7545236999867484,True,18
3A-MK2912K28,448,experiment,180,←,left,←,0.7264776999945752,True,18
3A-MK2912K28,449,experiment,72,←,left,←,0.7199021999840625,True,18
3A-MK2912K28,450,experiment,156,↓,down,↓,0.6280491999932565,True,18
3A-MK2912K28,451,experiment,60,↑,right,→,0.7047511999844573,False,18
3A-MK2912K28,452,experiment,144,←,left,←,0.6658478999743238,True,18
3A-MK2912K28,453,experiment,96,→,right,→,1.7415237000095658,True,18
3A-MK2912K28,454,experiment,180,←,left,←,0.5353096000035293,True,18
3A-MK2912K28,455,experiment,48,→,right,→,0.568712999986019,True,18
3A-MK2912K28,456,experiment,60,↓,down,↓,0.9822528000222519,True,18
3A-MK2912K28,457,experiment,156,←,left,←,0.8344299999880604,True,18
3A-MK2912K28,458,experiment,180,↓,down,↓,0.7998518000240438,True,18
3A-MK2912K28,459,experiment,144,↓,down,↓,0.9116599000408314,True,18
3A-MK2912K28,460,experiment,12,↓,down,↓,0.7364114000229165,True,18
3A-MK2912K28,461,experiment,24,↑,up,↑,1.0292274999665096,True,18
3A-MK2912K28,462,experiment,132,←,left,←,0.6276120999827981,True,18
3A-MK2912K28,463,experiment,168,→,right,→,0.6787169000017457,True,18
3A-MK2912K28,464,experiment,48,↓,up,↑,0.7898684999672696,False,18
3A-MK2912K28,465,experiment,96,←,down,↓,0.727687300008256,False,18
3A-MK2912K28,466,experiment,120,←,left,←,0.7127478999900632,True,18
3A-MK2912K28,467,experiment,12,←,left,←,0.71243069996126,True,18
3A-MK2912K28,468,experiment,144,→,right,→,0.6549567000474781,True,18
3A-MK2912K28,469,experiment,60,←,up,↑,0.9613520000129938,False,18
3A-MK2912K28,470,experiment,168,↓,up,↑,0.9489434999995865,False,18
3A-MK2912K28,471,experiment,108,↓,down,↓,0.671086499991361,True,18
3A-MK2912K28,472,training,60,↑,up,↑,0.9460630999528803,True,18
3A-MK2912K28,473,training,24,→,right,→,0.6057132999994792,True,18
3A-MK2912K28,474,training,12,↓,down,↓,0.8369160000002012,True,18
3A-MK2912K28,475,experiment,72,→,right,→,0.4944783000391908,True,18
3A-MK2912K28,476,experiment,24,←,left,←,0.7213424999499694,True,18
3A-MK2912K28,477,experiment,60,→,right,→,0.6665037999628112,True,18
3A-MK2912K28,478,experiment,96,↓,down,↓,0.6653128000325523,True,18
3A-MK2912K28,479,experiment,12,←,left,←,0.7185099000344053,True,18
3A-MK2912K28,480,experiment,84,←,no_key,no_letter,-1.0,False,18
3A-MK2912K28,481,experiment,144,→,right,→,0.7913604999775998,True,18
3A-MK2912K28,482,experiment,96,↑,right,→,0.6956101999967359,False,18
3A-MK2912K28,483,experiment,132,→,right,→,0.7471643000026233,True,18
3A-MK2912K28,484,experiment,120,↓,down,↓,0.9050446999608539,True,18
3A-MK2912K28,485,experiment,132,←,right,→,0.7639584999997169,False,18
3A-MK2912K28,486,experiment,144,←,right,→,0.5737292999983765,False,18
3A-MK2912K28,487,experiment,168,→,right,→,1.5007074999739416,True,18
3A-MK2912K28,488,experiment,36,↓,down,↓,0.6352266000467353,True,18
3A-MK2912K28,489,experiment,156,→,right,→,0.5821937000146136,True,18
3A-MK2912K28,490,experiment,12,→,right,→,1.1558141999994405,True,18
3A-MK2912K28,491,experiment,48,↑,up,↑,1.3858017000020482,True,18
3A-MK2912K28,492,experiment,24,↑,up,↑,0.7186078999657184,True,18
3A-MK2912K28,493,experiment,120,↑,up,↑,0.7230896999826655,True,18
3A-MK2912K28,494,experiment,108,↓,up,↑,0.9051626999862492,False,18
3A-MK2912K28,495,experiment,120,↑,down,↓,0.6275986999971792,False,18
3A-MK2912K28,496,experiment,60,←,left,←,0.5653556000324897,True,18
3A-MK2912K28,497,experiment,156,→,right,→,0.8037716000108048,True,18
3A-MK2912K28,498,experiment,108,↑,up,↑,0.79692440002691,True,18
3A-MK2912K28,499,experiment,24,↓,left,←,0.9038167000398971,False,18
3A-MK2912K28,500,experiment,168,→,right,→,0.7568898999597877,True,18
3A-MK2912K28,501,experiment,108,↓,down,↓,0.6481441999785602,True,18
3A-MK2912K28,502,experiment,84,←,left,←,0.6550998999737203,True,18
3A-MK2912K28,503,experiment,60,↑,up,↑,0.7118818999733776,True,18
3A-MK2912K28,504,experiment,156,←,left,←,0.5518278999952599,True,18
3A-MK2912K28,505,experiment,180,→,right,→,0.51403040002333,True,18
3A-MK2912K28,506,experiment,36,↑,up,↑,0.7888462000410073,True,18
3A-MK2912K28,507,experiment,84,↓,down,↓,0.6029059000429697,True,18
3A-MK2912K28,508,experiment,48,→,right,→,0.7149238000274636,True,18
3A-MK2912K28,509,experiment,132,←,left,←,0.6236876000184566,True,18
3A-MK2912K28,510,experiment,168,←,no_key,no_letter,-1.0,False,18
3A-MK2912K28,511,experiment,60,←,left,←,0.5441959999734536,True,18
3A-MK2912K28,512,experiment,180,↓,down,↓,0.48910559999058023,True,18
3A-MK2912K28,513,experiment,72,↑,down,↓,0.5489067999878898,False,18
3A-MK2912K28,514,experiment,168,↓,up,↑,1.164219000027515,False,18
3A-MK2912K28,515,experiment,36,→,right,→,0.7274698999826796,True,18
3A-MK2912K28,516,experiment,96,→,right,→,1.7422326999949291,True,18
3A-MK2912K28,517,experiment,84,←,right,→,0.8399519000086002,False,18
3A-MK2912K28,518,experiment,180,↑,up,↑,1.0541373000014573,True,18
3A-MK2912K28,519,experiment,24,↑,up,↑,0.6931942999945022,True,18
3A-MK2912K28,520,experiment,180,↓,right,→,0.5802641999907792,False,18
3A-MK2912K28,521,experiment,48,↑,up,↑,0.6307667999644764,True,18
3A-MK2912K28,522,experiment,156,↓,right,→,0.5980211999849416,False,18
3A-MK2912K28,523,experiment,132,↓,down,↓,0.5347686000168324,True,18
3A-MK2912K28,524,experiment,72,→,right,→,0.5327644000062719,True,18
3A-MK2912K28,525,experiment,144,↑,up,↑,0.5690832000109367,True,18
3A-MK2912K28,526,experiment,96,→,right,→,0.598063200013712,True,18
3A-MK2912K28,527,experiment,48,←,left,←,0.7389112000237219,True,18
3A-MK2912K28,528,experiment,72,→,right,→,0.4830326000228524,True,18
3A-MK2912K28,529,experiment,144,→,right,→,0.7140854999888688,True,18
3A-MK2912K28,530,experiment,36,←,left,←,0.6420721000176854,True,18
3A-MK2912K28,531,experiment,120,↑,right,→,0.5225348999956623,False,18
3A-MK2912K28,532,experiment,108,←,right,→,0.5236240000231192,False,18
3A-MK2912K28,533,experiment,12,→,left,←,0.8328143000253476,False,18
3A-MK2912K28,534,experiment,12,↑,up,↑,0.6698912999709137,True,18
3A-MK2912K28,535,training,60,↓,down,↓,0.8823572999681346,True,18
3A-MK2912K28,536,training,48,←,left,←,0.6033668000018224,True,18
3A-MK2912K28,537,training,72,↑,right,→,0.9257061000098474,False,18
3A-MK2912K28,538,experiment,36,↑,up,↑,0.5719088999903761,True,18
3A-MK2912K28,539,experiment,12,←,left,←,1.0313029999961145,True,18
3A-MK2912K28,540,experiment,24,↓,down,↓,0.6161527999793179,True,18
3A-MK2912K28,541,experiment,120,←,left,←,0.9204055999871343,True,18
3A-MK2912K28,542,experiment,48,↑,up,↑,0.8458371000015177,True,18
3A-MK2912K28,543,experiment,156,→,right,→,0.6617112999665551,True,18
3A-MK2912K28,544,experiment,180,←,left,←,0.5615418000379577,True,18
3A-MK2912K28,545,experiment,84,→,right,→,0.5517181000323035,True,18
3A-MK2912K28,546,experiment,132,↓,up,↑,0.8454883999656886,False,18
3A-MK2912K28,547,experiment,120,←,left,←,0.5964595000259578,True,18
3A-MK2912K28,548,experiment,144,→,right,→,0.7377311000018381,True,18
3A-MK2912K28,549,experiment,108,↑,up,↑,0.6323967999778688,True,18
3A-MK2912K28,550,experiment,12,←,left,←,0.6795958000002429,True,18
3A-MK2912K28,551,experiment,168,←,right,→,0.782983899989631,False,18
3A-MK2912K28,552,experiment,180,→,up,↑,0.8798011000035331,False,18
3A-MK2912K28,553,experiment,72,↑,up,↑,0.7748430000501685,True,18
3A-MK2912K28,554,experiment,72,→,right,→,1.116748100030236,True,18
3A-MK2912K28,555,experiment,168,←,left,←,0.651455299986992,True,18
3A-MK2912K28,556,experiment,48,↑,up,↑,0.6580385999986902,True,18
3A-MK2912K28,557,experiment,96,←,left,←,0.7571626999997534,True,18
3A-MK2912K28,558,experiment,36,↑,right,→,0.7279337999643758,False,18
3A-MK2912K28,559,experiment,96,→,up,↑,0.7824843000271358,False,18
3A-MK2912K28,560,experiment,60,←,left,←,0.6971106000128202,True,18
3A-MK2912K28,561,experiment,132,↑,right,→,0.5983042999869213,False,18
3A-MK2912K28,562,experiment,72,→,right,→,0.5688099000253715,True,18
3A-MK2912K28,563,experiment,48,→,right,→,0.5579549000249244,True,18
3A-MK2912K28,564,experiment,60,→,right,→,0.5181681000394747,True,18
3A-MK2912K28,565,experiment,144,→,right,→,0.5877806000062265,True,18
3A-MK2912K28,566,experiment,156,↑,up,↑,0.9118605999974534,True,18
3A-MK2912K28,567,experiment,60,←,left,←,0.6465285000158474,True,18
3A-MK2912K28,568,experiment,156,↑,up,↑,0.6614163999911398,True,18
3A-MK2912K28,569,experiment,12,→,left,←,0.7590642999857664,False,18
3A-MK2912K28,570,experiment,24,→,up,↑,0.843094400013797,False,18
3A-MK2912K28,571,experiment,48,→,right,→,0.5797666000435129,True,18
3A-MK2912K28,572,experiment,84,↓,up,↑,0.8015595000470057,False,18
3A-MK2912K28,573,experiment,12,→,right,→,0.619767599971965,True,18
3A-MK2912K28,574,experiment,168,→,right,→,0.5738481000298634,True,18
3A-MK2912K28,575,experiment,36,→,left,←,0.8683161999797449,False,18
3A-MK2912K28,576,experiment,60,↑,up,↑,0.6686576000065543,True,18
3A-MK2912K28,577,experiment,120,←,left,←,0.6084840000257827,True,18
3A-MK2912K28,578,experiment,96,↓,up,↑,0.92809290002333,False,18
3A-MK2912K28,579,experiment,132,↓,down,↓,0.6357161999912933,True,18
3A-MK2912K28,580,experiment,132,→,right,→,0.5271794000291266,True,18
3A-MK2912K28,581,experiment,72,→,right,→,0.76315459999023,True,18
3A-MK2912K28,582,experiment,108,←,left,←,0.5971914000110701,True,18
3A-MK2912K28,583,experiment,36,↓,down,↓,0.784357100026682,True,18
3A-MK2912K28,584,experiment,144,↓,right,→,0.6713933999999426,False,18
3A-MK2912K28,585,experiment,84,→,right,→,0.6008910000091419,True,18
3A-MK2912K28,586,experiment,156,←,left,←,0.5650947000249289,True,18
3A-MK2912K28,587,experiment,84,↑,up,↑,0.6732642999850214,True,18
3A-MK2912K28,588,experiment,96,←,up,↑,1.032809800002724,False,18
3A-MK2912K28,589,experiment,108,↓,down,↓,0.639037900022231,True,18
3A-MK2912K28,590,experiment,108,→,right,→,0.5676089999615215,True,18
3A-MK2912K28,591,experiment,24,↓,down,↓,0.6190043999813497,True,18
3A-MK2912K28,592,experiment,120,↑,right,→,0.782956299954094,False,18
3A-MK2912K28,593,experiment,180,→,right,→,0.6436422999831848,True,18
3A-MK2912K28,594,experiment,24,→,right,→,0.65744400001131,True,18
3A-MK2912K28,595,experiment,144,↓,up,↑,0.9568236999912187,False,18
3A-MK2912K28,596,experiment,168,→,right,→,0.6059294000151567,True,18
3A-MK2912K28,597,experiment,180,←,right,→,0.6910584000288509,False,18
3A-MK2912K28,598,training,108,↓,down,↓,0.7631827999721281,True,18
3A-MK2912K28,599,training,120,↓,right,→,0.6589668999658898,False,18
3A-MK2912K28,600,training,96,↓,up,↑,0.8034241999848746,False,18
3A-MK2912K28,601,experiment,168,↑,up,↑,0.6097838999703526,True,18
3A-MK2912K28,602,experiment,132,→,right,→,0.6032746000564657,True,18
3A-MK2912K28,603,experiment,168,←,left,←,0.7958315000287257,True,18
3A-MK2912K28,604,experiment,60,↑,up,↑,0.7432770999730565,True,18
3A-MK2912K28,605,experiment,12,↓,up,↑,0.7517963999998756,False,18
3A-MK2912K28,606,experiment,60,↓,down,↓,0.7248610999668017,True,18
3A-MK2912K28,607,experiment,180,↓,down,↓,0.7005503000109456,True,18
3A-MK2912K28,608,experiment,96,↓,up,↑,0.7134018000215292,False,18
3A-MK2912K28,609,experiment,108,←,left,←,0.7705432999646291,True,18
3A-MK2912K28,610,experiment,24,↑,up,↑,0.725755300023593,True,18
3A-MK2912K28,611,experiment,24,→,left,←,0.6665534999920055,False,18
3A-MK2912K28,612,experiment,72,↑,up,↑,0.6653535999939777,True,18
3A-MK2912K28,613,experiment,180,←,left,←,0.9689083999837749,True,18
3A-MK2912K28,614,experiment,156,↑,up,↑,0.7049431999912485,True,18
3A-MK2912K28,615,experiment,144,↓,down,↓,0.7424284999724478,True,18
3A-MK2912K28,616,experiment,48,↓,down,↓,0.7843643999658525,True,18
3A-MK2912K28,617,experiment,120,↓,up,↑,0.7529539000242949,False,18
3A-MK2912K28,618,experiment,24,→,right,→,0.6865316000184976,True,18
3A-MK2912K28,619,experiment,72,↑,up,↑,0.8259797000209801,True,18
3A-MK2912K28,620,experiment,168,↓,down,↓,0.6122226000297815,True,18
3A-MK2912K28,621,experiment,108,→,right,→,1.0306589999818243,True,18
3A-MK2912K28,622,experiment,96,↓,up,↑,0.6981090999906883,False,18
3A-MK2912K28,623,experiment,156,←,left,←,0.6814055999857374,True,18
3A-MK2912K28,624,experiment,144,→,left,←,0.7783709000214003,False,18
3A-MK2912K28,625,experiment,36,←,left,←,0.6856375000206754,True,18
3A-MK2912K28,626,experiment,84,→,right,→,0.7421760000288486,True,18
3A-MK2912K28,627,experiment,12,←,left,←,0.8245265000150539,True,18
3A-MK2912K28,628,experiment,120,↑,up,↑,0.6789301999961026,True,18
3A-MK2912K28,629,experiment,84,↑,up,↑,0.7074905000044964,True,18
3A-MK2912K28,630,experiment,12,↓,up,↑,0.9713875000015832,False,18
3A-MK2912K28,631,experiment,144,←,left,←,0.692935099999886,True,18
3A-MK2912K28,632,experiment,36,↑,up,↑,0.7145077000022866,True,18
3A-MK2912K28,633,experiment,96,↑,up,↑,0.907377399969846,True,18
3A-MK2912K28,634,experiment,96,→,left,←,0.6789633000153117,False,18
3A-MK2912K28,635,experiment,84,↓,up,↑,0.6303620000253431,False,18
3A-MK2912K28,636,experiment,12,↑,up,↑,0.6919215000234544,True,18
3A-MK2912K28,637,experiment,120,←,left,←,0.6522766000125557,True,18
3A-MK2912K28,638,experiment,108,↑,up,↑,0.6169860999798402,True,18
3A-MK2912K28,639,experiment,156,↑,up,↑,0.593098099983763,True,18
3A-MK2912K28,640,experiment,72,←,up,↑,0.9941832000040449,False,18
3A-MK2912K28,641,experiment,108,→,left,←,0.736269999993965,False,18
3A-MK2912K28,642,experiment,180,↓,up,↑,0.7400261000148021,False,18
3A-MK2912K28,643,experiment,48,↑,down,↓,0.6812640000134706,False,18
3A-MK2912K28,644,experiment,72,→,left,←,0.6448563000303693,False,18
3A-MK2912K28,645,experiment,156,↑,up,↑,0.6581535000004806,True,18
3A-MK2912K28,646,experiment,84,→,right,→,0.6208200000110082,True,18
3A-MK2912K28,647,experiment,60,↑,up,↑,0.609269000007771,True,18
3A-MK2912K28,648,experiment,48,↑,up,↑,0.6858225000323728,True,18
3A-MK2912K28,649,experiment,144,↑,up,↑,0.62956440000562,True,18
3A-MK2912K28,650,experiment,132,↑,up,↑,0.6507293999893591,True,18
3A-MK2912K28,651,experiment,180,↑,up,↑,0.6923949999618344,True,18
3A-MK2912K28,652,experiment,132,↓,down,↓,0.4859390999772586,True,18
3A-MK2912K28,653,experiment,120,←,down,↓,0.8698555000009947,False,18
3A-MK2912K28,654,experiment,60,→,right,→,0.6614682000363246,True,18
3A-MK2912K28,655,experiment,132,↓,up,↑,0.7500207999837585,False,18
3A-MK2912K28,656,experiment,168,←,left,←,0.9221037000534125,True,18
3A-MK2912K28,657,experiment,36,↓,up,↑,1.0453693000017665,False,18
3A-MK2912K28,658,experiment,48,←,right,→,0.7965857000090182,False,18
3A-MK2912K28,659,experiment,24,↑,up,↑,0.9218463000142947,True,18
3A-MK2912K28,660,experiment,36,→,right,→,0.6782481999834999,True,18
3A-MK2912K28,661,training,132,→,right,→,0.726607899996452,True,18
3A-MK2912K28,662,training,180,↓,left,←,1.1194249999825843,False,18
3A-MK2912K28,663,training,84,↓,right,→,0.7201547000440769,False,18
3A-MK2912K28,664,experiment,132,→,no_key,no_letter,-1.0,False,18
3A-MK2912K28,665,experiment,144,↓,right,→,0.7714232000289485,False,18
3A-MK2912K28,666,experiment,36,↑,up,↑,0.5926055000163615,True,18
3A-MK2912K28,667,experiment,72,→,right,→,1.300347700016573,True,18
3A-MK2912K28,668,experiment,180,→,right,→,0.6105081000132486,True,18
3A-MK2912K28,669,experiment,24,↑,up,↑,0.8704752000048757,True,18
3A-MK2912K28,670,experiment,84,→,right,→,1.1265689000138082,True,18
3A-MK2912K28,671,experiment,72,↓,down,↓,0.7893097000196576,True,18
3A-MK2912K28,672,experiment,96,←,right,→,0.9090575000154786,False,18
3A-MK2912K28,673,experiment,108,←,left,←,0.8268629999947734,True,18
3A-MK2912K28,674,experiment,60,←,left,←,0.7213999999803491,True,18
3A-MK2912K28,675,experiment,108,↑,right,→,0.531878300011158,False,18
3A-MK2912K28,676,experiment,48,←,left,←,0.5812471999670379,True,18
3A-MK2912K28,677,experiment,168,→,right,→,0.6922903999802656,True,18
3A-MK2912K28,678,experiment,132,↓,up,↑,0.9129883999703452,False,18
3A-MK2912K28,679,experiment,36,→,right,→,0.7000019000261091,True,18
3A-MK2912K28,680,experiment,96,→,right,→,0.4839532999903895,True,18
3A-MK2912K28,681,experiment,108,↑,up,↑,0.5231990000465885,True,18
3A-MK2912K28,682,experiment,180,↑,up,↑,0.609682000009343,True,18
3A-MK2912K28,683,experiment,168,↓,down,↓,0.8878608999657445,True,18
3A-MK2912K28,684,experiment,132,←,right,→,0.6193671000073664,False,18
3A-MK2912K28,685,experiment,120,↑,up,↑,0.5465553000103682,True,18
3A-MK2912K28,686,experiment,120,←,left,←,0.6590185999521054,True,18
3A-MK2912K28,687,experiment,108,↓,right,→,0.6401053000008687,False,18
3A-MK2912K28,688,experiment,156,↓,right,→,0.542822299990803,False,18
3A-MK2912K28,689,experiment,72,↑,up,↑,0.5906083000008948,True,18
3A-MK2912K28,690,experiment,180,↓,right,→,0.5506848000222817,False,18
3A-MK2912K28,691,experiment,60,↓,down,↓,0.7748875000397675,True,18
3A-MK2912K28,692,experiment,144,→,right,→,0.49974689999362454,True,18
3A-MK2912K28,693,experiment,180,↓,right,→,1.132172100013122,False,18
3A-MK2912K28,694,experiment,48,←,up,↑,0.5608864999958314,False,18
3A-MK2912K28,695,experiment,144,↑,up,↑,0.478711600007955,True,18
3A-MK2912K28,696,experiment,96,←,left,←,0.7273514000116847,True,18
3A-MK2912K28,697,experiment,60,←,right,→,0.5031526000238955,False,18
3A-MK2912K28,698,experiment,60,↓,up,↑,0.5486060000257567,False,18
3A-MK2912K28,699,experiment,168,←,left,←,0.6348947999649681,True,18
3A-MK2912K28,700,experiment,144,↑,up,↑,0.5679706999799237,True,18
3A-MK2912K28,701,experiment,120,↓,down,↓,0.6414012999739498,True,18
3A-MK2912K28,702,experiment,84,↑,up,↑,0.4848764999769628,True,18
3A-MK2912K28,703,experiment,48,←,left,←,0.49286559998290613,True,18
3A-MK2912K28,704,experiment,84,←,left,←,0.4338731999741867,True,18
3A-MK2912K28,705,experiment,12,↓,right,→,0.925623600021936,False,18
3A-MK2912K28,706,experiment,24,←,left,←,0.5726276999921538,True,18
3A-MK2912K28,707,experiment,72,↓,right,→,0.5607370000216179,False,18
3A-MK2912K28,708,experiment,48,→,right,→,0.5859656999818981,True,18
3A-MK2912K28,709,experiment,24,←,left,←,0.6778249999624677,True,18
3A-MK2912K28,710,experiment,12,←,left,←,0.5894273999729194,True,18
3A-MK2912K28,711,experiment,96,↓,down,↓,0.9962656999705359,True,18
3A-MK2912K28,712,experiment,132,↑,right,→,0.6866666999994777,False,18
3A-MK2912K28,713,experiment,36,←,left,←,0.8485610000207089,True,18
3A-MK2912K28,714,experiment,12,↑,up,↑,0.7716286999639124,True,18
3A-MK2912K28,715,experiment,156,←,right,→,0.7074406999745406,False,18
3A-MK2912K28,716,experiment,12,→,left,←,0.7853082999936305,False,18
3A-MK2912K28,717,experiment,156,←,right,→,0.30040579999331385,False,18
3A-MK2912K28,718,experiment,24,↑,up,↑,0.8928095999872312,True,18
3A-MK2912K28,719,experiment,156,↑,up,↑,0.6454170999932103,True,18
3A-MK2912K28,720,experiment,168,←,left,←,0.6506268000230193,True,18
3A-MK2912K28,721,experiment,120,↓,down,↓,1.5954616999952123,True,18
3A-MK2912K28,722,experiment,36,↓,down,↓,1.0034760999842547,True,18
3A-MK2912K28,723,experiment,84,↑,up,↑,0.7692573000094853,True,18
3A-MK2912K28,724,training,168,←,left,←,0.6977097000344656,True,18
3A-MK2912K28,725,training,144,→,right,→,0.5244324999512173,True,18
3A-MK2912K28,726,training,96,↓,down,↓,0.5077915999572724,True,18
3A-MK2912K28,727,experiment,60,→,right,→,0.5295628000167198,True,18
3A-MK2912K28,728,experiment,180,↑,up,↑,0.7373918000375852,True,18
3A-MK2912K28,729,experiment,168,↑,up,↑,0.8929320999886841,True,18
3A-MK2912K28,730,experiment,108,←,left,←,0.7117825000314042,True,18
3A-MK2912K28,731,experiment,60,→,right,→,0.5859436999890022,True,18
3A-MK2912K28,732,experiment,72,←,right,→,0.8936239000177011,False,18
3A-MK2912K28,733,experiment,120,→,right,→,0.6178227000054903,True,18
3A-MK2912K28,734,experiment,36,↑,left,←,0.7402841000002809,False,18
3A-MK2912K28,735,experiment,84,↓,right,→,0.5104613999719732,False,18
3A-MK2912K28,736,experiment,156,↑,left,←,0.6236183000146411,False,18
3A-MK2912K28,737,experiment,108,↑,right,→,0.4836613000370562,False,18
3A-MK2912K28,738,experiment,24,←,up,↑,0.6837246000068262,False,18
3A-MK2912K28,739,experiment,168,→,left,←,0.5498228999786079,False,18
3A-MK2912K28,740,experiment,84,↑,right,→,0.4173109999974258,False,18
3A-MK2912K28,741,experiment,132,↓,left,←,0.7187678999616764,False,18
3A-MK2912K28,742,experiment,132,←,left,←,0.5767160999821499,True,18
3A-MK2912K28,743,experiment,108,→,right,→,0.7374538999865763,True,18
3A-MK2912K28,744,experiment,72,→,left,←,0.5924431000021286,False,18
3A-MK2912K28,745,experiment,96,→,right,→,0.5675776999560185,True,18
3A-MK2912K28,746,experiment,132,←,left,←,0.7046660999767482,True,18
3A-MK2912K28,747,experiment,144,→,right,→,0.5396786999772303,True,18
3A-MK2912K28,748,experiment,24,↑,left,←,0.7180763999931514,False,18
3A-MK2912K28,749,experiment,60,↓,down,↓,0.8815394000266679,True,18
3A-MK2912K28,750,experiment,24,←,right,→,0.6573138000094332,False,18
3A-MK2912K28,751,experiment,48,↓,left,←,0.6307145000318997,False,18
3A-MK2912K28,752,experiment,84,→,right,→,0.5599745999788865,True,18
3A-MK2912K28,753,experiment,144,→,right,→,0.5134977999841794,True,18
3A-MK2912K28,754,experiment,96,↑,right,→,0.5144603999797255,False,18
3A-MK2912K28,755,experiment,12,↓,right,→,0.5714901000028476,False,18
3A-MK2912K28,756,experiment,24,←,left,←,0.7856723999720998,True,18
3A-MK2912K28,757,experiment,96,←,right,→,0.504143700003624,False,18
3A-MK2912K28,758,experiment,36,↑,left,←,0.6233978000236675,False,18
3A-MK2912K28,759,experiment,12,↓,down,↓,0.8988876999937929,True,18
3A-MK2912K28,760,experiment,120,↑,up,↑,0.613837200042326,True,18
3A-MK2912K28,761,experiment,132,↓,down,↓,1.284632699971553,True,18
3A-MK2912K28,762,experiment,48,←,down,↓,0.9807219000067562,False,18
3A-MK2912K28,763,experiment,84,←,right,→,0.4926768000004813,False,18
3A-MK2912K28,764,experiment,120,←,up,↑,0.6307799000060186,False,18
3A-MK2912K28,765,experiment,36,↑,down,↓,0.5215914999716915,False,18
3A-MK2912K28,766,experiment,156,↑,up,↑,0.6555259999586269,True,18
3A-MK2912K28,767,experiment,12,↑,up,↑,0.5925154999713413,True,18
3A-MK2912K28,768,experiment,180,↓,down,↓,0.6646109000430442,True,18
3A-MK2912K28,769,experiment,12,↓,down,↓,0.7858353999909014,True,18
3A-MK2912K28,770,experiment,120,←,no_key,no_letter,-1.0,False,18
3A-MK2912K28,771,experiment,48,↑,left,←,1.446171699964907,False,18
3A-MK2912K28,772,experiment,60,→,right,→,0.815130400005728,True,18
3A-MK2912K28,773,experiment,36,←,left,←,0.5216930999886245,True,18
3A-MK2912K28,774,experiment,144,↓,right,→,0.5400340999476612,False,18
3A-MK2912K28,775,experiment,72,↓,left,←,1.3017308000125922,False,18
3A-MK2912K28,776,experiment,156,↓,right,→,0.9204657999798656,False,18
3A-MK2912K28,777,experiment,180,↑,left,←,0.6460274000419304,False,18
3A-MK2912K28,778,experiment,180,←,up,↑,1.3567539000068791,False,18
3A-MK2912K28,779,experiment,108,→,right,→,0.6469067999860272,True,18
3A-MK2912K28,780,experiment,144,↑,up,↑,0.6332204000209458,True,18
3A-MK2912K28,781,experiment,96,→,right,→,0.6045830000075512,True,18
3A-MK2912K28,782,experiment,72,←,right,→,0.5172883999766782,False,18
3A-MK2912K28,783,experiment,168,←,left,←,0.6344683999777772,True,18
3A-MK2912K28,784,experiment,48,←,right,→,0.6110329999937676,False,18
3A-MK2912K28,785,experiment,156,←,left,←,0.43398690002504736,True,18
3A-MK2912K28,786,experiment,168,↓,right,→,0.5437449999735691,False,18
3A-MK2912K28,787,training,108,←,right,→,0.7935933000408113,False,18
3A-MK2912K28,788,training,180,↓,left,←,0.743634500016924,False,18
3A-MK2912K28,789,training,132,→,right,→,0.4337555999518372,True,18
3A-MK2912K28,790,experiment,96,↓,right,→,0.43397579999873415,False,18
3A-MK2912K28,791,experiment,12,→,right,→,0.638364200014621,True,18
3A-MK2912K28,792,experiment,36,→,right,→,0.6903417000430636,True,18
3A-MK2912K28,793,experiment,60,↑,up,↑,0.6984478000085801,True,18
3A-MK2912K28,794,experiment,144,→,right,→,0.5064538999577053,True,18
3A-MK2912K28,795,experiment,180,↑,up,↑,0.8548006000346504,True,18
3A-MK2912K28,796,experiment,156,←,left,←,0.6625651000067592,True,18
3A-MK2912K28,797,experiment,24,→,right,→,0.5274665000033565,True,18
3A-MK2912K28,798,experiment,12,→,right,→,0.5226549999788404,True,18
3A-MK2912K28,799,experiment,108,↓,no_key,no_letter,-1.0,False,18
3A-MK2912K28,800,experiment,96,↑,up,↑,0.8093889000010677,True,18
3A-MK2912K28,801,experiment,72,→,right,→,0.5220326000126079,True,18
3A-MK2912K28,802,experiment,168,→,right,→,0.6680736999842338,True,18
3A-MK2912K28,803,experiment,120,←,left,←,0.7513997000060044,True,18
3A-MK2912K28,804,experiment,12,↓,up,↑,0.7638270000461489,False,18
3A-MK2912K28,805,experiment,48,→,right,→,0.5817609999794513,True,18
3A-MK2912K28,806,experiment,60,↑,up,↑,0.5991704000043683,True,18
3A-MK2912K28,807,experiment,156,↓,down,↓,0.7205559000140056,True,18
3A-MK2912K28,808,experiment,180,↑,up,↑,0.6086740999598987,True,18
3A-MK2912K28,809,experiment,48,→,right,→,0.550157500023488,True,18
3A-MK2912K28,810,experiment,48,↑,up,↑,1.3747422999585979,True,18
3A-MK2912K28,811,experiment,36,↓,down,↓,0.6570441000512801,True,18
3A-MK2912K28,812,experiment,132,↓,down,↓,0.7520880000083707,True,18
3A-MK2912K28,813,experiment,96,←,left,←,0.6321609999868087,True,18
3A-MK2912K28,814,experiment,168,←,right,→,0.6350036999792792,False,18
3A-MK2912K28,815,experiment,168,↑,up,↑,0.7694238999974914,True,18
3A-MK2912K28,816,experiment,84,→,right,→,0.5747918999986723,True,18
3A-MK2912K28,817,experiment,132,←,left,←,0.5862796000437811,True,18
3A-MK2912K28,818,experiment,120,←,left,←,0.5252019999898039,True,18
3A-MK2912K28,819,experiment,24,←,left,←,0.5109554999507964,True,18
3A-MK2912K28,820,experiment,180,→,up,↑,1.065439999976661,False,18
3A-MK2912K28,821,experiment,168,↓,up,↑,0.6545713000232354,False,18
3A-MK2912K28,822,experiment,180,↓,up,↑,0.7865069000399671,False,18
3A-MK2912K28,823,experiment,72,↑,up,↑,0.5674369999906048,True,18
3A-MK2912K28,824,experiment,72,↓,down,↓,0.7652213999535888,True,18
3A-MK2912K28,825,experiment,36,←,right,→,0.5550103000132367,False,18
3A-MK2912K28,826,experiment,108,↓,up,↑,0.7898208000115119,False,18
3A-MK2912K28,827,experiment,84,↓,up,↑,0.5563847000012174,False,18
3A-MK2912K28,828,experiment,132,↑,left,←,0.7911182999960147,False,18
3A-MK2912K28,829,experiment,120,↓,up,↑,0.5194389999960549,False,18
3A-MK2912K28,830,experiment,144,←,right,→,0.5597416000091471,False,18
3A-MK2912K28,831,experiment,24,→,up,↑,0.8639891999773681,False,18
3A-MK2912K28,832,experiment,48,←,left,←,0.9130011999513954,True,18
3A-MK2912K28,833,experiment,156,←,left,←,0.5773431999841705,True,18
3A-MK2912K28,834,experiment,108,↑,up,↑,0.5778793999925256,True,18
3A-MK2912K28,835,experiment,60,↑,up,↑,0.6654962999746203,True,18
3A-MK2912K28,836,experiment,72,←,left,←,0.5736067999969237,True,18
3A-MK2912K28,837,experiment,12,↓,down,↓,1.0680491999955848,True,18
3A-MK2912K28,838,experiment,36,↓,up,↑,0.7089533000253141,False,18
3A-MK2912K28,839,experiment,144,↓,down,↓,0.6276130999904126,True,18
3A-MK2912K28,840,experiment,84,↑,up,↑,0.6535908000078052,True,18
3A-MK2912K28,841,experiment,96,←,left,←,0.5751794000389054,True,18
3A-MK2912K28,842,experiment,156,←,left,←,0.7778380999807268,True,18
3A-MK2912K28,843,experiment,144,←,left,←,0.5995605999487452,True,18
3A-MK2912K28,844,experiment,84,↓,down,↓,0.9431305999751203,True,18
3A-MK2912K28,845,experiment,24,→,right,→,0.6576659000129439,True,18
3A-MK2912K28,846,experiment,132,→,left,←,0.8266234999755397,False,18
3A-MK2912K28,847,experiment,60,→,up,↑,0.651057299983222,False,18
3A-MK2912K28,848,experiment,108,←,left,←,0.6900646000285633,True,18
3A-MK2912K28,849,experiment,120,↓,down,↓,0.871308500005398,True,18
