PART_ID,Trial_no,Trial_type,PDI,Stim_letter,Key_pressed,letter_choose,Rt,Corr,Stimulus Time
3K25,1,training,10,↓,no_key,no_letter,-1.0,False,30
3K25,2,training,10,↑,up,↑,1.0572131001390517,True,30
3K25,3,training,10,↓,no_key,no_letter,-1.0,False,30
3K25,4,training,10,←,right,→,0.9675691002048552,False,30
3K25,5,training,10,↑,no_key,no_letter,-1.0,False,30
3K25,6,training,10,→,no_key,no_letter,-1.0,False,30
3K25,7,training,10,←,right,→,1.0541449999436736,False,30
3K25,8,training,10,↑,up,↑,0.6339664999395609,True,30
3K25,9,training,10,↓,down,↓,0.9060620996169746,True,30
3K25,10,training,10,↑,up,↑,0.9140717000700533,True,30
3K25,11,training,10,↑,up,↑,0.7096993001177907,True,30
3K25,12,training,10,→,right,→,0.9014929998666048,True,30
3K25,13,training,10,↑,up,↑,0.6893504001200199,True,30
3K25,14,training,10,↑,up,↑,0.6789882997982204,True,30
3K25,15,training,10,←,right,→,0.6865159999579191,False,30
3K25,16,training,10,↓,down,↓,0.7848236998543143,True,30
3K25,17,training,10,↓,down,↓,0.5839192001149058,True,30
3K25,18,training,10,→,right,→,0.7205598000437021,True,30
3K25,19,training,10,←,left,←,0.7219866998493671,True,30
3K25,20,training,10,←,left,←,0.667646300047636,True,30
3K25,21,training,10,←,left,←,0.6074942001141608,True,18
3K25,22,training,10,↑,up,↑,0.6395813999697566,True,18
3K25,23,training,10,→,right,→,0.6114309001713991,True,18
3K25,24,training,10,←,left,←,0.6974957999773324,True,18
3K25,25,training,10,↑,up,↑,0.6475498001091182,True,18
3K25,26,training,10,←,left,←,0.7143609002232552,True,18
3K25,27,training,10,↓,down,↓,0.5985221997834742,True,18
3K25,28,training,10,→,right,→,0.6424607001245022,True,18
3K25,29,training,10,→,right,→,0.7034861003048718,True,18
3K25,30,training,10,←,left,←,0.593985800165683,True,18
3K25,31,training,132,←,left,←,0.8868423998355865,True,15
3K25,32,training,180,↓,up,↑,0.8827157001942396,False,15
3K25,33,training,24,↑,right,→,1.3978609996847808,False,15
3K25,34,experiment,156,→,right,→,1.7581730000674725,True,15
3K25,35,experiment,24,↓,up,↑,1.472763900179416,False,15
3K25,36,experiment,24,→,right,→,0.8904519001953304,True,15
3K25,37,experiment,180,↑,no_key,no_letter,-1.0,False,15
3K25,38,experiment,36,←,left,←,0.5645504002459347,True,15
3K25,39,experiment,144,←,left,←,0.535337199922651,True,15
3K25,40,experiment,12,→,left,←,1.2398998001590371,False,15
3K25,41,experiment,156,↓,right,→,1.069997699931264,False,15
3K25,42,experiment,144,↑,up,↑,0.992438499815762,True,15
3K25,43,experiment,96,↑,up,↑,0.8950781002640724,True,15
3K25,44,experiment,144,←,up,↑,0.7401931001804769,False,15
3K25,45,experiment,120,←,left,←,0.581131599843502,True,15
3K25,46,experiment,108,↓,down,↓,0.7048452999442816,True,15
3K25,47,experiment,48,↑,left,←,1.0278833997435868,False,15
3K25,48,experiment,36,↓,up,↑,0.8588505000807345,False,15
3K25,49,experiment,72,←,up,↑,0.8376870998181403,False,15
3K25,50,experiment,108,↑,no_key,no_letter,-1.0,False,15
3K25,51,experiment,132,↑,left,←,0.7193688000552356,False,15
3K25,52,experiment,84,→,up,↑,0.7016402999870479,False,15
3K25,53,experiment,84,→,right,→,0.8672775998711586,True,15
3K25,54,experiment,108,↑,right,→,0.7923897998407483,False,15
3K25,55,experiment,72,↑,right,→,0.6629888000898063,False,15
3K25,56,experiment,84,↑,no_key,no_letter,-1.0,False,15
3K25,57,experiment,132,←,up,↑,1.230602900031954,False,15
3K25,58,experiment,156,→,up,↑,0.8879929999820888,False,15
3K25,59,experiment,60,←,up,↑,0.8244870002381504,False,15
3K25,60,experiment,60,→,up,↑,0.784372900146991,False,15
3K25,61,experiment,168,↓,no_key,no_letter,-1.0,False,15
3K25,62,experiment,36,↑,up,↑,0.017258400097489357,True,15
3K25,63,experiment,156,↑,up,↑,0.7576177003793418,True,15
3K25,64,experiment,108,↓,up,↑,0.6537015000358224,False,15
3K25,65,experiment,12,↓,up,↑,1.4664902002550662,False,15
3K25,66,experiment,96,←,up,↑,0.6291361004114151,False,15
3K25,67,experiment,72,←,left,←,0.7811987996101379,True,15
3K25,68,experiment,36,↑,left,←,0.6972030997276306,False,15
3K25,69,experiment,12,↑,up,↑,0.5978124998509884,True,15
3K25,70,experiment,120,←,up,↑,1.5967776998877525,False,15
3K25,71,experiment,60,→,right,→,0.5150850000791252,True,15
3K25,72,experiment,48,→,no_key,no_letter,-1.0,False,15
3K25,73,experiment,84,→,right,→,0.5563676999881864,True,15
3K25,74,experiment,120,↓,left,←,0.9748843000270426,False,15
3K25,75,experiment,24,→,right,→,0.6454028002917767,True,15
3K25,76,experiment,24,→,no_key,no_letter,-1.0,False,15
3K25,77,experiment,168,↑,left,←,0.8982965000905097,False,15
3K25,78,experiment,120,→,right,→,0.7692272998392582,True,15
3K25,79,experiment,132,↓,right,→,0.6684189001098275,False,15
3K25,80,experiment,96,←,left,←,0.5846013999544084,True,15
3K25,81,experiment,132,↓,down,↓,0.5743410997092724,True,15
3K25,82,experiment,180,↓,down,↓,0.7869754997082055,True,15
3K25,83,experiment,48,↑,down,↓,0.9767297999933362,False,15
3K25,84,experiment,180,→,right,→,0.810376700013876,True,15
3K25,85,experiment,96,↓,down,↓,0.962868900038302,True,15
3K25,86,experiment,60,↑,up,↑,0.5465072998777032,True,15
3K25,87,experiment,72,←,left,←,0.5135106998495758,True,15
3K25,88,experiment,12,↓,down,↓,0.595255599822849,True,15
3K25,89,experiment,168,→,right,→,0.7413026997819543,True,15
3K25,90,experiment,144,→,up,↑,0.6054230998270214,False,15
3K25,91,experiment,48,←,left,←,0.5076199998147786,True,15
3K25,92,experiment,180,→,right,→,0.514037000015378,True,15
3K25,93,experiment,168,→,right,→,0.5227000000886619,True,15
3K25,94,training,72,↓,no_key,no_letter,-1.0,False,16
3K25,95,training,84,→,left,←,0.9280281001701951,False,16
3K25,96,training,96,←,right,→,0.7573480000719428,False,16
3K25,97,experiment,24,↑,right,→,0.8285831999965012,False,16
3K25,98,experiment,180,↑,no_key,no_letter,-1.0,False,16
3K25,99,experiment,72,→,left,←,0.7376897996291518,False,16
3K25,100,experiment,120,←,right,→,0.8931617001071572,False,16
3K25,101,experiment,36,←,right,→,0.7653346001170576,False,16
3K25,102,experiment,180,←,right,→,0.8202444999478757,False,16
3K25,103,experiment,132,↑,left,←,1.1056082001887262,False,16
3K25,104,experiment,96,→,right,→,0.9191252999007702,True,16
3K25,105,experiment,12,←,left,←,0.8710453002713621,True,16
3K25,106,experiment,168,↑,up,↑,0.5695694000460207,True,16
3K25,107,experiment,168,←,up,↑,0.9881748999468982,False,16
3K25,108,experiment,108,↓,up,↑,0.7867043996229768,False,16
3K25,109,experiment,132,↑,up,↑,0.6424068999476731,True,16
3K25,110,experiment,60,→,up,↑,0.5710402000695467,False,16
3K25,111,experiment,72,→,right,→,0.5773236001841724,True,16
3K25,112,experiment,156,←,left,←,0.864304699935019,True,16
3K25,113,experiment,48,↓,right,→,0.7650482002645731,False,16
3K25,114,experiment,120,↓,right,→,0.8476291997358203,False,16
3K25,115,experiment,12,→,up,↑,0.803133999928832,False,16
3K25,116,experiment,36,↓,down,↓,0.6792729999870062,True,16
3K25,117,experiment,108,↑,up,↑,0.5055592996068299,True,16
3K25,118,experiment,84,↑,up,↑,0.4444630998186767,True,16
3K25,119,experiment,96,↑,up,↑,0.5083579998463392,True,16
3K25,120,experiment,96,←,left,←,0.5375192002393305,True,16
3K25,121,experiment,156,↓,down,↓,0.5226623001508415,True,16
3K25,122,experiment,36,↓,down,↓,1.5733386999927461,True,16
3K25,123,experiment,180,→,right,→,0.8182904999703169,True,16
3K25,124,experiment,72,↓,down,↓,0.5554271996952593,True,16
3K25,125,experiment,24,→,no_key,no_letter,-1.0,False,16
3K25,126,experiment,156,↓,down,↓,0.5411836998537183,True,16
3K25,127,experiment,60,↓,down,↓,0.6010667998343706,True,16
3K25,128,experiment,144,↓,down,↓,0.9133413000963628,True,16
3K25,129,experiment,180,↓,right,→,1.0475472998805344,False,16
3K25,130,experiment,48,→,left,←,1.0260243001393974,False,16
3K25,131,experiment,144,↓,right,→,0.6821975000202656,False,16
3K25,132,experiment,48,←,left,←,0.687502299901098,True,16
3K25,133,experiment,48,↓,up,↑,0.716658900026232,False,16
3K25,134,experiment,144,↓,left,←,0.5655141002498567,False,16
3K25,135,experiment,108,→,left,←,0.5343550001271069,False,16
3K25,136,experiment,72,→,right,→,1.7982390001416206,True,16
3K25,137,experiment,156,↑,left,←,0.5851201000623405,False,16
3K25,138,experiment,120,↑,up,↑,0.4769619000144303,True,16
3K25,139,experiment,132,↑,up,↑,0.36721269972622395,True,16
3K25,140,experiment,24,→,up,↑,0.40055599994957447,False,16
3K25,141,experiment,108,←,left,←,0.46976529993116856,True,16
3K25,142,experiment,168,↑,right,→,0.8755445000715554,False,16
3K25,143,experiment,84,→,right,→,0.5947826998308301,True,16
3K25,144,experiment,12,↓,down,↓,0.6820660000666976,True,16
3K25,145,experiment,24,↓,up,↑,1.0942341997288167,False,16
3K25,146,experiment,168,↑,up,↑,0.5688262996263802,True,16
3K25,147,experiment,60,←,up,↑,0.9450546000152826,False,16
3K25,148,experiment,36,↑,left,←,1.040761100128293,False,16
3K25,149,experiment,132,↑,left,←,0.7224971000105143,False,16
3K25,150,experiment,96,→,right,→,0.8155286000110209,True,16
3K25,151,experiment,60,↑,up,↑,0.5404743999242783,True,16
3K25,152,experiment,84,→,right,→,0.5180869000032544,True,16
3K25,153,experiment,12,←,left,←,0.5527166998945177,True,16
3K25,154,experiment,84,↑,up,↑,0.719140499830246,True,16
3K25,155,experiment,120,→,right,→,0.739315299782902,True,16
3K25,156,experiment,144,↑,up,↑,0.5763906999491155,True,16
3K25,157,training,24,↓,up,↑,0.9383378997445107,False,17
3K25,158,training,156,↓,down,↓,0.6814466002397239,True,17
3K25,159,training,144,↓,down,↓,0.740926300175488,True,17
3K25,160,experiment,84,↑,up,↑,0.5173210999928415,True,17
3K25,161,experiment,72,←,left,←,0.7475068997591734,True,17
3K25,162,experiment,60,↑,up,↑,0.5335189998149872,True,17
3K25,163,experiment,180,←,left,←,0.6321794004179537,True,17
3K25,164,experiment,168,→,left,←,1.0110149998217821,False,17
3K25,165,experiment,180,↑,up,↑,0.8033312996849418,True,17
3K25,166,experiment,180,↓,up,↑,0.8782657003030181,False,17
3K25,167,experiment,24,↑,right,→,0.7858162000775337,False,17
3K25,168,experiment,36,↓,up,↑,1.5203089001588523,False,17
3K25,169,experiment,48,↑,up,↑,0.4772409996949136,True,17
3K25,170,experiment,60,↑,up,↑,1.0084261000156403,True,17
3K25,171,experiment,108,↑,up,↑,1.02501630038023,True,17
3K25,172,experiment,132,↑,up,↑,0.5228439001366496,True,17
3K25,173,experiment,144,↑,up,↑,0.41733619989827275,True,17
3K25,174,experiment,12,←,left,←,0.5406943997368217,True,17
3K25,175,experiment,36,←,right,→,1.2105784001760185,False,17
3K25,176,experiment,120,→,no_key,no_letter,-1.0,False,17
3K25,177,experiment,12,↑,up,↑,0.49035510001704097,True,17
3K25,178,experiment,156,→,up,↑,0.6596435997635126,False,17
3K25,179,experiment,144,↓,down,↓,0.7257207999937236,True,17
3K25,180,experiment,60,↓,down,↓,0.8711818996816874,True,17
3K25,181,experiment,168,→,no_key,no_letter,-1.0,False,17
3K25,182,experiment,12,↑,up,↑,0.6704151998274028,True,17
3K25,183,experiment,84,↓,down,↓,1.2702091000974178,True,17
3K25,184,experiment,72,↓,down,↓,0.5962920002639294,True,17
3K25,185,experiment,156,←,left,←,0.604950400069356,True,17
3K25,186,experiment,96,↑,up,↑,0.6637646001763642,True,17
3K25,187,experiment,168,←,up,↑,0.8048451999202371,False,17
3K25,188,experiment,60,←,left,←,0.6039925999939442,True,17
3K25,189,experiment,72,↑,up,↑,0.5011160997673869,True,17
3K25,190,experiment,48,←,left,←,0.6784844002686441,True,17
3K25,191,experiment,108,←,no_key,no_letter,-1.0,False,17
3K25,192,experiment,84,→,left,←,1.0912867998704314,False,17
3K25,193,experiment,96,→,left,←,0.703885099850595,False,17
3K25,194,experiment,132,↑,left,←,0.6828477000817657,False,17
3K25,195,experiment,36,←,left,←,0.5878972001373768,True,17
3K25,196,experiment,72,←,left,←,0.47917799977585673,True,17
3K25,197,experiment,48,→,no_key,no_letter,-1.0,False,17
3K25,198,experiment,108,←,left,←,0.9572701998986304,True,17
3K25,199,experiment,168,↓,right,→,1.1910019000060856,False,17
3K25,200,experiment,156,←,right,→,1.0286961998790503,False,17
3K25,201,experiment,132,→,right,→,0.6050388999283314,True,17
3K25,202,experiment,120,←,left,←,0.8403978999704123,True,17
3K25,203,experiment,24,←,left,←,0.8571459003724158,True,17
3K25,204,experiment,156,→,right,→,0.5172838000580668,True,17
3K25,205,experiment,24,↑,left,←,0.9917870000936091,False,17
3K25,206,experiment,132,←,right,→,0.9209548998624086,False,17
3K25,207,experiment,108,←,down,↓,1.055517999920994,False,17
3K25,208,experiment,96,→,right,→,0.7385344998911023,True,17
3K25,209,experiment,144,→,left,←,0.6932075000368059,False,17
3K25,210,experiment,84,↑,up,↑,0.5894176997244358,True,17
3K25,211,experiment,120,↑,up,↑,0.6477665998972952,True,17
3K25,212,experiment,48,←,down,↓,1.2910481002181768,False,17
3K25,213,experiment,12,↑,up,↑,0.7470324002206326,True,17
3K25,214,experiment,96,→,right,→,0.6398196998052299,True,17
3K25,215,experiment,36,↓,left,←,1.1237472002394497,False,17
3K25,216,experiment,180,↑,up,↑,1.0902613000944257,True,17
3K25,217,experiment,24,↓,down,↓,1.405070399865508,True,17
3K25,218,experiment,120,←,left,←,0.6739419000223279,True,17
3K25,219,experiment,144,↑,up,↑,0.5205685999244452,True,17
3K25,220,training,132,↑,up,↑,0.8752150000073016,True,17
3K25,221,training,132,↑,up,↑,0.6758369002491236,True,17
3K25,222,training,180,↑,up,↑,0.5363270998932421,True,17
3K25,223,experiment,180,←,left,←,0.7482359004206955,True,17
3K25,224,experiment,132,→,right,→,0.5836742999963462,True,17
3K25,225,experiment,36,←,left,←,0.7517209998331964,True,17
3K25,226,experiment,144,↓,down,↓,1.059604899957776,True,17
3K25,227,experiment,108,←,left,←,0.6970244003459811,True,17
3K25,228,experiment,24,↓,left,←,0.9356362000107765,False,17
3K25,229,experiment,96,↓,right,→,1.3423966998234391,False,17
3K25,230,experiment,24,↑,right,→,0.8287106002680957,False,17
3K25,231,experiment,60,↑,up,↑,0.8254762999713421,True,17
3K25,232,experiment,96,→,up,↑,0.6770436996594071,False,17
3K25,233,experiment,84,↑,up,↑,1.3296551001258194,True,17
3K25,234,experiment,72,←,up,↑,0.9294381001964211,False,17
3K25,235,experiment,48,→,right,→,0.8060449999757111,True,17
3K25,236,experiment,72,→,right,→,1.232476799748838,True,17
3K25,237,experiment,108,←,right,→,0.7022813996300101,False,17
3K25,238,experiment,24,→,left,←,0.9714318998157978,False,17
3K25,239,experiment,60,↓,left,←,0.8612761003896594,False,17
3K25,240,experiment,12,←,left,←,0.49986519990488887,True,17
3K25,241,experiment,156,↓,down,↓,0.7104470999911427,True,17
3K25,242,experiment,48,←,down,↓,0.7673295000568032,False,17
3K25,243,experiment,60,↓,up,↑,1.4381722998805344,False,17
3K25,244,experiment,144,↓,up,↑,0.9544199001975358,False,17
3K25,245,experiment,96,←,right,→,0.5496559999883175,False,17
3K25,246,experiment,168,↓,up,↑,0.6346833002753556,False,17
3K25,247,experiment,156,←,up,↑,0.6098417001776397,False,17
3K25,248,experiment,12,↓,left,←,0.6248993999324739,False,17
3K25,249,experiment,168,←,up,↑,0.8018348999321461,False,17
3K25,250,experiment,108,↑,up,↑,0.6097295000217855,True,17
3K25,251,experiment,72,←,down,↓,0.8321234001778066,False,17
3K25,252,experiment,48,↓,down,↓,0.8706109002232552,True,17
3K25,253,experiment,120,↑,up,↑,0.6586833000183105,True,17
3K25,254,experiment,96,↑,up,↑,0.5011734999716282,True,17
3K25,255,experiment,132,→,no_key,no_letter,-1.0,False,17
3K25,256,experiment,180,↑,right,→,0.6341451997868717,False,17
3K25,257,experiment,84,←,left,←,0.559332299977541,True,17
3K25,258,experiment,120,↓,down,↓,0.5525055998004973,True,17
3K25,259,experiment,36,↑,no_key,no_letter,-1.0,False,17
3K25,260,experiment,108,↑,left,←,1.0883867000229657,False,17
3K25,261,experiment,132,↑,down,↓,0.8251465000212193,False,17
3K25,262,experiment,144,↑,down,↓,0.7718910002149642,False,17
3K25,263,experiment,84,→,down,↓,0.9354912000708282,False,17
3K25,264,experiment,84,←,left,←,0.7453637002035975,True,17
3K25,265,experiment,72,→,no_key,no_letter,-1.0,False,17
3K25,266,experiment,144,↑,down,↓,0.6392437000758946,False,17
3K25,267,experiment,12,↓,down,↓,0.6781025999225676,True,17
3K25,268,experiment,120,←,down,↓,0.30058149993419647,False,17
3K25,269,experiment,60,↓,down,↓,0.6207178998738527,True,17
3K25,270,experiment,36,↓,down,↓,0.5345144998282194,True,17
3K25,271,experiment,156,←,left,←,0.5624326001852751,True,17
3K25,272,experiment,168,→,right,→,0.544113100040704,True,17
3K25,273,experiment,180,↑,up,↑,0.5639994000084698,True,17
3K25,274,experiment,12,↓,left,←,0.9507021997123957,False,17
3K25,275,experiment,168,→,right,→,0.497832499910146,True,17
3K25,276,experiment,36,↑,up,↑,0.499634699895978,True,17
3K25,277,experiment,156,↓,up,↑,0.8861643001437187,False,17
3K25,278,experiment,132,→,up,↑,1.028353199828416,False,17
3K25,279,experiment,24,↑,up,↑,0.5316205001436174,True,17
3K25,280,experiment,48,→,up,↑,0.771684099920094,False,17
3K25,281,experiment,180,→,right,→,0.6079624001868069,True,17
3K25,282,experiment,120,↓,up,↑,1.2370615000836551,False,17
3K25,283,training,84,→,up,↑,1.0634600003249943,False,18
3K25,284,training,132,↑,up,↑,0.489852599799633,True,18
3K25,285,training,168,↓,up,↑,0.5696207997389138,False,18
3K25,286,experiment,24,↑,up,↑,0.7607757998630404,True,18
3K25,287,experiment,36,↓,up,↑,0.9193923999555409,False,18
3K25,288,experiment,144,←,up,↑,0.4718113001435995,False,18
3K25,289,experiment,60,→,right,→,0.5186503999866545,True,18
3K25,290,experiment,24,↓,down,↓,1.041002199985087,True,18
3K25,291,experiment,24,←,left,←,0.5756172998808324,True,18
3K25,292,experiment,132,↓,no_key,no_letter,-1.0,False,18
3K25,293,experiment,72,↑,right,→,0.7157652997411788,False,18
3K25,294,experiment,48,↑,left,←,0.781323800329119,False,18
3K25,295,experiment,84,←,right,→,0.8361416002735496,False,18
3K25,296,experiment,120,↑,right,→,0.884862800128758,False,18
3K25,297,experiment,72,←,right,→,0.7786872000433505,False,18
3K25,298,experiment,96,↓,right,→,0.8021940998733044,False,18
3K25,299,experiment,132,↓,right,→,0.4780904999934137,False,18
3K25,300,experiment,180,←,left,←,0.6331299003213644,True,18
3K25,301,experiment,72,→,right,→,0.6212144000455737,True,18
3K25,302,experiment,156,↓,down,↓,0.5705364001914859,True,18
3K25,303,experiment,120,→,right,→,0.49895500019192696,True,18
3K25,304,experiment,96,↓,down,↓,0.573070399928838,True,18
3K25,305,experiment,12,→,no_key,no_letter,-1.0,False,18
3K25,306,experiment,120,↓,right,→,1.1236864998936653,False,18
3K25,307,experiment,168,→,right,→,0.4683433002792299,True,18
3K25,308,experiment,84,→,no_key,no_letter,-1.0,False,18
3K25,309,experiment,180,→,no_key,no_letter,-1.0,False,18
3K25,310,experiment,60,→,right,→,0.5907494998537004,True,18
3K25,311,experiment,12,↓,down,↓,0.6022211001254618,True,18
3K25,312,experiment,108,↓,down,↓,0.5003007999621332,True,18
3K25,313,experiment,144,↓,right,→,0.82897669961676,False,18
3K25,314,experiment,132,←,right,→,0.5627235001884401,False,18
3K25,315,experiment,96,↑,up,↑,0.6025510998442769,True,18
3K25,316,experiment,180,↑,right,→,0.7010440998710692,False,18
3K25,317,experiment,48,←,right,→,0.5040647001005709,False,18
3K25,318,experiment,156,←,right,→,0.5101589998230338,False,18
3K25,319,experiment,60,←,left,←,0.6642435002140701,True,18
3K25,320,experiment,180,↑,right,→,0.5896858000196517,False,18
3K25,321,experiment,60,→,right,→,0.5044591003097594,True,18
3K25,322,experiment,156,→,right,→,0.4715059995651245,True,18
3K25,323,experiment,108,→,right,→,0.36697399988770485,True,18
3K25,324,experiment,96,↓,right,→,0.3003341001458466,False,18
3K25,325,experiment,132,↑,up,↑,0.5268223001621664,True,18
3K25,326,experiment,144,←,up,↑,0.62658859975636,False,18
3K25,327,experiment,84,←,left,←,0.5302356001920998,True,18
3K25,328,experiment,84,↓,down,↓,0.8256989000365138,True,18
3K25,329,experiment,48,←,up,↑,0.571486699860543,False,18
3K25,330,experiment,72,↑,no_key,no_letter,-1.0,False,18
3K25,331,experiment,12,↓,up,↑,0.6634010998532176,False,18
3K25,332,experiment,168,↑,up,↑,0.8711182000115514,True,18
3K25,333,experiment,36,↓,up,↑,0.40059939958155155,False,18
3K25,334,experiment,144,→,up,↑,0.3995996001176536,False,18
3K25,335,experiment,36,↓,up,↑,0.9983451999723911,False,18
3K25,336,experiment,120,←,up,↑,0.5242087999358773,False,18
3K25,337,experiment,12,↑,up,↑,0.5948016000911593,True,18
3K25,338,experiment,24,↑,no_key,no_letter,-1.0,False,18
3K25,339,experiment,168,→,up,↑,0.7703029001131654,False,18
3K25,340,experiment,108,←,no_key,no_letter,-1.0,False,18
3K25,341,experiment,168,↓,down,↓,0.6450773002579808,True,18
3K25,342,experiment,36,↑,up,↑,0.8384266002103686,True,18
3K25,343,experiment,156,←,left,←,0.6264486000873148,True,18
3K25,344,experiment,48,↑,up,↑,0.800369500182569,True,18
3K25,345,experiment,108,↓,up,↑,0.5281878001987934,False,18
3K25,346,training,180,→,left,←,1.2152901999652386,False,18
3K25,347,training,96,↓,left,←,0.749789800029248,False,18
3K25,348,training,96,↓,left,←,0.5502778999507427,False,18
3K25,349,experiment,60,↑,left,←,0.9425846999511123,False,18
3K25,350,experiment,36,↓,down,↓,0.664824299979955,True,18
3K25,351,experiment,132,↑,down,↓,0.9535821997560561,False,18
3K25,352,experiment,12,←,down,↓,0.6601037001237273,False,18
3K25,353,experiment,72,↑,down,↓,0.49867390003055334,False,18
3K25,354,experiment,120,←,left,←,0.6388603001832962,True,18
3K25,355,experiment,132,←,down,↓,0.6936845001764596,False,18
3K25,356,experiment,156,↓,down,↓,0.5871722996234894,True,18
3K25,357,experiment,132,↓,down,↓,0.5077156997285783,True,18
3K25,358,experiment,144,←,down,↓,0.5928114000707865,False,18
3K25,359,experiment,12,→,down,↓,0.7021135003305972,False,18
3K25,360,experiment,84,↑,up,↑,0.6135339997708797,True,18
3K25,361,experiment,120,↓,down,↓,0.5977687002159655,True,18
3K25,362,experiment,84,↑,no_key,no_letter,-1.0,False,18
3K25,363,experiment,144,↑,down,↓,0.6803824999369681,False,18
3K25,364,experiment,72,↑,down,↓,0.8665140001103282,False,18
3K25,365,experiment,96,↑,up,↑,0.6926839002408087,True,18
3K25,366,experiment,108,↓,down,↓,0.5516745997592807,True,18
3K25,367,experiment,180,←,left,←,0.5606905003078282,True,18
3K25,368,experiment,168,→,up,↑,0.7034636000171304,False,18
3K25,369,experiment,120,↑,left,←,0.8131975000724196,False,18
3K25,370,experiment,24,↑,no_key,no_letter,-1.0,False,18
3K25,371,experiment,144,←,left,←,0.7230103998444974,True,18
3K25,372,experiment,72,↓,up,↑,0.940015799831599,False,18
3K25,373,experiment,144,←,left,←,0.5638431999832392,True,18
3K25,374,experiment,36,→,right,→,0.5331702996045351,True,18
3K25,375,experiment,132,←,left,←,0.5418871999718249,True,18
3K25,376,experiment,156,←,right,→,0.9666766002774239,False,18
3K25,377,experiment,120,←,right,→,0.5642852997407317,False,18
3K25,378,experiment,60,→,right,→,1.0056280996650457,True,18
3K25,379,experiment,60,↓,right,→,0.5787559999153018,False,18
3K25,380,experiment,48,↑,up,↑,0.5420150002464652,True,18
3K25,381,experiment,84,→,up,↑,0.7440141998231411,False,18
3K25,382,experiment,36,↑,no_key,no_letter,-1.0,False,18
3K25,383,experiment,180,←,left,←,0.6319054998457432,True,18
3K25,384,experiment,72,↓,up,↑,0.9216276002116501,False,18
3K25,385,experiment,24,→,no_key,no_letter,-1.0,False,18
3K25,386,experiment,48,←,no_key,no_letter,-1.0,False,18
3K25,387,experiment,96,←,right,→,0.8650968000292778,False,18
3K25,388,experiment,12,→,left,←,1.2528597000055015,False,18
3K25,389,experiment,12,←,right,→,0.6359045999124646,False,18
3K25,390,experiment,36,↑,left,←,0.5871061999350786,False,18
3K25,391,experiment,24,↑,right,→,0.48521609976887703,False,18
3K25,392,experiment,48,↑,left,←,0.4818257000297308,False,18
3K25,393,experiment,48,↑,left,←,0.6032929997891188,False,18
3K25,394,experiment,60,→,no_key,no_letter,-1.0,False,18
3K25,395,experiment,96,↑,up,↑,0.5920188999734819,True,18
3K25,396,experiment,96,↓,down,↓,0.6372079001739621,True,18
3K25,397,experiment,156,←,right,→,1.1451289001852274,False,18
3K25,398,experiment,168,↓,right,→,1.0712315002456307,False,18
3K25,399,experiment,156,←,no_key,no_letter,-1.0,False,18
3K25,400,experiment,108,→,right,→,0.5405200999230146,True,18
3K25,401,experiment,84,↓,down,↓,0.6027147998102009,True,18
3K25,402,experiment,108,→,left,←,0.5422442001290619,False,18
3K25,403,experiment,180,↑,up,↑,0.6034444002434611,True,18
3K25,404,experiment,168,←,left,←,0.5576822999864817,True,18
3K25,405,experiment,168,↓,down,↓,1.3733522002585232,True,18
3K25,406,experiment,24,→,right,→,0.5430925996042788,True,18
3K25,407,experiment,108,↑,up,↑,0.5422666999511421,True,18
3K25,408,experiment,180,→,left,←,0.8697081999853253,False,18
3K25,409,training,108,↑,right,→,0.6233987002633512,False,18
3K25,410,training,24,↓,down,↓,0.8720100997015834,True,18
3K25,411,training,144,←,up,↑,0.7175272000022233,False,18
3K25,412,experiment,72,↑,up,↑,0.611472399905324,True,18
3K25,413,experiment,132,→,right,→,0.5840178998187184,True,18
3K25,414,experiment,60,→,left,←,0.775514000095427,False,18
3K25,415,experiment,24,↓,down,↓,0.6270455000922084,True,18
3K25,416,experiment,96,↑,down,↓,0.7706153998151422,False,18
3K25,417,experiment,72,←,down,↓,0.8221722999587655,False,18
3K25,418,experiment,132,↓,down,↓,0.5438574999570847,True,18
3K25,419,experiment,12,←,no_key,no_letter,-1.0,False,18
3K25,420,experiment,156,↓,down,↓,0.8562326999381185,True,18
3K25,421,experiment,84,→,right,→,0.6639451002702117,True,18
3K25,422,experiment,12,→,down,↓,1.012229099869728,False,18
3K25,423,experiment,144,→,right,→,0.6199805000796914,True,18
3K25,424,experiment,24,↑,up,↑,0.7940782001242042,True,18
3K25,425,experiment,48,←,up,↑,0.7958649001084268,False,18
3K25,426,experiment,144,↑,up,↑,0.58943000016734,True,18
3K25,427,experiment,180,←,left,←,0.6418651998974383,True,18
3K25,428,experiment,48,↓,down,↓,0.6963173998519778,True,18
3K25,429,experiment,96,←,left,←,0.6209694002754986,True,18
3K25,430,experiment,60,→,right,→,0.9124499997124076,True,18
3K25,431,experiment,36,→,left,←,1.1031145001761615,False,18
3K25,432,experiment,72,↑,left,←,1.0704856999218464,False,18
3K25,433,experiment,60,→,right,→,0.8987902998924255,True,18
3K25,434,experiment,84,←,up,↑,1.0253611002117395,False,18
3K25,435,experiment,144,↑,up,↑,0.608316000085324,True,18
3K25,436,experiment,120,→,right,→,0.5733876000158489,True,18
3K25,437,experiment,72,→,left,←,1.115754199679941,False,18
3K25,438,experiment,12,↓,no_key,no_letter,-1.0,False,18
3K25,439,experiment,36,←,left,←,0.8772311001084745,True,18
3K25,440,experiment,180,↑,up,↑,0.6820799997076392,True,18
3K25,441,experiment,168,↑,up,↑,0.7423443999141455,True,18
3K25,442,experiment,108,↑,up,↑,0.6930543002672493,True,18
3K25,443,experiment,120,↓,down,↓,0.6568728997372091,True,18
3K25,444,experiment,156,→,up,↑,0.8481205999851227,False,18
3K25,445,experiment,168,↑,up,↑,0.5661972998641431,True,18
3K25,446,experiment,132,←,left,←,0.5724192000925541,True,18
3K25,447,experiment,36,↑,up,↑,0.5710358000360429,True,18
3K25,448,experiment,108,←,left,←,0.742070300038904,True,18
3K25,449,experiment,96,↑,no_key,no_letter,-1.0,False,18
3K25,450,experiment,108,→,right,→,0.5136377001181245,True,18
3K25,451,experiment,24,↓,down,↓,0.5977841997519135,True,18
3K25,452,experiment,180,←,left,←,0.8110353001393378,True,18
3K25,453,experiment,48,←,right,→,0.8158638998866081,False,18
3K25,454,experiment,180,←,right,→,0.8456707000732422,False,18
3K25,455,experiment,120,→,right,→,0.5607754001393914,True,18
3K25,456,experiment,48,↑,right,→,0.7321729999966919,False,18
3K25,457,experiment,144,↓,right,→,0.5257389000616968,False,18
3K25,458,experiment,120,↓,right,→,0.6749834003858268,False,18
3K25,459,experiment,84,←,left,←,0.5951374997384846,True,18
3K25,460,experiment,156,→,left,←,0.951057200320065,False,18
3K25,461,experiment,156,→,right,→,0.980956600047648,True,18
3K25,462,experiment,168,→,left,←,1.2548798001371324,False,18
3K25,463,experiment,12,↑,left,←,0.7106148996390402,False,18
3K25,464,experiment,36,↓,down,↓,0.6452367999590933,True,18
3K25,465,experiment,108,→,up,↑,0.900600400287658,False,18
3K25,466,experiment,60,←,left,←,0.5656435000710189,True,18
3K25,467,experiment,84,→,right,→,0.48317100014537573,True,18
3K25,468,experiment,96,←,left,←,0.5933282002806664,True,18
3K25,469,experiment,24,→,right,→,0.5265680998563766,True,18
3K25,470,experiment,132,↓,down,↓,0.568970600143075,True,18
3K25,471,experiment,168,↑,up,↑,0.5071005998179317,True,18
3K25,472,training,96,↑,up,↑,0.9892873000353575,True,18
3K25,473,training,180,↑,left,←,0.6457433002069592,False,18
3K25,474,training,96,→,no_key,no_letter,-1.0,False,18
3K25,475,experiment,36,↓,down,↓,0.6064056996256113,True,18
3K25,476,experiment,24,↓,left,←,0.66440249979496,False,18
3K25,477,experiment,48,→,up,↑,0.9756939001381397,False,18
3K25,478,experiment,48,↓,left,←,0.7767381998710334,False,18
3K25,479,experiment,156,↓,down,↓,0.5795596996322274,True,18
3K25,480,experiment,168,↑,down,↓,0.8082963000051677,False,18
3K25,481,experiment,144,↑,down,↓,0.5977310999296606,False,18
3K25,482,experiment,144,↑,up,↑,0.5977480998262763,True,18
3K25,483,experiment,168,↑,up,↑,0.7215296002104878,True,18
3K25,484,experiment,168,←,left,←,0.5861337999813259,True,18
3K25,485,experiment,168,↑,left,←,0.9013728997670114,False,18
3K25,486,experiment,180,←,left,←,0.5711658000946045,True,18
3K25,487,experiment,12,←,right,→,1.1123024998232722,False,18
3K25,488,experiment,60,→,right,→,0.4877316001802683,True,18
3K25,489,experiment,84,→,left,←,0.6911686998791993,False,18
3K25,490,experiment,108,↓,down,↓,0.7276153997518122,True,18
3K25,491,experiment,72,←,left,←,1.0425606002099812,True,18
3K25,492,experiment,96,←,right,→,0.8417535000480711,False,18
3K25,493,experiment,24,→,right,→,0.6544256997294724,True,18
3K25,494,experiment,36,→,right,→,0.4844288998283446,True,18
3K25,495,experiment,156,→,right,→,0.5375355002470315,True,18
3K25,496,experiment,120,↑,left,←,1.014000200200826,False,18
3K25,497,experiment,144,→,right,→,0.7411131002008915,True,18
3K25,498,experiment,12,→,right,→,0.40106769977137446,True,18
3K25,499,experiment,108,→,right,→,0.7437192997895181,True,18
3K25,500,experiment,24,↓,down,↓,0.6137920999899507,True,18
3K25,501,experiment,84,←,down,↓,0.984220199752599,False,18
3K25,502,experiment,96,←,down,↓,1.0353278000839055,False,18
3K25,503,experiment,60,↓,down,↓,0.5090931998565793,True,18
3K25,504,experiment,84,↑,up,↑,0.5708571998402476,True,18
3K25,505,experiment,132,↑,up,↑,0.47109089978039265,True,18
3K25,506,experiment,72,↓,down,↓,0.9725086996331811,True,18
3K25,507,experiment,48,→,up,↑,0.7118627997115254,False,18
3K25,508,experiment,60,←,left,←,0.7183888000436127,True,18
3K25,509,experiment,36,→,left,←,1.0561430002562702,False,18
3K25,510,experiment,72,↓,down,↓,0.604392800014466,True,18
3K25,511,experiment,180,↑,up,↑,0.5455788001418114,True,18
3K25,512,experiment,12,↑,up,↑,0.41750970017164946,True,18
3K25,513,experiment,180,←,up,↑,0.6280173999257386,False,18
3K25,514,experiment,36,↑,up,↑,0.5146623002365232,True,18
3K25,515,experiment,132,↑,up,↑,0.594537400174886,True,18
3K25,516,experiment,24,←,left,←,0.6465446995571256,True,18
3K25,517,experiment,48,→,left,←,0.8766318997368217,False,18
3K25,518,experiment,120,←,left,←,0.9268900002352893,True,18
3K25,519,experiment,180,→,up,↑,0.6428880002349615,False,18
3K25,520,experiment,108,↓,up,↑,0.7909576999954879,False,18
3K25,521,experiment,156,↑,up,↑,1.0073343999683857,True,18
3K25,522,experiment,96,←,left,←,0.7611873997375369,True,18
3K25,523,experiment,84,→,left,←,0.5611856998875737,False,18
3K25,524,experiment,156,→,right,→,0.5708555998280644,True,18
3K25,525,experiment,132,←,left,←,0.4881425998173654,True,18
3K25,526,experiment,120,←,left,←,0.41712980018928647,True,18
3K25,527,experiment,12,↑,right,→,0.7865487998351455,False,18
3K25,528,experiment,108,→,right,→,0.41654889984056354,True,18
3K25,529,experiment,60,→,left,←,0.5165545996278524,False,18
3K25,530,experiment,72,↓,right,→,0.5330342999659479,False,18
3K25,531,experiment,120,↑,no_key,no_letter,-1.0,False,18
3K25,532,experiment,144,←,up,↑,0.5518157999031246,False,18
3K25,533,experiment,96,←,right,→,0.899613100104034,False,18
3K25,534,experiment,132,→,right,→,0.47747919987887144,True,18
3K25,535,training,72,→,left,←,0.8975888998247683,False,18
3K25,536,training,156,←,right,→,0.6391502004116774,False,18
3K25,537,training,156,→,right,→,0.6587879997678101,True,18
3K25,538,experiment,180,↑,up,↑,1.7786813001148403,True,18
3K25,539,experiment,168,↑,down,↓,0.992212999612093,False,18
3K25,540,experiment,60,←,up,↑,0.7499449998140335,False,18
3K25,541,experiment,36,→,right,→,0.478700699750334,True,18
3K25,542,experiment,108,←,left,←,0.5929312999360263,True,18
3K25,543,experiment,132,↑,up,↑,0.6176953003741801,True,18
3K25,544,experiment,108,↓,down,↓,0.811298499815166,True,18
3K25,545,experiment,36,↑,up,↑,0.5693957996554673,True,18
3K25,546,experiment,12,←,left,←,0.5612801001407206,True,18
3K25,547,experiment,156,↑,down,↓,0.7990643996745348,False,18
3K25,548,experiment,60,↓,right,→,0.7107704998925328,False,18
3K25,549,experiment,120,↑,up,↑,0.5107718999497592,True,18
3K25,550,experiment,24,↑,left,←,0.48831119993701577,False,18
3K25,551,experiment,168,↓,up,↑,0.6650040997192264,False,18
3K25,552,experiment,132,↓,down,↓,0.692924200091511,True,18
3K25,553,experiment,144,←,up,↑,0.846596600022167,False,18
3K25,554,experiment,168,→,right,→,0.5660872999578714,True,18
3K25,555,experiment,180,↓,down,↓,0.5354466000571847,True,18
3K25,556,experiment,72,→,right,→,0.47605889989063144,True,18
3K25,557,experiment,24,↓,down,↓,1.0195889002643526,True,18
3K25,558,experiment,12,←,left,←,0.7146466001868248,True,18
3K25,559,experiment,48,↑,down,↓,0.8445258997380733,False,18
3K25,560,experiment,96,←,right,→,0.5821190001443028,False,18
3K25,561,experiment,156,→,right,→,0.5488268001936376,True,18
3K25,562,experiment,60,↓,right,→,0.8881047000177205,False,18
3K25,563,experiment,48,←,left,←,1.0129212001338601,True,18
3K25,564,experiment,12,↓,right,→,0.9861173001118004,False,18
3K25,565,experiment,144,↓,right,→,0.6746127000078559,False,18
3K25,566,experiment,48,←,left,←,0.971378399990499,True,18
3K25,567,experiment,24,↓,down,↓,0.6923907003365457,True,18
3K25,568,experiment,84,→,down,↓,0.7159897997044027,False,18
3K25,569,experiment,84,←,left,←,0.7754465001635253,True,18
3K25,570,experiment,96,→,right,→,0.5535336001776159,True,18
3K25,571,experiment,120,→,left,←,0.6066737002693117,False,18
3K25,572,experiment,108,→,down,↓,0.8090979000553489,False,18
3K25,573,experiment,72,↓,down,↓,0.594484499655664,True,18
3K25,574,experiment,24,←,left,←,0.6270714001730084,True,18
3K25,575,experiment,120,↑,up,↑,0.8845279002562165,True,18
3K25,576,experiment,72,→,right,→,0.542645899578929,True,18
3K25,577,experiment,96,↑,no_key,no_letter,-1.0,False,18
3K25,578,experiment,36,↓,down,↓,0.6360716000199318,True,18
3K25,579,experiment,84,↑,up,↑,0.940342599991709,True,18
3K25,580,experiment,168,↑,down,↓,0.9045089003629982,False,18
3K25,581,experiment,72,→,right,→,0.6183569999411702,True,18
3K25,582,experiment,144,↑,up,↑,0.6159903998486698,True,18
3K25,583,experiment,12,↓,no_key,no_letter,-1.0,False,18
3K25,584,experiment,120,↑,up,↑,0.6002710000611842,True,18
3K25,585,experiment,156,↓,down,↓,0.6074032001197338,True,18
3K25,586,experiment,48,↓,down,↓,0.6077370001003146,True,18
3K25,587,experiment,60,↑,up,↑,0.5005580000579357,True,18
3K25,588,experiment,36,←,left,←,1.0614137998782098,True,18
3K25,589,experiment,156,←,up,↑,0.6367621002718806,False,18
3K25,590,experiment,180,↓,down,↓,0.5992119000293314,True,18
3K25,591,experiment,132,→,down,↓,0.7572572999633849,False,18
3K25,592,experiment,180,←,left,←,0.6795291998423636,True,18
3K25,593,experiment,108,→,right,→,0.5582362995482981,True,18
3K25,594,experiment,132,↓,down,↓,0.5378310000523925,True,18
3K25,595,experiment,144,→,down,↓,0.8787377001717687,False,18
3K25,596,experiment,96,←,left,←,1.4649813999421895,True,18
3K25,597,experiment,84,↑,right,→,0.8950320999138057,False,18
3K25,598,training,48,↓,left,←,0.7121810996904969,False,18
3K25,599,training,180,↑,up,↑,0.7741895001381636,True,18
3K25,600,training,180,→,left,←,0.7158044003881514,False,18
3K25,601,experiment,24,↑,no_key,no_letter,-1.0,False,18
3K25,602,experiment,96,←,right,→,0.7567377998493612,False,18
3K25,603,experiment,24,←,left,←,0.5536601999774575,True,18
3K25,604,experiment,84,↑,left,←,0.6841270001605153,False,18
3K25,605,experiment,168,↑,right,→,1.140432700049132,False,18
3K25,606,experiment,144,→,right,→,0.5434643998742104,True,18
3K25,607,experiment,60,←,left,←,0.6264581000432372,True,18
3K25,608,experiment,48,↑,right,→,0.5288907000795007,False,18
3K25,609,experiment,132,→,left,←,0.7443292001262307,False,18
3K25,610,experiment,60,↑,up,↑,0.6652615000493824,True,18
3K25,611,experiment,84,↓,down,↓,0.642372400034219,True,18
3K25,612,experiment,168,→,right,→,0.4011813998222351,True,18
3K25,613,experiment,48,↑,up,↑,0.5115586998872459,True,18
3K25,614,experiment,96,↑,right,→,0.6518743997439742,False,18
3K25,615,experiment,48,↑,up,↑,0.6023919996805489,True,18
3K25,616,experiment,24,↑,up,↑,0.43341400008648634,True,18
3K25,617,experiment,108,↑,no_key,no_letter,-1.0,False,18
3K25,618,experiment,120,←,up,↑,0.8177001997828484,False,18
3K25,619,experiment,120,←,no_key,no_letter,-1.0,False,18
3K25,620,experiment,108,↑,no_key,no_letter,-1.0,False,18
3K25,621,experiment,144,←,right,→,0.7673732000403106,False,18
3K25,622,experiment,12,←,left,←,0.7831731997430325,True,18
3K25,623,experiment,108,↓,down,↓,0.6290047997608781,True,18
3K25,624,experiment,84,←,left,←,0.5817501000128686,True,18
3K25,625,experiment,156,↑,up,↑,0.5834106998518109,True,18
3K25,626,experiment,96,↑,up,↑,0.54259920027107,True,18
3K25,627,experiment,72,↑,up,↑,0.6967837000265718,True,18
3K25,628,experiment,36,→,up,↑,1.137880700174719,False,18
3K25,629,experiment,12,←,up,↑,0.9530070000328124,False,18
3K25,630,experiment,120,←,left,←,0.5358535996638238,True,18
3K25,631,experiment,156,↑,up,↑,0.5662993001751602,True,18
3K25,632,experiment,36,→,right,→,0.49414499988779426,True,18
3K25,633,experiment,132,←,right,→,0.7119515999220312,False,18
3K25,634,experiment,168,↓,right,→,0.7621058002114296,False,18
3K25,635,experiment,144,→,right,→,0.5601695999503136,True,18
3K25,636,experiment,24,→,up,↑,1.3024152000434697,False,18
3K25,637,experiment,180,→,right,→,0.4973336001858115,True,18
3K25,638,experiment,156,←,right,→,0.5870995000004768,False,18
3K25,639,experiment,156,↓,down,↓,0.6629937002435327,True,18
3K25,640,experiment,60,→,right,→,0.5492746001109481,True,18
3K25,641,experiment,72,↑,up,↑,0.7803696999326348,True,18
3K25,642,experiment,96,↑,up,↑,0.8621640000492334,True,18
3K25,643,experiment,180,←,up,↑,0.433829499874264,False,18
3K25,644,experiment,120,↓,down,↓,0.6584604000672698,True,18
3K25,645,experiment,84,↓,down,↓,0.5765625000931323,True,18
3K25,646,experiment,144,→,down,↓,0.5803914000280201,False,18
3K25,647,experiment,36,→,right,→,0.5992517997510731,True,18
3K25,648,experiment,72,↑,up,↑,0.6881968001835048,True,18
3K25,649,experiment,168,→,right,→,0.5442082001827657,True,18
3K25,650,experiment,12,←,left,←,0.6472546998411417,True,18
3K25,651,experiment,72,←,left,←,0.43370809964835644,True,18
3K25,652,experiment,108,↓,down,↓,0.6956870001740754,True,18
3K25,653,experiment,132,↑,up,↑,0.5496165999211371,True,18
3K25,654,experiment,132,→,right,→,0.4903600998222828,True,18
3K25,655,experiment,48,↑,up,↑,0.5346495998091996,True,18
3K25,656,experiment,12,←,no_key,no_letter,-1.0,False,18
3K25,657,experiment,60,→,right,→,0.5542591996490955,True,18
3K25,658,experiment,180,←,up,↑,0.6744625000283122,False,18
3K25,659,experiment,36,↑,up,↑,0.5521029001101851,True,18
3K25,660,experiment,180,→,up,↑,0.6092312997207046,False,18
3K25,661,training,108,←,left,←,0.9995444002561271,True,18
3K25,662,training,108,←,right,→,0.8249190002679825,False,18
3K25,663,training,144,←,right,→,0.5409212997183204,False,18
3K25,664,experiment,180,↓,right,→,0.5635007000528276,False,18
3K25,665,experiment,168,↓,down,↓,0.7956373002380133,True,18
3K25,666,experiment,144,↑,down,↓,0.6363460998982191,False,18
3K25,667,experiment,48,→,down,↓,0.7307754997164011,False,18
3K25,668,experiment,144,↑,up,↑,0.7125296997837722,True,18
3K25,669,experiment,108,←,left,←,0.8564309002831578,True,18
3K25,670,experiment,168,→,down,↓,0.6550590000115335,False,18
3K25,671,experiment,24,↑,down,↓,0.6577392998151481,False,18
3K25,672,experiment,180,↑,up,↑,0.5086789997294545,True,18
3K25,673,experiment,120,↑,up,↑,0.41764539992436767,True,18
3K25,674,experiment,132,←,left,←,0.5575977996923029,True,18
3K25,675,experiment,36,↓,up,↑,0.86635070014745,False,18
3K25,676,experiment,132,↑,left,←,0.6233286000788212,False,18
3K25,677,experiment,12,←,left,←,1.0077367997728288,True,18
3K25,678,experiment,108,→,right,→,1.1179200001060963,True,18
3K25,679,experiment,156,←,left,←,0.6655808999203146,True,18
3K25,680,experiment,36,↓,no_key,no_letter,-1.0,False,18
3K25,681,experiment,108,↓,left,←,0.5873406999744475,False,18
3K25,682,experiment,24,↑,left,←,1.0283527001738548,False,18
3K25,683,experiment,168,→,right,→,0.6042562001384795,True,18
3K25,684,experiment,96,←,no_key,no_letter,-1.0,False,18
3K25,685,experiment,120,←,left,←,0.7400183002464473,True,18
3K25,686,experiment,84,↓,down,↓,0.6712365001440048,True,18
3K25,687,experiment,156,↑,up,↑,0.6211208999156952,True,18
3K25,688,experiment,156,↓,down,↓,0.6501853000372648,True,18
3K25,689,experiment,84,→,right,→,0.5326602002605796,True,18
3K25,690,experiment,72,↓,down,↓,0.6530595002695918,True,18
3K25,691,experiment,144,↑,up,↑,0.6825061999261379,True,18
3K25,692,experiment,168,←,left,←,0.6638801000081003,True,18
3K25,693,experiment,60,↓,no_key,no_letter,-1.0,False,18
3K25,694,experiment,48,↑,up,↑,0.8715834002941847,True,18
3K25,695,experiment,84,↓,down,↓,0.6387784001417458,True,18
3K25,696,experiment,96,↓,down,↓,0.5436861999332905,True,18
3K25,697,experiment,156,↓,down,↓,0.5509676001966,True,18
3K25,698,experiment,180,↑,up,↑,0.5589894000440836,True,18
3K25,699,experiment,60,←,down,↓,1.2325827996246517,False,18
3K25,700,experiment,180,↑,right,→,0.6947606997564435,False,18
3K25,701,experiment,12,↑,down,↓,0.8001152002252638,False,18
3K25,702,experiment,48,←,left,←,0.7850346998311579,True,18
3K25,703,experiment,12,←,left,←,0.56165979988873,True,18
3K25,704,experiment,108,↓,down,↓,0.618189699947834,True,18
3K25,705,experiment,72,↓,down,↓,0.46906330017372966,True,18
3K25,706,experiment,60,↑,up,↑,0.979498100001365,True,18
3K25,707,experiment,24,→,down,↓,0.7815176001749933,False,18
3K25,708,experiment,72,→,right,→,0.5901726000010967,True,18
3K25,709,experiment,60,↓,left,←,0.9005820997990668,False,18
3K25,710,experiment,24,↓,right,→,1.3537481999956071,False,18
3K25,711,experiment,36,←,left,←,0.6412553996779025,True,18
3K25,712,experiment,84,↓,left,←,0.6548601998947561,False,18
3K25,713,experiment,132,↑,up,↑,0.5755240996368229,True,18
3K25,714,experiment,132,↓,down,↓,0.5313229998573661,True,18
3K25,715,experiment,72,↑,left,←,0.5106047000735998,False,18
3K25,716,experiment,96,↑,up,↑,0.48305709986016154,True,18
3K25,717,experiment,144,→,right,→,0.9991641002707183,True,18
3K25,718,experiment,96,←,left,←,0.5308143002912402,True,18
3K25,719,experiment,12,↓,down,↓,0.685550699941814,True,18
3K25,720,experiment,36,←,left,←,1.0297656999900937,True,18
3K25,721,experiment,48,→,right,→,0.8572232001461089,True,18
3K25,722,experiment,120,↓,down,↓,0.9180153999477625,True,18
3K25,723,experiment,120,←,left,←,0.5527155003510416,True,18
3K25,724,training,132,→,left,←,0.8224976998753846,False,18
3K25,725,training,108,↓,left,←,0.9052173001691699,False,18
3K25,726,training,36,↓,right,→,0.5113633000291884,False,18
3K25,727,experiment,84,↓,right,→,0.810153900180012,False,18
3K25,728,experiment,144,↑,right,→,1.0074890996329486,False,18
3K25,729,experiment,132,←,left,←,0.6464856998063624,True,18
3K25,730,experiment,168,→,right,→,0.6003232998773456,True,18
3K25,731,experiment,120,↓,down,↓,0.6334991003386676,True,18
3K25,732,experiment,12,↑,up,↑,0.527496200054884,True,18
3K25,733,experiment,96,↓,down,↓,0.5474792998284101,True,18
3K25,734,experiment,120,↑,up,↑,0.4896431998349726,True,18
3K25,735,experiment,36,→,right,→,0.4900289000943303,True,18
3K25,736,experiment,156,↓,down,↓,0.6189589998684824,True,18
3K25,737,experiment,132,→,right,→,0.6729673002846539,True,18
3K25,738,experiment,12,↑,up,↑,0.5613881000317633,True,18
3K25,739,experiment,36,→,right,→,0.5692691002041101,True,18
3K25,740,experiment,180,←,right,→,0.7573974998667836,False,18
3K25,741,experiment,72,→,right,→,0.5441379998810589,True,18
3K25,742,experiment,48,←,right,→,0.9750362997874618,False,18
3K25,743,experiment,48,↑,up,↑,0.6557410997338593,True,18
3K25,744,experiment,144,↑,right,→,0.6542672999203205,False,18
3K25,745,experiment,168,↑,up,↑,0.6905800001695752,True,18
3K25,746,experiment,48,←,left,←,0.6243708999827504,True,18
3K25,747,experiment,108,↓,down,↓,0.8458214001730084,True,18
3K25,748,experiment,156,→,up,↑,0.749834000132978,False,18
3K25,749,experiment,24,→,right,→,0.6228205002844334,True,18
3K25,750,experiment,96,→,right,→,0.5498631997033954,True,18
3K25,751,experiment,60,↓,down,↓,0.6881789001636207,True,18
3K25,752,experiment,132,↑,up,↑,0.5985081000253558,True,18
3K25,753,experiment,24,→,right,→,1.2189670000225306,True,18
3K25,754,experiment,84,→,no_key,no_letter,-1.0,False,18
3K25,755,experiment,132,←,right,→,0.5219999998807907,False,18
3K25,756,experiment,24,↓,right,→,0.41698750015348196,False,18
3K25,757,experiment,144,←,left,←,0.6511332001537085,True,18
3K25,758,experiment,60,←,left,←,0.5795944002456963,True,18
3K25,759,experiment,120,↓,down,↓,0.5546896997839212,True,18
3K25,760,experiment,12,↑,down,↓,0.9728867998346686,False,18
3K25,761,experiment,36,→,right,→,0.5273032002151012,True,18
3K25,762,experiment,72,→,right,→,0.5252280998975039,True,18
3K25,763,experiment,156,↓,down,↓,0.6527335997670889,True,18
3K25,764,experiment,60,↓,down,↓,0.570480199996382,True,18
3K25,765,experiment,108,↓,up,↑,1.2460067002102733,False,18
3K25,766,experiment,72,←,left,←,0.6840607998892665,True,18
3K25,767,experiment,24,↑,up,↑,0.7549255001358688,True,18
3K25,768,experiment,168,↑,up,↑,1.0945361997000873,True,18
3K25,769,experiment,180,↑,no_key,no_letter,-1.0,False,18
3K25,770,experiment,60,↓,up,↑,0.6527353003621101,False,18
3K25,771,experiment,84,→,right,→,0.4726165998727083,True,18
3K25,772,experiment,120,←,left,←,0.4820174998603761,True,18
3K25,773,experiment,72,←,left,←,0.719806999899447,True,18
3K25,774,experiment,96,↑,up,↑,0.6338535998947918,True,18
3K25,775,experiment,168,→,left,←,0.8697099001146853,False,18
3K25,776,experiment,156,←,left,←,0.5609256001189351,True,18
3K25,777,experiment,108,↓,no_key,no_letter,-1.0,False,18
3K25,778,experiment,144,←,left,←,0.5867407000623643,True,18
3K25,779,experiment,108,↑,up,↑,0.5616418002173305,True,18
3K25,780,experiment,12,←,no_key,no_letter,-1.0,False,18
3K25,781,experiment,180,↓,up,↑,0.7288675997406244,False,18
3K25,782,experiment,48,↑,up,↑,0.4960385002195835,True,18
3K25,783,experiment,36,→,right,→,0.4953698003664613,True,18
3K25,784,experiment,84,↑,right,→,1.7872375003062189,False,18
3K25,785,experiment,180,←,up,↑,0.7901053000241518,False,18
3K25,786,experiment,96,↓,down,↓,0.7625613999553025,True,18
3K25,787,training,168,↑,right,→,0.4752302002161741,False,18
3K25,788,training,12,→,left,←,1.0601706001907587,False,18
3K25,789,training,180,↑,up,↑,0.7613735999912024,True,18
3K25,790,experiment,168,↑,up,↑,0.49748050002381206,True,18
3K25,791,experiment,156,←,left,←,0.8059085998684168,True,18
3K25,792,experiment,120,↑,up,↑,0.5967425000853837,True,18
3K25,793,experiment,72,→,right,→,0.5141904000192881,True,18
3K25,794,experiment,132,↑,up,↑,0.489716500043869,True,18
3K25,795,experiment,108,↑,up,↑,0.7267440999858081,True,18
3K25,796,experiment,180,↑,up,↑,0.91490270011127,True,18
3K25,797,experiment,36,→,right,→,0.4852533000521362,True,18
3K25,798,experiment,156,↓,down,↓,0.7843697997741401,True,18
3K25,799,experiment,156,↑,up,↑,0.4841613997705281,True,18
3K25,800,experiment,84,↓,up,↑,0.7552382000721991,False,18
3K25,801,experiment,120,↓,up,↑,0.5547328996472061,False,18
3K25,802,experiment,24,←,no_key,no_letter,-1.0,False,18
3K25,803,experiment,96,↑,up,↑,0.6601885999552906,True,18
3K25,804,experiment,48,→,up,↑,1.046590100042522,False,18
3K25,805,experiment,36,↑,up,↑,0.5364844999276102,True,18
3K25,806,experiment,72,←,up,↑,0.6761583997868001,False,18
3K25,807,experiment,84,↓,up,↑,0.6247474001720548,False,18
3K25,808,experiment,180,←,up,↑,0.5370805002748966,False,18
3K25,809,experiment,132,↑,up,↑,0.5283949002623558,True,18
3K25,810,experiment,144,→,right,→,1.3445208999328315,True,18
3K25,811,experiment,96,←,left,←,0.6151707000099123,True,18
3K25,812,experiment,84,↑,right,→,0.9299774002283812,False,18
3K25,813,experiment,132,→,no_key,no_letter,-1.0,False,18
3K25,814,experiment,12,←,left,←,1.026801799889654,True,18
3K25,815,experiment,168,←,left,←,0.4950795001350343,True,18
3K25,816,experiment,168,→,right,→,0.6884892997331917,True,18
3K25,817,experiment,48,←,left,←,0.8892691996879876,True,18
3K25,818,experiment,60,↑,up,↑,0.6460879999212921,True,18
3K25,819,experiment,108,←,no_key,no_letter,-1.0,False,18
3K25,820,experiment,36,←,right,→,0.9187442003749311,False,18
3K25,821,experiment,24,↑,up,↑,0.6058153999038041,True,18
3K25,822,experiment,60,←,right,→,1.5801081997342408,False,18
3K25,823,experiment,12,↓,down,↓,0.6365991001948714,True,18
3K25,824,experiment,120,↓,down,↓,0.6258183000609279,True,18
3K25,825,experiment,60,↓,right,→,0.9848902001976967,False,18
3K25,826,experiment,120,↑,up,↑,0.5954014002345502,True,18
3K25,827,experiment,156,↑,up,↑,0.5222372999414802,True,18
3K25,828,experiment,108,↓,right,→,0.6389085003174841,False,18
3K25,829,experiment,180,←,up,↑,0.7804800998419523,False,18
3K25,830,experiment,108,→,up,↑,1.031525899656117,False,18
3K25,831,experiment,12,→,no_key,no_letter,-1.0,False,18
3K25,832,experiment,48,↓,no_key,no_letter,-1.0,False,18
3K25,833,experiment,12,↑,no_key,no_letter,-1.0,False,18
3K25,834,experiment,60,→,left,←,1.06082300003618,False,18
3K25,835,experiment,132,←,up,↑,0.8560465001501143,False,18
3K25,836,experiment,144,←,up,↑,0.6971102999523282,False,18
3K25,837,experiment,84,←,up,↑,0.6613751002587378,False,18
3K25,838,experiment,48,←,left,←,0.5503024999052286,True,18
3K25,839,experiment,72,↑,up,↑,0.53200350003317,True,18
3K25,840,experiment,36,↑,up,↑,0.8265843000262976,True,18
3K25,841,experiment,24,↑,up,↑,0.5177673003636301,True,18
3K25,842,experiment,24,↑,up,↑,0.8315294999629259,True,18
3K25,843,experiment,96,→,right,→,0.6068155001848936,True,18
3K25,844,experiment,72,↓,down,↓,0.6582365003414452,True,18
3K25,845,experiment,144,←,right,→,0.9713284000754356,False,18
3K25,846,experiment,168,→,right,→,0.8445048998109996,True,18
3K25,847,experiment,180,←,left,←,1.0624568001367152,True,18
3K25,848,experiment,96,←,left,←,0.5818178998306394,True,18
3K25,849,experiment,144,→,right,→,0.53319470025599,True,18
