PART_ID,Trial_no,Trial_type,PDI,Stim_letter,Key_pressed,letter_choose,Rt,Corr,Stimulus Time
4M18,1,training,10,↓,no_key,no_letter,-1.0,False,30
4M18,2,training,10,→,no_key,no_letter,-1.0,False,30
4M18,3,training,10,↓,no_key,no_letter,-1.0,False,30
4M18,4,training,10,↑,left,←,1.8557657999917865,False,30
4M18,5,training,10,↓,left,←,1.5718527999706566,False,30
4M18,6,training,10,↑,right,→,1.8048036000691354,False,30
4M18,7,training,10,↑,down,↓,1.4137676004320383,False,30
4M18,8,training,10,→,down,↓,1.7044915999285877,False,30
4M18,9,training,10,←,down,↓,1.3595807999372482,False,30
4M18,10,training,10,→,down,↓,0.9741546995937824,False,30
4M18,11,training,10,↓,right,→,0.8272504997439682,False,30
4M18,12,training,10,↓,right,→,1.963947500102222,False,30
4M18,13,training,10,↓,down,↓,0.8967873998917639,True,30
4M18,14,training,10,↑,left,←,1.0846289000473917,False,30
4M18,15,training,10,↑,no_key,no_letter,-1.0,False,30
4M18,16,training,10,→,right,→,1.7045607999898493,True,30
4M18,17,training,10,↑,down,↓,0.5839800001122057,False,30
4M18,18,training,10,↓,right,→,0.5503407996147871,False,30
4M18,19,training,10,←,left,←,0.6004909002222121,True,30
4M18,20,training,10,↑,left,←,0.5671545998193324,False,30
4M18,21,training,10,↑,down,↓,1.2388278003782034,False,18
4M18,22,training,10,↑,right,→,0.30049220006912947,False,18
4M18,23,training,10,→,left,←,1.22552469978109,False,18
4M18,24,training,10,↑,left,←,0.49605249986052513,False,18
4M18,25,training,10,←,right,→,0.2837418997660279,False,18
4M18,26,training,10,→,left,←,0.4895707997493446,False,18
4M18,27,training,10,↑,left,←,0.31732509983703494,False,18
4M18,28,training,10,↑,right,→,0.8522932003252208,False,18
4M18,29,training,10,→,down,↓,0.6260772999376059,False,18
4M18,30,training,10,←,left,←,0.5541962999850512,True,18
4M18,31,training,108,→,left,←,0.4568750001490116,False,15
4M18,32,training,108,↑,left,←,0.41851980006322265,False,15
4M18,33,training,96,←,left,←,0.47421339992433786,True,15
4M18,34,experiment,72,←,left,←,1.0097101000137627,True,15
4M18,35,experiment,168,↓,no_key,no_letter,-1.0,False,15
4M18,36,experiment,36,←,left,←,1.4476113002747297,True,15
4M18,37,experiment,36,←,right,→,0.7436505001969635,False,15
4M18,38,experiment,48,↓,left,←,0.8277867003343999,False,15
4M18,39,experiment,84,↓,left,←,0.7740966002456844,False,15
4M18,40,experiment,144,←,left,←,0.8063350999727845,True,15
4M18,41,experiment,144,↑,right,→,1.0300930002704263,False,15
4M18,42,experiment,108,←,left,←,1.2430891003459692,True,15
4M18,43,experiment,180,→,left,←,0.8792527001351118,False,15
4M18,44,experiment,12,↑,right,→,0.9959084000438452,False,15
4M18,45,experiment,12,←,left,←,1.2121303002350032,True,15
4M18,46,experiment,36,↑,left,←,1.3518413002602756,False,15
4M18,47,experiment,144,↑,no_key,no_letter,-1.0,False,15
4M18,48,experiment,180,←,right,→,0.844340399838984,False,15
4M18,49,experiment,108,↑,no_key,no_letter,-1.0,False,15
4M18,50,experiment,60,→,left,←,1.0071793999522924,False,15
4M18,51,experiment,156,↓,left,←,0.9299423000775278,False,15
4M18,52,experiment,48,↑,left,←,0.9934477000497282,False,15
4M18,53,experiment,180,→,right,→,0.7111426000483334,True,15
4M18,54,experiment,156,↑,left,←,0.8291219999082386,False,15
4M18,55,experiment,96,↓,left,←,1.202683299779892,False,15
4M18,56,experiment,96,↑,left,←,0.9231499000452459,False,15
4M18,57,experiment,60,←,right,→,0.9023269996978343,False,15
4M18,58,experiment,132,←,left,←,1.3556659002788365,True,15
4M18,59,experiment,120,↓,right,→,1.3873490998521447,False,15
4M18,60,experiment,84,↓,left,←,1.111538500059396,False,15
4M18,61,experiment,108,→,right,→,0.8963833996094763,True,15
4M18,62,experiment,24,↓,right,→,1.6717031002044678,False,15
4M18,63,experiment,120,↑,left,←,1.1731357001699507,False,15
4M18,64,experiment,156,→,left,←,0.8692776001989841,False,15
4M18,65,experiment,48,←,right,→,1.3666611001826823,False,15
4M18,66,experiment,24,→,right,→,0.9899515002034605,True,15
4M18,67,experiment,60,↑,right,→,0.683322099968791,False,15
4M18,68,experiment,60,←,left,←,0.8087292001582682,True,15
4M18,69,experiment,36,→,right,→,0.7836100002750754,True,15
4M18,70,experiment,168,→,right,→,1.1559191001579165,True,15
4M18,71,experiment,180,↓,right,→,0.8304083002731204,False,15
4M18,72,experiment,108,↓,left,←,1.2669944996014237,False,15
4M18,73,experiment,120,→,left,←,0.8154921997338533,False,15
4M18,74,experiment,24,↓,right,→,0.5454937000758946,False,15
4M18,75,experiment,168,↓,left,←,0.9013815997168422,False,15
4M18,76,experiment,72,↑,right,→,0.8660494000650942,False,15
4M18,77,experiment,72,↓,left,←,1.27277070004493,False,15
4M18,78,experiment,156,↑,right,→,0.8012192999012768,False,15
4M18,79,experiment,132,→,left,←,1.174020300153643,False,15
4M18,80,experiment,120,↓,right,→,0.8646613000892103,False,15
4M18,81,experiment,144,↓,left,←,1.127486899960786,False,15
4M18,82,experiment,96,↓,left,←,1.1569535001181066,False,15
4M18,83,experiment,132,←,left,←,1.130050300154835,True,15
4M18,84,experiment,72,↓,no_key,no_letter,-1.0,False,15
4M18,85,experiment,48,→,right,→,0.6469141002744436,True,15
4M18,86,experiment,12,→,left,←,1.4481883998960257,False,15
4M18,87,experiment,168,→,right,→,0.821331700310111,True,15
4M18,88,experiment,96,→,right,→,1.0391498999670148,True,15
4M18,89,experiment,84,↓,left,←,0.7159513998776674,False,15
4M18,90,experiment,84,↑,right,→,0.6923742997460067,False,15
4M18,91,experiment,24,↓,right,→,0.7718099998310208,False,15
4M18,92,experiment,132,↓,right,→,0.8117174999788404,False,15
4M18,93,experiment,12,←,left,←,0.568389399908483,True,15
4M18,94,training,84,↑,right,→,0.6878046998754144,False,16
4M18,95,training,36,←,right,→,0.76041299989447,False,16
4M18,96,training,144,↓,left,←,1.688884399831295,False,16
4M18,97,experiment,156,←,no_key,no_letter,-1.0,False,16
4M18,98,experiment,144,→,right,→,0.8433656999841332,True,16
4M18,99,experiment,84,←,no_key,no_letter,-1.0,False,16
4M18,100,experiment,72,↓,right,→,0.7511184001341462,False,16
4M18,101,experiment,108,↑,right,→,0.9644256001338363,False,16
4M18,102,experiment,120,→,left,←,0.907957199960947,False,16
4M18,103,experiment,24,↓,left,←,1.0511269001290202,False,16
4M18,104,experiment,36,←,right,→,0.775000000372529,False,16
4M18,105,experiment,36,←,left,←,1.1129938997328281,True,16
4M18,106,experiment,72,↑,right,→,0.8103366000577807,False,16
4M18,107,experiment,156,→,no_key,no_letter,-1.0,False,16
4M18,108,experiment,36,↑,left,←,0.9765408998355269,False,16
4M18,109,experiment,48,→,left,←,0.5669311000965536,False,16
4M18,110,experiment,108,↓,left,←,0.8309243996627629,False,16
4M18,111,experiment,60,↑,right,→,0.6886062999255955,False,16
4M18,112,experiment,120,→,right,→,0.8699560002423823,True,16
4M18,113,experiment,96,↓,left,←,0.9795229001902044,False,16
4M18,114,experiment,12,↓,right,→,0.9190615001134574,False,16
4M18,115,experiment,96,↑,left,←,0.7430094997398555,False,16
4M18,116,experiment,24,←,right,→,0.8708383999764919,False,16
4M18,117,experiment,84,→,right,→,1.5597040001302958,True,16
4M18,118,experiment,108,←,no_key,no_letter,-1.0,False,16
4M18,119,experiment,168,→,left,←,0.959094800055027,False,16
4M18,120,experiment,180,↑,right,→,0.778787599876523,False,16
4M18,121,experiment,168,←,left,←,1.1977868000976741,True,16
4M18,122,experiment,144,→,right,→,0.668268300127238,True,16
4M18,123,experiment,144,→,right,→,0.9724627998657525,True,16
4M18,124,experiment,180,→,right,→,0.9523366000503302,True,16
4M18,125,experiment,120,←,right,→,0.7797993002459407,False,16
4M18,126,experiment,60,↓,right,→,0.898654299788177,False,16
4M18,127,experiment,48,←,right,→,0.6349562001414597,False,16
4M18,128,experiment,120,↑,left,←,0.6712825996801257,False,16
4M18,129,experiment,12,→,no_key,no_letter,-1.0,False,16
4M18,130,experiment,180,↓,left,←,0.9744279999285936,False,16
4M18,131,experiment,72,↓,left,←,0.8152448004111648,False,16
4M18,132,experiment,12,←,left,←,0.7491971999406815,True,16
4M18,133,experiment,168,↓,no_key,no_letter,-1.0,False,16
4M18,134,experiment,60,↓,left,←,1.0639239996671677,False,16
4M18,135,experiment,96,↑,no_key,no_letter,-1.0,False,16
4M18,136,experiment,168,→,right,→,0.9046755000017583,True,16
4M18,137,experiment,180,↑,left,←,1.822250900324434,False,16
4M18,138,experiment,132,→,right,→,0.6544087999500334,True,16
4M18,139,experiment,144,↑,right,→,0.528477200306952,False,16
4M18,140,experiment,36,→,right,→,0.49475149996578693,True,16
4M18,141,experiment,84,↓,right,→,0.4627264002338052,False,16
4M18,142,experiment,48,←,left,←,0.6332538998685777,True,16
4M18,143,experiment,84,→,no_key,no_letter,-1.0,False,16
4M18,144,experiment,24,↑,left,←,0.4629155001603067,False,16
4M18,145,experiment,132,←,left,←,0.6315966001711786,True,16
4M18,146,experiment,24,↑,right,→,0.5102301998995245,False,16
4M18,147,experiment,60,↓,right,→,0.3674519998021424,False,16
4M18,148,experiment,72,←,left,←,0.2504571001045406,True,16
4M18,149,experiment,12,↓,left,←,0.3504818002693355,False,16
4M18,150,experiment,48,↑,left,←,0.2506655999459326,False,16
4M18,151,experiment,156,↓,left,←,0.20029860036447644,False,16
4M18,152,experiment,156,↑,left,←,0.5924392999149859,False,16
4M18,153,experiment,96,↓,left,←,1.1861300002783537,False,16
4M18,154,experiment,108,↑,right,→,0.2504325001500547,False,16
4M18,155,experiment,132,←,left,←,0.47972120018675923,True,16
4M18,156,experiment,132,↑,left,←,0.43513969983905554,False,16
4M18,157,training,60,→,left,←,0.4170254999771714,False,17
4M18,158,training,96,←,no_key,no_letter,-1.0,False,17
4M18,159,training,156,↑,right,→,0.31727360002696514,False,17
4M18,160,experiment,84,←,left,←,0.36725359968841076,True,17
4M18,161,experiment,180,↓,right,→,0.3838213002309203,False,17
4M18,162,experiment,132,↓,no_key,no_letter,-1.0,False,17
4M18,163,experiment,120,↓,left,←,0.40102009987458587,False,17
4M18,164,experiment,132,→,right,→,0.2671354999765754,True,17
4M18,165,experiment,60,↑,right,→,0.33381780004128814,False,17
4M18,166,experiment,96,↓,right,→,0.2672918997704983,False,17
4M18,167,experiment,60,→,left,←,0.3837733999826014,False,17
4M18,168,experiment,48,→,no_key,no_letter,-1.0,False,17
4M18,169,experiment,60,↑,left,←,0.4172216998413205,False,17
4M18,170,experiment,108,←,no_key,no_letter,-1.0,False,17
4M18,171,experiment,108,↑,left,←,0.38380090007558465,False,17
4M18,172,experiment,72,→,no_key,no_letter,-1.0,False,17
4M18,173,experiment,180,↑,right,→,0.5653412998653948,False,17
4M18,174,experiment,36,↓,right,→,0.4617074001580477,False,17
4M18,175,experiment,36,↓,left,←,0.417242499999702,False,17
4M18,176,experiment,156,↑,left,←,0.3505641999654472,False,17
4M18,177,experiment,72,↓,right,→,0.40151769993826747,False,17
4M18,178,experiment,108,→,left,←,0.3337902999483049,False,17
4M18,179,experiment,24,↓,right,→,0.350354399997741,False,17
4M18,180,experiment,108,→,left,←,0.46830679988488555,False,17
4M18,181,experiment,72,→,no_key,no_letter,-1.0,False,17
4M18,182,experiment,84,↓,no_key,no_letter,-1.0,False,17
4M18,183,experiment,96,←,right,→,0.4171160999685526,False,17
4M18,184,experiment,144,↓,right,→,0.5874584997072816,False,17
4M18,185,experiment,24,←,left,←,0.41703050024807453,True,17
4M18,186,experiment,168,↑,left,←,0.41731830034404993,False,17
4M18,187,experiment,156,↓,right,→,0.3840175997465849,False,17
4M18,188,experiment,24,↓,left,←,0.702801899984479,False,17
4M18,189,experiment,120,↓,right,→,0.28385689994320273,False,17
4M18,190,experiment,168,↓,no_key,no_letter,-1.0,False,17
4M18,191,experiment,144,↓,right,→,0.4607595996931195,False,17
4M18,192,experiment,96,↑,no_key,no_letter,-1.0,False,17
4M18,193,experiment,84,←,left,←,0.7014180002734065,True,17
4M18,194,experiment,12,→,left,←,0.5226834998466074,False,17
4M18,195,experiment,12,→,left,←,0.35045789973810315,False,17
4M18,196,experiment,144,←,left,←,0.45722590014338493,True,17
4M18,197,experiment,24,→,right,→,0.495607600081712,True,17
4M18,198,experiment,180,→,left,←,0.6280296999029815,False,17
4M18,199,experiment,144,→,left,←,0.5579706002026796,False,17
4M18,200,experiment,132,↑,left,←,0.4591604000888765,False,17
4M18,201,experiment,96,←,left,←,0.31712310016155243,True,17
4M18,202,experiment,156,↑,left,←,0.5157608999870718,False,17
4M18,203,experiment,156,↑,right,→,0.30040840012952685,False,17
4M18,204,experiment,72,←,right,→,0.3503218996338546,False,17
4M18,205,experiment,12,↓,no_key,no_letter,-1.0,False,17
4M18,206,experiment,120,→,right,→,0.4717485001310706,True,17
4M18,207,experiment,12,↑,no_key,no_letter,-1.0,False,17
4M18,208,experiment,84,←,right,→,0.5020054001361132,False,17
4M18,209,experiment,168,→,right,→,0.47740890039131045,True,17
4M18,210,experiment,132,↑,no_key,no_letter,-1.0,False,17
4M18,211,experiment,120,→,left,←,0.5134138995781541,False,17
4M18,212,experiment,168,↑,left,←,0.40063609974458814,False,17
4M18,213,experiment,48,↑,right,→,0.4819220998324454,False,17
4M18,214,experiment,36,↑,left,←,0.3505770997144282,False,17
4M18,215,experiment,48,→,left,←,0.36697310023009777,False,17
4M18,216,experiment,180,↑,left,←,0.41733379987999797,False,17
4M18,217,experiment,60,→,no_key,no_letter,-1.0,False,17
4M18,218,experiment,48,↑,right,→,0.5881187999621034,False,17
4M18,219,experiment,36,←,right,→,0.5612785001285374,False,17
4M18,220,training,120,↑,right,→,0.3839430999942124,False,18
4M18,221,training,36,←,left,←,1.662779700011015,True,18
4M18,222,training,60,→,no_key,no_letter,-1.0,False,18
4M18,223,experiment,108,→,left,←,0.6395979998633265,False,18
4M18,224,experiment,108,↑,left,←,0.41709440015256405,False,18
4M18,225,experiment,132,↓,right,→,0.4181241998448968,False,18
4M18,226,experiment,96,→,left,←,0.6899491003714502,False,18
4M18,227,experiment,96,←,left,←,1.3190068998374045,True,18
4M18,228,experiment,180,↑,right,→,0.26704129995778203,False,18
4M18,229,experiment,48,↑,no_key,no_letter,-1.0,False,18
4M18,230,experiment,48,↓,left,←,0.33386099990457296,False,18
4M18,231,experiment,48,←,left,←,0.5822282996959984,True,18
4M18,232,experiment,108,↓,right,→,0.9924499001353979,False,18
4M18,233,experiment,144,↓,left,←,0.5363799002952874,False,18
4M18,234,experiment,156,↑,left,←,0.5992493000812829,False,18
4M18,235,experiment,180,↓,left,←,0.5057413997128606,False,18
4M18,236,experiment,84,→,left,←,0.3175003002397716,False,18
4M18,237,experiment,120,↑,left,←,0.35052450001239777,False,18
4M18,238,experiment,60,→,right,→,0.5492155998945236,True,18
4M18,239,experiment,180,→,no_key,no_letter,-1.0,False,18
4M18,240,experiment,96,→,no_key,no_letter,-1.0,False,18
4M18,241,experiment,24,→,no_key,no_letter,-1.0,False,18
4M18,242,experiment,48,←,left,←,0.3840077999047935,True,18
4M18,243,experiment,84,↑,left,←,0.4172584000043571,False,18
4M18,244,experiment,60,↑,left,←,0.38369400007650256,False,18
4M18,245,experiment,24,←,right,→,0.41717439983040094,False,18
4M18,246,experiment,60,↑,left,←,0.8824633997865021,False,18
4M18,247,experiment,36,→,left,←,0.7343767997808754,False,18
4M18,248,experiment,108,↓,right,→,0.6310283001512289,False,18
4M18,249,experiment,60,←,left,←,0.732126499991864,True,18
4M18,250,experiment,120,←,left,←,0.4336823998019099,True,18
4M18,251,experiment,180,↓,left,←,0.6886113998480141,False,18
4M18,252,experiment,144,←,no_key,no_letter,-1.0,False,18
4M18,253,experiment,36,↓,no_key,no_letter,-1.0,False,18
4M18,254,experiment,156,→,right,→,0.7891547996550798,True,18
4M18,255,experiment,84,↓,right,→,0.6086693000979722,False,18
4M18,256,experiment,72,↑,right,→,0.5404416997916996,False,18
4M18,257,experiment,156,↓,right,→,0.4338376000523567,False,18
4M18,258,experiment,36,↓,left,←,0.8147056000307202,False,18
4M18,259,experiment,168,↑,left,←,1.7850828999653459,False,18
4M18,260,experiment,12,↓,left,←,0.7534113000147045,False,18
4M18,261,experiment,144,←,left,←,1.6307405000552535,True,18
4M18,262,experiment,132,→,no_key,no_letter,-1.0,False,18
4M18,263,experiment,24,←,right,→,0.6106591001152992,False,18
4M18,264,experiment,12,←,left,←,0.718998699914664,True,18
4M18,265,experiment,12,←,right,→,0.3504888997413218,False,18
4M18,266,experiment,168,←,right,→,0.6191722000949085,False,18
4M18,267,experiment,36,↑,no_key,no_letter,-1.0,False,18
4M18,268,experiment,156,→,right,→,0.7575873001478612,True,18
4M18,269,experiment,96,↑,no_key,no_letter,-1.0,False,18
4M18,270,experiment,120,←,left,←,0.726176000200212,True,18
4M18,271,experiment,72,↓,right,→,0.6390896001830697,False,18
4M18,272,experiment,132,←,right,→,0.6320743998512626,False,18
4M18,273,experiment,72,↑,right,→,0.5880407998338342,False,18
4M18,274,experiment,12,↑,left,←,0.5733374999836087,False,18
4M18,275,experiment,84,→,left,←,0.5392060000449419,False,18
4M18,276,experiment,168,↓,left,←,0.7235829997807741,False,18
4M18,277,experiment,72,→,right,→,0.8207586002536118,True,18
4M18,278,experiment,144,←,right,→,0.7092357003130019,False,18
4M18,279,experiment,168,←,no_key,no_letter,-1.0,False,18
4M18,280,experiment,24,→,no_key,no_letter,-1.0,False,18
4M18,281,experiment,132,↑,left,←,0.8056962001137435,False,18
4M18,282,experiment,120,↓,left,←,1.2585447998717427,False,18
4M18,283,training,72,↓,right,→,0.4005827000364661,False,18
4M18,284,training,156,↓,right,→,0.4760524001903832,False,18
4M18,285,training,12,←,right,→,1.6304040001705289,False,18
4M18,286,experiment,60,←,right,→,0.5180347003042698,False,18
4M18,287,experiment,96,→,left,←,0.7633980996906757,False,18
4M18,288,experiment,36,→,left,←,0.6791468001902103,False,18
4M18,289,experiment,24,↓,left,←,0.7546139000914991,False,18
4M18,290,experiment,24,→,left,←,0.5297075998969376,False,18
4M18,291,experiment,108,←,right,→,0.5023926999419928,False,18
4M18,292,experiment,180,↑,right,→,1.897170000243932,False,18
4M18,293,experiment,180,→,left,←,0.7638480002060533,False,18
4M18,294,experiment,96,↓,left,←,0.5558909000828862,False,18
4M18,295,experiment,84,←,right,→,0.637869699858129,False,18
4M18,296,experiment,36,→,right,→,0.9199401000514627,True,18
4M18,297,experiment,156,→,left,←,0.741045099683106,False,18
4M18,298,experiment,144,←,right,→,0.8108873995952308,False,18
4M18,299,experiment,72,↑,no_key,no_letter,-1.0,False,18
4M18,300,experiment,60,↓,right,→,0.6036604000255466,False,18
4M18,301,experiment,144,→,no_key,no_letter,-1.0,False,18
4M18,302,experiment,168,↓,left,←,1.5523999999277294,False,18
4M18,303,experiment,132,↓,left,←,0.7441861000843346,False,18
4M18,304,experiment,96,→,left,←,0.8164951000362635,False,18
4M18,305,experiment,12,←,no_key,no_letter,-1.0,False,18
4M18,306,experiment,84,↑,right,→,0.8721960000693798,False,18
4M18,307,experiment,72,←,left,←,0.7215466001071036,True,18
4M18,308,experiment,168,↑,no_key,no_letter,-1.0,False,18
4M18,309,experiment,72,↓,left,←,0.7060384000651538,False,18
4M18,310,experiment,48,↓,right,→,0.7776065999642015,False,18
4M18,311,experiment,120,→,right,→,0.7449781000614166,True,18
4M18,312,experiment,36,↓,no_key,no_letter,-1.0,False,18
4M18,313,experiment,156,↑,right,→,0.5582095999270678,False,18
4M18,314,experiment,108,↑,left,←,0.8300671000033617,False,18
4M18,315,experiment,120,↑,left,←,0.8933290001004934,False,18
4M18,316,experiment,48,←,right,→,0.7273215004242957,False,18
4M18,317,experiment,60,↑,left,←,0.4181952001526952,False,18
4M18,318,experiment,72,↑,left,←,0.6008028998039663,False,18
4M18,319,experiment,108,→,right,→,0.5411653998307884,True,18
4M18,320,experiment,156,→,right,→,0.7277397997677326,True,18
4M18,321,experiment,180,→,right,→,0.6844583000056446,True,18
4M18,322,experiment,84,↓,right,→,0.8741043000482023,False,18
4M18,323,experiment,84,↓,right,→,0.6598042999394238,False,18
4M18,324,experiment,12,←,left,←,0.6268255999311805,True,18
4M18,325,experiment,60,←,no_key,no_letter,-1.0,False,18
4M18,326,experiment,12,↑,right,→,0.5404952000826597,False,18
4M18,327,experiment,168,←,right,→,0.7069775997661054,False,18
4M18,328,experiment,48,↓,no_key,no_letter,-1.0,False,18
4M18,329,experiment,12,→,right,→,1.0460656001232564,True,18
4M18,330,experiment,24,→,no_key,no_letter,-1.0,False,18
4M18,331,experiment,24,←,right,→,0.4767527999356389,False,18
4M18,332,experiment,168,→,right,→,0.6857245997525752,True,18
4M18,333,experiment,96,↓,no_key,no_letter,-1.0,False,18
4M18,334,experiment,132,↓,right,→,0.5020127003081143,False,18
4M18,335,experiment,108,↑,left,←,0.5613028998486698,False,18
4M18,336,experiment,132,→,right,→,0.6088784001767635,True,18
4M18,337,experiment,144,←,left,←,1.561588500160724,True,18
4M18,338,experiment,132,←,right,→,0.33396720001474023,False,18
4M18,339,experiment,144,→,no_key,no_letter,-1.0,False,18
4M18,340,experiment,156,↑,right,→,0.4171250998042524,False,18
4M18,341,experiment,36,↓,no_key,no_letter,-1.0,False,18
4M18,342,experiment,120,↓,right,→,0.48123080004006624,False,18
4M18,343,experiment,48,↑,right,→,0.5105363000184298,False,18
4M18,344,experiment,180,→,left,←,0.38396350014954805,False,18
4M18,345,experiment,120,↓,no_key,no_letter,-1.0,False,18
4M18,346,training,48,←,right,→,0.49609250016510487,False,18
4M18,347,training,120,←,right,→,0.4171631997451186,False,18
4M18,348,training,12,↑,left,←,1.021724599879235,False,18
4M18,349,experiment,156,↓,right,→,0.6281873001717031,False,18
4M18,350,experiment,96,→,right,→,0.5181599999777973,True,18
4M18,351,experiment,60,↑,no_key,no_letter,-1.0,False,18
4M18,352,experiment,84,↓,right,→,0.7301980000920594,False,18
4M18,353,experiment,12,→,right,→,0.5167128001339734,True,18
4M18,354,experiment,72,→,left,←,0.6115216002799571,False,18
4M18,355,experiment,72,→,right,→,0.4954762002453208,True,18
4M18,356,experiment,180,→,right,→,0.799496800173074,True,18
4M18,357,experiment,24,←,no_key,no_letter,-1.0,False,18
4M18,358,experiment,180,→,right,→,0.6525070001371205,True,18
4M18,359,experiment,180,←,right,→,1.359356100205332,False,18
4M18,360,experiment,36,→,no_key,no_letter,-1.0,False,18
4M18,361,experiment,120,↑,right,→,0.5998064996674657,False,18
4M18,362,experiment,96,→,no_key,no_letter,-1.0,False,18
4M18,363,experiment,156,↓,left,←,0.43378560012206435,False,18
4M18,364,experiment,132,↑,right,→,0.6142891002818942,False,18
4M18,365,experiment,144,↓,left,←,0.4006443996913731,False,18
4M18,366,experiment,36,→,no_key,no_letter,-1.0,False,18
4M18,367,experiment,60,→,no_key,no_letter,-1.0,False,18
4M18,368,experiment,108,↑,left,←,0.5147628001868725,False,18
4M18,369,experiment,132,←,left,←,0.5129831000231206,True,18
4M18,370,experiment,84,↓,right,→,0.5750608001835644,False,18
4M18,371,experiment,144,↑,left,←,0.5334762004204094,False,18
4M18,372,experiment,48,↓,right,→,0.41711009992286563,False,18
4M18,373,experiment,168,→,no_key,no_letter,-1.0,False,18
4M18,374,experiment,120,↓,left,←,0.7776510999538004,False,18
4M18,375,experiment,132,↑,left,←,0.6559175001457334,False,18
4M18,376,experiment,156,↓,left,←,0.40059080021455884,False,18
4M18,377,experiment,120,↓,no_key,no_letter,-1.0,False,18
4M18,378,experiment,24,→,right,→,0.5027401000261307,True,18
4M18,379,experiment,84,←,no_key,no_letter,-1.0,False,18
4M18,380,experiment,144,←,left,←,0.49039880000054836,True,18
4M18,381,experiment,168,↓,left,←,0.7353480998426676,False,18
4M18,382,experiment,168,←,right,→,0.7691478999331594,False,18
4M18,383,experiment,36,←,right,→,0.7059218999929726,False,18
4M18,384,experiment,72,←,right,→,0.38386100018396974,False,18
4M18,385,experiment,12,→,right,→,0.6365668997168541,True,18
4M18,386,experiment,96,←,right,→,0.3336887997575104,False,18
4M18,387,experiment,72,→,left,←,0.7259136000648141,False,18
4M18,388,experiment,60,↓,left,←,0.3840994001366198,False,18
4M18,389,experiment,180,→,right,→,0.3505014996044338,True,18
4M18,390,experiment,24,←,no_key,no_letter,-1.0,False,18
4M18,391,experiment,108,↓,right,→,0.3340332000516355,False,18
4M18,392,experiment,48,↑,left,←,0.47279739985242486,False,18
4M18,393,experiment,96,↓,right,→,0.5839371001347899,False,18
4M18,394,experiment,12,↓,right,→,0.433786700014025,False,18
4M18,395,experiment,24,→,left,←,0.4172996999695897,False,18
4M18,396,experiment,12,←,left,←,0.3837987002916634,True,18
4M18,397,experiment,108,↑,no_key,no_letter,-1.0,False,18
4M18,398,experiment,168,→,left,←,0.3505937000736594,False,18
4M18,399,experiment,48,←,left,←,0.4003487001173198,True,18
4M18,400,experiment,48,↑,right,→,0.36712449975311756,False,18
4M18,401,experiment,120,←,left,←,0.36657149996608496,True,18
4M18,402,experiment,144,↓,right,→,0.25035660015419126,False,18
4M18,403,experiment,84,↑,left,←,0.33384239999577403,False,18
4M18,404,experiment,108,↑,right,→,0.4814997003413737,False,18
4M18,405,experiment,156,↓,left,←,0.3842245996929705,False,18
4M18,406,experiment,36,→,left,←,0.3670190996490419,False,18
4M18,407,experiment,60,←,left,←,0.28386820014566183,True,18
4M18,408,experiment,132,↑,right,→,0.4003901001997292,False,18
4M18,409,training,180,↓,left,←,0.3497942998073995,False,18
4M18,410,training,168,↑,right,→,0.7277417001314461,False,18
4M18,411,training,168,↓,right,→,0.4337796997278929,False,18
4M18,412,experiment,144,←,no_key,no_letter,-1.0,False,18
4M18,413,experiment,120,←,left,←,0.4717243001796305,True,18
4M18,414,experiment,108,←,right,→,0.7317365002818406,False,18
4M18,415,experiment,36,↑,left,←,0.687826500274241,False,18
4M18,416,experiment,72,→,left,←,0.4337328998371959,False,18
4M18,417,experiment,180,↓,right,→,0.5015753000043333,False,18
4M18,418,experiment,144,→,left,←,0.8925406998023391,False,18
4M18,419,experiment,156,←,left,←,0.5274653998203576,True,18
4M18,420,experiment,48,↑,right,→,0.5354057000949979,False,18
4M18,421,experiment,60,←,right,→,0.4873163001611829,False,18
4M18,422,experiment,72,↑,right,→,0.4880459997802973,False,18
4M18,423,experiment,132,←,left,←,0.4178390996530652,True,18
4M18,424,experiment,168,↓,right,→,0.3339200997725129,False,18
4M18,425,experiment,48,→,no_key,no_letter,-1.0,False,18
4M18,426,experiment,120,→,left,←,0.41706670029088855,False,18
4M18,427,experiment,144,↑,right,→,0.2839310001581907,False,18
4M18,428,experiment,12,↑,no_key,no_letter,-1.0,False,18
4M18,429,experiment,180,→,left,←,1.6418291996233165,False,18
4M18,430,experiment,96,↑,no_key,no_letter,-1.0,False,18
4M18,431,experiment,108,←,right,→,0.7671588999219239,False,18
4M18,432,experiment,84,→,right,→,0.5103392000310123,True,18
4M18,433,experiment,108,←,right,→,0.3840160998515785,False,18
4M18,434,experiment,156,←,no_key,no_letter,-1.0,False,18
4M18,435,experiment,84,←,right,→,0.5735806003212929,False,18
4M18,436,experiment,36,←,left,←,0.5230688001029193,True,18
4M18,437,experiment,156,→,right,→,0.40056079998612404,True,18
4M18,438,experiment,120,←,right,→,0.43414480006322265,False,18
4M18,439,experiment,168,←,no_key,no_letter,-1.0,False,18
4M18,440,experiment,156,↑,right,→,0.28340169973671436,False,18
4M18,441,experiment,132,↑,left,←,0.6077300999313593,False,18
4M18,442,experiment,96,↑,left,←,0.3672950998879969,False,18
4M18,443,experiment,96,←,left,←,0.43391899997368455,True,18
4M18,444,experiment,168,→,no_key,no_letter,-1.0,False,18
4M18,445,experiment,24,↑,no_key,no_letter,-1.0,False,18
4M18,446,experiment,48,↓,left,←,0.48699940042570233,False,18
4M18,447,experiment,60,←,right,→,0.5140382996760309,False,18
4M18,448,experiment,72,↑,right,→,0.3671180000528693,False,18
4M18,449,experiment,36,↑,right,→,0.41722889989614487,False,18
4M18,450,experiment,132,↓,right,→,0.3837329000234604,False,18
4M18,451,experiment,180,↓,left,←,0.6253880001604557,False,18
4M18,452,experiment,72,←,right,→,0.5982991000637412,False,18
4M18,453,experiment,48,↑,right,→,0.4906903998926282,False,18
4M18,454,experiment,12,↑,right,→,0.3671610997989774,False,18
4M18,455,experiment,96,↑,left,←,1.0027334997430444,False,18
4M18,456,experiment,84,↓,right,→,0.4776042001321912,False,18
4M18,457,experiment,144,←,left,←,0.47329000011086464,True,18
4M18,458,experiment,12,↑,right,→,0.5303978999145329,False,18
4M18,459,experiment,24,↑,left,←,0.41712090000510216,False,18
4M18,460,experiment,168,→,no_key,no_letter,-1.0,False,18
4M18,461,experiment,60,←,left,←,0.4177107997238636,True,18
4M18,462,experiment,132,→,right,→,1.0680835996754467,True,18
4M18,463,experiment,60,←,left,←,0.5557274003513157,True,18
4M18,464,experiment,24,↑,left,←,0.4804365998134017,False,18
4M18,465,experiment,108,→,right,→,0.7391636995598674,True,18
4M18,466,experiment,12,↑,no_key,no_letter,-1.0,False,18
4M18,467,experiment,180,↓,right,→,0.38369529973715544,False,18
4M18,468,experiment,84,↑,left,←,1.0113622997887433,False,18
4M18,469,experiment,24,↓,right,→,0.5757206999696791,False,18
4M18,470,experiment,120,→,left,←,0.8776960000395775,False,18
4M18,471,experiment,36,↑,left,←,1.0779802999459207,False,18
4M18,472,training,12,←,right,→,0.5299765998497605,False,18
4M18,473,training,144,↑,left,←,0.5737574999220669,False,18
4M18,474,training,72,→,left,←,0.7604196001775563,False,18
4M18,475,experiment,108,←,left,←,0.9306779000908136,True,18
4M18,476,experiment,156,↓,left,←,0.49159760028123856,False,18
4M18,477,experiment,84,↓,right,→,0.33405450033023953,False,18
4M18,478,experiment,96,←,left,←,0.799855699762702,True,18
4M18,479,experiment,36,←,no_key,no_letter,-1.0,False,18
4M18,480,experiment,72,↑,left,←,0.6778287002816796,False,18
4M18,481,experiment,144,↓,no_key,no_letter,-1.0,False,18
4M18,482,experiment,72,↓,right,→,0.3505229000002146,False,18
4M18,483,experiment,132,↑,right,→,0.3172519002109766,False,18
4M18,484,experiment,156,↓,right,→,0.573274599853903,False,18
4M18,485,experiment,36,↑,left,←,0.5992565997876227,False,18
4M18,486,experiment,12,→,right,→,0.814485099632293,True,18
4M18,487,experiment,168,←,left,←,0.6064704996533692,True,18
4M18,488,experiment,36,↑,left,←,0.5310559002682567,False,18
4M18,489,experiment,168,←,right,→,0.36719200015068054,False,18
4M18,490,experiment,48,→,right,→,0.33417330030351877,True,18
4M18,491,experiment,24,←,right,→,0.3337298999540508,False,18
4M18,492,experiment,48,↑,right,→,0.41715400014072657,False,18
4M18,493,experiment,144,↓,left,←,0.3506958996877074,False,18
4M18,494,experiment,24,↑,left,←,0.3839306002482772,False,18
4M18,495,experiment,120,↑,right,→,0.38384569995105267,False,18
4M18,496,experiment,120,→,left,←,0.36722010001540184,False,18
4M18,497,experiment,180,↓,right,→,0.33441489981487393,False,18
4M18,498,experiment,60,↓,left,←,0.3172418000176549,False,18
4M18,499,experiment,12,↓,left,←,0.3838724000379443,False,18
4M18,500,experiment,60,↑,left,←,0.38389719976112247,False,18
4M18,501,experiment,48,↓,right,→,0.3016655999235809,False,18
4M18,502,experiment,132,↑,left,←,0.40038909995928407,False,18
4M18,503,experiment,60,→,right,→,0.283886999823153,True,18
4M18,504,experiment,12,↓,left,←,0.8058960000053048,False,18
4M18,505,experiment,48,←,left,←,0.4170482000336051,True,18
4M18,506,experiment,156,→,left,←,0.38383799977600574,False,18
4M18,507,experiment,24,↓,left,←,0.48962550004944205,False,18
4M18,508,experiment,96,→,left,←,0.6330217001959682,False,18
4M18,509,experiment,180,→,right,→,0.5067051001824439,True,18
4M18,510,experiment,144,↓,no_key,no_letter,-1.0,False,18
4M18,511,experiment,96,←,left,←,0.3837973000481725,True,18
4M18,512,experiment,72,↓,left,←,0.4337928001768887,False,18
4M18,513,experiment,84,↓,right,→,0.30174840008839965,False,18
4M18,514,experiment,72,↓,right,→,0.5060038999654353,False,18
4M18,515,experiment,108,←,right,→,0.7318470003083348,False,18
4M18,516,experiment,180,↓,left,←,0.38412100030109286,False,18
4M18,517,experiment,24,↑,right,→,0.3839028999209404,False,18
4M18,518,experiment,84,→,right,→,0.38389210030436516,True,18
4M18,519,experiment,180,↓,right,→,0.35183609975501895,False,18
4M18,520,experiment,36,↓,no_key,no_letter,-1.0,False,18
4M18,521,experiment,108,↑,left,←,0.5022836998105049,False,18
4M18,522,experiment,108,↓,no_key,no_letter,-1.0,False,18
4M18,523,experiment,120,←,left,←,0.5524532999843359,True,18
4M18,524,experiment,168,↑,right,→,0.3009003000333905,False,18
4M18,525,experiment,132,↑,right,→,0.6506835999898612,False,18
4M18,526,experiment,12,→,left,←,0.6417266000062227,False,18
4M18,527,experiment,120,←,left,←,0.43382119992747903,True,18
4M18,528,experiment,60,←,no_key,no_letter,-1.0,False,18
4M18,529,experiment,156,←,left,←,0.40035010036081076,True,18
4M18,530,experiment,144,↓,left,←,0.40055650006979704,False,18
4M18,531,experiment,96,↑,left,←,0.5174842001870275,False,18
4M18,532,experiment,84,↓,right,→,0.35039540007710457,False,18
4M18,533,experiment,168,↑,no_key,no_letter,-1.0,False,18
4M18,534,experiment,132,↓,right,→,0.3672655001282692,False,18
4M18,535,training,72,↓,no_key,no_letter,-1.0,False,18
4M18,536,training,84,→,right,→,0.6137669999152422,True,18
4M18,537,training,12,←,right,→,0.5721251000650227,False,18
4M18,538,experiment,72,←,no_key,no_letter,-1.0,False,18
4M18,539,experiment,60,→,right,→,0.3333701998926699,True,18
4M18,540,experiment,168,←,no_key,no_letter,-1.0,False,18
4M18,541,experiment,168,↑,left,←,0.43375759990885854,False,18
4M18,542,experiment,180,←,no_key,no_letter,-1.0,False,18
4M18,543,experiment,60,→,right,→,0.8214179999195039,True,18
4M18,544,experiment,108,↑,left,←,0.5284751998260617,False,18
4M18,545,experiment,60,←,right,→,0.35050119971856475,False,18
4M18,546,experiment,24,↓,right,→,0.5949725001119077,False,18
4M18,547,experiment,120,↑,right,→,0.43383440002799034,False,18
4M18,548,experiment,72,→,left,←,0.38382860040292144,False,18
4M18,549,experiment,12,←,right,→,0.5722797997295856,False,18
4M18,550,experiment,36,↑,left,←,0.5570086999796331,False,18
4M18,551,experiment,12,↑,no_key,no_letter,-1.0,False,18
4M18,552,experiment,108,↓,left,←,0.7265365999191999,False,18
4M18,553,experiment,36,←,left,←,0.4005316002294421,True,18
4M18,554,experiment,24,↓,right,→,0.36738729989156127,False,18
4M18,555,experiment,96,↑,right,→,0.4759649997577071,False,18
4M18,556,experiment,84,↑,right,→,0.36652129981666803,False,18
4M18,557,experiment,84,↓,left,←,0.4899217002093792,False,18
4M18,558,experiment,36,↓,left,←,0.5544671001844108,False,18
4M18,559,experiment,84,↑,left,←,0.6713940999470651,False,18
4M18,560,experiment,72,↑,left,←,0.4338267999701202,False,18
4M18,561,experiment,48,↑,right,→,0.9236659999005497,False,18
4M18,562,experiment,48,→,left,←,0.49503100011497736,False,18
4M18,563,experiment,24,←,right,→,0.6869238000363111,False,18
4M18,564,experiment,96,←,left,←,0.8940118001773953,True,18
4M18,565,experiment,12,→,no_key,no_letter,-1.0,False,18
4M18,566,experiment,96,↓,right,→,0.35046530002728105,False,18
4M18,567,experiment,132,↑,no_key,no_letter,-1.0,False,18
4M18,568,experiment,132,→,no_key,no_letter,-1.0,False,18
4M18,569,experiment,156,↓,no_key,no_letter,-1.0,False,18
4M18,570,experiment,96,↓,left,←,0.5605060001835227,False,18
4M18,571,experiment,12,↓,no_key,no_letter,-1.0,False,18
4M18,572,experiment,144,←,right,→,0.7732182000763714,False,18
4M18,573,experiment,120,→,right,→,0.5175994001328945,True,18
4M18,574,experiment,84,↑,left,←,0.6916428999975324,False,18
4M18,575,experiment,24,→,left,←,0.6130403997376561,False,18
4M18,576,experiment,108,↑,right,→,0.7566231000237167,False,18
4M18,577,experiment,180,↑,right,→,0.3673356999643147,False,18
4M18,578,experiment,120,←,right,→,0.40212999982759356,False,18
4M18,579,experiment,120,←,no_key,no_letter,-1.0,False,18
4M18,580,experiment,156,←,right,→,0.38392020016908646,False,18
4M18,581,experiment,72,→,no_key,no_letter,-1.0,False,18
4M18,582,experiment,168,←,left,←,0.49039299972355366,True,18
4M18,583,experiment,132,→,left,←,0.3335719997994602,False,18
4M18,584,experiment,108,←,right,→,0.3671063999645412,False,18
4M18,585,experiment,180,→,no_key,no_letter,-1.0,False,18
4M18,586,experiment,144,←,right,→,0.41722980001941323,False,18
4M18,587,experiment,60,↑,right,→,0.5266542001627386,False,18
4M18,588,experiment,48,←,right,→,0.41728550009429455,False,18
4M18,589,experiment,48,↓,right,→,1.9191952999681234,False,18
4M18,590,experiment,168,↓,left,←,0.6284519997425377,False,18
4M18,591,experiment,156,↓,no_key,no_letter,-1.0,False,18
4M18,592,experiment,144,→,no_key,no_letter,-1.0,False,18
4M18,593,experiment,36,→,left,←,1.2235985998995602,False,18
4M18,594,experiment,156,↓,right,→,0.5124184000305831,False,18
4M18,595,experiment,132,↑,left,←,1.4886691998690367,False,18
4M18,596,experiment,180,←,right,→,0.7397206998430192,False,18
4M18,597,experiment,144,↑,left,←,0.6845974000170827,False,18
4M18,598,training,12,←,left,←,1.7344852997921407,True,18
4M18,599,training,132,↓,right,→,0.38334230007603765,False,18
4M18,600,training,84,↑,right,→,0.547272200230509,False,18
4M18,601,experiment,108,↑,left,←,0.5679331999272108,False,18
4M18,602,experiment,48,→,left,←,0.5389097998850048,False,18
4M18,603,experiment,48,→,left,←,0.5412141000851989,False,18
4M18,604,experiment,180,←,left,←,0.48643389996141195,True,18
4M18,605,experiment,72,←,no_key,no_letter,-1.0,False,18
4M18,606,experiment,12,→,right,→,0.6280924999155104,True,18
4M18,607,experiment,132,←,left,←,0.4956243000924587,True,18
4M18,608,experiment,168,←,right,→,0.6374544999562204,False,18
4M18,609,experiment,180,↓,no_key,no_letter,-1.0,False,18
4M18,610,experiment,60,↓,left,←,0.5243804999627173,False,18
4M18,611,experiment,24,↓,right,→,0.4004595000296831,False,18
4M18,612,experiment,84,→,right,→,0.35052220011129975,True,18
4M18,613,experiment,48,←,left,←,0.40047760028392076,True,18
4M18,614,experiment,168,↑,right,→,0.43387180007994175,False,18
4M18,615,experiment,156,←,no_key,no_letter,-1.0,False,18
4M18,616,experiment,168,↑,left,←,0.4875873001292348,False,18
4M18,617,experiment,24,↑,right,→,0.4753566002473235,False,18
4M18,618,experiment,132,↑,left,←,0.43384490022435784,False,18
4M18,619,experiment,156,←,right,→,0.31720769964158535,False,18
4M18,620,experiment,84,↑,no_key,no_letter,-1.0,False,18
4M18,621,experiment,96,→,no_key,no_letter,-1.0,False,18
4M18,622,experiment,60,→,no_key,no_letter,-1.0,False,18
4M18,623,experiment,60,↓,no_key,no_letter,-1.0,False,18
4M18,624,experiment,180,↓,right,→,1.048172099981457,False,18
4M18,625,experiment,12,→,right,→,0.4893481000326574,True,18
4M18,626,experiment,132,→,left,←,0.5325876004062593,False,18
4M18,627,experiment,60,←,left,←,0.4697475996799767,True,18
4M18,628,experiment,96,←,no_key,no_letter,-1.0,False,18
4M18,629,experiment,156,→,no_key,no_letter,-1.0,False,18
4M18,630,experiment,132,↓,left,←,0.3682033000513911,False,18
4M18,631,experiment,120,←,right,→,0.4870942998677492,False,18
4M18,632,experiment,156,→,right,→,0.40042270021513104,True,18
4M18,633,experiment,120,←,no_key,no_letter,-1.0,False,18
4M18,634,experiment,144,↓,right,→,0.41745910001918674,False,18
4M18,635,experiment,36,↓,right,→,0.333600299898535,False,18
4M18,636,experiment,72,↑,right,→,0.40050419978797436,False,18
4M18,637,experiment,84,←,left,←,0.4338930998928845,True,18
4M18,638,experiment,108,↓,no_key,no_letter,-1.0,False,18
4M18,639,experiment,96,←,no_key,no_letter,-1.0,False,18
4M18,640,experiment,168,↓,right,→,0.3337860000319779,False,18
4M18,641,experiment,144,↓,no_key,no_letter,-1.0,False,18
4M18,642,experiment,108,↑,left,←,0.41707769967615604,False,18
4M18,643,experiment,72,↓,no_key,no_letter,-1.0,False,18
4M18,644,experiment,24,↑,no_key,no_letter,-1.0,False,18
4M18,645,experiment,180,←,left,←,0.4172228001989424,True,18
4M18,646,experiment,24,→,right,→,0.41702229995280504,True,18
4M18,647,experiment,144,→,left,←,0.40066990023478866,False,18
4M18,648,experiment,12,↑,left,←,1.1562839997932315,False,18
4M18,649,experiment,12,←,left,←,0.40069330018013716,True,18
4M18,650,experiment,84,↑,right,→,0.4172709002159536,False,18
4M18,651,experiment,120,←,left,←,0.36707739997655153,True,18
4M18,652,experiment,36,←,no_key,no_letter,-1.0,False,18
4M18,653,experiment,72,←,right,→,0.4337971000932157,False,18
4M18,654,experiment,144,↓,right,→,0.2503777998499572,False,18
4M18,655,experiment,120,→,right,→,0.40050189988687634,True,18
4M18,656,experiment,36,←,left,←,0.5134423999115825,True,18
4M18,657,experiment,36,→,left,←,0.36699539981782436,False,18
4M18,658,experiment,108,↑,left,←,0.43379579996690154,False,18
4M18,659,experiment,48,←,right,→,0.4720425996929407,False,18
4M18,660,experiment,96,↓,left,←,0.3500091000460088,False,18
4M18,661,training,48,↑,no_key,no_letter,-1.0,False,18
4M18,662,training,48,↓,left,←,0.3839357001706958,False,18
4M18,663,training,120,→,right,→,0.7677921000868082,True,18
4M18,664,experiment,132,↑,left,←,0.5294643002562225,False,18
4M18,665,experiment,84,↑,no_key,no_letter,-1.0,False,18
4M18,666,experiment,72,↓,right,→,0.28384590009227395,False,18
4M18,667,experiment,144,←,left,←,0.3670810000039637,True,18
4M18,668,experiment,144,←,right,→,0.35053119994699955,False,18
4M18,669,experiment,96,→,no_key,no_letter,-1.0,False,18
4M18,670,experiment,168,→,right,→,0.3671796997077763,True,18
4M18,671,experiment,12,↓,no_key,no_letter,-1.0,False,18
4M18,672,experiment,48,→,left,←,1.7107007000595331,False,18
4M18,673,experiment,36,→,left,←,0.31724430015310645,False,18
4M18,674,experiment,168,↓,left,←,0.5874560996890068,False,18
4M18,675,experiment,60,↑,right,→,1.0788656999357045,False,18
4M18,676,experiment,72,↑,right,→,0.4759990996681154,False,18
4M18,677,experiment,120,→,no_key,no_letter,-1.0,False,18
4M18,678,experiment,180,↑,left,←,0.7595326001755893,False,18
4M18,679,experiment,108,←,right,→,0.640138499904424,False,18
4M18,680,experiment,36,→,right,→,0.4908573003485799,True,18
4M18,681,experiment,60,↑,right,→,0.35060250014066696,False,18
4M18,682,experiment,168,↑,left,←,0.8143123998306692,False,18
4M18,683,experiment,132,↑,right,→,0.28380340011790395,False,18
4M18,684,experiment,60,↓,right,→,0.3338132998906076,False,18
4M18,685,experiment,84,←,left,←,0.4002976999618113,True,18
4M18,686,experiment,156,↓,right,→,0.2504811999388039,False,18
4M18,687,experiment,48,↑,left,←,0.7797478996217251,False,18
4M18,688,experiment,132,→,left,←,0.367198099847883,False,18
4M18,689,experiment,84,→,left,←,0.35062400018796325,False,18
4M18,690,experiment,144,←,no_key,no_letter,-1.0,False,18
4M18,691,experiment,12,→,no_key,no_letter,-1.0,False,18
4M18,692,experiment,72,←,no_key,no_letter,-1.0,False,18
4M18,693,experiment,48,↓,no_key,no_letter,-1.0,False,18
4M18,694,experiment,36,↓,no_key,no_letter,-1.0,False,18
4M18,695,experiment,168,↓,right,→,0.5203780001029372,False,18
4M18,696,experiment,144,←,right,→,0.3837549998424947,False,18
4M18,697,experiment,108,↑,right,→,0.41961759980767965,False,18
4M18,698,experiment,72,↑,left,←,0.6995109999552369,False,18
4M18,699,experiment,84,↑,right,→,0.33399120019748807,False,18
4M18,700,experiment,120,→,left,←,1.4497654000297189,False,18
4M18,701,experiment,156,↓,no_key,no_letter,-1.0,False,18
4M18,702,experiment,96,←,down,↓,0.6181271998211741,False,18
4M18,703,experiment,108,↓,right,→,0.4682773998938501,False,18
4M18,704,experiment,96,←,no_key,no_letter,-1.0,False,18
4M18,705,experiment,24,←,left,←,0.4182485002093017,True,18
4M18,706,experiment,48,→,left,←,0.3673189003020525,False,18
4M18,707,experiment,96,↓,left,←,0.28386460011824965,False,18
4M18,708,experiment,120,↓,left,←,0.4009392000734806,False,18
4M18,709,experiment,24,←,left,←,0.3671718998812139,True,18
4M18,710,experiment,180,↑,left,←,0.417153500020504,False,18
4M18,711,experiment,24,→,no_key,no_letter,-1.0,False,18
4M18,712,experiment,12,→,no_key,no_letter,-1.0,False,18
4M18,713,experiment,156,←,right,→,0.6929417001083493,False,18
4M18,714,experiment,60,←,right,→,0.6013852003961802,False,18
4M18,715,experiment,36,↑,left,←,0.5995641998015344,False,18
4M18,716,experiment,108,→,left,←,1.3956518997438252,False,18
4M18,717,experiment,180,←,right,→,0.5113931996747851,False,18
4M18,718,experiment,180,←,right,→,0.5507312002591789,False,18
4M18,719,experiment,24,←,right,→,0.5768969999626279,False,18
4M18,720,experiment,156,→,no_key,no_letter,-1.0,False,18
4M18,721,experiment,120,→,left,←,0.6782241002656519,False,18
4M18,722,experiment,12,↑,right,→,0.334778799675405,False,18
4M18,723,experiment,132,←,right,→,0.317212900146842,False,18
4M18,724,training,12,←,no_key,no_letter,-1.0,False,18
4M18,725,training,108,←,left,←,0.43394669983536005,True,18
4M18,726,training,144,↑,left,←,0.47532720025628805,False,18
4M18,727,experiment,24,↓,right,→,0.3672568998299539,False,18
4M18,728,experiment,108,↑,left,←,0.3510285997763276,False,18
4M18,729,experiment,156,←,right,→,0.4901010002940893,False,18
4M18,730,experiment,180,↓,left,←,0.38388080010190606,False,18
4M18,731,experiment,12,↑,no_key,no_letter,-1.0,False,18
4M18,732,experiment,12,←,no_key,no_letter,-1.0,False,18
4M18,733,experiment,120,↓,right,→,0.40045819990336895,False,18
4M18,734,experiment,36,←,right,→,0.3838452002964914,False,18
4M18,735,experiment,48,→,left,←,0.3672100002877414,False,18
4M18,736,experiment,96,→,left,←,0.8068729001097381,False,18
4M18,737,experiment,108,↓,left,←,0.49594399984925985,False,18
4M18,738,experiment,72,→,right,→,0.47540839994326234,True,18
4M18,739,experiment,132,↑,left,←,0.3515372001565993,False,18
4M18,740,experiment,132,←,right,→,0.4176202998496592,False,18
4M18,741,experiment,96,←,right,→,0.6714767999947071,False,18
4M18,742,experiment,120,←,no_key,no_letter,-1.0,False,18
4M18,743,experiment,168,←,left,←,0.4005550998263061,True,18
4M18,744,experiment,60,↑,left,←,0.3346664998680353,False,18
4M18,745,experiment,120,←,right,→,0.4749787002801895,False,18
4M18,746,experiment,36,←,right,→,0.43430230021476746,False,18
4M18,747,experiment,180,←,left,←,0.3505470003001392,True,18
4M18,748,experiment,144,→,right,→,0.40010139998048544,True,18
4M18,749,experiment,144,↑,right,→,0.4167662998661399,False,18
4M18,750,experiment,60,↓,right,→,0.3005337002687156,False,18
4M18,751,experiment,24,→,left,←,0.5551796001382172,False,18
4M18,752,experiment,168,→,left,←,0.6439332999289036,False,18
4M18,753,experiment,84,→,no_key,no_letter,-1.0,False,18
4M18,754,experiment,168,↑,left,←,0.41703350003808737,False,18
4M18,755,experiment,84,↑,left,←,0.5758422003127635,False,18
4M18,756,experiment,132,→,right,→,0.4010582002811134,True,18
4M18,757,experiment,96,←,right,→,0.6375346002168953,False,18
4M18,758,experiment,120,↓,left,←,0.4337547002360225,False,18
4M18,759,experiment,156,↑,no_key,no_letter,-1.0,False,18
4M18,760,experiment,180,→,left,←,0.35034090001136065,False,18
4M18,761,experiment,12,→,right,→,0.43383200000971556,True,18
4M18,762,experiment,132,→,right,→,0.517399899661541,True,18
4M18,763,experiment,84,→,right,→,0.4004379999823868,True,18
4M18,764,experiment,180,←,right,→,0.5327356997877359,False,18
4M18,765,experiment,144,↑,right,→,0.47520080022513866,False,18
4M18,766,experiment,168,←,right,→,0.49296250008046627,False,18
4M18,767,experiment,36,↓,no_key,no_letter,-1.0,False,18
4M18,768,experiment,108,↓,left,←,0.48443219996988773,False,18
4M18,769,experiment,48,↓,right,→,0.4171551000326872,False,18
4M18,770,experiment,72,←,right,→,0.41654809983447194,False,18
4M18,771,experiment,60,↓,no_key,no_letter,-1.0,False,18
4M18,772,experiment,24,→,right,→,0.35043689981102943,True,18
4M18,773,experiment,156,↑,left,←,0.3547587003558874,False,18
4M18,774,experiment,156,→,left,←,1.5230269003659487,False,18
4M18,775,experiment,48,↓,left,←,0.38380239997059107,False,18
4M18,776,experiment,72,↓,left,←,0.36723640002310276,False,18
4M18,777,experiment,96,↑,right,→,0.26717879995703697,False,18
4M18,778,experiment,24,↓,left,←,0.30008390033617616,False,18
4M18,779,experiment,12,→,right,→,0.40036060009151697,True,18
4M18,780,experiment,144,↓,right,→,1.8616108996793628,False,18
4M18,781,experiment,36,→,left,←,0.484179699793458,False,18
4M18,782,experiment,84,↓,right,→,0.3506383001804352,False,18
4M18,783,experiment,108,←,right,→,0.38393509993329644,False,18
4M18,784,experiment,72,←,right,→,0.2833719002082944,False,18
4M18,785,experiment,60,←,left,←,0.36717009963467717,True,18
4M18,786,experiment,48,↑,left,←,0.43391190003603697,False,18
4M18,787,training,72,→,left,←,0.3340835999697447,False,18
4M18,788,training,36,←,left,←,0.3511268999427557,True,18
4M18,789,training,156,↑,left,←,1.5681235999800265,False,18
4M18,790,experiment,24,←,left,←,0.35062599973753095,True,18
4M18,791,experiment,180,↑,right,→,0.3505186000838876,False,18
4M18,792,experiment,144,→,left,←,0.4339180001989007,False,18
4M18,793,experiment,12,↓,left,←,0.5765432002954185,False,18
4M18,794,experiment,60,←,right,→,0.43379889987409115,False,18
4M18,795,experiment,36,←,left,←,0.30035819998010993,True,18
4M18,796,experiment,60,↑,right,→,0.3339358000084758,False,18
4M18,797,experiment,72,↑,right,→,0.565066899638623,False,18
4M18,798,experiment,108,→,left,←,0.4339391002431512,False,18
4M18,799,experiment,120,↓,left,←,0.6248792996630073,False,18
4M18,800,experiment,96,←,right,→,0.35051279980689287,False,18
4M18,801,experiment,36,↓,right,→,0.38383049983531237,False,18
4M18,802,experiment,120,↑,no_key,no_letter,-1.0,False,18
4M18,803,experiment,156,↑,right,→,0.5428769998252392,False,18
4M18,804,experiment,72,↓,right,→,0.4005980999208987,False,18
4M18,805,experiment,84,→,left,←,0.300012500025332,False,18
4M18,806,experiment,24,←,left,←,1.3464517001993954,True,18
4M18,807,experiment,72,←,left,←,1.0065677999518812,True,18
4M18,808,experiment,156,←,left,←,0.74441699963063,True,18
4M18,809,experiment,156,↑,no_key,no_letter,-1.0,False,18
4M18,810,experiment,156,←,left,←,0.43391200015321374,True,18
4M18,811,experiment,168,←,no_key,no_letter,-1.0,False,18
4M18,812,experiment,108,↑,left,←,0.548549999948591,False,18
4M18,813,experiment,84,→,left,←,0.5153274000622332,False,18
4M18,814,experiment,180,→,no_key,no_letter,-1.0,False,18
4M18,815,experiment,132,↓,right,→,0.6222427999600768,False,18
4M18,816,experiment,168,↓,left,←,0.4005664996802807,False,18
4M18,817,experiment,132,←,no_key,no_letter,-1.0,False,18
4M18,818,experiment,144,→,left,←,0.5835806000977755,False,18
4M18,819,experiment,36,↓,left,←,0.6438278001733124,False,18
4M18,820,experiment,144,→,left,←,0.6458394997753203,False,18
4M18,821,experiment,84,←,no_key,no_letter,-1.0,False,18
4M18,822,experiment,36,↓,right,→,0.3313910001888871,False,18
4M18,823,experiment,48,→,left,←,0.3504997002892196,False,18
4M18,824,experiment,120,→,right,→,0.31718110013753176,True,18
4M18,825,experiment,180,←,left,←,0.5248079001903534,True,18
4M18,826,experiment,48,←,right,→,0.3504556003026664,False,18
4M18,827,experiment,120,→,right,→,0.43390299985185266,True,18
4M18,828,experiment,24,↑,right,→,0.35034790029749274,False,18
4M18,829,experiment,60,→,right,→,0.3003895999863744,True,18
4M18,830,experiment,48,↓,right,→,0.28555560018867254,False,18
4M18,831,experiment,72,↓,right,→,0.3672171998769045,False,18
4M18,832,experiment,60,←,right,→,0.2849071999080479,False,18
4M18,833,experiment,132,←,left,←,0.367095900233835,True,18
4M18,834,experiment,96,↓,right,→,0.28386189974844456,False,18
4M18,835,experiment,24,←,no_key,no_letter,-1.0,False,18
4M18,836,experiment,144,↓,right,→,0.33381190011277795,False,18
4M18,837,experiment,168,←,right,→,0.3505771001800895,False,18
4M18,838,experiment,96,↑,right,→,0.43372910004109144,False,18
4M18,839,experiment,84,←,right,→,0.21718960022553802,False,18
4M18,840,experiment,12,↓,right,→,0.5711767002940178,False,18
4M18,841,experiment,168,→,left,←,0.5999034997075796,False,18
4M18,842,experiment,132,↓,right,→,0.6390182999894023,False,18
4M18,843,experiment,12,←,no_key,no_letter,-1.0,False,18
4M18,844,experiment,12,←,right,→,0.33371940022334456,False,18
4M18,845,experiment,96,←,left,←,0.35050430009141564,True,18
4M18,846,experiment,108,→,right,→,0.31708399998024106,True,18
4M18,847,experiment,48,↑,no_key,no_letter,-1.0,False,18
4M18,848,experiment,108,←,left,←,0.5648675002157688,True,18
4M18,849,experiment,180,↑,right,→,0.5229108999483287,False,18
