PART_ID,Trial_no,Trial_type,PDI,Stim_letter,Key_pressed,letter_choose,Rt,Corr,Stimulus Time
6K22,1,training,10,↓,left,←,1.7121036001481116,False,30
6K22,2,training,10,←,left,←,1.224079499952495,True,30
6K22,3,training,10,→,right,→,1.1282804999500513,True,30
6K22,4,training,10,↑,up,↑,1.2359985001385212,True,30
6K22,5,training,10,↑,up,↑,1.9631595998071134,True,30
6K22,6,training,10,↓,down,↓,1.1001901999115944,True,30
6K22,7,training,10,↓,down,↓,1.3138782000169158,True,30
6K22,8,training,10,↓,up,↑,1.874753599986434,False,30
6K22,9,training,10,←,left,←,1.7159408000297844,True,30
6K22,10,training,10,↓,down,↓,0.9133284999988973,True,30
6K22,11,training,10,↓,down,↓,1.0675284997560084,True,30
6K22,12,training,10,↑,up,↑,1.1860630000010133,True,30
6K22,13,training,10,←,left,←,1.0818962999619544,True,30
6K22,14,training,10,↓,down,↓,1.0112755000591278,True,30
6K22,15,training,10,←,right,→,0.9190006996504962,False,30
6K22,16,training,10,→,right,→,0.9470162997022271,True,30
6K22,17,training,10,→,left,←,0.9365501999855042,False,30
6K22,18,training,10,↓,up,↑,1.7644286002032459,False,30
6K22,19,training,10,↓,down,↓,1.0958828004077077,True,30
6K22,20,training,10,↑,up,↑,0.9876300999894738,True,30
6K22,21,training,10,↑,up,↑,0.9764673998579383,True,18
6K22,22,training,10,↓,down,↓,0.6719332002103329,True,18
6K22,23,training,10,↑,up,↑,0.8041101000271738,True,18
6K22,24,training,10,←,left,←,0.7836468000896275,True,18
6K22,25,training,10,↓,down,↓,0.8989522000774741,True,18
6K22,26,training,10,↑,up,↑,0.8126868000254035,True,18
6K22,27,training,10,↑,up,↑,0.8943954999558628,True,18
6K22,28,training,10,→,right,→,0.6395231997594237,True,18
6K22,29,training,10,→,right,→,0.6346769998781383,True,18
6K22,30,training,10,→,right,→,0.6470198999159038,True,18
6K22,31,training,72,←,left,←,0.8331094002351165,True,15
6K22,32,training,84,↑,up,↑,0.7928546001203358,True,15
6K22,33,training,84,→,left,←,1.009745900053531,False,15
6K22,34,experiment,84,←,left,←,0.8017938998527825,True,15
6K22,35,experiment,180,←,right,→,0.8444412997923791,False,15
6K22,36,experiment,168,↓,down,↓,1.0115960999391973,True,15
6K22,37,experiment,36,↑,up,↑,0.9651545002125204,True,15
6K22,38,experiment,84,↓,down,↓,0.933459899853915,True,15
6K22,39,experiment,108,↑,no_key,no_letter,-1.0,False,15
6K22,40,experiment,108,↓,down,↓,1.37902079988271,True,15
6K22,41,experiment,168,↓,no_key,no_letter,-1.0,False,15
6K22,42,experiment,36,↑,down,↓,0.9844737998209894,False,15
6K22,43,experiment,168,↓,down,↓,0.9011432002298534,True,15
6K22,44,experiment,144,←,left,←,0.7440947997383773,True,15
6K22,45,experiment,36,↓,down,↓,0.959118299651891,True,15
6K22,46,experiment,144,↓,right,→,1.7845061998814344,False,15
6K22,47,experiment,12,↓,down,↓,0.8024585000239313,True,15
6K22,48,experiment,120,←,left,←,0.8699694001115859,True,15
6K22,49,experiment,96,→,right,→,0.7089868998154998,True,15
6K22,50,experiment,60,↓,no_key,no_letter,-1.0,False,15
6K22,51,experiment,48,←,right,→,1.1510629998520017,False,15
6K22,52,experiment,156,↓,no_key,no_letter,-1.0,False,15
6K22,53,experiment,108,↑,no_key,no_letter,-1.0,False,15
6K22,54,experiment,96,↑,left,←,1.107182199601084,False,15
6K22,55,experiment,144,→,right,→,0.7734988001175225,True,15
6K22,56,experiment,48,←,left,←,0.8096546996384859,True,15
6K22,57,experiment,168,←,up,↑,1.6153462999500334,False,15
6K22,58,experiment,120,←,left,←,0.8223844999447465,True,15
6K22,59,experiment,108,→,left,←,1.5357757997699082,False,15
6K22,60,experiment,132,↓,down,↓,0.785616799723357,True,15
6K22,61,experiment,144,↑,up,↑,1.2832551999017596,True,15
6K22,62,experiment,72,→,right,→,1.2107799998484552,True,15
6K22,63,experiment,12,↑,left,←,1.8616341999731958,False,15
6K22,64,experiment,60,↓,down,↓,0.8770264000631869,True,15
6K22,65,experiment,12,↑,no_key,no_letter,-1.0,False,15
6K22,66,experiment,156,→,right,→,0.6445085001178086,True,15
6K22,67,experiment,180,↑,up,↑,1.2104244004003704,True,15
6K22,68,experiment,36,→,left,←,1.280155099928379,False,15
6K22,69,experiment,156,→,right,→,0.6205905000679195,True,15
6K22,70,experiment,72,→,left,←,1.2564681000076234,False,15
6K22,71,experiment,180,←,left,←,0.8969075996428728,True,15
6K22,72,experiment,24,→,left,←,1.312368500046432,False,15
6K22,73,experiment,180,→,no_key,no_letter,-1.0,False,15
6K22,74,experiment,60,↓,down,↓,1.3823969000950456,True,15
6K22,75,experiment,84,↑,up,↑,1.068136699963361,True,15
6K22,76,experiment,12,→,left,←,0.8938087001442909,False,15
6K22,77,experiment,132,←,left,←,0.9402666999958456,True,15
6K22,78,experiment,60,←,left,←,0.7211957997642457,True,15
6K22,79,experiment,24,→,right,→,0.6504299999214709,True,15
6K22,80,experiment,96,↑,up,↑,1.8844396998174489,True,15
6K22,81,experiment,120,↓,up,↑,1.368883699644357,False,15
6K22,82,experiment,84,→,right,→,0.7373677999712527,True,15
6K22,83,experiment,72,↓,down,↓,0.7486522002145648,True,15
6K22,84,experiment,96,→,right,→,0.62637609988451,True,15
6K22,85,experiment,48,←,right,→,0.867214800324291,False,15
6K22,86,experiment,156,↑,no_key,no_letter,-1.0,False,15
6K22,87,experiment,24,↓,down,↓,1.0141717004589736,True,15
6K22,88,experiment,132,↓,left,←,1.1702294000424445,False,15
6K22,89,experiment,24,↓,down,↓,0.6678188000805676,True,15
6K22,90,experiment,132,↑,up,↑,1.108858299907297,True,15
6K22,91,experiment,72,↑,up,↑,1.0029516001231968,True,15
6K22,92,experiment,120,↑,left,←,0.8303193999454379,False,15
6K22,93,experiment,48,↑,no_key,no_letter,-1.0,False,15
6K22,94,training,36,←,left,←,0.6824558000080287,True,16
6K22,95,training,84,→,right,→,0.6176881999708712,True,16
6K22,96,training,180,↑,up,↑,0.9906578999944031,True,16
6K22,97,experiment,108,←,left,←,0.922267499845475,True,16
6K22,98,experiment,144,↓,down,↓,0.8506391998380423,True,16
6K22,99,experiment,24,→,right,→,0.9575355998240411,True,16
6K22,100,experiment,144,↓,down,↓,0.849605799652636,True,16
6K22,101,experiment,144,←,left,←,0.9841892002150416,True,16
6K22,102,experiment,12,→,down,↓,1.591691399924457,False,16
6K22,103,experiment,108,↑,up,↑,1.082396499812603,True,16
6K22,104,experiment,96,↓,down,↓,0.8935169000178576,True,16
6K22,105,experiment,168,↑,up,↑,0.9785574995912611,True,16
6K22,106,experiment,120,↓,down,↓,0.8453587000258267,True,16
6K22,107,experiment,156,→,right,→,0.664454999845475,True,16
6K22,108,experiment,108,↑,left,←,1.5401322999969125,False,16
6K22,109,experiment,24,↓,down,↓,0.7690012003295124,True,16
6K22,110,experiment,96,→,right,→,0.6923152999952435,True,16
6K22,111,experiment,84,↓,down,↓,0.7271436001174152,True,16
6K22,112,experiment,72,↑,up,↑,1.0510859000496566,True,16
6K22,113,experiment,156,←,left,←,0.9483119999058545,True,16
6K22,114,experiment,60,↑,up,↑,1.0058864997699857,True,16
6K22,115,experiment,156,↓,down,↓,0.6881694002076983,True,16
6K22,116,experiment,36,→,right,→,0.7085692998953164,True,16
6K22,117,experiment,180,↓,down,↓,1.5834173997864127,True,16
6K22,118,experiment,132,↓,down,↓,0.6565676000900567,True,16
6K22,119,experiment,24,→,right,→,1.1387438997626305,True,16
6K22,120,experiment,156,↑,up,↑,1.1193591998890042,True,16
6K22,121,experiment,96,↑,up,↑,1.0453006997704506,True,16
6K22,122,experiment,24,↓,down,↓,0.6640026001259685,True,16
6K22,123,experiment,36,↑,up,↑,0.9790620999410748,True,16
6K22,124,experiment,180,↑,up,↑,0.9380164998583496,True,16
6K22,125,experiment,168,→,right,→,0.6884556002914906,True,16
6K22,126,experiment,180,↓,right,→,1.1115072998218238,False,16
6K22,127,experiment,144,←,left,←,0.9841833002865314,True,16
6K22,128,experiment,96,→,right,→,0.6119749001227319,True,16
6K22,129,experiment,60,↓,down,↓,0.7038956000469625,True,16
6K22,130,experiment,72,→,right,→,0.6039557000622153,True,16
6K22,131,experiment,60,→,right,→,0.5923476000316441,True,16
6K22,132,experiment,48,←,left,←,0.8731090999208391,True,16
6K22,133,experiment,132,↑,up,↑,0.8859153003431857,True,16
6K22,134,experiment,36,→,right,→,0.86154880002141,True,16
6K22,135,experiment,132,←,left,←,0.6935049998573959,True,16
6K22,136,experiment,120,→,right,→,0.6137105999514461,True,16
6K22,137,experiment,180,↓,down,↓,0.7396972998976707,True,16
6K22,138,experiment,84,←,right,→,0.9238650002516806,False,16
6K22,139,experiment,108,→,right,→,0.6334660998545587,True,16
6K22,140,experiment,72,↓,down,↓,0.712850600015372,True,16
6K22,141,experiment,12,↓,down,↓,0.8550539999268949,True,16
6K22,142,experiment,120,→,right,→,0.6762496000155807,True,16
6K22,143,experiment,168,→,right,→,0.6503268000669777,True,16
6K22,144,experiment,72,→,right,→,0.5246764002367854,True,16
6K22,145,experiment,84,↓,down,↓,0.6633746000006795,True,16
6K22,146,experiment,168,→,right,→,0.6299674003385007,True,16
6K22,147,experiment,48,↑,up,↑,1.2251904997974634,True,16
6K22,148,experiment,36,↓,down,↓,0.6601591999642551,True,16
6K22,149,experiment,132,←,left,←,0.9329312997870147,True,16
6K22,150,experiment,12,→,right,→,1.56891980022192,True,16
6K22,151,experiment,120,→,right,→,0.6079993997700512,True,16
6K22,152,experiment,48,↓,down,↓,0.7279759999364614,True,16
6K22,153,experiment,60,←,left,←,0.7043322999961674,True,16
6K22,154,experiment,48,→,right,→,0.6245905002579093,True,16
6K22,155,experiment,84,→,right,→,0.6202248996123672,True,16
6K22,156,experiment,12,↓,down,↓,0.6757061998359859,True,16
6K22,157,training,60,↑,up,↑,0.8688060999847949,True,15
6K22,158,training,120,↓,down,↓,1.2404196001589298,True,15
6K22,159,training,96,↓,up,↑,1.3998211999423802,False,15
6K22,160,experiment,60,↓,down,↓,0.6980554000474513,True,15
6K22,161,experiment,60,↓,down,↓,0.6835289001464844,True,15
6K22,162,experiment,120,↑,up,↑,0.9266454000025988,True,15
6K22,163,experiment,72,←,left,←,0.844492300413549,True,15
6K22,164,experiment,144,↓,down,↓,0.6964089996181428,True,15
6K22,165,experiment,36,→,right,→,0.7761467997916043,True,15
6K22,166,experiment,24,↓,down,↓,0.6210531000979245,True,15
6K22,167,experiment,84,↓,down,↓,0.5662023997865617,True,15
6K22,168,experiment,132,→,right,→,0.719960100017488,True,15
6K22,169,experiment,144,←,left,←,1.207508800085634,True,15
6K22,170,experiment,36,↑,up,↑,0.9164984999224544,True,15
6K22,171,experiment,180,↓,down,↓,0.6017733002081513,True,15
6K22,172,experiment,180,↑,up,↑,0.8275120002217591,True,15
6K22,173,experiment,96,→,right,→,0.64264199975878,True,15
6K22,174,experiment,48,→,right,→,0.5587551998905838,True,15
6K22,175,experiment,156,↓,down,↓,0.6206674999557436,True,15
6K22,176,experiment,108,↑,down,↓,1.5113841998390853,False,15
6K22,177,experiment,108,←,left,←,0.8029030002653599,True,15
6K22,178,experiment,168,↓,down,↓,0.5864747003652155,True,15
6K22,179,experiment,96,←,left,←,0.7997157000936568,True,15
6K22,180,experiment,24,←,right,→,1.0062683997675776,False,15
6K22,181,experiment,156,←,left,←,0.7219009003601968,True,15
6K22,182,experiment,96,↓,down,↓,0.6289137001149356,True,15
6K22,183,experiment,84,↓,down,↓,0.6206869999878109,True,15
6K22,184,experiment,72,←,left,←,0.8678011000156403,True,15
6K22,185,experiment,96,↑,up,↑,1.514077799860388,True,15
6K22,186,experiment,12,→,right,→,1.5440382999368012,True,15
6K22,187,experiment,36,→,right,→,0.6168992002494633,True,15
6K22,188,experiment,120,↓,down,↓,0.646732300054282,True,15
6K22,189,experiment,60,←,left,←,0.570461199618876,True,15
6K22,190,experiment,36,→,up,↑,1.535974200349301,False,15
6K22,191,experiment,60,↑,up,↑,1.007188799791038,True,15
6K22,192,experiment,120,→,right,→,0.6331859999336302,True,15
6K22,193,experiment,108,←,left,←,0.64228540007025,True,15
6K22,194,experiment,180,↑,up,↑,0.9413763997144997,True,15
6K22,195,experiment,12,↑,up,↑,0.7618244998157024,True,15
6K22,196,experiment,108,←,left,←,0.6547031002119184,True,15
6K22,197,experiment,48,↓,down,↓,1.1658606003038585,True,15
6K22,198,experiment,168,↑,up,↑,1.5993146998807788,True,15
6K22,199,experiment,12,→,left,←,1.7334514996036887,False,15
6K22,200,experiment,84,←,left,←,0.6559100998565555,True,15
6K22,201,experiment,156,→,right,→,1.0808625998906791,True,15
6K22,202,experiment,48,←,left,←,0.8249797997996211,True,15
6K22,203,experiment,132,→,right,→,0.6917614000849426,True,15
6K22,204,experiment,156,↓,down,↓,0.8271604999899864,True,15
6K22,205,experiment,144,↓,down,↓,0.6434579999186099,True,15
6K22,206,experiment,144,→,right,→,1.6089376001618803,True,15
6K22,207,experiment,72,↑,up,↑,1.1898083998821676,True,15
6K22,208,experiment,24,→,down,↓,1.4978053998202085,False,15
6K22,209,experiment,132,↑,up,↑,1.1410894999280572,True,15
6K22,210,experiment,12,↓,down,↓,0.6752241998910904,True,15
6K22,211,experiment,168,↑,left,←,1.6570930001325905,False,15
6K22,212,experiment,24,↓,down,↓,0.7330768001265824,True,15
6K22,213,experiment,72,↑,up,↑,0.7890572999604046,True,15
6K22,214,experiment,48,←,left,←,0.7680786997079849,True,15
6K22,215,experiment,180,←,left,←,0.5611330000683665,True,15
6K22,216,experiment,120,↓,left,←,1.4471917999908328,False,15
6K22,217,experiment,132,↓,left,←,0.8178433002904058,False,15
6K22,218,experiment,84,→,right,→,0.758279399946332,True,15
6K22,219,experiment,168,↓,down,↓,0.5764168002642691,True,15
6K22,220,training,60,↑,up,↑,1.1293266997672617,True,15
6K22,221,training,132,↓,down,↓,0.5541948000900447,True,15
6K22,222,training,108,→,right,→,0.6648463001474738,True,15
6K22,223,experiment,120,↑,up,↑,1.02832610020414,True,15
6K22,224,experiment,132,→,right,→,0.5644491999410093,True,15
6K22,225,experiment,144,↑,up,↑,0.946244299877435,True,15
6K22,226,experiment,36,↑,up,↑,0.736757599748671,True,15
6K22,227,experiment,108,←,left,←,0.9337925999425352,True,15
6K22,228,experiment,84,←,left,←,0.780129199847579,True,15
6K22,229,experiment,168,→,right,→,0.7099581998772919,True,15
6K22,230,experiment,24,→,left,←,1.2837412999942899,False,15
6K22,231,experiment,180,→,right,→,0.6554491999559104,True,15
6K22,232,experiment,24,↓,no_key,no_letter,-1.0,False,15
6K22,233,experiment,156,→,right,→,0.6397207002155483,True,15
6K22,234,experiment,12,←,left,←,0.6426070001907647,True,15
6K22,235,experiment,84,↑,up,↑,0.8600154002197087,True,15
6K22,236,experiment,84,→,right,→,0.7058544000610709,True,15
6K22,237,experiment,96,↓,down,↓,0.693212500307709,True,15
6K22,238,experiment,156,←,left,←,0.6469004000537097,True,15
6K22,239,experiment,180,↑,up,↑,0.8441427000798285,True,15
6K22,240,experiment,12,↓,down,↓,1.5679056998342276,True,15
6K22,241,experiment,36,→,right,→,0.6501433001831174,True,15
6K22,242,experiment,60,↓,down,↓,0.7467399998567998,True,15
6K22,243,experiment,120,↓,left,←,1.2410942004062235,False,15
6K22,244,experiment,72,←,left,←,0.8949833000078797,True,15
6K22,245,experiment,48,↓,down,↓,0.6624829000793397,True,15
6K22,246,experiment,24,↓,up,↑,0.8402363997884095,False,15
6K22,247,experiment,60,↓,down,↓,0.6574467001482844,True,15
6K22,248,experiment,60,↓,down,↓,0.6060839998535812,True,15
6K22,249,experiment,36,↑,up,↑,1.0237965998239815,True,15
6K22,250,experiment,96,↓,down,↓,0.528449300210923,True,15
6K22,251,experiment,36,→,right,→,0.7892861999571323,True,15
6K22,252,experiment,132,↑,left,←,1.0559024000540376,False,15
6K22,253,experiment,12,↑,left,←,0.7209028997458518,False,15
6K22,254,experiment,12,↑,down,↓,0.8982265000231564,False,15
6K22,255,experiment,72,→,right,→,0.6417690999805927,True,15
6K22,256,experiment,48,↓,down,↓,0.6420796001330018,True,15
6K22,257,experiment,96,→,right,→,0.7291294997557998,True,15
6K22,258,experiment,48,→,right,→,0.6372611997649074,True,15
6K22,259,experiment,108,↑,up,↑,0.925222400110215,True,15
6K22,260,experiment,180,↑,up,↑,0.9016281999647617,True,15
6K22,261,experiment,180,→,right,→,0.6880690003745258,True,15
6K22,262,experiment,132,↓,up,↑,1.785476699937135,False,15
6K22,263,experiment,60,←,left,←,0.6673379996791482,True,15
6K22,264,experiment,84,←,left,←,0.5782626001164317,True,15
6K22,265,experiment,168,←,left,←,0.7093136999756098,True,15
6K22,266,experiment,96,→,right,→,0.6482728999108076,True,15
6K22,267,experiment,132,↑,up,↑,0.7480847998522222,True,15
6K22,268,experiment,144,↑,up,↑,1.1046343999914825,True,15
6K22,269,experiment,24,→,right,→,0.8926734002307057,True,15
6K22,270,experiment,168,↑,up,↑,0.9919047998264432,True,15
6K22,271,experiment,48,↑,left,←,0.944132599979639,False,15
6K22,272,experiment,108,↓,down,↓,0.6814143997617066,True,15
6K22,273,experiment,72,←,left,←,0.6553174997679889,True,15
6K22,274,experiment,168,→,right,→,0.6316427001729608,True,15
6K22,275,experiment,120,↑,up,↑,1.1463870001025498,True,15
6K22,276,experiment,156,↑,up,↑,0.8392584999091923,True,15
6K22,277,experiment,144,←,left,←,0.6004582000896335,True,15
6K22,278,experiment,72,↑,right,→,0.831130700185895,False,15
6K22,279,experiment,108,→,left,←,0.7356027998030186,False,15
6K22,280,experiment,144,→,right,→,0.628566799685359,True,15
6K22,281,experiment,156,↑,up,↑,0.72725690016523,True,15
6K22,282,experiment,120,↓,down,↓,0.7986499997787178,True,15
6K22,283,training,180,↓,down,↓,0.6188148995861411,True,15
6K22,284,training,132,→,right,→,0.651522200088948,True,15
6K22,285,training,36,→,right,→,0.5330787999555469,True,15
6K22,286,experiment,120,↑,up,↑,0.9217119002714753,True,15
6K22,287,experiment,156,←,left,←,1.269527300260961,True,15
6K22,288,experiment,84,↓,down,↓,0.6092802002094686,True,15
6K22,289,experiment,72,←,left,←,0.7891273000277579,True,15
6K22,290,experiment,120,↑,up,↑,0.9671070999465883,True,15
6K22,291,experiment,156,↑,up,↑,1.0158955003134906,True,15
6K22,292,experiment,108,↓,down,↓,0.6934779002331197,True,15
6K22,293,experiment,144,↓,down,↓,0.588493200019002,True,15
6K22,294,experiment,36,↑,up,↑,1.3409829000011086,True,15
6K22,295,experiment,84,→,right,→,0.6308809001930058,True,15
6K22,296,experiment,12,→,left,←,0.8112285998649895,False,15
6K22,297,experiment,36,↑,up,↑,0.7872458999045193,True,15
6K22,298,experiment,144,↑,up,↑,0.8057803004048765,True,15
6K22,299,experiment,180,↑,up,↑,0.8123971996828914,True,15
6K22,300,experiment,108,↑,up,↑,0.9656977998092771,True,15
6K22,301,experiment,96,→,down,↓,1.10314349969849,False,15
6K22,302,experiment,72,↑,up,↑,0.8360662003979087,True,15
6K22,303,experiment,108,↓,up,↑,1.11535539990291,False,15
6K22,304,experiment,144,→,left,←,1.4140372998081148,False,15
6K22,305,experiment,156,←,left,←,0.6422559004276991,True,15
6K22,306,experiment,168,↓,down,↓,0.9308689995668828,True,15
6K22,307,experiment,24,↑,left,←,0.7599841998890042,False,15
6K22,308,experiment,168,↓,down,↓,1.3691223002970219,True,15
6K22,309,experiment,12,↑,down,↓,0.9418035000562668,False,15
6K22,310,experiment,72,↑,up,↑,0.8623586003668606,True,15
6K22,311,experiment,180,↓,down,↓,0.6727533000521362,True,15
6K22,312,experiment,72,→,right,→,0.7620831998065114,True,15
6K22,313,experiment,48,→,left,←,0.8532953001558781,False,15
6K22,314,experiment,144,→,right,→,0.6111987996846437,True,15
6K22,315,experiment,60,↓,down,↓,0.6499843001365662,True,15
6K22,316,experiment,60,→,right,→,0.8194670998491347,True,15
6K22,317,experiment,168,↑,up,↑,0.9635987998917699,True,15
6K22,318,experiment,180,→,right,→,0.7400798997841775,True,15
6K22,319,experiment,12,↑,down,↓,0.9520980003289878,False,15
6K22,320,experiment,120,↓,left,←,0.9710593000054359,False,15
6K22,321,experiment,120,↓,down,↓,0.6054124999791384,True,15
6K22,322,experiment,24,←,left,←,0.7570216003805399,True,15
6K22,323,experiment,36,↓,left,←,0.9886539001017809,False,15
6K22,324,experiment,132,←,left,←,0.6502375998534262,True,15
6K22,325,experiment,132,↓,down,↓,0.9345631003379822,True,15
6K22,326,experiment,168,↑,up,↑,0.925036400090903,True,15
6K22,327,experiment,12,→,right,→,0.7434958997182548,True,15
6K22,328,experiment,156,←,left,←,0.7512778001837432,True,15
6K22,329,experiment,48,←,left,←,0.6284584999084473,True,15
6K22,330,experiment,24,↑,up,↑,0.8040685998275876,True,15
6K22,331,experiment,24,↓,up,↑,0.7826164001598954,False,15
6K22,332,experiment,132,←,left,←,0.700607500039041,True,15
6K22,333,experiment,60,←,left,←,0.6363769001327455,True,15
6K22,334,experiment,108,↑,down,↓,1.4560147998854518,False,15
6K22,335,experiment,132,→,right,→,0.7935361000709236,True,15
6K22,336,experiment,84,↓,up,↑,0.9043294000439346,False,15
6K22,337,experiment,48,↑,up,↑,0.8657924998551607,True,15
6K22,338,experiment,36,↑,up,↑,0.8240764997899532,True,15
6K22,339,experiment,96,→,right,→,0.5741761000826955,True,15
6K22,340,experiment,180,↑,up,↑,0.7287510000169277,True,15
6K22,341,experiment,96,←,left,←,0.6478904001414776,True,15
6K22,342,experiment,96,↓,down,↓,0.9299767999909818,True,15
6K22,343,experiment,60,←,left,←,0.6326480996794999,True,15
6K22,344,experiment,84,←,left,←,0.697554100304842,True,15
6K22,345,experiment,48,↓,down,↓,0.7949016001075506,True,15
6K22,346,training,36,←,left,←,0.7346258000470698,True,15
6K22,347,training,60,←,left,←,0.6334869000129402,True,15
6K22,348,training,168,↓,down,↓,0.7279852000065148,True,15
6K22,349,experiment,144,←,left,←,0.6151680001057684,True,15
6K22,350,experiment,180,←,left,←,0.5423391000367701,True,15
6K22,351,experiment,84,→,left,←,0.9130519996397197,False,15
6K22,352,experiment,12,↑,up,↑,0.9733760003000498,True,15
6K22,353,experiment,156,→,right,→,0.5652964999899268,True,15
6K22,354,experiment,96,↓,down,↓,0.640238800086081,True,15
6K22,355,experiment,132,↑,up,↑,0.8844134998507798,True,15
6K22,356,experiment,12,↓,up,↑,0.9807397997938097,False,15
6K22,357,experiment,24,↓,down,↓,0.8911251001991332,True,15
6K22,358,experiment,120,↓,down,↓,0.5683304001577199,True,15
6K22,359,experiment,48,→,right,→,0.6100396998226643,True,15
6K22,360,experiment,168,↓,down,↓,0.652112899813801,True,15
6K22,361,experiment,72,←,right,→,0.7297695996239781,False,15
6K22,362,experiment,108,↓,down,↓,0.5081975003704429,True,15
6K22,363,experiment,84,↓,down,↓,0.7071026000194252,True,15
6K22,364,experiment,168,←,left,←,0.8283669003285468,True,15
6K22,365,experiment,168,→,right,→,0.6555964997969568,True,15
6K22,366,experiment,12,→,left,←,0.8392204996198416,False,15
6K22,367,experiment,108,←,left,←,0.6881321999244392,True,15
6K22,368,experiment,120,↑,up,↑,0.9330766000784934,True,15
6K22,369,experiment,84,↑,up,↑,1.0973559003323317,True,15
6K22,370,experiment,60,→,right,→,0.6113906996324658,True,15
6K22,371,experiment,132,←,left,←,0.6792599000036716,True,15
6K22,372,experiment,84,←,left,←,0.7024334999732673,True,15
6K22,373,experiment,60,↑,left,←,0.7686199001036584,False,15
6K22,374,experiment,96,↓,down,↓,0.6174437999725342,True,15
6K22,375,experiment,120,↓,down,↓,0.656920500099659,True,15
6K22,376,experiment,132,↑,down,↓,0.6394138000905514,False,15
6K22,377,experiment,48,↑,down,↓,0.6524563999846578,False,15
6K22,378,experiment,72,↓,down,↓,0.5962188001722097,True,15
6K22,379,experiment,144,→,right,→,1.4673778000287712,True,15
6K22,380,experiment,108,←,left,←,0.6848341999575496,True,15
6K22,381,experiment,180,←,left,←,0.6675879000686109,True,15
6K22,382,experiment,12,←,left,←,0.5762271001003683,True,15
6K22,383,experiment,156,←,left,←,0.7305657998658717,True,15
6K22,384,experiment,36,←,left,←,0.5676454002968967,True,15
6K22,385,experiment,48,↓,down,↓,0.7465171003714204,True,15
6K22,386,experiment,60,→,right,→,0.6234365003183484,True,15
6K22,387,experiment,108,←,left,←,0.5827909000217915,True,15
6K22,388,experiment,96,→,right,→,1.496101399883628,True,15
6K22,389,experiment,48,→,right,→,0.5924867996945977,True,15
6K22,390,experiment,120,↑,up,↑,0.9629480000585318,True,15
6K22,391,experiment,72,←,left,←,0.6484729000367224,True,15
6K22,392,experiment,132,↓,down,↓,0.5281528998166323,True,15
6K22,393,experiment,24,↓,down,↓,0.580177600029856,True,15
6K22,394,experiment,180,→,right,→,0.6554915001615882,True,15
6K22,395,experiment,156,↓,down,↓,0.5322602996602654,True,15
6K22,396,experiment,144,→,right,→,0.6133261998184025,True,15
6K22,397,experiment,36,↓,down,↓,0.6702628000639379,True,15
6K22,398,experiment,180,→,right,→,0.5443207998760045,True,15
6K22,399,experiment,72,↑,down,↓,0.59123450005427,False,15
6K22,400,experiment,24,↑,down,↓,0.5461484999395907,False,15
6K22,401,experiment,60,←,no_key,no_letter,-1.0,False,15
6K22,402,experiment,36,←,left,←,0.6489114998839796,True,15
6K22,403,experiment,96,→,right,→,0.7527759000658989,True,15
6K22,404,experiment,24,↑,up,↑,0.9694888000376523,True,15
6K22,405,experiment,156,↓,down,↓,0.8140318999066949,True,15
6K22,406,experiment,144,↓,down,↓,0.6257227999158204,True,15
6K22,407,experiment,36,→,right,→,0.6599408998154104,True,15
6K22,408,experiment,168,→,right,→,0.5781801999546587,True,15
6K22,409,training,72,↓,right,→,0.9875138001516461,False,15
6K22,410,training,24,↑,up,↑,0.9953057998791337,True,15
6K22,411,training,108,→,right,→,0.5439269999042153,True,15
6K22,412,experiment,132,↑,up,↑,0.9002515999600291,True,15
6K22,413,experiment,84,↓,down,↓,0.7781808003783226,True,15
6K22,414,experiment,60,←,left,←,0.6484847003594041,True,15
6K22,415,experiment,108,→,right,→,0.7656479999423027,True,15
6K22,416,experiment,36,↑,up,↑,0.9473894997499883,True,15
6K22,417,experiment,168,↓,down,↓,0.6313410000875592,True,15
6K22,418,experiment,120,→,right,→,0.6450641001574695,True,15
6K22,419,experiment,12,→,right,→,0.700439800042659,True,15
6K22,420,experiment,48,←,left,←,0.7287274999544024,True,15
6K22,421,experiment,144,→,right,→,0.5730611998587847,True,15
6K22,422,experiment,108,↓,down,↓,0.6336330003105104,True,15
6K22,423,experiment,144,↑,up,↑,0.9313647001981735,True,15
6K22,424,experiment,48,↑,up,↑,0.9202242000028491,True,15
6K22,425,experiment,72,←,left,←,0.6162660997360945,True,15
6K22,426,experiment,180,↑,up,↑,0.804458100348711,True,15
6K22,427,experiment,84,←,left,←,0.7956975996494293,True,15
6K22,428,experiment,168,↑,up,↑,0.8669889001175761,True,15
6K22,429,experiment,72,↓,down,↓,0.7574060000479221,True,15
6K22,430,experiment,84,→,right,→,0.9017588002607226,True,15
6K22,431,experiment,24,↑,up,↑,0.7780557996593416,True,15
6K22,432,experiment,180,↓,down,↓,0.8017950002104044,True,15
6K22,433,experiment,168,↓,down,↓,0.7054272000677884,True,15
6K22,434,experiment,60,↓,down,↓,0.6285826000384986,True,15
6K22,435,experiment,144,←,left,←,0.6348174996674061,True,15
6K22,436,experiment,156,↓,down,↓,0.6813288000412285,True,15
6K22,437,experiment,132,→,right,→,1.453141300007701,True,15
6K22,438,experiment,12,→,right,→,0.7605987000279129,True,15
6K22,439,experiment,96,↓,down,↓,0.9404205000028014,True,15
6K22,440,experiment,120,→,right,→,0.6675631999969482,True,15
6K22,441,experiment,156,↓,down,↓,0.5455163000151515,True,15
6K22,442,experiment,72,↑,left,←,1.4695195001550019,False,15
6K22,443,experiment,120,→,left,←,1.7682723999023438,False,15
6K22,444,experiment,108,←,left,←,0.7256597001105547,True,15
6K22,445,experiment,180,→,right,→,0.8472404000349343,True,15
6K22,446,experiment,48,→,right,→,0.7436448000371456,True,15
6K22,447,experiment,96,←,left,←,0.6768801002763212,True,15
6K22,448,experiment,96,→,right,→,0.691647999919951,True,15
6K22,449,experiment,96,↑,left,←,0.7817518999800086,False,15
6K22,450,experiment,144,↓,down,↓,0.7483637998811901,True,15
6K22,451,experiment,84,→,right,→,0.7622213000431657,True,15
6K22,452,experiment,156,↑,up,↑,1.0815024999901652,True,15
6K22,453,experiment,132,→,right,→,0.6418862999416888,True,15
6K22,454,experiment,108,→,right,→,0.5248978002928197,True,15
6K22,455,experiment,132,↓,down,↓,0.6233736001886427,True,15
6K22,456,experiment,36,→,right,→,0.8231549998745322,True,15
6K22,457,experiment,168,↑,up,↑,1.1362741999328136,True,15
6K22,458,experiment,36,←,left,←,0.9204021003097296,True,15
6K22,459,experiment,36,←,left,←,0.6037992001511157,True,15
6K22,460,experiment,12,←,left,←,0.6266637002117932,True,15
6K22,461,experiment,60,→,right,→,0.6394845000468194,True,15
6K22,462,experiment,180,↓,down,↓,0.6164981001056731,True,15
6K22,463,experiment,120,→,right,→,0.5910847000777721,True,15
6K22,464,experiment,156,←,left,←,0.6265413002111018,True,15
6K22,465,experiment,72,←,left,←,0.9767808998003602,True,15
6K22,466,experiment,24,←,left,←,0.6042533996514976,True,15
6K22,467,experiment,60,↑,up,↑,0.9565477003343403,True,15
6K22,468,experiment,12,↑,up,↑,1.2252413001842797,True,15
6K22,469,experiment,24,→,right,→,1.1163583002053201,True,15
6K22,470,experiment,48,↓,down,↓,0.7031988999806345,True,15
6K22,471,experiment,24,↑,up,↑,1.8486068998463452,True,15
6K22,472,training,12,↑,left,←,0.8001935002394021,False,14
6K22,473,training,180,←,left,←,0.6791538000106812,True,14
6K22,474,training,180,↓,down,↓,0.6727364999242127,True,14
6K22,475,experiment,108,→,right,→,0.5678546000272036,True,14
6K22,476,experiment,60,→,right,→,0.6786608998663723,True,14
6K22,477,experiment,84,→,right,→,0.6114102997817099,True,14
6K22,478,experiment,156,↓,down,↓,0.7277063000947237,True,14
6K22,479,experiment,36,←,left,←,0.9031875003129244,True,14
6K22,480,experiment,180,→,right,→,1.091959500219673,True,14
6K22,481,experiment,12,←,left,←,0.6404452002607286,True,14
6K22,482,experiment,144,→,right,→,0.6103520998731256,True,14
6K22,483,experiment,144,←,up,↑,1.4973833002150059,False,14
6K22,484,experiment,72,→,right,→,0.5953891002573073,True,14
6K22,485,experiment,120,←,left,←,0.6722039002925158,True,14
6K22,486,experiment,60,←,left,←,0.7723807003349066,True,14
6K22,487,experiment,24,↓,down,↓,0.9176134001463652,True,14
6K22,488,experiment,84,←,left,←,0.6760209002532065,True,14
6K22,489,experiment,120,←,left,←,0.5387999000959098,True,14
6K22,490,experiment,108,↑,up,↑,0.8486361000686884,True,14
6K22,491,experiment,144,→,right,→,0.5871351002715528,True,14
6K22,492,experiment,96,←,left,←,0.6240253001451492,True,14
6K22,493,experiment,168,↓,down,↓,0.9397542998194695,True,14
6K22,494,experiment,84,↑,up,↑,0.9814860001206398,True,14
6K22,495,experiment,108,→,right,→,0.607219799887389,True,14
6K22,496,experiment,144,←,left,←,0.6111518000252545,True,14
6K22,497,experiment,60,→,right,→,1.3613184001296759,True,14
6K22,498,experiment,132,→,right,→,0.5559195000678301,True,14
6K22,499,experiment,36,→,right,→,0.7802444999106228,True,14
6K22,500,experiment,168,→,right,→,0.5898462999612093,True,14
6K22,501,experiment,48,→,right,→,0.5327683999203146,True,14
6K22,502,experiment,84,←,left,←,0.6866784999147058,True,14
6K22,503,experiment,180,↓,down,↓,0.8767241002060473,True,14
6K22,504,experiment,60,→,up,↑,1.4912348999641836,False,14
6K22,505,experiment,120,↓,down,↓,0.795619800221175,True,14
6K22,506,experiment,48,↓,down,↓,0.7979271998628974,True,14
6K22,507,experiment,12,↓,left,←,1.2664898000657558,False,14
6K22,508,experiment,24,→,left,←,0.9604144003242254,False,14
6K22,509,experiment,132,↑,up,↑,0.7346731997095048,True,14
6K22,510,experiment,36,↓,up,↑,0.7720852997153997,False,14
6K22,511,experiment,48,←,left,←,0.6970797996036708,True,14
6K22,512,experiment,48,↑,left,←,1.0796798998489976,False,14
6K22,513,experiment,168,→,right,→,0.663189799990505,True,14
6K22,514,experiment,12,↓,left,←,0.9196663997136056,False,14
6K22,515,experiment,108,↑,left,←,0.887665799818933,False,14
6K22,516,experiment,132,↓,left,←,0.9479292999021709,False,14
6K22,517,experiment,120,↓,up,↑,1.079767200164497,False,14
6K22,518,experiment,132,↑,up,↑,0.903702899813652,True,14
6K22,519,experiment,96,↓,down,↓,0.9977893000468612,True,14
6K22,520,experiment,24,↑,up,↑,0.6581835998222232,True,14
6K22,521,experiment,180,↓,down,↓,1.0469261002726853,True,14
6K22,522,experiment,156,↑,up,↑,0.784043500199914,True,14
6K22,523,experiment,96,↑,up,↑,0.7784763001836836,True,14
6K22,524,experiment,12,←,left,←,0.7294775997288525,True,14
6K22,525,experiment,156,↑,right,→,1.3805126999504864,False,14
6K22,526,experiment,24,↓,down,↓,1.0379426004365087,True,14
6K22,527,experiment,168,↓,down,↓,1.458636799827218,True,14
6K22,528,experiment,72,↓,down,↓,0.740743899717927,True,14
6K22,529,experiment,72,↑,down,↓,1.074192099738866,False,14
6K22,530,experiment,96,←,left,←,0.5479095997288823,True,14
6K22,531,experiment,180,↓,down,↓,0.8515681000426412,True,14
6K22,532,experiment,72,→,right,→,0.6201597000472248,True,14
6K22,533,experiment,36,↑,up,↑,0.7686381000094116,True,14
6K22,534,experiment,156,←,left,←,0.5650081001222134,True,14
6K22,535,training,36,←,left,←,0.6894006999209523,True,14
6K22,536,training,120,←,left,←,0.7752779996953905,True,14
6K22,537,training,108,↑,up,↑,0.8555763000622392,True,14
6K22,538,experiment,96,↓,down,↓,0.8407904002815485,True,14
6K22,539,experiment,60,↓,up,↑,0.6575763998553157,False,14
6K22,540,experiment,156,→,right,→,0.7536657000891864,True,14
6K22,541,experiment,36,←,left,←,0.7127798995934427,True,14
6K22,542,experiment,180,↓,up,↑,1.29310919996351,False,14
6K22,543,experiment,12,↓,up,↑,0.9168825000524521,False,14
6K22,544,experiment,120,←,left,←,0.6516113001853228,True,14
6K22,545,experiment,144,↓,down,↓,0.70686319982633,True,14
6K22,546,experiment,156,→,right,→,0.6461339998058975,True,14
6K22,547,experiment,168,↑,up,↑,0.999043199699372,True,14
6K22,548,experiment,24,↑,up,↑,0.6415948001667857,True,14
6K22,549,experiment,60,↑,up,↑,0.9290599999949336,True,14
6K22,550,experiment,96,→,right,→,0.586650500074029,True,14
6K22,551,experiment,108,→,right,→,0.557366699911654,True,14
6K22,552,experiment,12,↑,left,←,1.4762508999556303,False,14
6K22,553,experiment,132,↑,up,↑,0.8622968997806311,True,14
6K22,554,experiment,180,→,right,→,0.49872760009020567,True,14
6K22,555,experiment,120,↑,left,←,0.8927997001446784,False,14
6K22,556,experiment,60,→,right,→,0.8884274000301957,True,14
6K22,557,experiment,132,←,left,←,0.5577330999076366,True,14
6K22,558,experiment,72,←,left,←,0.5645429999567568,True,14
6K22,559,experiment,144,→,right,→,0.5550778000615537,True,14
6K22,560,experiment,96,←,down,↓,1.2915313001722097,False,14
6K22,561,experiment,168,↓,down,↓,0.8095479998737574,True,14
6K22,562,experiment,180,←,left,←,0.583373200148344,True,14
6K22,563,experiment,132,↓,down,↓,1.2615803997032344,True,14
6K22,564,experiment,48,←,left,←,0.7403137004002929,True,14
6K22,565,experiment,96,→,right,→,1.5496712997555733,True,14
6K22,566,experiment,156,→,right,→,0.6301942998543382,True,14
6K22,567,experiment,84,↓,left,←,0.6823806003667414,False,14
6K22,568,experiment,156,↓,down,↓,0.7993965996429324,True,14
6K22,569,experiment,180,→,right,→,0.9739220999181271,True,14
6K22,570,experiment,24,↑,up,↑,1.3408174002543092,True,14
6K22,571,experiment,72,←,left,←,0.5690421001054347,True,14
6K22,572,experiment,84,→,right,→,0.7427755002863705,True,14
6K22,573,experiment,36,←,right,→,1.1039379998110235,False,14
6K22,574,experiment,120,←,left,←,0.629483699798584,True,14
6K22,575,experiment,48,↓,down,↓,0.9169197003357112,True,14
6K22,576,experiment,36,→,right,→,0.786555300001055,True,14
6K22,577,experiment,12,↓,right,→,0.8763951999135315,False,14
6K22,578,experiment,24,↓,down,↓,0.9656993001699448,True,14
6K22,579,experiment,72,↑,up,↑,0.7010682001709938,True,14
6K22,580,experiment,36,↑,up,↑,0.6904469998553395,True,14
6K22,581,experiment,84,→,right,→,0.6443777000531554,True,14
6K22,582,experiment,144,↓,down,↓,0.6221239003352821,True,14
6K22,583,experiment,12,↑,down,↓,0.9265701998956501,False,14
6K22,584,experiment,144,←,left,←,1.7096176003105938,True,14
6K22,585,experiment,48,↓,down,↓,1.2733555999584496,True,14
6K22,586,experiment,72,→,right,→,0.6705752997659147,True,14
6K22,587,experiment,168,↓,down,↓,0.7291604001075029,True,14
6K22,588,experiment,132,←,left,←,0.6107654999941587,True,14
6K22,589,experiment,108,↓,down,↓,0.8029921995475888,True,14
6K22,590,experiment,84,↑,up,↑,0.6354387998580933,True,14
6K22,591,experiment,108,↓,down,↓,0.728330900426954,True,14
6K22,592,experiment,60,←,left,←,0.6372223999351263,True,14
6K22,593,experiment,48,↓,down,↓,0.6480533997528255,True,14
6K22,594,experiment,168,↑,up,↑,0.8938672002404928,True,14
6K22,595,experiment,108,↑,up,↑,0.8337388997897506,True,14
6K22,596,experiment,120,↓,down,↓,0.9347610003314912,True,14
6K22,597,experiment,24,←,left,←,0.7080594999715686,True,14
6K22,598,training,84,↓,up,↑,1.3332158997654915,False,14
6K22,599,training,72,↓,down,↓,0.8109620995819569,True,14
6K22,600,training,48,↑,up,↑,0.7763056997209787,True,14
6K22,601,experiment,60,↓,down,↓,0.6542642000131309,True,14
6K22,602,experiment,12,↓,down,↓,0.6797708999365568,True,14
6K22,603,experiment,60,↑,up,↑,0.7227308000437915,True,14
6K22,604,experiment,156,→,right,→,0.5575222000479698,True,14
6K22,605,experiment,84,←,left,←,0.7969359997659922,True,14
6K22,606,experiment,72,→,right,→,0.6767987003549933,True,14
6K22,607,experiment,144,↓,down,↓,0.7432367000728846,True,14
6K22,608,experiment,24,↓,down,↓,1.0923238997347653,True,14
6K22,609,experiment,156,←,left,←,0.6710043996572495,True,14
6K22,610,experiment,48,↑,up,↑,0.872320500202477,True,14
6K22,611,experiment,144,←,left,←,1.0210820003412664,True,14
6K22,612,experiment,48,↑,left,←,0.8006257996894419,False,14
6K22,613,experiment,24,↑,up,↑,0.8784722001291811,True,14
6K22,614,experiment,180,→,left,←,1.5923298001289368,False,14
6K22,615,experiment,84,←,left,←,0.646076800301671,True,14
6K22,616,experiment,12,→,right,→,0.8688293998129666,True,14
6K22,617,experiment,168,←,left,←,0.7143242000602186,True,14
6K22,618,experiment,132,↓,down,↓,0.9258540999144316,True,14
6K22,619,experiment,96,→,right,→,0.6117350999265909,True,14
6K22,620,experiment,132,←,left,←,0.6584817999973893,True,14
6K22,621,experiment,132,↓,down,↓,0.7754517002031207,True,14
6K22,622,experiment,120,←,left,←,0.9869852000847459,True,14
6K22,623,experiment,132,←,left,←,0.5504955002106726,True,14
6K22,624,experiment,108,←,left,←,0.5854980000294745,True,14
6K22,625,experiment,84,↓,up,↑,0.9399636001326144,False,14
6K22,626,experiment,156,↓,down,↓,0.7438825001008809,True,14
6K22,627,experiment,84,↓,up,↑,1.2748906998895109,False,14
6K22,628,experiment,180,↓,down,↓,1.0089596998877823,True,14
6K22,629,experiment,120,←,left,←,0.7155776997096837,True,14
6K22,630,experiment,168,↓,down,↓,0.874000099953264,True,14
6K22,631,experiment,36,↓,down,↓,1.0022147996351123,True,14
6K22,632,experiment,48,↓,down,↓,0.7876189998351038,True,14
6K22,633,experiment,144,←,left,←,0.8071622997522354,True,14
6K22,634,experiment,168,↑,up,↑,0.7720234002918005,True,14
6K22,635,experiment,72,→,right,→,0.5888879001140594,True,14
6K22,636,experiment,72,↓,left,←,1.6001506000757217,False,14
6K22,637,experiment,96,↑,up,↑,0.902088699862361,True,14
6K22,638,experiment,60,→,right,→,0.7044241996482015,True,14
6K22,639,experiment,108,↓,down,↓,0.8133189002983272,True,14
6K22,640,experiment,24,←,right,→,0.7281667999923229,False,14
6K22,641,experiment,96,↓,down,↓,0.7643756000325084,True,14
6K22,642,experiment,108,↓,down,↓,0.9083059998229146,True,14
6K22,643,experiment,12,↑,up,↑,0.8162767998874187,True,14
6K22,644,experiment,96,→,right,→,0.5555574996396899,True,14
6K22,645,experiment,144,←,left,←,0.7494691000320017,True,14
6K22,646,experiment,108,←,left,←,0.6342637003399432,True,14
6K22,647,experiment,156,→,right,→,0.6383098000660539,True,14
6K22,648,experiment,120,↑,up,↑,0.8356246002949774,True,14
6K22,649,experiment,36,←,left,←,0.7330033998005092,True,14
6K22,650,experiment,120,↓,down,↓,0.782772199716419,True,14
6K22,651,experiment,72,↑,up,↑,0.7643724996596575,True,14
6K22,652,experiment,180,↑,up,↑,0.8137413002550602,True,14
6K22,653,experiment,36,←,left,←,0.7173560000956059,True,14
6K22,654,experiment,24,↑,up,↑,1.0332547998987138,True,14
6K22,655,experiment,180,→,right,→,0.8971988996490836,True,14
6K22,656,experiment,48,↑,up,↑,0.8302446999587119,True,14
6K22,657,experiment,168,→,right,→,0.6191952000372112,True,14
6K22,658,experiment,60,↑,down,↓,1.137976299971342,False,14
6K22,659,experiment,36,↑,down,↓,0.9144351999275386,False,14
6K22,660,experiment,12,↑,up,↑,0.7546851998195052,True,14
6K22,661,training,108,↓,down,↓,0.9197467002086341,True,14
6K22,662,training,108,←,left,←,0.866001000162214,True,14
6K22,663,training,48,→,right,→,0.5826004003174603,True,14
6K22,664,experiment,132,←,left,←,0.6515212999656796,True,14
6K22,665,experiment,168,↓,down,↓,0.8376452000811696,True,14
6K22,666,experiment,24,↓,right,→,0.9083068002946675,False,14
6K22,667,experiment,12,↑,up,↑,0.7654872997663915,True,14
6K22,668,experiment,24,↓,down,↓,0.643419099971652,True,14
6K22,669,experiment,180,↑,up,↑,0.7738322000950575,True,14
6K22,670,experiment,168,→,right,→,0.5578026999719441,True,14
6K22,671,experiment,72,↑,up,↑,0.8464994998648763,True,14
6K22,672,experiment,120,←,left,←,0.8705794000998139,True,14
6K22,673,experiment,24,→,left,←,0.7312909997999668,False,14
6K22,674,experiment,156,←,left,←,0.5877112001180649,True,14
6K22,675,experiment,120,↓,down,↓,0.7679714998230338,True,14
6K22,676,experiment,48,←,left,←,0.8413504003547132,True,14
6K22,677,experiment,60,↓,down,↓,0.6971007999964058,True,14
6K22,678,experiment,96,↓,down,↓,0.7298971000127494,True,14
6K22,679,experiment,12,→,right,→,0.6733185001648962,True,14
6K22,680,experiment,108,↓,down,↓,0.6246504001319408,True,14
6K22,681,experiment,12,←,right,→,1.049875000026077,False,14
6K22,682,experiment,120,→,left,←,1.5604044999927282,False,14
6K22,683,experiment,12,↑,down,↓,0.9919787002727389,False,14
6K22,684,experiment,72,↑,up,↑,1.5992119000293314,True,14
6K22,685,experiment,84,↑,up,↑,0.8130822996608913,True,14
6K22,686,experiment,96,←,left,←,0.611512899864465,True,14
6K22,687,experiment,84,↓,up,↑,0.7762448997236788,False,14
6K22,688,experiment,48,→,right,→,0.925296800211072,True,14
6K22,689,experiment,36,←,left,←,0.6562307998538017,True,14
6K22,690,experiment,108,→,right,→,0.6355101997032762,True,14
6K22,691,experiment,168,↑,up,↑,0.7214561002328992,True,14
6K22,692,experiment,36,→,left,←,1.2661241996102035,False,14
6K22,693,experiment,168,←,right,→,1.4524802998639643,False,14
6K22,694,experiment,144,←,left,←,0.603099999949336,True,14
6K22,695,experiment,120,↑,up,↑,0.707020899746567,True,14
6K22,696,experiment,24,↓,up,↑,0.9242091998457909,False,14
6K22,697,experiment,108,↑,up,↑,0.6603930997662246,True,14
6K22,698,experiment,156,←,left,←,0.5637431000359356,True,14
6K22,699,experiment,96,↓,down,↓,0.7897524000145495,True,14
6K22,700,experiment,36,↓,down,↓,0.859831599984318,True,14
6K22,701,experiment,144,↓,down,↓,0.7453622999601066,True,14
6K22,702,experiment,96,←,left,←,0.6522588999941945,True,14
6K22,703,experiment,36,←,left,←,0.5993503001518548,True,14
6K22,704,experiment,144,←,left,←,0.5863417997024953,True,14
6K22,705,experiment,156,↓,down,↓,0.6980897998437285,True,14
6K22,706,experiment,180,↑,up,↑,1.1107401000335813,True,14
6K22,707,experiment,132,↑,up,↑,0.8111842996440828,True,14
6K22,708,experiment,144,←,right,→,1.1431408999487758,False,14
6K22,709,experiment,180,→,right,→,0.7022111997939646,True,14
6K22,710,experiment,60,↓,left,←,0.9789641001261771,False,14
6K22,711,experiment,72,←,left,←,0.5094981999136508,True,14
6K22,712,experiment,132,←,left,←,1.3605054002255201,True,14
6K22,713,experiment,84,←,left,←,0.5610436000861228,True,14
6K22,714,experiment,132,→,down,↓,1.8845493998378515,False,14
6K22,715,experiment,108,↓,down,↓,0.7466881000436842,True,14
6K22,716,experiment,48,←,down,↓,1.0186454998329282,False,14
6K22,717,experiment,180,↓,down,↓,0.6499791997484863,True,14
6K22,718,experiment,156,←,left,←,0.5947384000755847,True,14
6K22,719,experiment,84,→,left,←,1.2982669998891652,False,14
6K22,720,experiment,48,↑,up,↑,1.4828105000779033,True,14
6K22,721,experiment,60,↑,up,↑,0.7918201996944845,True,14
6K22,722,experiment,60,←,left,←,0.6111270999535918,True,14
6K22,723,experiment,72,↓,right,→,1.2915258998982608,False,14
6K22,724,training,120,←,left,←,0.5435088998638093,True,14
6K22,725,training,72,↑,up,↑,0.7986444998532534,True,14
6K22,726,training,24,↑,up,↑,0.6779517000541091,True,14
6K22,727,experiment,168,↓,down,↓,0.7708072001114488,True,14
6K22,728,experiment,24,↑,down,↓,0.7806277996860445,False,14
6K22,729,experiment,132,→,left,←,1.0330588999204338,False,14
6K22,730,experiment,72,↑,up,↑,0.6582889002747834,True,14
6K22,731,experiment,48,↓,down,↓,0.6135633997619152,True,14
6K22,732,experiment,120,↑,right,→,1.0596809000708163,False,14
6K22,733,experiment,144,←,left,←,0.8252177997492254,True,14
6K22,734,experiment,180,↑,up,↑,0.9036630997434258,True,14
6K22,735,experiment,24,↓,down,↓,0.6245077000930905,True,14
6K22,736,experiment,24,↑,left,←,0.897196099627763,False,14
6K22,737,experiment,36,←,right,→,1.0993951000273228,False,14
6K22,738,experiment,168,↓,down,↓,0.6608281000517309,True,14
6K22,739,experiment,156,←,left,←,0.5536258001811802,True,14
6K22,740,experiment,60,↓,left,←,0.7145115998573601,False,14
6K22,741,experiment,12,←,left,←,0.5947374999523163,True,14
6K22,742,experiment,96,←,left,←,0.7246807003393769,True,14
6K22,743,experiment,132,←,left,←,0.5119637004099786,True,14
6K22,744,experiment,12,↑,left,←,0.6880275001749396,False,14
6K22,745,experiment,108,↓,down,↓,1.0306117995642126,True,14
6K22,746,experiment,36,↓,down,↓,0.8167661996558309,True,14
6K22,747,experiment,72,↓,down,↓,0.6413610000163317,True,14
6K22,748,experiment,24,→,down,↓,0.9573375000618398,False,14
6K22,749,experiment,84,←,right,→,0.8724632002413273,False,14
6K22,750,experiment,108,↓,down,↓,1.0125632998533547,True,14
6K22,751,experiment,180,↑,up,↑,0.9839514000341296,True,14
6K22,752,experiment,48,→,left,←,0.6733786999247968,False,14
6K22,753,experiment,60,↓,down,↓,0.9601845000870526,True,14
6K22,754,experiment,132,↑,down,↓,0.8034449000842869,False,14
6K22,755,experiment,72,↑,up,↑,0.6515537002123892,True,14
6K22,756,experiment,96,↑,up,↑,0.8211822998709977,True,14
6K22,757,experiment,84,↓,left,←,1.3450474999845028,False,14
6K22,758,experiment,144,→,right,→,0.7047496996819973,True,14
6K22,759,experiment,60,←,left,←,0.8900454002432525,True,14
6K22,760,experiment,12,→,left,←,0.584777900017798,False,14
6K22,761,experiment,72,↑,up,↑,1.085540700238198,True,14
6K22,762,experiment,144,←,left,←,0.8397725997492671,True,14
6K22,763,experiment,96,↓,down,↓,0.7678871001116931,True,14
6K22,764,experiment,84,←,left,←,0.6422353000380099,True,14
6K22,765,experiment,168,↓,down,↓,0.7950373003259301,True,14
6K22,766,experiment,168,↓,down,↓,0.7244223998859525,True,14
6K22,767,experiment,36,→,down,↓,1.0084131001494825,False,14
6K22,768,experiment,120,←,left,←,0.6841422999277711,True,14
6K22,769,experiment,156,←,left,←,0.6594580998644233,True,14
6K22,770,experiment,108,←,left,←,0.6779284998774529,True,14
6K22,771,experiment,48,↑,down,↓,0.9087070999667048,False,14
6K22,772,experiment,132,↓,down,↓,0.7788845999166369,True,14
6K22,773,experiment,120,↑,up,↑,0.7593653998337686,True,14
6K22,774,experiment,120,→,right,→,0.8847070997580886,True,14
6K22,775,experiment,60,←,left,←,0.5225430000573397,True,14
6K22,776,experiment,36,↑,up,↑,1.5564668998122215,True,14
6K22,777,experiment,144,↑,up,↑,0.7974127000197768,True,14
6K22,778,experiment,156,→,right,→,0.6324952999129891,True,14
6K22,779,experiment,12,→,right,→,1.1698481999337673,True,14
6K22,780,experiment,84,↑,up,↑,0.920408499892801,True,14
6K22,781,experiment,180,↑,up,↑,0.8657531002536416,True,14
6K22,782,experiment,108,↑,down,↓,1.0582380997948349,False,14
6K22,783,experiment,180,→,right,→,0.6182264001108706,True,14
6K22,784,experiment,96,←,left,←,0.7503323000855744,True,14
6K22,785,experiment,48,↑,up,↑,0.8911845996044576,True,14
6K22,786,experiment,156,↓,left,←,1.7785124001093209,False,14
6K22,787,training,168,←,right,→,0.8219690001569688,False,14
6K22,788,training,156,→,right,→,0.5077078999020159,True,14
6K22,789,training,36,←,left,←,0.5281998999416828,True,14
6K22,790,experiment,72,↓,down,↓,0.7929679001681507,True,14
6K22,791,experiment,48,↓,down,↓,0.7525945003144443,True,14
6K22,792,experiment,168,↓,down,↓,0.6935856998898089,True,14
6K22,793,experiment,180,←,left,←,0.658048199955374,True,14
6K22,794,experiment,108,→,left,←,0.8505432000383735,False,14
6K22,795,experiment,72,→,right,→,0.5859328000806272,True,14
6K22,796,experiment,36,↓,up,↑,1.5243616998195648,False,14
6K22,797,experiment,156,↓,down,↓,1.4644024004228413,True,14
6K22,798,experiment,168,→,right,→,1.031122799962759,True,14
6K22,799,experiment,108,↑,down,↓,1.658850799780339,False,14
6K22,800,experiment,36,↑,up,↑,0.839687000028789,True,14
6K22,801,experiment,24,↓,down,↓,0.7503352998755872,True,14
6K22,802,experiment,156,←,left,←,0.873410000000149,True,14
6K22,803,experiment,144,↑,up,↑,0.8686942998319864,True,14
6K22,804,experiment,108,→,right,→,1.7540565002709627,True,14
6K22,805,experiment,180,→,right,→,0.6965377000160515,True,14
6K22,806,experiment,60,→,left,←,0.8538632998242974,False,14
6K22,807,experiment,144,↓,down,↓,0.6777926003560424,True,14
6K22,808,experiment,96,→,right,→,0.9442417998798192,True,14
6K22,809,experiment,120,↓,down,↓,0.818473500199616,True,14
6K22,810,experiment,48,←,up,↑,1.1685847002081573,False,14
6K22,811,experiment,96,↓,down,↓,1.0167507999576628,True,14
6K22,812,experiment,156,→,down,↓,1.0786553998477757,False,14
6K22,813,experiment,12,↓,down,↓,1.3209279999136925,True,14
6K22,814,experiment,12,←,left,←,0.6070429999381304,True,14
6K22,815,experiment,60,↑,up,↑,0.7891553998924792,True,14
6K22,816,experiment,12,↑,right,→,1.1776609998196363,False,14
6K22,817,experiment,60,←,left,←,0.7658643000759184,True,14
6K22,818,experiment,48,↑,up,↑,0.7101533999666572,True,14
6K22,819,experiment,168,↓,right,→,1.3398310001939535,False,14
6K22,820,experiment,144,←,right,→,0.8348742998205125,False,14
6K22,821,experiment,84,↓,down,↓,1.118589899968356,True,14
6K22,822,experiment,84,→,right,→,0.6526461998000741,True,14
6K22,823,experiment,132,←,down,↓,1.1372748999856412,False,14
6K22,824,experiment,120,←,left,←,0.7339273001998663,True,14
6K22,825,experiment,24,←,left,←,0.6537818000651896,True,14
6K22,826,experiment,180,↑,up,↑,0.9409378003329039,True,14
6K22,827,experiment,72,↓,down,↓,0.7957876999862492,True,14
6K22,828,experiment,96,↓,down,↓,1.160602600313723,True,14
6K22,829,experiment,84,→,right,→,0.7709705997258425,True,14
6K22,830,experiment,12,→,left,←,1.4175791000016034,False,14
6K22,831,experiment,132,↑,up,↑,0.8187466999515891,True,14
6K22,832,experiment,144,→,up,↑,1.0870821997523308,False,14
6K22,833,experiment,168,↓,down,↓,0.74954399978742,True,14
6K22,834,experiment,24,↓,up,↑,1.1159409997053444,False,14
6K22,835,experiment,72,←,left,←,0.6636565998196602,True,14
6K22,836,experiment,36,↓,down,↓,0.7931623002514243,True,14
6K22,837,experiment,84,←,left,←,0.5423955000005662,True,14
6K22,838,experiment,24,↓,down,↓,1.1197921996936202,True,14
6K22,839,experiment,96,↓,down,↓,0.8004717002622783,True,14
6K22,840,experiment,48,↓,left,←,1.595105899963528,False,14
6K22,841,experiment,120,↓,down,↓,0.732704599853605,True,14
6K22,842,experiment,120,↓,down,↓,0.7064009001478553,True,14
6K22,843,experiment,132,↓,down,↓,0.7062582997605205,True,14
6K22,844,experiment,108,←,right,→,1.1132769999094307,False,14
6K22,845,experiment,132,→,right,→,1.0754804997704923,True,14
6K22,846,experiment,36,↓,down,↓,0.8050303999334574,True,14
6K22,847,experiment,60,↑,up,↑,0.7985605001449585,True,14
6K22,848,experiment,180,→,right,→,0.5263249999843538,True,14
6K22,849,experiment,156,↓,right,→,0.7471957998350263,False,14
