PART_ID,Trial_no,Trial_type,PDI,Stim_letter,Key_pressed,letter_choose,Rt,Corr,Stimulus Time
7K19,1,training,10,↑,up,↑,0.8043582001700997,True,30
7K19,2,training,10,←,left,←,1.5528232003562152,True,30
7K19,3,training,10,←,left,←,0.7919896002858877,True,30
7K19,4,training,10,↑,up,↑,1.5891594998538494,True,30
7K19,5,training,10,↑,up,↑,0.8883001999929547,True,30
7K19,6,training,10,→,right,→,1.0743025001138449,True,30
7K19,7,training,10,↑,up,↑,1.473972000181675,True,30
7K19,8,training,10,↑,up,↑,0.5838305000215769,True,30
7K19,9,training,10,↓,down,↓,1.2292720996774733,True,30
7K19,10,training,10,↓,down,↓,1.0275985999032855,True,30
7K19,11,training,10,→,right,→,1.0148396999575198,True,30
7K19,12,training,10,↓,down,↓,0.8661266998387873,True,30
7K19,13,training,10,↓,down,↓,0.8437586999498308,True,30
7K19,14,training,10,←,left,←,0.9258900000713766,True,30
7K19,15,training,10,→,right,→,0.6336218998767436,True,30
7K19,16,training,10,→,right,→,0.7916509001515806,True,30
7K19,17,training,10,↑,up,↑,0.968490700237453,True,30
7K19,18,training,10,↑,up,↑,0.704910300206393,True,30
7K19,19,training,10,→,right,→,0.633772199973464,True,30
7K19,20,training,10,←,left,←,0.8407079000025988,True,30
7K19,21,training,10,←,left,←,0.8891266998834908,True,18
7K19,22,training,10,↓,down,↓,1.0045465999282897,True,18
7K19,23,training,10,←,left,←,0.7975482000038028,True,18
7K19,24,training,10,→,right,→,0.7078264998272061,True,18
7K19,25,training,10,←,left,←,0.5238004997372627,True,18
7K19,26,training,10,↓,down,↓,0.7708972003310919,True,18
7K19,27,training,10,←,left,←,0.6317036999389529,True,18
7K19,28,training,10,↑,up,↑,0.7140492997132242,True,18
7K19,29,training,10,←,left,←,0.8438921999186277,True,18
7K19,30,training,10,→,right,→,0.5313253998756409,True,18
7K19,31,training,48,↑,up,↑,0.5654304004274309,True,15
7K19,32,training,84,↑,up,↑,0.6125706001184881,True,15
7K19,33,training,48,→,right,→,0.6228221002966166,True,15
7K19,34,experiment,24,←,right,→,1.1917158998548985,False,15
7K19,35,experiment,48,←,left,←,0.7453672997653484,True,15
7K19,36,experiment,108,↓,right,→,0.8362096999771893,False,15
7K19,37,experiment,120,→,right,→,0.5592519999481738,True,15
7K19,38,experiment,84,↓,left,←,1.153655500151217,False,15
7K19,39,experiment,120,↓,down,↓,0.9371393998153508,True,15
7K19,40,experiment,180,↑,down,↓,1.576112600043416,False,15
7K19,41,experiment,24,↑,right,→,0.6476627001538873,False,15
7K19,42,experiment,84,←,right,→,0.5901020998135209,False,15
7K19,43,experiment,132,←,left,←,0.7272594999521971,True,15
7K19,44,experiment,84,←,left,←,0.5094993999227881,True,15
7K19,45,experiment,156,↓,right,→,1.9043616000562906,False,15
7K19,46,experiment,48,→,right,→,0.5861515998840332,True,15
7K19,47,experiment,156,↑,up,↑,0.6748951999470592,True,15
7K19,48,experiment,36,←,left,←,0.48133650003001094,True,15
7K19,49,experiment,12,→,right,→,0.5654509998857975,True,15
7K19,50,experiment,12,←,right,→,0.6408678004518151,False,15
7K19,51,experiment,168,←,left,←,1.529213999863714,True,15
7K19,52,experiment,144,→,right,→,1.220769299659878,True,15
7K19,53,experiment,36,←,no_key,no_letter,-1.0,False,15
7K19,54,experiment,96,↑,up,↑,0.6249927002936602,True,15
7K19,55,experiment,120,→,right,→,0.608358200173825,True,15
7K19,56,experiment,168,↑,up,↑,0.74867959972471,True,15
7K19,57,experiment,108,→,right,→,0.6285798996686935,True,15
7K19,58,experiment,12,↓,no_key,no_letter,-1.0,False,15
7K19,59,experiment,168,↓,down,↓,0.9830124997533858,True,15
7K19,60,experiment,48,↑,up,↑,1.1802802998572588,True,15
7K19,61,experiment,108,→,left,←,0.859408600255847,False,15
7K19,62,experiment,60,←,right,→,1.013820799998939,False,15
7K19,63,experiment,120,←,left,←,0.7687152000144124,True,15
7K19,64,experiment,84,↑,up,↑,0.5102113001048565,True,15
7K19,65,experiment,180,←,left,←,1.0538961999118328,True,15
7K19,66,experiment,132,↑,down,↓,1.0905150002799928,False,15
7K19,67,experiment,156,→,right,→,0.5603777002543211,True,15
7K19,68,experiment,48,→,right,→,1.3239297000691295,True,15
7K19,69,experiment,96,↑,left,←,1.2084449999965727,False,15
7K19,70,experiment,72,←,left,←,0.5424494002945721,True,15
7K19,71,experiment,180,←,right,→,0.6836143997497857,False,15
7K19,72,experiment,180,→,right,→,0.4914323999546468,True,15
7K19,73,experiment,132,↑,left,←,1.1285914001055062,False,15
7K19,74,experiment,60,←,left,←,0.5746467001736164,True,15
7K19,75,experiment,156,←,left,←,1.500772099941969,True,15
7K19,76,experiment,96,→,right,→,0.594756199978292,True,15
7K19,77,experiment,72,→,left,←,0.7399702998809516,False,15
7K19,78,experiment,144,↓,left,←,1.5858107996173203,False,15
7K19,79,experiment,168,→,down,↓,1.6765342000871897,False,15
7K19,80,experiment,132,←,left,←,0.521730300039053,True,15
7K19,81,experiment,24,↓,down,↓,0.7818991998210549,True,15
7K19,82,experiment,72,→,right,→,0.6202448001131415,True,15
7K19,83,experiment,144,→,right,→,0.8518296997062862,True,15
7K19,84,experiment,108,↓,down,↓,0.9529431001283228,True,15
7K19,85,experiment,72,↓,down,↓,0.9804793000221252,True,15
7K19,86,experiment,36,↓,right,→,0.8457180997356772,False,15
7K19,87,experiment,36,→,right,→,0.5171377002261579,True,15
7K19,88,experiment,96,←,left,←,0.5436651003547013,True,15
7K19,89,experiment,144,→,right,→,0.5557696996256709,True,15
7K19,90,experiment,12,↑,up,↑,0.8674292000941932,True,15
7K19,91,experiment,24,↓,down,↓,0.8628492001444101,True,15
7K19,92,experiment,60,↓,up,↑,0.9123038998804986,False,15
7K19,93,experiment,60,→,right,→,0.49083560006693006,True,15
7K19,94,training,132,→,left,←,1.478923199698329,False,15
7K19,95,training,144,←,left,←,0.5565398996695876,True,15
7K19,96,training,108,←,left,←,0.7057467997074127,True,15
7K19,97,experiment,168,↓,down,↓,1.06000109994784,True,15
7K19,98,experiment,168,↓,down,↓,0.9969825004227459,True,15
7K19,99,experiment,72,↓,down,↓,0.9457501000724733,True,15
7K19,100,experiment,120,↑,down,↓,1.5928047997877002,False,15
7K19,101,experiment,120,←,left,←,0.7380752000026405,True,15
7K19,102,experiment,24,↑,up,↑,0.689614400267601,True,15
7K19,103,experiment,24,←,right,→,0.7663838001899421,False,15
7K19,104,experiment,96,←,right,→,0.985787000041455,False,15
7K19,105,experiment,96,↑,up,↑,0.8898972999304533,True,15
7K19,106,experiment,180,↑,up,↑,0.6676755002699792,True,15
7K19,107,experiment,84,↓,down,↓,0.9155055000446737,True,15
7K19,108,experiment,156,←,left,←,0.7307142997160554,True,15
7K19,109,experiment,84,→,right,→,0.5835460000671446,True,15
7K19,110,experiment,132,↓,down,↓,1.8228130000643432,True,15
7K19,111,experiment,108,↓,down,↓,0.7783453003503382,True,15
7K19,112,experiment,168,↑,up,↑,0.8739265999756753,True,15
7K19,113,experiment,144,←,left,←,0.7931884001009166,True,15
7K19,114,experiment,144,↑,up,↑,0.5885049998760223,True,15
7K19,115,experiment,60,↑,up,↑,0.5607730001211166,True,15
7K19,116,experiment,168,↓,down,↓,0.8631313000805676,True,15
7K19,117,experiment,132,↓,no_key,no_letter,-1.0,False,15
7K19,118,experiment,144,↓,down,↓,0.7759408000856638,True,15
7K19,119,experiment,108,←,right,→,0.726318100001663,False,15
7K19,120,experiment,108,→,right,→,0.6515557998791337,True,15
7K19,121,experiment,84,↓,down,↓,1.5411996999755502,True,15
7K19,122,experiment,72,←,right,→,0.6911883000284433,False,15
7K19,123,experiment,180,↑,up,↑,0.819306000135839,True,15
7K19,124,experiment,48,←,right,→,0.7311744000762701,False,15
7K19,125,experiment,12,↑,up,↑,0.6471381997689605,True,15
7K19,126,experiment,24,↓,up,↑,1.7103711999952793,False,15
7K19,127,experiment,12,→,right,→,0.6368250995874405,True,15
7K19,128,experiment,48,←,right,→,1.562593599781394,False,15
7K19,129,experiment,180,↓,down,↓,0.8708222997374833,True,15
7K19,130,experiment,180,↓,down,↓,0.8768537999130785,True,15
7K19,131,experiment,132,↑,up,↑,0.5546609000302851,True,15
7K19,132,experiment,24,↓,no_key,no_letter,-1.0,False,15
7K19,133,experiment,36,←,right,→,0.6491908999159932,False,15
7K19,134,experiment,48,↑,right,→,1.3395659001544118,False,15
7K19,135,experiment,12,↓,down,↓,1.1770279998891056,True,15
7K19,136,experiment,156,→,right,→,0.6575334998778999,True,15
7K19,137,experiment,120,←,left,←,0.6806545001454651,True,15
7K19,138,experiment,36,←,left,←,1.6242208001203835,True,15
7K19,139,experiment,36,↓,down,↓,0.8346706996671855,True,15
7K19,140,experiment,72,←,left,←,0.7823109999299049,True,15
7K19,141,experiment,108,←,left,←,0.7007439001463354,True,15
7K19,142,experiment,60,←,left,←,0.6938763000071049,True,15
7K19,143,experiment,12,→,right,→,0.588899000082165,True,15
7K19,144,experiment,96,←,left,←,0.4838072001002729,True,15
7K19,145,experiment,36,↓,down,↓,0.705409100279212,True,15
7K19,146,experiment,120,↓,down,↓,0.6695087002590299,True,15
7K19,147,experiment,60,←,left,←,0.5623467001132667,True,15
7K19,148,experiment,96,←,right,→,0.7395055000670254,False,15
7K19,149,experiment,84,↓,down,↓,0.9241390000097454,True,15
7K19,150,experiment,156,→,right,→,0.6569516002200544,True,15
7K19,151,experiment,60,→,right,→,1.1403266000561416,True,15
7K19,152,experiment,144,←,left,←,0.6444282000884414,True,15
7K19,153,experiment,48,↓,down,↓,0.7608501999638975,True,15
7K19,154,experiment,72,←,right,→,0.6218954999931157,False,15
7K19,155,experiment,132,→,right,→,0.6161899999715388,True,15
7K19,156,experiment,156,←,left,←,1.1047376999631524,True,15
7K19,157,training,60,↓,down,↓,1.0058905999176204,True,15
7K19,158,training,48,→,right,→,0.9634044002741575,True,15
7K19,159,training,12,→,right,→,0.7437402000650764,True,15
7K19,160,experiment,36,↑,up,↑,1.0373909999616444,True,15
7K19,161,experiment,48,←,left,←,1.8301038001663983,True,15
7K19,162,experiment,12,↑,up,↑,0.7155043999664485,True,15
7K19,163,experiment,48,↓,down,↓,1.1610085000284016,True,15
7K19,164,experiment,108,↓,right,→,1.0219240998849273,False,15
7K19,165,experiment,180,→,right,→,0.5507720997557044,True,15
7K19,166,experiment,132,←,right,→,0.9831507001072168,False,15
7K19,167,experiment,180,↑,down,↓,1.305786400102079,False,15
7K19,168,experiment,36,→,right,→,0.7158564999699593,True,15
7K19,169,experiment,180,→,right,→,0.8305672002024949,True,15
7K19,170,experiment,120,→,right,→,0.5544146997854114,True,15
7K19,171,experiment,108,↓,down,↓,0.9058241997845471,True,15
7K19,172,experiment,12,↑,up,↑,1.0253472998738289,True,15
7K19,173,experiment,96,→,right,→,0.6253877999261022,True,15
7K19,174,experiment,72,→,right,→,0.5884214998222888,True,15
7K19,175,experiment,108,↑,up,↑,0.6980135999619961,True,15
7K19,176,experiment,24,→,right,→,0.653114499989897,True,15
7K19,177,experiment,168,↑,up,↑,0.5795539002865553,True,15
7K19,178,experiment,156,←,left,←,0.8721194001846015,True,15
7K19,179,experiment,84,→,right,→,0.7006077002733946,True,15
7K19,180,experiment,12,→,right,→,0.924679699819535,True,15
7K19,181,experiment,96,↓,down,↓,1.1587721998803318,True,15
7K19,182,experiment,132,↑,up,↑,0.5038920999504626,True,15
7K19,183,experiment,24,↓,down,↓,0.7528754002414644,True,15
7K19,184,experiment,144,↑,up,↑,0.634909899905324,True,15
7K19,185,experiment,96,→,right,→,0.5422411998733878,True,15
7K19,186,experiment,144,←,left,←,0.6542919999919832,True,15
7K19,187,experiment,84,←,right,→,0.7175070000812411,False,15
7K19,188,experiment,84,↑,up,↑,0.5765296998433769,True,15
7K19,189,experiment,144,↑,up,↑,0.6825168998911977,True,15
7K19,190,experiment,72,←,left,←,0.6223745997995138,True,15
7K19,191,experiment,48,↓,down,↓,0.8155944002792239,True,15
7K19,192,experiment,120,←,left,←,0.5388425998389721,True,15
7K19,193,experiment,156,→,right,→,0.6230024001561105,True,15
7K19,194,experiment,96,←,left,←,0.5409021996892989,True,15
7K19,195,experiment,168,↓,down,↓,1.0915500996634364,True,15
7K19,196,experiment,24,→,right,→,0.6575934998691082,True,15
7K19,197,experiment,120,↑,up,↑,0.8985788999125361,True,15
7K19,198,experiment,60,←,right,→,0.7331746001727879,False,15
7K19,199,experiment,120,→,right,→,0.8992334003560245,True,15
7K19,200,experiment,168,↓,down,↓,0.9680551001802087,True,15
7K19,201,experiment,156,↑,right,→,1.0206532003358006,False,15
7K19,202,experiment,132,→,right,→,0.5887662000022829,True,15
7K19,203,experiment,72,↑,up,↑,0.6236200002022088,True,15
7K19,204,experiment,156,←,right,→,0.6725149997510016,False,15
7K19,205,experiment,12,↓,down,↓,0.9536433997564018,True,15
7K19,206,experiment,36,→,right,→,0.676993299741298,True,15
7K19,207,experiment,168,←,right,→,0.6791236996650696,False,15
7K19,208,experiment,180,↑,up,↑,0.7925308002158999,True,15
7K19,209,experiment,60,↑,up,↑,0.8257932001724839,True,15
7K19,210,experiment,108,↓,down,↓,0.8409569999203086,True,15
7K19,211,experiment,48,←,left,←,0.7107183998450637,True,15
7K19,212,experiment,72,←,right,→,0.7251989999786019,False,15
7K19,213,experiment,36,←,left,←,0.6465602000243962,True,15
7K19,214,experiment,132,↓,right,→,1.0010219998657703,False,15
7K19,215,experiment,60,→,left,←,0.8454677001573145,False,15
7K19,216,experiment,60,↓,down,↓,1.0079600000753999,True,15
7K19,217,experiment,84,↑,up,↑,0.7999228998087347,True,15
7K19,218,experiment,144,→,right,→,0.5796757000498474,True,15
7K19,219,experiment,24,←,left,←,0.6212825002148747,True,15
7K19,220,training,132,↓,up,↑,0.7770528001710773,False,15
7K19,221,training,12,←,left,←,0.6629959000274539,True,15
7K19,222,training,120,↑,down,↓,1.1015360997989774,False,15
7K19,223,experiment,84,↓,down,↓,1.1657695998437703,True,15
7K19,224,experiment,96,↓,up,↑,1.1835028999485075,False,15
7K19,225,experiment,48,↑,up,↑,0.6209154003299773,True,15
7K19,226,experiment,180,↑,down,↓,1.6099040997214615,False,15
7K19,227,experiment,156,↓,up,↑,0.8583825998939574,False,15
7K19,228,experiment,132,↓,down,↓,0.8419229998253286,True,15
7K19,229,experiment,36,←,left,←,0.7646949999034405,True,15
7K19,230,experiment,72,↑,up,↑,0.7957246997393668,True,15
7K19,231,experiment,144,↑,up,↑,1.428972200024873,True,15
7K19,232,experiment,60,→,right,→,0.5494780000299215,True,15
7K19,233,experiment,12,→,right,→,0.5849200002849102,True,15
7K19,234,experiment,156,→,right,→,0.6186333000659943,True,15
7K19,235,experiment,72,↓,down,↓,0.9285474000498652,True,15
7K19,236,experiment,72,↑,up,↑,0.762578200083226,True,15
7K19,237,experiment,84,→,right,→,0.682340900413692,True,15
7K19,238,experiment,36,↑,up,↑,0.694588900078088,True,15
7K19,239,experiment,120,↑,up,↑,0.7639819998294115,True,15
7K19,240,experiment,96,→,right,→,0.7856564000248909,True,15
7K19,241,experiment,24,←,right,→,0.9596114000305533,False,15
7K19,242,experiment,168,←,left,←,0.7424234999343753,True,15
7K19,243,experiment,180,↓,right,→,1.8401230000890791,False,15
7K19,244,experiment,12,↓,right,→,0.7733789002522826,False,15
7K19,245,experiment,180,←,left,←,0.8336356999352574,True,15
7K19,246,experiment,108,→,left,←,0.7898499998264015,False,15
7K19,247,experiment,48,←,left,←,0.7851458000950515,True,15
7K19,248,experiment,132,←,right,→,0.7824822999536991,False,15
7K19,249,experiment,180,↓,up,↑,1.0522635001689196,False,15
7K19,250,experiment,108,↑,down,↓,1.1048016999848187,False,15
7K19,251,experiment,60,→,left,←,0.8543849997222424,False,15
7K19,252,experiment,120,↓,right,→,0.6128676999360323,False,15
7K19,253,experiment,144,↓,right,→,0.6720960000529885,False,15
7K19,254,experiment,24,↓,up,↑,0.6968161999247968,False,15
7K19,255,experiment,156,↑,up,↑,1.0174919003620744,True,15
7K19,256,experiment,168,←,left,←,0.6915799998678267,True,15
7K19,257,experiment,168,←,left,←,0.9829936996102333,True,15
7K19,258,experiment,156,↑,down,↓,0.8169562998227775,False,15
7K19,259,experiment,144,←,left,←,0.6978594996035099,True,15
7K19,260,experiment,60,→,right,→,0.5212751002982259,True,15
7K19,261,experiment,36,↓,left,←,1.082238500006497,False,15
7K19,262,experiment,24,←,right,→,0.7163388002663851,False,15
7K19,263,experiment,96,↑,up,↑,0.9789582998491824,True,15
7K19,264,experiment,48,↓,down,↓,1.196169599890709,True,15
7K19,265,experiment,84,↑,up,↑,0.9969828999601305,True,15
7K19,266,experiment,108,←,up,↑,1.283220499753952,False,15
7K19,267,experiment,108,←,right,→,0.6667801002040505,False,15
7K19,268,experiment,12,→,left,←,1.1021173000335693,False,15
7K19,269,experiment,60,↓,down,↓,1.1950284000486135,True,15
7K19,270,experiment,120,↑,up,↑,0.7402568999677896,True,15
7K19,271,experiment,48,↓,down,↓,0.8919408000074327,True,15
7K19,272,experiment,168,↓,down,↓,0.7611409998498857,True,15
7K19,273,experiment,12,→,left,←,0.8477360000833869,False,15
7K19,274,experiment,84,↑,up,↑,0.524549899622798,True,15
7K19,275,experiment,24,↓,down,↓,0.9520163000561297,True,15
7K19,276,experiment,120,←,left,←,0.7929434003308415,True,15
7K19,277,experiment,144,↓,down,↓,0.6303621996194124,True,15
7K19,278,experiment,72,→,left,←,0.7841757000423968,False,15
7K19,279,experiment,36,→,right,→,0.5802207998931408,True,15
7K19,280,experiment,132,→,right,→,0.5877400003373623,True,15
7K19,281,experiment,96,↓,down,↓,0.8232187000103295,True,15
7K19,282,experiment,132,↑,down,↓,1.0812574001029134,False,15
7K19,283,training,24,↑,up,↑,0.566416600253433,True,15
7K19,284,training,132,↓,down,↓,0.7814667001366615,True,15
7K19,285,training,108,↑,up,↑,0.9670780003070831,True,15
7K19,286,experiment,132,→,right,→,1.4216144001111388,True,15
7K19,287,experiment,156,←,left,←,0.6156322001479566,True,15
7K19,288,experiment,72,↑,up,↑,0.5725493999198079,True,15
7K19,289,experiment,180,→,right,→,0.7357193999923766,True,15
7K19,290,experiment,120,←,right,→,0.7108634999021888,False,15
7K19,291,experiment,120,←,left,←,0.5388193000108004,True,15
7K19,292,experiment,168,→,right,→,0.6176614002324641,True,15
7K19,293,experiment,48,↓,down,↓,0.8496560999192297,True,15
7K19,294,experiment,96,↑,up,↑,0.5176870999857783,True,15
7K19,295,experiment,96,↑,up,↑,0.49637810001149774,True,15
7K19,296,experiment,156,←,left,←,0.5329175000078976,True,15
7K19,297,experiment,24,→,right,→,0.5176714998669922,True,15
7K19,298,experiment,36,↑,right,→,1.3338866997510195,False,15
7K19,299,experiment,108,←,left,←,0.5285714003257453,True,15
7K19,300,experiment,48,↓,right,→,0.7001983998343349,False,15
7K19,301,experiment,60,→,right,→,0.7045940002426505,True,15
7K19,302,experiment,24,←,left,←,0.6416758000850677,True,15
7K19,303,experiment,108,←,left,←,0.5548748001456261,True,15
7K19,304,experiment,72,↓,down,↓,0.9011321999132633,True,15
7K19,305,experiment,108,↑,up,↑,0.596853599883616,True,15
7K19,306,experiment,12,←,right,→,0.7321513998322189,False,15
7K19,307,experiment,96,←,right,→,0.5685962997376919,False,15
7K19,308,experiment,36,←,right,→,0.6387827997095883,False,15
7K19,309,experiment,84,↓,down,↓,0.9094821000471711,True,15
7K19,310,experiment,72,←,left,←,0.6667513996362686,True,15
7K19,311,experiment,12,→,right,→,0.57620789995417,True,15
7K19,312,experiment,72,←,left,←,0.6092042997479439,True,15
7K19,313,experiment,48,↓,down,↓,0.8235722999088466,True,15
7K19,314,experiment,60,↑,up,↑,0.8560821004211903,True,15
7K19,315,experiment,12,↓,down,↓,0.9608171000145376,True,15
7K19,316,experiment,180,→,right,→,0.7168001998215914,True,15
7K19,317,experiment,144,↓,down,↓,0.7615156997926533,True,15
7K19,318,experiment,144,↓,down,↓,0.9617701000533998,True,15
7K19,319,experiment,180,→,right,→,0.6734246001578867,True,15
7K19,320,experiment,96,↑,down,↓,0.9293845002539456,False,15
7K19,321,experiment,132,←,left,←,0.7048692000098526,True,15
7K19,322,experiment,84,→,right,→,0.591711699962616,True,15
7K19,323,experiment,36,←,no_key,no_letter,-1.0,False,15
7K19,324,experiment,132,↑,up,↑,0.6799708995968103,True,15
7K19,325,experiment,132,↑,down,↓,0.8985168999060988,False,15
7K19,326,experiment,60,←,left,←,0.662776299752295,True,15
7K19,327,experiment,168,↓,down,↓,0.8188931001350284,True,15
7K19,328,experiment,180,↑,up,↑,0.6020521996542811,True,15
7K19,329,experiment,168,↓,right,→,0.9148687003180385,False,15
7K19,330,experiment,24,↓,down,↓,1.0765019999817014,True,15
7K19,331,experiment,36,→,right,→,0.5294317998923361,True,15
7K19,332,experiment,156,→,right,→,0.5579614997841418,True,15
7K19,333,experiment,156,↓,right,→,0.63937299977988,False,15
7K19,334,experiment,108,↓,down,↓,0.9732495998032391,True,15
7K19,335,experiment,84,←,right,→,0.6155607001855969,False,15
7K19,336,experiment,60,↓,right,→,1.0602516997605562,False,15
7K19,337,experiment,144,→,right,→,0.6456306003965437,True,15
7K19,338,experiment,120,↑,up,↑,1.3234182996675372,True,15
7K19,339,experiment,48,↑,up,↑,0.8397493995726109,True,15
7K19,340,experiment,168,↑,up,↑,0.8567142002284527,True,15
7K19,341,experiment,120,↓,up,↑,0.8620628002099693,False,15
7K19,342,experiment,144,↑,down,↓,1.0327395000495017,False,15
7K19,343,experiment,24,↑,up,↑,0.6718466002494097,True,15
7K19,344,experiment,84,←,left,←,0.7700360999442637,True,15
7K19,345,experiment,12,←,right,→,0.5550322998315096,False,15
7K19,346,training,156,↓,down,↓,0.9006439996883273,True,15
7K19,347,training,168,↓,down,↓,1.171170299872756,True,15
7K19,348,training,84,→,right,→,0.81992830010131,True,15
7K19,349,experiment,96,↓,right,→,0.7707331003621221,False,15
7K19,350,experiment,36,→,left,←,1.1297749001532793,False,15
7K19,351,experiment,156,↑,no_key,no_letter,-1.0,False,15
7K19,352,experiment,84,↑,up,↑,0.6031427001580596,True,15
7K19,353,experiment,132,→,right,→,0.5870519001036882,True,15
7K19,354,experiment,180,↓,down,↓,1.0550039000809193,True,15
7K19,355,experiment,96,↓,down,↓,1.0061419997364283,True,15
7K19,356,experiment,120,←,down,↓,1.1324542998336256,False,15
7K19,357,experiment,36,↑,up,↑,0.6466410998255014,True,15
7K19,358,experiment,72,↑,up,↑,0.6027892003767192,True,15
7K19,359,experiment,48,←,right,→,0.5790862999856472,False,15
7K19,360,experiment,24,↓,down,↓,0.8765324000269175,True,15
7K19,361,experiment,72,←,right,→,0.5202875002287328,False,15
7K19,362,experiment,180,←,left,←,0.5516884000971913,True,15
7K19,363,experiment,12,↓,down,↓,0.7976891999132931,True,15
7K19,364,experiment,12,↓,down,↓,0.6565724001266062,True,15
7K19,365,experiment,120,↓,down,↓,0.6750496998429298,True,15
7K19,366,experiment,12,→,right,→,0.6317087998613715,True,15
7K19,367,experiment,96,→,right,→,0.4557366003282368,True,15
7K19,368,experiment,144,↑,up,↑,0.6760221999138594,True,15
7K19,369,experiment,132,↓,down,↓,0.8328350000083447,True,15
7K19,370,experiment,120,↑,right,→,0.5810408000834286,False,15
7K19,371,experiment,144,↓,down,↓,0.584901100024581,True,15
7K19,372,experiment,168,↑,up,↑,0.7424697000533342,True,15
7K19,373,experiment,60,←,left,←,0.6789961997419596,True,15
7K19,374,experiment,156,←,left,←,0.5969695001840591,True,15
7K19,375,experiment,60,→,right,→,0.7894371999427676,True,15
7K19,376,experiment,48,↓,down,↓,0.7228358997963369,True,15
7K19,377,experiment,108,↑,up,↑,0.645304000005126,True,15
7K19,378,experiment,168,↑,down,↓,1.6817910997197032,False,15
7K19,379,experiment,132,↑,up,↑,0.6130508999340236,True,15
7K19,380,experiment,24,←,left,←,0.6583016002550721,True,15
7K19,381,experiment,108,←,left,←,0.6539798001758754,True,15
7K19,382,experiment,60,↑,up,↑,0.7004642002284527,True,15
7K19,383,experiment,72,←,left,←,0.5914070000872016,True,15
7K19,384,experiment,168,→,right,→,0.6663027000613511,True,15
7K19,385,experiment,84,←,left,←,0.5428471001796424,True,15
7K19,386,experiment,48,←,right,→,0.5111992997117341,False,15
7K19,387,experiment,168,←,right,→,0.7392531000077724,False,15
7K19,388,experiment,60,↑,up,↑,0.7640208001248538,True,15
7K19,389,experiment,156,←,left,←,0.7947869999334216,True,15
7K19,390,experiment,144,↑,up,↑,0.5690301000140607,True,15
7K19,391,experiment,84,↑,up,↑,1.1442463002167642,True,15
7K19,392,experiment,96,→,right,→,0.5668832999654114,True,15
7K19,393,experiment,108,↑,up,↑,0.5249848999083042,True,15
7K19,394,experiment,36,↓,up,↑,0.6668070000596344,False,15
7K19,395,experiment,48,↓,down,↓,0.9581423001363873,True,15
7K19,396,experiment,132,↓,up,↑,1.1775617999956012,False,15
7K19,397,experiment,180,↓,down,↓,1.8831511000171304,True,15
7K19,398,experiment,24,↑,up,↑,0.763846299611032,True,15
7K19,399,experiment,12,→,left,←,0.6000538002699614,False,15
7K19,400,experiment,156,←,right,→,0.6732474998570979,False,15
7K19,401,experiment,120,↓,down,↓,0.9230659999884665,True,15
7K19,402,experiment,108,←,right,→,0.6949686999432743,False,15
7K19,403,experiment,84,→,right,→,0.9803261999040842,True,15
7K19,404,experiment,24,→,left,←,0.8735480001196265,False,15
7K19,405,experiment,180,→,left,←,0.8242083000950515,False,15
7K19,406,experiment,144,→,right,→,0.5822416003793478,True,15
7K19,407,experiment,72,↑,up,↑,0.5829781000502408,True,15
7K19,408,experiment,36,↓,right,→,0.5767268999479711,False,15
7K19,409,training,96,↓,no_key,no_letter,-1.0,False,15
7K19,410,training,168,→,right,→,0.5522574996575713,True,15
7K19,411,training,72,→,right,→,0.4326880997978151,True,15
7K19,412,experiment,60,→,right,→,0.6677431999705732,True,15
7K19,413,experiment,108,←,right,→,0.9179648999124765,False,15
7K19,414,experiment,96,↓,down,↓,0.8548367000184953,True,15
7K19,415,experiment,12,↑,left,←,1.0421993001364172,False,15
7K19,416,experiment,60,↑,up,↑,0.4736918001435697,True,15
7K19,417,experiment,48,←,left,←,0.5889795999974012,True,15
7K19,418,experiment,168,→,left,←,0.86640639975667,False,15
7K19,419,experiment,120,↓,down,↓,0.8671877002343535,True,15
7K19,420,experiment,36,↓,right,→,0.7619761000387371,False,15
7K19,421,experiment,120,←,left,←,1.107172700110823,True,15
7K19,422,experiment,144,←,left,←,0.5913053997792304,True,15
7K19,423,experiment,108,←,left,←,0.5905716000124812,True,15
7K19,424,experiment,48,→,right,→,0.4510865001939237,True,15
7K19,425,experiment,84,→,right,→,0.658173100091517,True,15
7K19,426,experiment,72,←,right,→,0.5977894002571702,False,15
7K19,427,experiment,156,↓,down,↓,0.8652392998337746,True,15
7K19,428,experiment,132,→,right,→,0.540599700063467,True,15
7K19,429,experiment,84,←,left,←,1.399961399845779,True,15
7K19,430,experiment,36,→,right,→,0.5054737003520131,True,15
7K19,431,experiment,144,→,right,→,0.942236099857837,True,15
7K19,432,experiment,36,↑,up,↑,0.5877974000759423,True,15
7K19,433,experiment,96,→,right,→,0.55346820037812,True,15
7K19,434,experiment,168,←,right,→,0.7628216999582946,False,15
7K19,435,experiment,72,←,left,←,0.5914211999624968,True,15
7K19,436,experiment,120,←,left,←,0.7209644000977278,True,15
7K19,437,experiment,84,↓,right,→,0.6630181004293263,False,15
7K19,438,experiment,180,→,right,→,0.5213137003593147,True,15
7K19,439,experiment,84,↓,down,↓,0.6960804001428187,True,15
7K19,440,experiment,60,→,right,→,0.5335480999201536,True,15
7K19,441,experiment,72,↑,right,→,0.5286228000186384,False,15
7K19,442,experiment,156,←,left,←,0.7707909001037478,True,15
7K19,443,experiment,24,↑,right,→,0.6584021998569369,False,15
7K19,444,experiment,144,↓,down,↓,0.7521148002706468,True,15
7K19,445,experiment,180,↑,right,→,0.4856830998323858,False,15
7K19,446,experiment,48,↑,up,↑,0.5868281000293791,True,15
7K19,447,experiment,120,↓,down,↓,0.750212799757719,True,15
7K19,448,experiment,132,↓,down,↓,0.6259297002106905,True,15
7K19,449,experiment,180,→,right,→,0.4658423997461796,True,15
7K19,450,experiment,24,←,left,←,1.1294073997996747,True,15
7K19,451,experiment,12,→,right,→,0.5522394999861717,True,15
7K19,452,experiment,24,→,right,→,0.5521153002046049,True,15
7K19,453,experiment,96,↓,down,↓,0.8288632999174297,True,15
7K19,454,experiment,12,→,right,→,0.7623082003556192,True,15
7K19,455,experiment,168,↓,down,↓,0.9534334996715188,True,15
7K19,456,experiment,132,←,left,←,0.5195869999006391,True,15
7K19,457,experiment,168,←,left,←,0.48543439991772175,True,15
7K19,458,experiment,132,←,right,→,0.6944359000772238,False,15
7K19,459,experiment,48,←,left,←,0.4704105998389423,True,15
7K19,460,experiment,156,↓,right,→,0.6325079002417624,False,15
7K19,461,experiment,72,←,left,←,0.48022649995982647,True,15
7K19,462,experiment,96,→,right,→,0.589278900064528,True,15
7K19,463,experiment,36,↓,up,↑,0.7245089001953602,False,15
7K19,464,experiment,180,→,left,←,1.2244783998467028,False,15
7K19,465,experiment,12,←,right,→,0.5421017999760807,False,15
7K19,466,experiment,108,→,right,→,0.5290974001400173,True,15
7K19,467,experiment,108,↓,down,↓,0.9845906998962164,True,15
7K19,468,experiment,156,↑,up,↑,0.4953194996342063,True,15
7K19,469,experiment,60,↑,up,↑,0.5667402003891766,True,15
7K19,470,experiment,24,←,left,←,0.5762364999391139,True,15
7K19,471,experiment,144,←,right,→,0.4689425998367369,False,15
7K19,472,training,96,←,right,→,1.038163899909705,False,15
7K19,473,training,60,←,right,→,0.6438476997427642,False,15
7K19,474,training,48,←,right,→,0.5429154001176357,False,15
7K19,475,experiment,36,↓,down,↓,0.7899259999394417,True,15
7K19,476,experiment,96,←,right,→,0.596473999787122,False,15
7K19,477,experiment,132,←,left,←,0.5542652001604438,True,15
7K19,478,experiment,108,↓,up,↑,0.7234988999553025,False,15
7K19,479,experiment,96,↓,down,↓,1.0819689999334514,True,15
7K19,480,experiment,144,←,left,←,0.594784100074321,True,15
7K19,481,experiment,120,→,left,←,0.68494370020926,False,15
7K19,482,experiment,132,→,right,→,0.5248209997080266,True,15
7K19,483,experiment,24,←,left,←,0.6848218999803066,True,15
7K19,484,experiment,156,↓,up,↑,0.7573624001815915,False,15
7K19,485,experiment,60,→,right,→,0.7181811002083123,True,15
7K19,486,experiment,132,↑,up,↑,0.5671192998997867,True,15
7K19,487,experiment,96,↑,up,↑,0.5757639999501407,True,15
7K19,488,experiment,180,←,left,←,0.6244628997519612,True,15
7K19,489,experiment,120,→,right,→,0.5569600998423994,True,15
7K19,490,experiment,72,↑,up,↑,0.5055223000235856,True,15
7K19,491,experiment,180,→,up,↑,0.9243418001569808,False,15
7K19,492,experiment,132,←,left,←,1.018249399960041,True,15
7K19,493,experiment,36,↓,down,↓,0.9543616999872029,True,15
7K19,494,experiment,12,↓,down,↓,0.6780937998555601,True,15
7K19,495,experiment,72,↓,down,↓,0.6105951000936329,True,15
7K19,496,experiment,60,→,right,→,0.5542369997128844,True,15
7K19,497,experiment,156,↓,down,↓,0.6314694001339376,True,15
7K19,498,experiment,156,↓,right,→,1.761354699730873,False,15
7K19,499,experiment,168,←,left,←,0.6510979998856783,True,15
7K19,500,experiment,24,↑,up,↑,0.6642271997407079,True,15
7K19,501,experiment,24,↓,down,↓,1.0695342998951674,True,15
7K19,502,experiment,168,←,left,←,0.6157949003390968,True,15
7K19,503,experiment,48,→,right,→,0.589531300123781,True,15
7K19,504,experiment,12,←,left,←,0.6230955999344587,True,15
7K19,505,experiment,120,↑,up,↑,1.041850000154227,True,15
7K19,506,experiment,168,↑,up,↑,0.5087995999492705,True,15
7K19,507,experiment,108,↓,down,↓,0.7566352998837829,True,15
7K19,508,experiment,12,←,left,←,0.6269343998283148,True,15
7K19,509,experiment,120,↓,down,↓,0.7280628997832537,True,15
7K19,510,experiment,108,↓,down,↓,0.4341179998591542,True,15
7K19,511,experiment,180,←,right,→,0.9540585000067949,False,15
7K19,512,experiment,84,←,left,←,1.4677061000838876,True,15
7K19,513,experiment,48,↑,up,↑,0.8158786999993026,True,15
7K19,514,experiment,144,↑,right,→,0.790380600374192,False,15
7K19,515,experiment,168,→,right,→,0.5423341002315283,True,15
7K19,516,experiment,72,↑,right,→,0.8016721000894904,False,15
7K19,517,experiment,96,←,left,←,0.5408409000374377,True,15
7K19,518,experiment,180,→,right,→,0.485417100135237,True,15
7K19,519,experiment,24,↓,down,↓,0.8558531999588013,True,15
7K19,520,experiment,84,→,right,→,0.46262549981474876,True,15
7K19,521,experiment,72,↑,right,→,0.6257560001686215,False,15
7K19,522,experiment,60,↓,right,→,0.5419347998686135,False,15
7K19,523,experiment,48,→,right,→,0.6045063002966344,True,15
7K19,524,experiment,36,↓,down,↓,0.9341784999705851,True,15
7K19,525,experiment,108,←,right,→,1.3717221999540925,False,15
7K19,526,experiment,48,↑,down,↓,0.8905939999967813,False,15
7K19,527,experiment,12,↑,down,↓,1.864277500193566,False,15
7K19,528,experiment,144,↑,up,↑,0.6497047003358603,True,15
7K19,529,experiment,60,↑,up,↑,0.4587396001443267,True,15
7K19,530,experiment,144,→,right,→,0.5924820001237094,True,15
7K19,531,experiment,156,←,left,←,0.5998863000422716,True,15
7K19,532,experiment,84,←,left,←,0.45923859998583794,True,15
7K19,533,experiment,36,↓,right,→,0.6733409999869764,False,15
7K19,534,experiment,84,↑,right,→,0.5600239001214504,False,15
7K19,535,training,24,↑,up,↑,0.6146102002821863,True,15
7K19,536,training,156,←,left,←,0.5429551000706851,True,15
7K19,537,training,72,↑,up,↑,0.47644370002672076,True,15
7K19,538,experiment,96,←,left,←,0.5471892999485135,True,15
7K19,539,experiment,84,←,right,→,0.579611299559474,False,15
7K19,540,experiment,84,↑,up,↑,0.5709851002320647,True,15
7K19,541,experiment,24,←,left,←,0.5202855002135038,True,15
7K19,542,experiment,108,→,right,→,0.4868193999864161,True,15
7K19,543,experiment,144,←,right,→,0.5080718998797238,False,15
7K19,544,experiment,96,→,right,→,0.4835903998464346,True,15
7K19,545,experiment,132,←,left,←,0.821692599914968,True,15
7K19,546,experiment,72,↓,down,↓,0.9766792003065348,True,15
7K19,547,experiment,168,←,left,←,0.9239701996557415,True,15
7K19,548,experiment,84,←,right,→,0.5744245001114905,False,15
7K19,549,experiment,168,←,left,←,0.739967199973762,True,15
7K19,550,experiment,60,←,right,→,0.47861009975895286,False,15
7K19,551,experiment,24,↑,down,↓,1.0178338000550866,False,15
7K19,552,experiment,180,←,right,→,0.7340202000923455,False,15
7K19,553,experiment,156,←,right,→,0.6412856001406908,False,15
7K19,554,experiment,108,←,left,←,1.237040700390935,True,15
7K19,555,experiment,60,↓,down,↓,0.9305341998115182,True,15
7K19,556,experiment,60,←,left,←,0.5038779000751674,True,15
7K19,557,experiment,168,↓,right,→,0.6251444001682103,False,15
7K19,558,experiment,72,↓,left,←,0.9824462002143264,False,15
7K19,559,experiment,12,↓,down,↓,1.3130545001477003,True,15
7K19,560,experiment,48,→,right,→,0.4865167997777462,True,15
7K19,561,experiment,36,↓,down,↓,0.6466471003368497,True,15
7K19,562,experiment,132,↓,right,→,0.6063215001486242,False,15
7K19,563,experiment,120,↑,right,→,0.6761540998704731,False,15
7K19,564,experiment,156,↓,left,←,0.8244591001421213,False,15
7K19,565,experiment,48,↑,right,→,0.5231759999878705,False,15
7K19,566,experiment,144,↑,up,↑,0.6712850998155773,True,15
7K19,567,experiment,36,→,right,→,0.61467200005427,True,15
7K19,568,experiment,72,↓,down,↓,0.5873628999106586,True,15
7K19,569,experiment,156,←,left,←,0.8216091999784112,True,15
7K19,570,experiment,84,↑,left,←,0.7512705000117421,False,15
7K19,571,experiment,48,↑,right,→,0.463188000023365,False,15
7K19,572,experiment,144,↓,down,↓,0.5965146999806166,True,15
7K19,573,experiment,12,←,right,→,0.7770934998989105,False,15
7K19,574,experiment,48,→,right,→,0.5210267999209464,True,15
7K19,575,experiment,120,↑,up,↑,0.8970187003724277,True,15
7K19,576,experiment,156,↓,down,↓,0.5712443999946117,True,15
7K19,577,experiment,12,↓,right,→,1.4427259997464716,False,15
7K19,578,experiment,12,←,right,→,0.7190116997808218,False,15
7K19,579,experiment,180,↓,up,↑,0.896568899974227,False,15
7K19,580,experiment,132,↓,up,↑,0.8260852000676095,False,15
7K19,581,experiment,108,↓,up,↑,0.6047016996890306,False,15
7K19,582,experiment,120,→,right,→,1.1159779001027346,True,15
7K19,583,experiment,180,↑,up,↑,1.5046089999377728,True,15
7K19,584,experiment,60,↓,down,↓,0.8854860002174973,True,15
7K19,585,experiment,24,↓,down,↓,0.9090925003401935,True,15
7K19,586,experiment,132,←,left,←,1.2251068004406989,True,15
7K19,587,experiment,120,→,right,→,0.5742333000525832,True,15
7K19,588,experiment,96,↓,right,→,0.605562400072813,False,15
7K19,589,experiment,168,↑,up,↑,0.5472490000538528,True,15
7K19,590,experiment,24,←,right,→,0.6380575997754931,False,15
7K19,591,experiment,180,↓,left,←,0.7369491998106241,False,15
7K19,592,experiment,108,↑,up,↑,0.7583510000258684,True,15
7K19,593,experiment,36,←,right,→,0.6387545000761747,False,15
7K19,594,experiment,144,↓,down,↓,0.7740747998468578,True,15
7K19,595,experiment,96,←,right,→,0.8395580998621881,False,15
7K19,596,experiment,36,→,right,→,0.6570143001154065,True,15
7K19,597,experiment,72,↓,up,↑,0.869892599992454,False,15
7K19,598,training,84,↓,right,→,0.6488429000601172,False,16
7K19,599,training,180,→,right,→,0.7855152003467083,True,16
7K19,600,training,48,↑,up,↑,0.5304405000060797,True,16
7K19,601,experiment,180,←,left,←,0.6851833998225629,True,16
7K19,602,experiment,132,←,right,→,0.557757600210607,False,16
7K19,603,experiment,24,↓,down,↓,0.842270300257951,True,16
7K19,604,experiment,60,↓,down,↓,0.7867171000689268,True,16
7K19,605,experiment,48,→,right,→,0.6426476002670825,True,16
7K19,606,experiment,108,←,right,→,0.744146800134331,False,16
7K19,607,experiment,168,↓,down,↓,0.7246976001188159,True,16
7K19,608,experiment,120,↓,right,→,0.6873890003189445,False,16
7K19,609,experiment,144,←,right,→,0.6343251001089811,False,16
7K19,610,experiment,36,→,right,→,0.7218081997707486,True,16
7K19,611,experiment,24,←,left,←,0.5560857001692057,True,16
7K19,612,experiment,120,←,right,→,0.48131659999489784,False,16
7K19,613,experiment,12,↑,right,→,0.9458472998812795,False,16
7K19,614,experiment,12,↓,down,↓,0.7729498003609478,True,16
7K19,615,experiment,84,←,left,←,1.893871699925512,True,16
7K19,616,experiment,156,→,right,→,0.5363801000639796,True,16
7K19,617,experiment,48,↓,right,→,0.5606845999136567,False,16
7K19,618,experiment,120,←,left,←,0.5659082001075149,True,16
7K19,619,experiment,96,↑,right,→,0.48422810016199946,False,16
7K19,620,experiment,132,↓,down,↓,1.1212702998891473,True,16
7K19,621,experiment,156,↓,down,↓,0.799806599970907,True,16
7K19,622,experiment,108,→,right,→,0.5552408997900784,True,16
7K19,623,experiment,72,→,right,→,0.49081109976395965,True,16
7K19,624,experiment,12,→,right,→,0.4711924996227026,True,16
7K19,625,experiment,168,↓,right,→,0.9806686001829803,False,16
7K19,626,experiment,60,←,right,→,0.5413465998135507,False,16
7K19,627,experiment,168,↑,up,↑,0.546425299718976,True,16
7K19,628,experiment,180,↑,up,↑,0.6135899000801146,True,16
7K19,629,experiment,108,↑,up,↑,1.8684348003007472,True,16
7K19,630,experiment,180,↓,up,↑,1.0862892996519804,False,16
7K19,631,experiment,168,↑,up,↑,0.5474601001478732,True,16
7K19,632,experiment,36,→,right,→,0.6401211000047624,True,16
7K19,633,experiment,24,→,right,→,0.44453979982063174,True,16
7K19,634,experiment,156,↑,up,↑,0.474757700227201,True,16
7K19,635,experiment,36,↓,up,↑,0.7367767998948693,False,16
7K19,636,experiment,120,↓,down,↓,0.6775358999148011,True,16
7K19,637,experiment,96,↓,up,↑,0.8001187001354992,False,16
7K19,638,experiment,108,←,left,←,0.5071149999275804,True,16
7K19,639,experiment,12,←,left,←,0.483126699924469,True,16
7K19,640,experiment,60,→,right,→,0.5024429000914097,True,16
7K19,641,experiment,180,↓,down,↓,0.7566610998474061,True,16
7K19,642,experiment,96,↓,down,↓,0.6167387999594212,True,16
7K19,643,experiment,84,↓,up,↑,1.1626549996435642,False,16
7K19,644,experiment,48,←,left,←,0.5950191002339125,True,16
7K19,645,experiment,36,↓,right,→,0.6779140001162887,False,16
7K19,646,experiment,60,←,left,←,0.5304858996532857,True,16
7K19,647,experiment,144,↓,down,↓,0.6473298002965748,True,16
7K19,648,experiment,72,↑,up,↑,0.5158083997666836,True,16
7K19,649,experiment,84,↑,up,↑,0.5536477002315223,True,16
7K19,650,experiment,48,↓,down,↓,0.9651401997543871,True,16
7K19,651,experiment,132,↓,down,↓,0.7012411002069712,True,16
7K19,652,experiment,96,→,up,↑,0.8636742001399398,False,16
7K19,653,experiment,72,↓,down,↓,0.6356027997098863,True,16
7K19,654,experiment,144,←,left,←,0.6227111998014152,True,16
7K19,655,experiment,72,↓,down,↓,0.6153089003637433,True,16
7K19,656,experiment,24,←,left,←,0.5308654000982642,True,16
7K19,657,experiment,156,↑,right,→,0.6223285999149084,False,16
7K19,658,experiment,144,↑,up,↑,1.4211542000994086,True,16
7K19,659,experiment,84,↑,up,↑,0.8110239002853632,True,16
7K19,660,experiment,132,→,left,←,0.6522436998784542,False,16
7K19,661,training,60,←,left,←,0.5197056997567415,True,16
7K19,662,training,132,↓,down,↓,0.9173499997705221,True,16
7K19,663,training,168,←,left,←,0.44435800006613135,True,16
7K19,664,experiment,84,↓,down,↓,1.1042682998813689,True,16
7K19,665,experiment,84,↑,down,↓,1.1391223003156483,False,16
7K19,666,experiment,12,←,left,←,0.4782619997859001,True,16
7K19,667,experiment,60,↓,down,↓,0.9179569999687374,True,16
7K19,668,experiment,60,↓,down,↓,0.7950822999700904,True,16
7K19,669,experiment,180,→,right,→,0.5163515000604093,True,16
7K19,670,experiment,144,↓,down,↓,0.6618507001549006,True,16
7K19,671,experiment,96,↓,down,↓,0.5479760998860002,True,16
7K19,672,experiment,96,→,right,→,0.605301299598068,True,16
7K19,673,experiment,108,←,left,←,1.4847630998119712,True,16
7K19,674,experiment,144,↑,down,↓,0.7076367000117898,False,16
7K19,675,experiment,180,←,left,←,0.5635188003070652,True,16
7K19,676,experiment,36,→,right,→,0.8503457996994257,True,16
7K19,677,experiment,12,↓,right,→,0.9927528002299368,False,16
7K19,678,experiment,12,↑,up,↑,0.6158346999436617,True,16
7K19,679,experiment,108,→,right,→,0.5260642999783158,True,16
7K19,680,experiment,132,→,up,↑,0.9981828001327813,False,16
7K19,681,experiment,36,→,right,→,0.5465568997897208,True,16
7K19,682,experiment,72,↑,up,↑,0.6758981999009848,True,16
7K19,683,experiment,120,←,right,→,0.6465915003791451,False,16
7K19,684,experiment,48,↓,right,→,1.039638000074774,False,16
7K19,685,experiment,108,↑,up,↑,1.1096328003332019,True,16
7K19,686,experiment,168,→,right,→,0.5161209003999829,True,16
7K19,687,experiment,168,↓,down,↓,0.6323116002604365,True,16
7K19,688,experiment,144,↓,down,↓,1.2104667001403868,True,16
7K19,689,experiment,72,↑,right,→,0.49997639982029796,False,16
7K19,690,experiment,72,→,right,→,0.5687768999487162,True,16
7K19,691,experiment,108,↓,right,→,0.49118199991062284,False,16
7K19,692,experiment,84,←,right,→,0.49676760006695986,False,16
7K19,693,experiment,168,→,right,→,0.5309667000547051,True,16
7K19,694,experiment,60,↑,up,↑,0.46152140013873577,True,16
7K19,695,experiment,156,↑,up,↑,0.4786891997791827,True,16
7K19,696,experiment,36,→,right,→,0.8040447998791933,True,16
7K19,697,experiment,48,↓,down,↓,0.8035026998259127,True,16
7K19,698,experiment,60,←,right,→,0.5015438003465533,False,16
7K19,699,experiment,24,←,left,←,0.4737367001362145,True,16
7K19,700,experiment,24,↑,up,↑,0.632715200074017,True,16
7K19,701,experiment,144,←,left,←,0.5269900001585484,True,16
7K19,702,experiment,156,↓,down,↓,1.4529457003809512,True,16
7K19,703,experiment,156,→,right,→,0.686554899904877,True,16
7K19,704,experiment,120,←,left,←,0.5103512997739017,True,16
7K19,705,experiment,132,←,left,←,0.7682787999510765,True,16
7K19,706,experiment,24,↓,down,↓,0.9933266001753509,True,16
7K19,707,experiment,96,↓,down,↓,0.857776700053364,True,16
7K19,708,experiment,132,↑,up,↑,0.6548676998354495,True,16
7K19,709,experiment,24,←,left,←,0.6041585998609662,True,16
7K19,710,experiment,48,↓,down,↓,0.6293440996669233,True,16
7K19,711,experiment,168,↑,up,↑,0.5771240000613034,True,16
7K19,712,experiment,120,→,left,←,0.7153083998709917,False,16
7K19,713,experiment,48,→,right,→,0.5880296998657286,True,16
7K19,714,experiment,84,↑,up,↑,0.5558042000047863,True,16
7K19,715,experiment,180,←,up,↑,0.9261535997502506,False,16
7K19,716,experiment,180,←,left,←,0.5218886998482049,True,16
7K19,717,experiment,156,←,left,←,0.7923721000552177,True,16
7K19,718,experiment,36,↑,up,↑,0.5320595996454358,True,16
7K19,719,experiment,132,←,left,←,0.4791437997482717,True,16
7K19,720,experiment,12,↑,up,↑,0.5783943999558687,True,16
7K19,721,experiment,120,→,right,→,0.5163803999312222,True,16
7K19,722,experiment,72,←,left,←,0.45138089964166284,True,16
7K19,723,experiment,96,←,left,←,0.44591440027579665,True,16
7K19,724,training,144,↑,up,↑,0.5834039999172091,True,16
7K19,725,training,48,↑,up,↑,0.5264175999909639,True,16
7K19,726,training,36,↓,up,↑,0.7962360000237823,False,16
7K19,727,experiment,60,←,left,←,0.7719093998894095,True,16
7K19,728,experiment,48,↑,up,↑,0.8117774999700487,True,16
7K19,729,experiment,48,↑,down,↓,0.8583812001161277,False,16
7K19,730,experiment,180,→,right,→,0.5271476004272699,True,16
7K19,731,experiment,36,←,up,↑,1.2613841001875699,False,16
7K19,732,experiment,168,↓,down,↓,1.0327465999871492,True,16
7K19,733,experiment,120,↓,down,↓,0.693007200025022,True,16
7K19,734,experiment,72,↑,down,↓,0.8428954002447426,False,16
7K19,735,experiment,120,↓,down,↓,0.9782515000551939,True,16
7K19,736,experiment,36,↓,down,↓,0.7299100998789072,True,16
7K19,737,experiment,24,↓,down,↓,0.6121030999347568,True,16
7K19,738,experiment,12,↓,down,↓,0.6772342999465764,True,16
7K19,739,experiment,96,→,right,→,0.9284769999794662,True,16
7K19,740,experiment,132,←,left,←,0.6767913997173309,True,16
7K19,741,experiment,156,↓,down,↓,0.6540712998248637,True,16
7K19,742,experiment,84,↑,down,↓,1.083694000262767,False,16
7K19,743,experiment,60,↑,down,↓,0.8299022000283003,False,16
7K19,744,experiment,24,↓,down,↓,0.8488950999453664,True,16
7K19,745,experiment,156,↓,down,↓,0.838251399807632,True,16
7K19,746,experiment,72,←,left,←,0.6388826998881996,True,16
7K19,747,experiment,180,←,left,←,0.6218636003322899,True,16
7K19,748,experiment,84,←,left,←,0.5969843002967536,True,16
7K19,749,experiment,132,←,no_key,no_letter,-1.0,False,16
7K19,750,experiment,96,→,right,→,0.6125567997805774,True,16
7K19,751,experiment,132,↓,left,←,0.8960081995464861,False,16
7K19,752,experiment,96,→,right,→,0.46698080003261566,True,16
7K19,753,experiment,72,↑,up,↑,0.9410987999290228,True,16
7K19,754,experiment,48,↓,down,↓,0.6688949000090361,True,16
7K19,755,experiment,156,←,right,→,0.7277018995955586,False,16
7K19,756,experiment,72,↓,down,↓,0.8066565999761224,True,16
7K19,757,experiment,144,→,right,→,0.5854805000126362,True,16
7K19,758,experiment,168,↑,up,↑,0.6197270001284778,True,16
7K19,759,experiment,84,←,left,←,0.8107094997540116,True,16
7K19,760,experiment,168,↓,down,↓,0.6604130999185145,True,16
7K19,761,experiment,144,→,right,→,0.6864474997855723,True,16
7K19,762,experiment,156,↑,right,→,0.9873309996910393,False,16
7K19,763,experiment,144,→,right,→,0.5004666997119784,True,16
7K19,764,experiment,108,→,no_key,no_letter,-1.0,False,16
7K19,765,experiment,108,←,right,→,0.5935027999803424,False,16
7K19,766,experiment,144,→,right,→,0.4986874000169337,True,16
7K19,767,experiment,36,←,left,←,0.6929476000368595,True,16
7K19,768,experiment,36,→,right,→,0.6342080999165773,True,16
7K19,769,experiment,60,↑,right,→,0.6227680002339184,False,16
7K19,770,experiment,132,↓,down,↓,0.7743323002941906,True,16
7K19,771,experiment,168,→,right,→,0.5163698000833392,True,16
7K19,772,experiment,12,↓,down,↓,0.6956637999974191,True,16
7K19,773,experiment,96,←,right,→,0.7048587999306619,False,16
7K19,774,experiment,108,↓,down,↓,0.7626781999133527,True,16
7K19,775,experiment,60,←,down,↓,0.6424710000865161,False,16
7K19,776,experiment,84,→,right,→,0.44392440002411604,True,16
7K19,777,experiment,120,←,left,←,0.5725365998223424,True,16
7K19,778,experiment,108,↓,down,↓,0.7850739001296461,True,16
7K19,779,experiment,12,↓,down,↓,0.7741871001198888,True,16
7K19,780,experiment,24,↑,left,←,0.8037613001652062,False,16
7K19,781,experiment,12,←,right,→,0.5475393002852798,False,16
7K19,782,experiment,120,←,left,←,0.4929201998747885,True,16
7K19,783,experiment,48,↓,down,↓,0.5597683000378311,True,16
7K19,784,experiment,180,→,no_key,no_letter,-1.0,False,16
7K19,785,experiment,180,→,right,→,0.5611943998374045,True,16
7K19,786,experiment,24,↑,up,↑,0.7105335001833737,True,16
7K19,787,training,108,↓,right,→,0.852676899638027,False,16
7K19,788,training,60,↑,up,↑,0.5987670999020338,True,16
7K19,789,training,72,↓,down,↓,0.7157487999647856,True,16
7K19,790,experiment,48,→,right,→,0.5975693999789655,True,16
7K19,791,experiment,132,←,right,→,0.49548109993338585,False,16
7K19,792,experiment,24,→,right,→,0.6501102996990085,True,16
7K19,793,experiment,132,↑,left,←,0.7157303001731634,False,16
7K19,794,experiment,180,←,right,→,0.5631034001708031,False,16
7K19,795,experiment,168,→,right,→,0.5732998000457883,True,16
7K19,796,experiment,180,↓,right,→,0.5968097001314163,False,16
7K19,797,experiment,168,↓,down,↓,0.7387873004190624,True,16
7K19,798,experiment,72,↑,up,↑,0.786848200019449,True,16
7K19,799,experiment,84,↓,down,↓,0.7685150001198053,True,16
7K19,800,experiment,132,↓,down,↓,0.5659925998188555,True,16
7K19,801,experiment,180,↑,right,→,0.7027106997556984,False,16
7K19,802,experiment,96,↓,down,↓,0.755978399887681,True,16
7K19,803,experiment,48,↓,down,↓,0.59414690034464,True,16
7K19,804,experiment,120,→,right,→,0.5694609000347555,True,16
7K19,805,experiment,168,→,right,→,0.494565200060606,True,16
7K19,806,experiment,108,→,right,→,0.5151402996852994,True,16
7K19,807,experiment,144,←,right,→,0.5409649000503123,False,16
7K19,808,experiment,156,→,right,→,0.4804046000353992,True,16
7K19,809,experiment,96,↓,right,→,0.8901117001660168,False,16
7K19,810,experiment,144,↓,right,→,0.6741486000828445,False,16
7K19,811,experiment,156,→,right,→,0.44444190012291074,True,16
7K19,812,experiment,60,→,right,→,0.3843307001516223,True,16
7K19,813,experiment,180,↓,left,←,0.6805245000869036,False,16
7K19,814,experiment,156,↓,down,↓,0.7396102999337018,True,16
7K19,815,experiment,12,↑,no_key,no_letter,-1.0,False,16
7K19,816,experiment,24,→,right,→,0.536525100003928,True,16
7K19,817,experiment,84,→,right,→,0.6171693000942469,True,16
7K19,818,experiment,96,→,right,→,0.5062366998754442,True,16
7K19,819,experiment,120,←,left,←,0.842582399956882,True,16
7K19,820,experiment,60,↓,up,↑,0.8841174999251962,False,16
7K19,821,experiment,84,→,right,→,0.40051160007715225,True,16
7K19,822,experiment,132,↑,up,↑,0.7254445999860764,True,16
7K19,823,experiment,120,↓,down,↓,0.6646277997642756,True,16
7K19,824,experiment,36,↑,up,↑,0.8869632999412715,True,16
7K19,825,experiment,60,←,right,→,0.5987581997178495,False,16
7K19,826,experiment,12,↑,up,↑,0.7861462002620101,True,16
7K19,827,experiment,48,←,up,↑,1.497775100171566,False,16
7K19,828,experiment,72,↑,up,↑,0.7509233998134732,True,16
7K19,829,experiment,144,↑,no_key,no_letter,-1.0,False,16
7K19,830,experiment,48,→,right,→,0.5547249997034669,True,16
7K19,831,experiment,120,→,right,→,0.529748999979347,True,16
7K19,832,experiment,144,→,right,→,0.5722961998544633,True,16
7K19,833,experiment,84,↓,down,↓,0.742197799962014,True,16
7K19,834,experiment,60,↓,right,→,0.5425372999161482,False,16
7K19,835,experiment,72,→,right,→,0.5179574000649154,True,16
7K19,836,experiment,96,↑,up,↑,0.4932128000073135,True,16
7K19,837,experiment,156,←,left,←,0.528612700290978,True,16
7K19,838,experiment,36,←,left,←,0.5240078996866941,True,16
7K19,839,experiment,12,↓,down,↓,0.6612701001577079,True,16
7K19,840,experiment,12,↓,down,↓,0.5728977001272142,True,16
7K19,841,experiment,36,↓,down,↓,0.7079539000988007,True,16
7K19,842,experiment,24,↑,up,↑,0.5950859002768993,True,16
7K19,843,experiment,108,←,left,←,0.5942009999416769,True,16
7K19,844,experiment,108,→,right,→,0.4741583000868559,True,16
7K19,845,experiment,168,↑,up,↑,0.5593363000079989,True,16
7K19,846,experiment,24,↑,up,↑,0.48034439980983734,True,16
7K19,847,experiment,36,↓,down,↓,0.7227368000894785,True,16
7K19,848,experiment,72,→,right,→,0.7714172997511923,True,16
7K19,849,experiment,108,↑,up,↑,0.7627362003549933,True,16
