PART_ID,Trial_no,Trial_type,PDI,Stim_letter,Key_pressed,letter_choose,Rt,Corr,Stimulus Time
9K30,1,training,10,↑,no_key,no_letter,-1.0,False,30
9K30,2,training,10,→,right,→,1.1810549995861948,True,30
9K30,3,training,10,↓,right,→,1.042233600281179,False,30
9K30,4,training,10,↑,left,←,1.1930876998230815,False,30
9K30,5,training,10,←,left,←,1.6099977004341781,True,30
9K30,6,training,10,→,right,→,0.5838095997460186,True,30
9K30,7,training,10,↓,down,↓,0.97866449970752,True,30
9K30,8,training,10,←,left,←,0.6986477999016643,True,30
9K30,9,training,10,←,left,←,0.6003651996143162,True,30
9K30,10,training,10,←,left,←,0.5505149001255631,True,30
9K30,11,training,10,↓,down,↓,1.4040299002081156,True,30
9K30,12,training,10,←,left,←,0.870399999897927,True,30
9K30,13,training,10,→,up,↑,1.4609548998996615,False,30
9K30,14,training,10,↑,down,↓,1.0946411001496017,False,30
9K30,15,training,10,↑,no_key,no_letter,-1.0,False,30
9K30,16,training,10,↑,up,↑,1.6290603000670671,True,30
9K30,17,training,10,→,right,→,0.840928299818188,True,30
9K30,18,training,10,↑,up,↑,1.0186866000294685,True,30
9K30,19,training,10,←,left,←,0.7457220000214875,True,30
9K30,20,training,10,→,right,→,0.9780855001881719,True,30
9K30,21,training,10,↓,left,←,0.8371020001359284,False,18
9K30,22,training,10,→,left,←,0.6885096998885274,False,18
9K30,23,training,10,↑,left,←,0.6633665002882481,False,18
9K30,24,training,10,←,left,←,0.5523680001497269,True,18
9K30,25,training,10,↓,down,↓,0.7829797999002039,True,18
9K30,26,training,10,↑,down,↓,0.9820491997525096,False,18
9K30,27,training,10,↑,no_key,no_letter,-1.0,False,18
9K30,28,training,10,↑,no_key,no_letter,-1.0,False,18
9K30,29,training,10,↑,down,↓,1.4912274000234902,False,18
9K30,30,training,10,→,no_key,no_letter,-1.0,False,18
9K30,31,training,132,→,left,←,0.8719407999888062,False,15
9K30,32,training,48,←,right,→,0.7052723001688719,False,15
9K30,33,training,156,←,left,←,0.8268548999913037,True,15
9K30,34,experiment,84,→,up,↑,1.347455299925059,False,15
9K30,35,experiment,60,↓,right,→,0.5753770000301301,False,15
9K30,36,experiment,48,←,right,→,1.0669983997941017,False,15
9K30,37,experiment,60,↓,left,←,0.902912300080061,False,15
9K30,38,experiment,120,→,right,→,0.879687299951911,True,15
9K30,39,experiment,48,↓,up,↑,1.207077699713409,False,15
9K30,40,experiment,144,←,up,↑,1.133735700044781,False,15
9K30,41,experiment,48,←,left,←,0.5441733999177814,True,15
9K30,42,experiment,96,→,right,→,0.5143049000762403,True,15
9K30,43,experiment,36,→,left,←,0.550805099774152,False,15
9K30,44,experiment,180,→,up,↑,1.385536900255829,False,15
9K30,45,experiment,96,→,left,←,1.714618899859488,False,15
9K30,46,experiment,120,←,up,↑,1.1321429000236094,False,15
9K30,47,experiment,36,↑,left,←,1.041737999767065,False,15
9K30,48,experiment,168,↓,up,↑,1.02490029996261,False,15
9K30,49,experiment,84,↑,left,←,1.055490500293672,False,15
9K30,50,experiment,180,↓,up,↑,1.3555195000953972,False,15
9K30,51,experiment,108,←,up,↑,0.793472200166434,False,15
9K30,52,experiment,180,→,right,→,1.2311118999496102,True,15
9K30,53,experiment,36,↑,right,→,0.9738222998566926,False,15
9K30,54,experiment,12,↓,down,↓,1.4190320000052452,True,15
9K30,55,experiment,24,→,left,←,1.0244917003437877,False,15
9K30,56,experiment,156,→,down,↓,1.2135859001427889,False,15
9K30,57,experiment,72,↓,up,↑,0.910664000082761,False,15
9K30,58,experiment,24,←,left,←,0.9076908002607524,True,15
9K30,59,experiment,144,←,left,←,1.017649400047958,True,15
9K30,60,experiment,12,↑,right,→,0.7483688998036087,False,15
9K30,61,experiment,156,↓,down,↓,1.1254270002245903,True,15
9K30,62,experiment,132,→,right,→,0.9877885999158025,True,15
9K30,63,experiment,156,↓,right,→,1.0428606998175383,False,15
9K30,64,experiment,156,↑,down,↓,1.2327743000350893,False,15
9K30,65,experiment,24,↑,up,↑,1.0674812998622656,True,15
9K30,66,experiment,120,↓,down,↓,1.314305200241506,True,15
9K30,67,experiment,72,↓,down,↓,1.1490351003594697,True,15
9K30,68,experiment,168,↓,left,←,1.9138115998357534,False,15
9K30,69,experiment,60,↑,down,↓,0.8247998999431729,False,15
9K30,70,experiment,96,→,right,→,0.9881386002525687,True,15
9K30,71,experiment,84,↓,down,↓,1.1224496001377702,True,15
9K30,72,experiment,144,→,right,→,1.044561699964106,True,15
9K30,73,experiment,108,↑,down,↓,1.2649101000279188,False,15
9K30,74,experiment,168,←,down,↓,1.2147400001995265,False,15
9K30,75,experiment,48,→,right,→,1.0024541998282075,True,15
9K30,76,experiment,24,←,left,←,0.7610617000609636,True,15
9K30,77,experiment,72,←,left,←,0.5612792000174522,True,15
9K30,78,experiment,108,↓,down,↓,0.720898600295186,True,15
9K30,79,experiment,84,↑,up,↑,0.6144133000634611,True,15
9K30,80,experiment,12,↓,down,↓,1.106939199846238,True,15
9K30,81,experiment,60,←,right,→,1.397944400086999,False,15
9K30,82,experiment,120,↓,left,←,1.1905231000855565,False,15
9K30,83,experiment,144,←,up,↑,1.4734987001866102,False,15
9K30,84,experiment,36,→,right,→,1.062546500004828,True,15
9K30,85,experiment,12,←,right,→,0.605182200204581,False,15
9K30,86,experiment,180,←,left,←,0.6068158000707626,True,15
9K30,87,experiment,72,←,right,→,0.6462791999801993,False,15
9K30,88,experiment,96,→,left,←,0.8789089997299016,False,15
9K30,89,experiment,132,↓,right,→,0.8672859999351203,False,15
9K30,90,experiment,132,↓,left,←,0.8078443999402225,False,15
9K30,91,experiment,132,→,right,→,0.5422792001627386,True,15
9K30,92,experiment,168,←,right,→,1.2766567999497056,False,15
9K30,93,experiment,108,↓,left,←,0.9282654998824,False,15
9K30,94,training,132,→,right,→,1.0010913000442088,True,16
9K30,95,training,132,↓,left,←,0.997921200003475,False,16
9K30,96,training,108,→,right,→,0.5725946999154985,True,16
9K30,97,experiment,96,↓,down,↓,0.7120575001463294,True,16
9K30,98,experiment,96,↓,down,↓,1.0681611998006701,True,16
9K30,99,experiment,12,↑,left,←,1.2672546999529004,False,16
9K30,100,experiment,12,↑,up,↑,1.9303013999015093,True,16
9K30,101,experiment,168,←,left,←,1.3503613001666963,True,16
9K30,102,experiment,156,↓,left,←,1.2285347003489733,False,16
9K30,103,experiment,12,←,left,←,1.1383809996768832,True,16
9K30,104,experiment,180,↓,down,↓,0.8117506001144648,True,16
9K30,105,experiment,96,↓,down,↓,0.7168916002847254,True,16
9K30,106,experiment,60,→,right,→,0.6323535996489227,True,16
9K30,107,experiment,180,→,up,↑,1.2903523002751172,False,16
9K30,108,experiment,36,→,right,→,0.8654837999492884,True,16
9K30,109,experiment,120,↑,up,↑,0.6242709001526237,True,16
9K30,110,experiment,24,↓,right,→,0.6262270002625883,False,16
9K30,111,experiment,180,↓,right,→,0.8802900002337992,False,16
9K30,112,experiment,48,→,right,→,0.6474183998070657,True,16
9K30,113,experiment,132,←,left,←,0.786434699781239,True,16
9K30,114,experiment,144,↑,right,→,0.5353924003429711,False,16
9K30,115,experiment,72,→,right,→,0.4983628997579217,True,16
9K30,116,experiment,96,→,left,←,0.8691139002330601,False,16
9K30,117,experiment,24,↓,left,←,0.9547916003502905,False,16
9K30,118,experiment,108,→,left,←,0.9595211995765567,False,16
9K30,119,experiment,132,↑,right,→,0.5516976001672447,False,16
9K30,120,experiment,36,→,left,←,0.5407568998634815,False,16
9K30,121,experiment,156,←,right,→,0.523477999959141,False,16
9K30,122,experiment,72,→,right,→,0.7002420001663268,True,16
9K30,123,experiment,84,→,right,→,0.6574617000296712,True,16
9K30,124,experiment,168,↓,down,↓,0.7726329998113215,True,16
9K30,125,experiment,168,←,right,→,1.0090041002258658,False,16
9K30,126,experiment,36,←,left,←,0.6995243998244405,True,16
9K30,127,experiment,132,←,down,↓,0.9830521000549197,False,16
9K30,128,experiment,72,↑,up,↑,0.8098089997656643,True,16
9K30,129,experiment,144,↓,up,↑,0.8256376003846526,False,16
9K30,130,experiment,132,→,right,→,0.6374939000234008,True,16
9K30,131,experiment,108,→,right,→,0.6251660999841988,True,16
9K30,132,experiment,84,↑,up,↑,0.6258954997174442,True,16
9K30,133,experiment,180,←,right,→,0.7498627998866141,False,16
9K30,134,experiment,156,←,left,←,1.1705840001814067,True,16
9K30,135,experiment,168,↓,right,→,1.006564900279045,False,16
9K30,136,experiment,12,↑,down,↓,0.9971209997311234,False,16
9K30,137,experiment,48,←,left,←,0.7332224999554455,True,16
9K30,138,experiment,144,→,right,→,0.6633227998390794,True,16
9K30,139,experiment,24,↓,right,→,0.7518307999707758,False,16
9K30,140,experiment,84,→,right,→,0.550345600116998,True,16
9K30,141,experiment,84,→,left,←,0.6384515003301203,False,16
9K30,142,experiment,60,↑,up,↑,0.6281101000495255,True,16
9K30,143,experiment,24,↓,down,↓,0.9791687000542879,True,16
9K30,144,experiment,60,↓,down,↓,0.8095569000579417,True,16
9K30,145,experiment,36,←,left,←,0.8391046999022365,True,16
9K30,146,experiment,108,↑,right,→,0.9828265998512506,False,16
9K30,147,experiment,156,↑,left,←,1.49435029970482,False,16
9K30,148,experiment,48,←,left,←,0.9429820002987981,True,16
9K30,149,experiment,120,↑,up,↑,1.311780400108546,True,16
9K30,150,experiment,72,→,right,→,0.6710440996102989,True,16
9K30,151,experiment,108,→,left,←,1.5457914997823536,False,16
9K30,152,experiment,144,→,left,←,1.3510822001844645,False,16
9K30,153,experiment,48,↓,up,↑,1.4505595001392066,False,16
9K30,154,experiment,120,↑,up,↑,0.6827185000292957,True,16
9K30,155,experiment,60,←,left,←,0.6913082003593445,True,16
9K30,156,experiment,120,←,left,←,0.624118700157851,True,16
9K30,157,training,12,←,left,←,1.3738691001199186,True,17
9K30,158,training,180,→,right,→,0.5307670002803206,True,17
9K30,159,training,168,↑,right,→,0.9527730001136661,False,17
9K30,160,experiment,72,↑,up,↑,1.0504235997796059,True,17
9K30,161,experiment,12,←,left,←,0.5568480999208987,True,17
9K30,162,experiment,108,↓,down,↓,1.0578423999249935,True,17
9K30,163,experiment,108,↑,right,→,1.0232409997843206,False,17
9K30,164,experiment,156,←,up,↑,1.2617622995749116,False,17
9K30,165,experiment,144,→,up,↑,0.9585963999852538,False,17
9K30,166,experiment,24,→,right,→,0.893283000215888,True,17
9K30,167,experiment,180,↓,up,↑,0.9996019997633994,False,17
9K30,168,experiment,132,→,right,→,0.9038019999861717,True,17
9K30,169,experiment,48,→,left,←,0.9668546998873353,False,17
9K30,170,experiment,24,↑,left,←,1.451352400239557,False,17
9K30,171,experiment,132,→,left,←,0.9498728001490235,False,17
9K30,172,experiment,84,←,right,→,0.7044966998510063,False,17
9K30,173,experiment,60,←,left,←,0.8293087999336421,True,17
9K30,174,experiment,120,→,right,→,0.9791240002959967,True,17
9K30,175,experiment,72,→,right,→,0.625866400077939,True,17
9K30,176,experiment,120,↑,right,→,0.6591914002783597,False,17
9K30,177,experiment,120,←,right,→,0.7213363000191748,False,17
9K30,178,experiment,132,→,left,←,0.6061574998311698,False,17
9K30,179,experiment,72,↓,right,→,0.5957927000708878,False,17
9K30,180,experiment,12,↓,down,↓,0.86967150028795,True,17
9K30,181,experiment,156,↓,right,→,0.6076672999188304,False,17
9K30,182,experiment,180,↓,left,←,1.2902851998806,False,17
9K30,183,experiment,36,↑,left,←,1.5998952998779714,False,17
9K30,184,experiment,144,←,right,→,1.0640426999889314,False,17
9K30,185,experiment,12,↑,left,←,1.203763599973172,False,17
9K30,186,experiment,84,↑,up,↑,0.6135050002485514,True,17
9K30,187,experiment,108,→,right,→,0.558812600094825,True,17
9K30,188,experiment,168,↑,up,↑,0.5900587001815438,True,17
9K30,189,experiment,72,←,left,←,1.0672181998379529,True,17
9K30,190,experiment,180,←,left,←,0.9838833999820054,True,17
9K30,191,experiment,180,↓,up,↑,0.8804331002756953,False,17
9K30,192,experiment,144,↓,up,↑,0.7073300001211464,False,17
9K30,193,experiment,96,→,up,↑,1.1034579002298415,False,17
9K30,194,experiment,96,↓,up,↑,0.4877790999598801,False,17
9K30,195,experiment,60,←,left,←,0.6346215000376105,True,17
9K30,196,experiment,24,↓,down,↓,0.9853739002719522,True,17
9K30,197,experiment,36,↑,down,↓,1.0676024002023041,False,17
9K30,198,experiment,132,←,up,↑,0.9602462998591363,False,17
9K30,199,experiment,168,→,right,→,0.6141131003387272,True,17
9K30,200,experiment,168,↑,down,↓,1.458565500099212,False,17
9K30,201,experiment,84,↓,left,←,1.3431474003009498,False,17
9K30,202,experiment,48,←,left,←,1.0929815000854433,True,17
9K30,203,experiment,12,←,down,↓,1.2116534002125263,False,17
9K30,204,experiment,36,↓,down,↓,1.0200188998132944,True,17
9K30,205,experiment,156,↓,down,↓,1.168136099819094,True,17
9K30,206,experiment,48,↓,down,↓,0.730813100002706,True,17
9K30,207,experiment,60,←,up,↑,1.1648178999312222,False,17
9K30,208,experiment,168,←,left,←,0.5934224002994597,True,17
9K30,209,experiment,96,↓,down,↓,0.9928867002017796,True,17
9K30,210,experiment,108,↑,left,←,0.798095699865371,False,17
9K30,211,experiment,60,↑,down,↓,1.176972100045532,False,17
9K30,212,experiment,84,→,no_key,no_letter,-1.0,False,17
9K30,213,experiment,48,↑,down,↓,1.1989789996296167,False,17
9K30,214,experiment,144,→,no_key,no_letter,-1.0,False,17
9K30,215,experiment,24,↓,down,↓,0.7401572000235319,True,17
9K30,216,experiment,96,←,left,←,0.8101560999639332,True,17
9K30,217,experiment,156,↑,right,→,1.0902797002345324,False,17
9K30,218,experiment,36,←,left,←,1.2932635000906885,True,17
9K30,219,experiment,120,→,right,→,0.6175220999866724,True,17
9K30,220,training,144,→,right,→,1.2869057999923825,True,18
9K30,221,training,108,←,left,←,1.0389673998579383,True,18
9K30,222,training,48,↓,down,↓,1.2461890000849962,True,18
9K30,223,experiment,24,↓,right,→,1.1952611999586225,False,18
9K30,224,experiment,84,→,left,←,0.9323187000118196,False,18
9K30,225,experiment,120,→,right,→,0.8898944002576172,True,18
9K30,226,experiment,12,←,left,←,0.7233963999897242,True,18
9K30,227,experiment,120,↓,right,→,0.9474873999133706,False,18
9K30,228,experiment,36,↓,right,→,0.8261629003100097,False,18
9K30,229,experiment,48,←,right,→,1.3306948002427816,False,18
9K30,230,experiment,96,↑,left,←,0.9947286997921765,False,18
9K30,231,experiment,120,←,left,←,0.593830700032413,True,18
9K30,232,experiment,180,←,left,←,0.8445606003515422,True,18
9K30,233,experiment,12,←,no_key,no_letter,-1.0,False,18
9K30,234,experiment,168,←,left,←,0.6419770000502467,True,18
9K30,235,experiment,60,↓,down,↓,0.9886603998020291,True,18
9K30,236,experiment,36,↑,left,←,0.9891135999932885,False,18
9K30,237,experiment,144,↓,down,↓,0.6932752998545766,True,18
9K30,238,experiment,60,↓,up,↑,0.696290799882263,False,18
9K30,239,experiment,168,→,right,→,0.8730415003374219,True,18
9K30,240,experiment,72,→,right,→,0.9333676998503506,True,18
9K30,241,experiment,12,←,right,→,0.9896485996432602,False,18
9K30,242,experiment,96,↓,down,↓,0.8147467998787761,True,18
9K30,243,experiment,180,→,right,→,0.7789561999961734,True,18
9K30,244,experiment,180,↓,down,↓,1.0929829999804497,True,18
9K30,245,experiment,144,→,down,↓,0.9767795000225306,False,18
9K30,246,experiment,60,←,left,←,0.49415550008416176,True,18
9K30,247,experiment,180,→,left,←,0.6010599001310766,False,18
9K30,248,experiment,132,←,right,→,0.4863334000110626,False,18
9K30,249,experiment,96,↓,left,←,1.9139924002811313,False,18
9K30,250,experiment,156,→,down,↓,1.497588099911809,False,18
9K30,251,experiment,72,↑,down,↓,1.2852831999771297,False,18
9K30,252,experiment,72,←,left,←,0.7128399000503123,True,18
9K30,253,experiment,12,↓,down,↓,0.7705560000613332,True,18
9K30,254,experiment,168,←,down,↓,1.2957410998642445,False,18
9K30,255,experiment,144,→,right,→,0.7126183002255857,True,18
9K30,256,experiment,108,↑,up,↑,0.7494234000332654,True,18
9K30,257,experiment,132,←,left,←,0.8363331002183259,True,18
9K30,258,experiment,48,←,left,←,1.060261500068009,True,18
9K30,259,experiment,24,←,left,←,0.6201002998277545,True,18
9K30,260,experiment,96,→,right,→,0.9016522001475096,True,18
9K30,261,experiment,60,↓,down,↓,1.0769559000618756,True,18
9K30,262,experiment,156,←,right,→,0.8843875001184642,False,18
9K30,263,experiment,84,↓,down,↓,1.2502904003486037,True,18
9K30,264,experiment,24,←,left,←,0.6277053998783231,True,18
9K30,265,experiment,108,↓,left,←,1.5713017997331917,False,18
9K30,266,experiment,132,↑,right,→,0.8393769999966025,False,18
9K30,267,experiment,168,←,right,→,1.4688559998758137,False,18
9K30,268,experiment,84,↓,left,←,1.4923423998989165,False,18
9K30,269,experiment,72,←,up,↑,1.9554549003951252,False,18
9K30,270,experiment,144,←,left,←,0.5719910999760032,True,18
9K30,271,experiment,48,↓,left,←,1.1047469000332057,False,18
9K30,272,experiment,84,↑,up,↑,0.679101699963212,True,18
9K30,273,experiment,156,↓,up,↑,1.1338268001563847,False,18
9K30,274,experiment,48,↑,up,↑,0.48031780030578375,True,18
9K30,275,experiment,108,↑,up,↑,1.0067615997977555,True,18
9K30,276,experiment,120,↓,left,←,1.3267310000956059,False,18
9K30,277,experiment,36,↓,left,←,1.1319341999478638,False,18
9K30,278,experiment,24,←,left,←,0.9122152999043465,True,18
9K30,279,experiment,156,↑,up,↑,1.2712036999873817,True,18
9K30,280,experiment,132,←,left,←,1.7111452999524772,True,18
9K30,281,experiment,36,↓,left,←,1.3812978002242744,False,18
9K30,282,experiment,108,↓,left,←,1.1195939001627266,False,18
9K30,283,training,132,→,left,←,1.1560382000170648,False,18
9K30,284,training,96,↑,up,↑,0.6623798999935389,True,18
9K30,285,training,60,←,left,←,0.7404587999917567,True,18
9K30,286,experiment,24,→,right,→,0.5753274001181126,True,18
9K30,287,experiment,36,←,left,←,0.5146308001130819,True,18
9K30,288,experiment,180,↓,down,↓,0.9093556995503604,True,18
9K30,289,experiment,96,←,left,←,1.1046056998893619,True,18
9K30,290,experiment,156,↓,left,←,0.8447097004391253,False,18
9K30,291,experiment,48,←,left,←,1.201742900069803,True,18
9K30,292,experiment,12,↓,left,←,1.3416129001416266,False,18
9K30,293,experiment,144,↓,right,→,0.9989434001035988,False,18
9K30,294,experiment,132,→,left,←,0.9718605000525713,False,18
9K30,295,experiment,36,←,right,→,0.558523100335151,False,18
9K30,296,experiment,48,↓,down,↓,0.8878644998185337,True,18
9K30,297,experiment,84,↓,down,↓,0.8092776001431048,True,18
9K30,298,experiment,84,←,down,↓,0.9786600000225008,False,18
9K30,299,experiment,168,←,left,←,0.6003548000007868,True,18
9K30,300,experiment,72,↑,no_key,no_letter,-1.0,False,18
9K30,301,experiment,180,←,left,←,0.5978235001675785,True,18
9K30,302,experiment,144,←,left,←,0.8238475997932255,True,18
9K30,303,experiment,156,↑,up,↑,0.9917279002256691,True,18
9K30,304,experiment,120,↓,up,↑,0.9089896003715694,False,18
9K30,305,experiment,60,↑,up,↑,0.764499899931252,True,18
9K30,306,experiment,60,↑,up,↑,0.5455370000563562,True,18
9K30,307,experiment,120,←,left,←,0.6693297997117043,True,18
9K30,308,experiment,48,→,right,→,0.5176803995855153,True,18
9K30,309,experiment,168,↑,left,←,1.2224968001246452,False,18
9K30,310,experiment,36,→,right,→,0.9167351997457445,True,18
9K30,311,experiment,84,↑,left,←,0.8564352998510003,False,18
9K30,312,experiment,108,↓,down,↓,0.925832400098443,True,18
9K30,313,experiment,168,↓,down,↓,0.9235399002209306,True,18
9K30,314,experiment,156,←,right,→,0.5477244001813233,False,18
9K30,315,experiment,168,←,up,↑,0.9768974999897182,False,18
9K30,316,experiment,12,←,left,←,0.5567672001197934,True,18
9K30,317,experiment,108,↑,up,↑,0.8879422997124493,True,18
9K30,318,experiment,72,↑,up,↑,0.6329965000040829,True,18
9K30,319,experiment,24,←,left,←,0.5517257996834815,True,18
9K30,320,experiment,60,→,right,→,0.828751899767667,True,18
9K30,321,experiment,72,↓,right,→,1.1523516001179814,False,18
9K30,322,experiment,24,↓,down,↓,0.9020843002945185,True,18
9K30,323,experiment,96,→,left,←,0.8309720000252128,False,18
9K30,324,experiment,12,↑,up,↑,0.735542600043118,True,18
9K30,325,experiment,48,↓,right,→,0.8852815004065633,False,18
9K30,326,experiment,132,→,right,→,0.8053088001906872,True,18
9K30,327,experiment,180,←,left,←,0.8831015001051128,True,18
9K30,328,experiment,156,↓,up,↑,1.1692456998862326,False,18
9K30,329,experiment,60,←,up,↑,1.506464899983257,False,18
9K30,330,experiment,96,→,right,→,0.6902120001614094,True,18
9K30,331,experiment,72,↑,up,↑,0.7750349999405444,True,18
9K30,332,experiment,144,↓,down,↓,0.7633210998028517,True,18
9K30,333,experiment,12,→,up,↑,0.8664389001205564,False,18
9K30,334,experiment,96,↓,up,↑,0.8124573999084532,False,18
9K30,335,experiment,144,←,left,←,0.6763551998883486,True,18
9K30,336,experiment,132,←,left,←,0.6764294002205133,True,18
9K30,337,experiment,24,←,left,←,0.897091300226748,True,18
9K30,338,experiment,132,→,left,←,0.6279577002860606,False,18
9K30,339,experiment,120,←,left,←,0.9915084997192025,True,18
9K30,340,experiment,120,↓,left,←,0.6613733000122011,False,18
9K30,341,experiment,108,→,right,→,0.6960447998717427,True,18
9K30,342,experiment,36,←,right,→,0.677764100022614,False,18
9K30,343,experiment,108,↓,up,↑,0.7518209996633232,False,18
9K30,344,experiment,180,→,right,→,1.2567599001340568,True,18
9K30,345,experiment,84,↓,left,←,0.9330507996492088,False,18
9K30,346,training,156,←,left,←,0.5711511997506022,True,18
9K30,347,training,168,→,left,←,0.5435517001897097,False,18
9K30,348,training,24,←,right,→,1.1951276999898255,False,18
9K30,349,experiment,120,→,up,↑,1.0788563000969589,False,18
9K30,350,experiment,168,↑,up,↑,0.6881896001286805,True,18
9K30,351,experiment,156,↑,up,↑,1.0327754002064466,True,18
9K30,352,experiment,24,←,left,←,0.839907799847424,True,18
9K30,353,experiment,180,→,right,→,0.5991984000429511,True,18
9K30,354,experiment,96,↓,down,↓,0.810527500230819,True,18
9K30,355,experiment,168,↓,down,↓,0.8441995996981859,True,18
9K30,356,experiment,24,↓,up,↑,0.7628882001154125,False,18
9K30,357,experiment,132,←,left,←,0.7364801000803709,True,18
9K30,358,experiment,108,↑,up,↑,1.2551538003608584,True,18
9K30,359,experiment,12,→,right,→,0.7927746996283531,True,18
9K30,360,experiment,156,→,right,→,0.6844953000545502,True,18
9K30,361,experiment,168,←,left,←,0.7549163000658154,True,18
9K30,362,experiment,108,↑,up,↑,1.1181294000707567,True,18
9K30,363,experiment,36,←,right,→,0.6619213004596531,False,18
9K30,364,experiment,12,←,left,←,0.5986813995987177,True,18
9K30,365,experiment,180,→,right,→,0.6838083998300135,True,18
9K30,366,experiment,168,→,right,→,0.6228180001489818,True,18
9K30,367,experiment,84,↓,down,↓,0.922080900054425,True,18
9K30,368,experiment,36,↑,up,↑,0.7074222997762263,True,18
9K30,369,experiment,108,→,right,→,0.5823512999340892,True,18
9K30,370,experiment,96,←,right,→,0.7833543000742793,False,18
9K30,371,experiment,48,→,right,→,0.6024911999702454,True,18
9K30,372,experiment,60,←,right,→,0.6689164000563323,False,18
9K30,373,experiment,72,↑,right,→,0.9137357999570668,False,18
9K30,374,experiment,84,←,left,←,0.7981127998791635,True,18
9K30,375,experiment,132,↓,down,↓,1.0856925998814404,True,18
9K30,376,experiment,144,←,left,←,0.7640340998768806,True,18
9K30,377,experiment,120,→,left,←,0.6915626004338264,False,18
9K30,378,experiment,144,→,right,→,0.6526774996891618,True,18
9K30,379,experiment,72,↑,up,↑,0.726787599734962,True,18
9K30,380,experiment,96,↑,left,←,1.0146151999942958,False,18
9K30,381,experiment,180,↑,up,↑,0.5983396000228822,True,18
9K30,382,experiment,60,↑,up,↑,0.5790881998836994,True,18
9K30,383,experiment,48,←,up,↑,1.0657451995648444,False,18
9K30,384,experiment,24,↑,up,↑,0.7375656999647617,True,18
9K30,385,experiment,36,←,left,←,0.8073152001015842,True,18
9K30,386,experiment,132,←,left,←,0.5866657998412848,True,18
9K30,387,experiment,12,←,left,←,0.9208774003200233,True,18
9K30,388,experiment,96,→,right,→,0.6377838999032974,True,18
9K30,389,experiment,72,↓,down,↓,0.8951749000698328,True,18
9K30,390,experiment,156,←,up,↑,0.9547358998097479,False,18
9K30,391,experiment,84,→,left,←,0.5490673999302089,False,18
9K30,392,experiment,120,↓,right,→,1.7325975997373462,False,18
9K30,393,experiment,108,→,right,→,0.7528764000162482,True,18
9K30,394,experiment,72,↑,right,→,1.2885985001921654,False,18
9K30,395,experiment,48,↓,down,↓,0.7988168997690082,True,18
9K30,396,experiment,84,↑,up,↑,0.9741238998249173,True,18
9K30,397,experiment,12,→,up,↑,1.2945731999352574,False,18
9K30,398,experiment,60,→,down,↓,1.1424044002778828,False,18
9K30,399,experiment,132,←,down,↓,1.2116978000849485,False,18
9K30,400,experiment,60,→,left,←,0.5950771998614073,False,18
9K30,401,experiment,156,→,right,→,0.6179865002632141,True,18
9K30,402,experiment,24,←,left,←,0.6367545002140105,True,18
9K30,403,experiment,48,↑,up,↑,0.665349300019443,True,18
9K30,404,experiment,180,↑,up,↑,0.6192485000938177,True,18
9K30,405,experiment,144,↑,up,↑,0.5688732000999153,True,18
9K30,406,experiment,36,↓,down,↓,0.9803796000778675,True,18
9K30,407,experiment,144,→,right,→,0.6359144998714328,True,18
9K30,408,experiment,120,←,left,←,1.0946243000216782,True,18
9K30,409,training,120,→,left,←,0.6461353995837271,False,18
9K30,410,training,24,→,right,→,0.7612755997106433,True,18
9K30,411,training,144,→,right,→,0.6092594000510871,True,18
9K30,412,experiment,72,↓,down,↓,0.9332066997885704,True,18
9K30,413,experiment,96,↓,down,↓,0.8430984998121858,True,18
9K30,414,experiment,108,←,left,←,0.6186011997051537,True,18
9K30,415,experiment,120,↑,up,↑,0.5749440002255142,True,18
9K30,416,experiment,132,→,no_key,no_letter,-1.0,False,18
9K30,417,experiment,156,→,right,→,0.5540044000372291,True,18
9K30,418,experiment,84,→,left,←,0.8622710998170078,False,18
9K30,419,experiment,108,→,right,→,0.7367773000150919,True,18
9K30,420,experiment,48,↑,right,→,0.9275539997033775,False,18
9K30,421,experiment,108,↓,down,↓,1.0003758003003895,True,18
9K30,422,experiment,96,←,left,←,0.925834100227803,True,18
9K30,423,experiment,156,→,left,←,1.023111800197512,False,18
9K30,424,experiment,120,↓,down,↓,0.8384870998561382,True,18
9K30,425,experiment,84,←,left,←,1.0804572999477386,True,18
9K30,426,experiment,36,↓,down,↓,1.1460024998523295,True,18
9K30,427,experiment,24,↓,down,↓,1.1367259002290666,True,18
9K30,428,experiment,36,↑,up,↑,1.0224345996975899,True,18
9K30,429,experiment,168,↑,up,↑,0.6586106000468135,True,18
9K30,430,experiment,120,↑,up,↑,0.870282200165093,True,18
9K30,431,experiment,156,↓,down,↓,0.8231664998456836,True,18
9K30,432,experiment,144,↓,down,↓,0.8701257999055088,True,18
9K30,433,experiment,72,↑,up,↑,0.9042450999841094,True,18
9K30,434,experiment,120,←,left,←,0.6965540000237525,True,18
9K30,435,experiment,72,→,right,→,0.5193864996545017,True,18
9K30,436,experiment,48,→,left,←,0.6599883995950222,False,18
9K30,437,experiment,168,↑,left,←,1.1871601999737322,False,18
9K30,438,experiment,108,↓,up,↑,0.6173310000449419,False,18
9K30,439,experiment,168,→,right,→,0.5325700002722442,True,18
9K30,440,experiment,132,←,left,←,0.7704966999590397,True,18
9K30,441,experiment,144,→,left,←,0.657958300318569,False,18
9K30,442,experiment,60,←,left,←,0.8616923000663519,True,18
9K30,443,experiment,72,→,right,→,0.7819725996814668,True,18
9K30,444,experiment,60,←,right,→,0.645430900156498,False,18
9K30,445,experiment,180,↑,up,↑,0.912151399999857,True,18
9K30,446,experiment,60,↓,down,↓,1.423119300045073,True,18
9K30,447,experiment,36,↑,right,→,0.8858440998010337,False,18
9K30,448,experiment,12,←,left,←,0.7862368002533913,True,18
9K30,449,experiment,84,↓,left,←,0.8792322999797761,False,18
9K30,450,experiment,24,←,left,←,0.6290624998509884,True,18
9K30,451,experiment,180,←,left,←,0.9506203001365066,True,18
9K30,452,experiment,132,←,left,←,0.8587938998825848,True,18
9K30,453,experiment,156,→,left,←,0.9003031998872757,False,18
9K30,454,experiment,144,↑,down,↓,0.8892688001506031,False,18
9K30,455,experiment,48,↓,down,↓,0.7456048000603914,True,18
9K30,456,experiment,180,←,left,←,0.5983627000823617,True,18
9K30,457,experiment,96,↓,down,↓,0.9733670996502042,True,18
9K30,458,experiment,132,→,right,→,0.9100766996853054,True,18
9K30,459,experiment,12,→,right,→,0.6273223999887705,True,18
9K30,460,experiment,36,→,right,→,0.547110800165683,True,18
9K30,461,experiment,12,←,left,←,0.8086514002643526,True,18
9K30,462,experiment,12,←,left,←,0.8986467001959682,True,18
9K30,463,experiment,24,→,right,→,0.5529013001359999,True,18
9K30,464,experiment,24,→,right,→,0.6007493999786675,True,18
9K30,465,experiment,168,←,left,←,0.6061819000169635,True,18
9K30,466,experiment,84,→,right,→,1.0439395997673273,True,18
9K30,467,experiment,60,↓,down,↓,0.9157867999747396,True,18
9K30,468,experiment,180,←,left,←,0.788310400210321,True,18
9K30,469,experiment,96,↓,right,→,0.9244049997068942,False,18
9K30,470,experiment,48,↓,down,↓,0.9285315996967256,True,18
9K30,471,experiment,144,↓,down,↓,0.8317892998456955,True,18
9K30,472,training,36,←,left,←,0.7971839001402259,True,18
9K30,473,training,36,→,right,→,0.7263593999668956,True,18
9K30,474,training,36,↑,left,←,1.0593854002654552,False,18
9K30,475,experiment,108,←,left,←,0.5901375999674201,True,18
9K30,476,experiment,120,↓,up,↑,0.6628024000674486,False,18
9K30,477,experiment,120,←,left,←,0.9756070002913475,True,18
9K30,478,experiment,120,←,right,→,0.8542098999023438,False,18
9K30,479,experiment,120,→,right,→,0.663105099927634,True,18
9K30,480,experiment,156,↓,down,↓,0.9256866001524031,True,18
9K30,481,experiment,12,→,right,→,0.753961400128901,True,18
9K30,482,experiment,180,↑,down,↓,0.8890117001719773,False,18
9K30,483,experiment,72,↓,down,↓,0.792545999865979,True,18
9K30,484,experiment,96,→,right,→,1.0185624998994172,True,18
9K30,485,experiment,108,↑,up,↑,1.0467214998789132,True,18
9K30,486,experiment,12,↓,down,↓,1.2020102003589272,True,18
9K30,487,experiment,60,←,left,←,0.7664133999496698,True,18
9K30,488,experiment,132,←,left,←,0.9237359999679029,True,18
9K30,489,experiment,12,→,no_key,no_letter,-1.0,False,18
9K30,490,experiment,156,→,right,→,0.7063321000896394,True,18
9K30,491,experiment,60,←,left,←,0.6314016999676824,True,18
9K30,492,experiment,48,←,right,→,0.4802352003753185,False,18
9K30,493,experiment,48,←,left,←,0.7153865001164377,True,18
9K30,494,experiment,84,→,right,→,0.9741860996000469,True,18
9K30,495,experiment,168,↑,up,↑,0.7212411002255976,True,18
9K30,496,experiment,36,↓,down,↓,0.9467643997631967,True,18
9K30,497,experiment,180,↓,up,↑,1.2357156998477876,False,18
9K30,498,experiment,24,←,left,←,0.7261664997786283,True,18
9K30,499,experiment,48,→,right,→,0.8248918000608683,True,18
9K30,500,experiment,96,↓,down,↓,0.8045811001211405,True,18
9K30,501,experiment,24,↑,down,↓,0.8848792002536356,False,18
9K30,502,experiment,84,↓,right,→,1.3183628995902836,False,18
9K30,503,experiment,180,→,left,←,1.325249600224197,False,18
9K30,504,experiment,168,→,right,→,0.5890510999597609,True,18
9K30,505,experiment,168,←,left,←,0.6653049997985363,True,18
9K30,506,experiment,72,←,left,←,0.5816793995909393,True,18
9K30,507,experiment,108,↓,down,↓,0.8911669999361038,True,18
9K30,508,experiment,72,↓,down,↓,0.8651338000781834,True,18
9K30,509,experiment,144,→,right,→,0.784670399967581,True,18
9K30,510,experiment,48,↓,up,↑,1.128365300130099,False,18
9K30,511,experiment,36,↓,down,↓,0.7459553997032344,True,18
9K30,512,experiment,156,↑,up,↑,0.9132077000103891,True,18
9K30,513,experiment,144,↑,up,↑,0.5426137996837497,True,18
9K30,514,experiment,108,→,right,→,0.6843298003077507,True,18
9K30,515,experiment,144,↓,down,↓,0.8167845997959375,True,18
9K30,516,experiment,156,→,right,→,0.7231554999016225,True,18
9K30,517,experiment,24,→,right,→,0.8033916000276804,True,18
9K30,518,experiment,60,↓,down,↓,0.8154670996591449,True,18
9K30,519,experiment,132,←,left,←,0.8554853000678122,True,18
9K30,520,experiment,84,↓,left,←,1.0465620001778007,False,18
9K30,521,experiment,144,←,left,←,1.0156231001019478,True,18
9K30,522,experiment,168,↑,up,↑,0.6982892001979053,True,18
9K30,523,experiment,24,↑,up,↑,0.6472411002032459,True,18
9K30,524,experiment,132,↑,up,↑,0.5379017000086606,True,18
9K30,525,experiment,36,↑,up,↑,0.724594000261277,True,18
9K30,526,experiment,72,↓,up,↑,0.6404328001663089,False,18
9K30,527,experiment,96,←,up,↑,0.9442226001992822,False,18
9K30,528,experiment,36,→,right,→,0.7205328000709414,True,18
9K30,529,experiment,180,↑,up,↑,0.6133928997442126,True,18
9K30,530,experiment,60,↓,down,↓,1.0276993000879884,True,18
9K30,531,experiment,132,↓,up,↑,0.8994296998716891,False,18
9K30,532,experiment,84,→,right,→,0.6206257003359497,True,18
9K30,533,experiment,96,↓,down,↓,0.9003674001432955,True,18
9K30,534,experiment,12,→,right,→,0.7803850001655519,True,18
9K30,535,training,168,↓,down,↓,0.9138405001722276,True,18
9K30,536,training,144,→,right,→,0.716941500082612,True,18
9K30,537,training,144,→,right,→,0.6924970000982285,True,18
9K30,538,experiment,108,→,right,→,0.5213131997734308,True,18
9K30,539,experiment,36,→,right,→,0.5491555999033153,True,18
9K30,540,experiment,144,↑,up,↑,0.6946906000375748,True,18
9K30,541,experiment,156,↑,up,↑,0.7198910997249186,True,18
9K30,542,experiment,84,←,left,←,0.7364744995720685,True,18
9K30,543,experiment,48,←,left,←,0.5449100001715124,True,18
9K30,544,experiment,12,↑,up,↑,0.9998498000204563,True,18
9K30,545,experiment,60,↓,left,←,1.1753775998950005,False,18
9K30,546,experiment,156,→,right,→,0.8741544000804424,True,18
9K30,547,experiment,48,↑,up,↑,0.5476595000363886,True,18
9K30,548,experiment,96,→,right,→,0.7102173999883235,True,18
9K30,549,experiment,24,↓,left,←,1.1817735000513494,False,18
9K30,550,experiment,120,↓,down,↓,0.9359435001388192,True,18
9K30,551,experiment,96,↓,down,↓,0.6696479003876448,True,18
9K30,552,experiment,120,↑,up,↑,0.5604122998192906,True,18
9K30,553,experiment,132,→,left,←,0.8626804002560675,False,18
9K30,554,experiment,24,↑,up,↑,0.6964640999212861,True,18
9K30,555,experiment,72,↑,up,↑,0.6157758003100753,True,18
9K30,556,experiment,12,←,left,←,0.6754147997125983,True,18
9K30,557,experiment,108,↑,up,↑,0.58014199975878,True,18
9K30,558,experiment,108,↑,up,↑,0.5425023999996483,True,18
9K30,559,experiment,180,↓,down,↓,0.9283598000183702,True,18
9K30,560,experiment,144,↑,up,↑,0.5644497997127473,True,18
9K30,561,experiment,180,←,right,→,0.7110747001133859,False,18
9K30,562,experiment,12,→,right,→,0.7696086997166276,True,18
9K30,563,experiment,24,↓,down,↓,0.8607463999651372,True,18
9K30,564,experiment,12,↑,right,→,1.3311939998529851,False,18
9K30,565,experiment,168,→,right,→,0.8985429997555912,True,18
9K30,566,experiment,168,↓,down,↓,0.8379951003007591,True,18
9K30,567,experiment,180,→,right,→,0.9194489000365138,True,18
9K30,568,experiment,60,→,right,→,0.5505850999616086,True,18
9K30,569,experiment,84,↓,down,↓,1.2396128000691533,True,18
9K30,570,experiment,36,→,right,→,0.9014106998220086,True,18
9K30,571,experiment,96,↑,down,↓,0.8335354998707771,False,18
9K30,572,experiment,48,←,left,←,0.666873199865222,True,18
9K30,573,experiment,132,←,left,←,0.6315858997404575,True,18
9K30,574,experiment,168,↑,up,↑,0.8956471001729369,True,18
9K30,575,experiment,120,↑,up,↑,0.6053468999452889,True,18
9K30,576,experiment,60,↑,up,↑,0.5949045000597835,True,18
9K30,577,experiment,108,↑,up,↑,0.6253411998040974,True,18
9K30,578,experiment,132,↑,up,↑,0.5760365002788603,True,18
9K30,579,experiment,144,↑,up,↑,0.5203277003020048,True,18
9K30,580,experiment,156,←,left,←,0.6029230002313852,True,18
9K30,581,experiment,36,↑,up,↑,0.5882430002093315,True,18
9K30,582,experiment,96,→,right,→,0.8333805003203452,True,18
9K30,583,experiment,84,→,right,→,1.0241429000161588,True,18
9K30,584,experiment,120,↓,right,→,1.1739322999492288,False,18
9K30,585,experiment,84,↑,left,←,0.6779205999337137,False,18
9K30,586,experiment,72,↓,up,↑,0.7575962003320456,False,18
9K30,587,experiment,72,→,right,→,0.7375441999174654,True,18
9K30,588,experiment,132,←,left,←,0.6998504004441202,True,18
9K30,589,experiment,36,↓,right,→,1.0451767998747528,False,18
9K30,590,experiment,144,→,right,→,0.6548232999630272,True,18
9K30,591,experiment,180,←,left,←,0.7076850002631545,True,18
9K30,592,experiment,24,↓,down,↓,1.0710368999280035,True,18
9K30,593,experiment,156,↓,up,↑,0.9740944001823664,False,18
9K30,594,experiment,72,→,right,→,0.5885303998365998,True,18
9K30,595,experiment,168,↑,up,↑,0.682097100187093,True,18
9K30,596,experiment,48,↑,right,→,0.6888656998053193,False,18
9K30,597,experiment,60,→,left,←,0.5812017000280321,False,18
9K30,598,training,24,→,right,→,1.060882800258696,True,18
9K30,599,training,24,→,left,←,0.7431227001361549,False,18
9K30,600,training,180,↓,down,↓,0.876456500031054,True,18
9K30,601,experiment,60,→,up,↑,0.9998168000020087,False,18
9K30,602,experiment,72,→,up,↑,1.0268840999342501,False,18
9K30,603,experiment,156,↑,down,↓,0.8723634998314083,False,18
9K30,604,experiment,24,↑,up,↑,0.9097056002356112,True,18
9K30,605,experiment,132,↑,down,↓,1.2886019996367395,False,18
9K30,606,experiment,180,↓,down,↓,0.8159717000089586,True,18
9K30,607,experiment,108,↑,up,↑,0.7156326998956501,True,18
9K30,608,experiment,36,↑,up,↑,0.696333299856633,True,18
9K30,609,experiment,84,→,right,→,0.6725194002501667,True,18
9K30,610,experiment,168,←,left,←,0.7624189001508057,True,18
9K30,611,experiment,96,←,left,←,0.6362379998899996,True,18
9K30,612,experiment,24,→,right,→,0.8579291999340057,True,18
9K30,613,experiment,24,→,right,→,0.5884823999367654,True,18
9K30,614,experiment,12,↑,down,↓,1.3094234000891447,False,18
9K30,615,experiment,60,←,up,↑,0.8916931999847293,False,18
9K30,616,experiment,24,→,up,↑,1.2617728998884559,False,18
9K30,617,experiment,156,↓,down,↓,0.7983738998882473,True,18
9K30,618,experiment,132,←,left,←,0.6956571997143328,True,18
9K30,619,experiment,108,↑,left,←,0.9130729003809392,False,18
9K30,620,experiment,156,←,left,←,0.7325210999697447,True,18
9K30,621,experiment,120,↓,down,↓,0.8717172001488507,True,18
9K30,622,experiment,72,↑,down,↓,0.7837527999654412,False,18
9K30,623,experiment,60,←,left,←,0.8020521001890302,True,18
9K30,624,experiment,72,←,left,←,0.5647456999868155,True,18
9K30,625,experiment,180,↑,down,↓,0.8533741999417543,False,18
9K30,626,experiment,12,→,right,→,0.6911968002095819,True,18
9K30,627,experiment,180,→,right,→,0.873684000223875,True,18
9K30,628,experiment,180,←,left,←,0.6613447000272572,True,18
9K30,629,experiment,168,←,right,→,0.5813971003517509,False,18
9K30,630,experiment,12,←,no_key,no_letter,-1.0,False,18
9K30,631,experiment,60,↑,left,←,1.029881200287491,False,18
9K30,632,experiment,156,→,right,→,0.8138760002329946,True,18
9K30,633,experiment,132,↓,down,↓,1.0332459001801908,True,18
9K30,634,experiment,48,↓,down,↓,0.8188567003235221,True,18
9K30,635,experiment,48,↓,down,↓,0.7112219003029168,True,18
9K30,636,experiment,36,↑,down,↓,1.0821312996558845,False,18
9K30,637,experiment,72,→,right,→,0.786413099616766,True,18
9K30,638,experiment,120,→,right,→,0.6214922000654042,True,18
9K30,639,experiment,96,↑,up,↑,0.8392213000915945,True,18
9K30,640,experiment,144,→,down,↓,1.3288956000469625,False,18
9K30,641,experiment,96,↓,down,↓,0.9466089997440577,True,18
9K30,642,experiment,48,↑,up,↑,0.9858234999701381,True,18
9K30,643,experiment,168,↓,down,↓,0.8856418002396822,True,18
9K30,644,experiment,96,→,right,→,0.6138845002278686,True,18
9K30,645,experiment,144,↑,up,↑,0.7225628001615405,True,18
9K30,646,experiment,36,↓,down,↓,0.867492999881506,True,18
9K30,647,experiment,84,↑,up,↑,0.8283188999630511,True,18
9K30,648,experiment,84,↓,down,↓,0.8731948998756707,True,18
9K30,649,experiment,36,↓,up,↑,0.916200399864465,False,18
9K30,650,experiment,132,←,left,←,0.6238442002795637,True,18
9K30,651,experiment,120,←,left,←,0.6041945000179112,True,18
9K30,652,experiment,120,→,right,→,0.6528574000112712,True,18
9K30,653,experiment,168,↓,down,↓,0.8242801995947957,True,18
9K30,654,experiment,144,←,left,←,0.7716644997708499,True,18
9K30,655,experiment,144,↑,up,↑,0.7295420998707414,True,18
9K30,656,experiment,108,←,left,←,0.6703345002606511,True,18
9K30,657,experiment,108,←,left,←,0.6051122001372278,True,18
9K30,658,experiment,12,→,right,→,0.7522714999504387,True,18
9K30,659,experiment,48,←,left,←,0.874046599958092,True,18
9K30,660,experiment,84,↑,right,→,1.7249131998978555,False,18
9K30,661,training,180,←,left,←,0.7543269000016153,True,18
9K30,662,training,60,↑,up,↑,0.6091162003576756,True,18
9K30,663,training,84,←,left,←,0.5295534003525972,True,18
9K30,664,experiment,48,↓,down,↓,1.0398292001336813,True,18
9K30,665,experiment,72,←,left,←,0.6611445001326501,True,18
9K30,666,experiment,36,←,left,←,0.8945909002795815,True,18
9K30,667,experiment,36,←,left,←,0.8928658999502659,True,18
9K30,668,experiment,168,→,right,→,0.7038211999461055,True,18
9K30,669,experiment,72,→,right,→,0.5677296998910606,True,18
9K30,670,experiment,24,↑,up,↑,0.7724490002728999,True,18
9K30,671,experiment,12,←,left,←,0.6863390998914838,True,18
9K30,672,experiment,144,↑,up,↑,0.6776074999943376,True,18
9K30,673,experiment,156,↓,down,↓,1.1746371001936495,True,18
9K30,674,experiment,84,←,left,←,0.6852672998793423,True,18
9K30,675,experiment,24,→,right,→,0.6288340999744833,True,18
9K30,676,experiment,132,→,right,→,0.6727657997980714,True,18
9K30,677,experiment,168,↑,left,←,0.886360399890691,False,18
9K30,678,experiment,96,↓,left,←,1.0565936001949012,False,18
9K30,679,experiment,132,←,left,←,0.7467783000320196,True,18
9K30,680,experiment,84,←,left,←,0.8572740000672638,True,18
9K30,681,experiment,96,↑,up,↑,0.6152643002569675,True,18
9K30,682,experiment,96,↓,down,↓,1.0393849001266062,True,18
9K30,683,experiment,48,↓,down,↓,0.8814130998216569,True,18
9K30,684,experiment,144,←,left,←,0.5942947999574244,True,18
9K30,685,experiment,108,↓,down,↓,0.7712799999862909,True,18
9K30,686,experiment,36,→,right,→,0.7989389002323151,True,18
9K30,687,experiment,180,←,left,←,0.6866339999251068,True,18
9K30,688,experiment,108,→,right,→,0.5829300000332296,True,18
9K30,689,experiment,120,↓,right,→,1.1411938001401722,False,18
9K30,690,experiment,144,↓,down,↓,0.8756957999430597,True,18
9K30,691,experiment,156,↓,down,↓,0.9457037001848221,True,18
9K30,692,experiment,12,→,up,↑,1.1377218002453446,False,18
9K30,693,experiment,72,→,right,→,0.7018120996654034,True,18
9K30,694,experiment,36,←,left,←,0.6184583003632724,True,18
9K30,695,experiment,60,→,right,→,0.656613300088793,True,18
9K30,696,experiment,84,↓,down,↓,0.8768881000578403,True,18
9K30,697,experiment,60,↑,up,↑,1.246415300294757,True,18
9K30,698,experiment,48,↑,up,↑,0.8903897004202008,True,18
9K30,699,experiment,120,←,left,←,0.6316786999814212,True,18
9K30,700,experiment,168,←,left,←,0.9426763998344541,True,18
9K30,701,experiment,84,↓,down,↓,0.8114422997459769,True,18
9K30,702,experiment,24,↑,up,↑,0.8582121999934316,True,18
9K30,703,experiment,24,↑,up,↑,1.0050694001838565,True,18
9K30,704,experiment,180,→,right,→,0.6478442000225186,True,18
9K30,705,experiment,96,↓,down,↓,1.1597150000743568,True,18
9K30,706,experiment,108,↓,up,↑,0.7051348998211324,False,18
9K30,707,experiment,120,←,left,←,0.694152900017798,True,18
9K30,708,experiment,120,←,left,←,0.6256367997266352,True,18
9K30,709,experiment,12,→,left,←,0.5152772995643318,False,18
9K30,710,experiment,108,↑,right,→,1.0179480998776853,False,18
9K30,711,experiment,60,↓,up,↑,0.8234330001287162,False,18
9K30,712,experiment,180,↑,up,↑,0.6290353997610509,True,18
9K30,713,experiment,132,↑,up,↑,0.6286375001072884,True,18
9K30,714,experiment,60,↓,up,↑,0.52859210036695,False,18
9K30,715,experiment,168,→,right,→,0.7617443003691733,True,18
9K30,716,experiment,132,↓,right,→,0.6646469002589583,False,18
9K30,717,experiment,144,→,right,→,0.9688206999562681,True,18
9K30,718,experiment,156,↑,up,↑,0.6195290996693075,True,18
9K30,719,experiment,180,↑,up,↑,0.5384077001363039,True,18
9K30,720,experiment,72,→,right,→,0.8331777001731098,True,18
9K30,721,experiment,156,↓,down,↓,0.9610211001709104,True,18
9K30,722,experiment,12,→,right,→,0.7764572002924979,True,18
9K30,723,experiment,48,↓,up,↑,0.833116099704057,False,18
9K30,724,training,144,←,left,←,1.6874464000575244,True,18
9K30,725,training,144,→,right,→,0.6347512998618186,True,18
9K30,726,training,180,↓,down,↓,1.3647997002117336,True,18
9K30,727,experiment,36,→,up,↑,0.8338529001921415,False,18
9K30,728,experiment,96,←,left,←,1.0476950998418033,True,18
9K30,729,experiment,36,↑,left,←,1.3200742001645267,False,18
9K30,730,experiment,180,→,up,↑,0.8484554002061486,False,18
9K30,731,experiment,168,↑,down,↓,0.7823080997914076,False,18
9K30,732,experiment,156,↑,down,↓,0.7575632999651134,False,18
9K30,733,experiment,156,→,right,→,0.6361876004375517,True,18
9K30,734,experiment,120,↑,down,↓,1.3550634998828173,False,18
9K30,735,experiment,168,↑,up,↑,0.73075499990955,True,18
9K30,736,experiment,60,→,right,→,0.634434700012207,True,18
9K30,737,experiment,72,→,right,→,0.6736548999324441,True,18
9K30,738,experiment,84,↑,up,↑,0.9809754998423159,True,18
9K30,739,experiment,108,↑,down,↓,0.8583597000688314,False,18
9K30,740,experiment,48,→,up,↑,0.58795449975878,False,18
9K30,741,experiment,168,←,left,←,0.6419053999707103,True,18
9K30,742,experiment,144,→,right,→,0.48082940001040697,True,18
9K30,743,experiment,72,↑,up,↑,0.6541887000203133,True,18
9K30,744,experiment,84,←,left,←,0.8813311001285911,True,18
9K30,745,experiment,48,←,left,←,0.5272665000520647,True,18
9K30,746,experiment,12,↑,right,→,0.536211300175637,False,18
9K30,747,experiment,120,↑,up,↑,0.6262908997014165,True,18
9K30,748,experiment,12,↑,up,↑,0.5506516001187265,True,18
9K30,749,experiment,36,→,right,→,1.006440999917686,True,18
9K30,750,experiment,24,↓,down,↓,1.1023500999435782,True,18
9K30,751,experiment,36,↑,up,↑,0.5817451002076268,True,18
9K30,752,experiment,144,→,no_key,no_letter,-1.0,False,18
9K30,753,experiment,72,↓,left,←,0.880397199653089,False,18
9K30,754,experiment,144,→,right,→,0.6163033996708691,True,18
9K30,755,experiment,132,↑,left,←,1.207075399812311,False,18
9K30,756,experiment,72,↓,up,↑,0.7853465997613966,False,18
9K30,757,experiment,144,→,right,→,0.7603072002530098,True,18
9K30,758,experiment,12,↑,up,↑,1.129139699973166,True,18
9K30,759,experiment,156,→,right,→,0.9313843003474176,True,18
9K30,760,experiment,156,↓,down,↓,0.9566932995803654,True,18
9K30,761,experiment,24,↑,down,↓,0.8212823001667857,False,18
9K30,762,experiment,60,↓,up,↑,1.012485799845308,False,18
9K30,763,experiment,132,↓,down,↓,0.731379700358957,True,18
9K30,764,experiment,132,←,left,←,1.0811248002573848,True,18
9K30,765,experiment,60,→,right,→,0.8784313001669943,True,18
9K30,766,experiment,24,→,right,→,0.65157729992643,True,18
9K30,767,experiment,180,→,right,→,0.7788197998888791,True,18
9K30,768,experiment,132,←,left,←,0.7601613998413086,True,18
9K30,769,experiment,96,↑,up,↑,0.5503422999754548,True,18
9K30,770,experiment,168,→,right,→,1.4478837000206113,True,18
9K30,771,experiment,108,↑,down,↓,1.0143971000798047,False,18
9K30,772,experiment,12,↓,down,↓,1.193709600251168,True,18
9K30,773,experiment,108,↓,down,↓,1.0295517998747528,True,18
9K30,774,experiment,84,←,left,←,1.2104119998402894,True,18
9K30,775,experiment,180,→,right,→,0.6309322002343833,True,18
9K30,776,experiment,96,←,left,←,0.6013457998633385,True,18
9K30,777,experiment,60,→,right,→,0.5522481999360025,True,18
9K30,778,experiment,24,←,left,←,0.5017454996705055,True,18
9K30,779,experiment,96,↑,up,↑,0.8033711002208292,True,18
9K30,780,experiment,120,↑,up,↑,0.48914589965716004,True,18
9K30,781,experiment,108,↓,up,↑,0.5114667001180351,False,18
9K30,782,experiment,84,→,right,→,0.7023585997521877,True,18
9K30,783,experiment,48,↓,down,↓,0.7678282000124454,True,18
9K30,784,experiment,180,↓,up,↑,1.06578559987247,False,18
9K30,785,experiment,48,←,left,←,0.7785429996438324,True,18
9K30,786,experiment,120,↓,up,↑,0.782168900128454,False,18
9K30,787,training,132,→,left,←,0.6948619000613689,False,18
9K30,788,training,60,→,right,→,0.4928123001009226,True,18
9K30,789,training,84,↓,down,↓,0.8289315002039075,True,18
9K30,790,experiment,48,↓,down,↓,1.3596759997308254,True,18
9K30,791,experiment,144,←,left,←,0.8923136000521481,True,18
9K30,792,experiment,132,↑,up,↑,0.9772327998653054,True,18
9K30,793,experiment,168,←,left,←,0.5936686000786722,True,18
9K30,794,experiment,120,←,left,←,0.5131848999299109,True,18
9K30,795,experiment,108,→,left,←,1.1039978000335395,False,18
9K30,796,experiment,180,←,left,←,0.6864620000123978,True,18
9K30,797,experiment,168,↑,down,↓,1.108979499898851,False,18
9K30,798,experiment,144,↑,up,↑,0.7940014000050724,True,18
9K30,799,experiment,156,→,up,↑,0.8454364999197423,False,18
9K30,800,experiment,120,↓,down,↓,0.7709256997331977,True,18
9K30,801,experiment,24,↑,up,↑,0.5232127998024225,True,18
9K30,802,experiment,120,←,left,←,0.8246336998417974,True,18
9K30,803,experiment,132,↑,up,↑,0.48432759987190366,True,18
9K30,804,experiment,156,↑,up,↑,0.9007768002338707,True,18
9K30,805,experiment,144,↑,left,←,1.5412004999816418,False,18
9K30,806,experiment,108,↑,up,↑,0.5192402000539005,True,18
9K30,807,experiment,36,↑,up,↑,0.5001008999533951,True,18
9K30,808,experiment,96,→,left,←,0.5950250001624227,False,18
9K30,809,experiment,108,→,right,→,0.5399290001951158,True,18
9K30,810,experiment,96,↑,up,↑,0.6779396999627352,True,18
9K30,811,experiment,132,↓,up,↑,0.6189298001118004,False,18
9K30,812,experiment,72,↓,right,→,0.7895447998307645,False,18
9K30,813,experiment,48,↓,down,↓,0.9525745999999344,True,18
9K30,814,experiment,24,→,up,↑,0.7532389997504652,False,18
9K30,815,experiment,48,←,up,↑,0.6334040998481214,False,18
9K30,816,experiment,180,↓,right,→,0.7057040999643505,False,18
9K30,817,experiment,48,↓,down,↓,1.0347355999983847,True,18
9K30,818,experiment,36,↑,up,↑,0.6445145001634955,True,18
9K30,819,experiment,24,←,left,←,0.8678741999901831,True,18
9K30,820,experiment,24,→,right,→,0.5732962996698916,True,18
9K30,821,experiment,84,↑,up,↑,1.0274880998767912,True,18
9K30,822,experiment,120,→,right,→,1.0000106999650598,True,18
9K30,823,experiment,144,↓,down,↓,1.1323202000930905,True,18
9K30,824,experiment,36,→,right,→,0.654713099822402,True,18
9K30,825,experiment,12,↑,left,←,1.3420929000712931,False,18
9K30,826,experiment,132,↓,right,→,1.7791465003974736,False,18
9K30,827,experiment,84,←,left,←,0.8448997000232339,True,18
9K30,828,experiment,60,←,left,←,0.7656000000424683,True,18
9K30,829,experiment,84,↓,down,↓,0.7855630000121891,True,18
9K30,830,experiment,36,→,left,←,1.0604779003188014,False,18
9K30,831,experiment,12,↓,down,↓,0.7376855001784861,True,18
9K30,832,experiment,72,↓,up,↑,0.9214129000902176,False,18
9K30,833,experiment,156,↑,up,↑,1.042231900151819,True,18
9K30,834,experiment,96,↓,down,↓,1.1413821997120976,True,18
9K30,835,experiment,108,←,left,←,0.6396987996995449,True,18
9K30,836,experiment,12,↓,right,→,0.7586129996925592,False,18
9K30,837,experiment,72,↑,up,↑,0.529005799908191,True,18
9K30,838,experiment,60,↓,up,↑,0.7985974997282028,False,18
9K30,839,experiment,180,→,left,←,0.8437097002752125,False,18
9K30,840,experiment,72,→,right,→,0.7277777004055679,True,18
9K30,841,experiment,84,→,right,→,0.6066490998491645,True,18
9K30,842,experiment,168,↓,down,↓,0.9396406998857856,True,18
9K30,843,experiment,96,→,right,→,0.7711928999051452,True,18
9K30,844,experiment,180,→,right,→,0.828528800047934,True,18
9K30,845,experiment,12,←,left,←,0.7050708001479506,True,18
9K30,846,experiment,168,←,left,←,0.7403226997703314,True,18
9K30,847,experiment,60,→,right,→,0.5142777999863029,True,18
9K30,848,experiment,156,←,right,→,0.7890567001886666,False,18
9K30,849,experiment,60,←,left,←,0.6847425997257233,True,18
