PART_ID,Trial_no,Trial_type,PDI,Stim_letter,Key_pressed,letter_choose,Rt,Corr,Stimulus Time
A003K26,1,training,10,→,right,→,0.8449772000021767,True,30
A003K26,2,training,10,↓,down,↓,1.6409840999986045,True,30
A003K26,3,training,10,↓,down,↓,0.9653076999966288,True,30
A003K26,4,training,10,↓,down,↓,0.9440878000023076,True,30
A003K26,5,training,10,→,right,→,0.8488522000116063,True,30
A003K26,6,training,10,↓,down,↓,0.9754437999945367,True,30
A003K26,7,training,10,←,left,←,0.96899019999546,True,30
A003K26,8,training,10,↑,up,↑,0.987213199987309,True,30
A003K26,9,training,10,↑,up,↑,1.1192252000037115,True,30
A003K26,10,training,10,→,right,→,0.9117794000048889,True,30
A003K26,11,training,10,↑,up,↑,0.8897500000020955,True,30
A003K26,12,training,10,←,left,←,0.8337738999980502,True,30
A003K26,13,training,10,←,left,←,0.9184594999969704,True,30
A003K26,14,training,10,→,right,→,0.9923635000013746,True,30
A003K26,15,training,10,→,right,→,1.0030361999961315,True,30
A003K26,16,training,10,↓,down,↓,0.9263957000075607,True,30
A003K26,17,training,10,↑,up,↑,1.0216957999946317,True,30
A003K26,18,training,10,→,right,→,0.8579123000090476,True,30
A003K26,19,training,10,↓,down,↓,0.9210925000079442,True,30
A003K26,20,training,10,→,right,→,0.9956403999967733,True,30
A003K26,21,training,10,→,right,→,0.8548152000003029,True,18
A003K26,22,training,10,↓,down,↓,0.827073600012227,True,18
A003K26,23,training,10,↑,up,↑,0.8877103999984683,True,18
A003K26,24,training,10,↓,down,↓,0.6287025999918114,True,18
A003K26,25,training,10,↓,down,↓,1.0900732000009157,True,18
A003K26,26,training,10,↑,up,↑,0.7706807999929879,True,18
A003K26,27,training,10,↑,up,↑,0.7263601000013296,True,18
A003K26,28,training,10,↑,up,↑,0.7330389000126161,True,18
A003K26,29,training,10,←,left,←,0.6540775999892503,True,18
A003K26,30,training,10,↑,up,↑,0.591523099996266,True,18
A003K26,31,training,84,↓,no_key,no_letter,-1.0,False,15
A003K26,32,training,120,←,left,←,0.9782634999864968,True,15
A003K26,33,training,120,←,left,←,0.8969877999916207,True,15
A003K26,34,experiment,180,↓,down,↓,1.230433400007314,True,15
A003K26,35,experiment,132,←,left,←,0.982883300006506,True,15
A003K26,36,experiment,72,→,right,→,0.8699648000037996,True,15
A003K26,37,experiment,120,↑,up,↑,0.8112084000022151,True,15
A003K26,38,experiment,36,↑,up,↑,1.1060441000008723,True,15
A003K26,39,experiment,48,→,right,→,0.7810733999940567,True,15
A003K26,40,experiment,96,↑,up,↑,0.8401708000019426,True,15
A003K26,41,experiment,144,↓,down,↓,0.6787469000119017,True,15
A003K26,42,experiment,72,↑,up,↑,0.7766275999892969,True,15
A003K26,43,experiment,180,←,left,←,0.7066902999940794,True,15
A003K26,44,experiment,132,←,right,→,0.8775852999970084,False,15
A003K26,45,experiment,12,↑,up,↑,0.8236424999922747,True,15
A003K26,46,experiment,168,↑,up,↑,0.6859287999977823,True,15
A003K26,47,experiment,156,→,right,→,0.5358395999937784,True,15
A003K26,48,experiment,156,←,right,→,0.9961279999988619,False,15
A003K26,49,experiment,48,↓,left,←,0.911192999992636,False,15
A003K26,50,experiment,108,↑,up,↑,0.6680444000085117,True,15
A003K26,51,experiment,108,↓,down,↓,1.1664125999959651,True,15
A003K26,52,experiment,72,←,left,←,0.6161010999931023,True,15
A003K26,53,experiment,48,↑,up,↑,0.688778399999137,True,15
A003K26,54,experiment,96,→,right,→,0.7264396000100533,True,15
A003K26,55,experiment,84,↑,left,←,0.7557009000011021,False,15
A003K26,56,experiment,132,→,right,→,0.6301425999990897,True,15
A003K26,57,experiment,24,↑,up,↑,0.9785931000078563,True,15
A003K26,58,experiment,120,←,left,←,0.5193583000072977,True,15
A003K26,59,experiment,96,↓,down,↓,0.6940723000006983,True,15
A003K26,60,experiment,12,→,right,→,0.5354384999955073,True,15
A003K26,61,experiment,96,→,right,→,0.8663148000050569,True,15
A003K26,62,experiment,120,↓,no_key,no_letter,-1.0,False,15
A003K26,63,experiment,12,→,left,←,0.4932963000028394,False,15
A003K26,64,experiment,120,←,right,→,0.8254474999994272,False,15
A003K26,65,experiment,24,→,left,←,0.49918430000252556,False,15
A003K26,66,experiment,156,→,right,→,0.523832200007746,True,15
A003K26,67,experiment,168,←,left,←,0.5182685000036145,True,15
A003K26,68,experiment,84,→,left,←,0.7937336000031792,False,15
A003K26,69,experiment,144,→,left,←,0.7537986999959685,False,15
A003K26,70,experiment,48,↑,up,↑,0.557766800004174,True,15
A003K26,71,experiment,144,→,left,←,0.7624348999961512,False,15
A003K26,72,experiment,72,↓,down,↓,0.6402525000012247,True,15
A003K26,73,experiment,180,↑,down,↓,0.7939737999986392,False,15
A003K26,74,experiment,12,↑,no_key,no_letter,-1.0,False,15
A003K26,75,experiment,60,←,left,←,0.6435805999935837,True,15
A003K26,76,experiment,108,↓,down,↓,0.7515934999973979,True,15
A003K26,77,experiment,168,↓,down,↓,0.6729775999992853,True,15
A003K26,78,experiment,132,→,right,→,0.6668107000004966,True,15
A003K26,79,experiment,108,←,down,↓,1.122719099992537,False,15
A003K26,80,experiment,60,→,left,←,1.0513036000047578,False,15
A003K26,81,experiment,36,→,right,→,0.971254999996745,True,15
A003K26,82,experiment,144,↓,down,↓,0.8401909000094747,True,15
A003K26,83,experiment,168,↑,down,↓,0.8819450000009965,False,15
A003K26,84,experiment,156,↓,down,↓,0.7560474000056274,True,15
A003K26,85,experiment,36,↑,up,↑,0.8322012999997241,True,15
A003K26,86,experiment,84,←,left,←,0.6377885000110837,True,15
A003K26,87,experiment,84,↑,right,→,0.5328070999967167,False,15
A003K26,88,experiment,24,←,right,→,0.921546199999284,False,15
A003K26,89,experiment,60,→,right,→,0.6135299000015948,True,15
A003K26,90,experiment,24,↓,no_key,no_letter,-1.0,False,15
A003K26,91,experiment,60,→,right,→,0.7150198000017554,True,15
A003K26,92,experiment,36,↓,down,↓,0.6317898999986937,True,15
A003K26,93,experiment,180,←,left,←,0.7418847000080859,True,15
A003K26,94,training,144,↑,left,←,1.2203990999987582,False,15
A003K26,95,training,36,←,right,→,0.8050474000046961,False,15
A003K26,96,training,72,↓,down,↓,0.6934529999998631,True,15
A003K26,97,experiment,132,←,left,←,0.7801663999998709,True,15
A003K26,98,experiment,96,↑,left,←,0.9011387000064133,False,15
A003K26,99,experiment,60,↓,down,↓,0.6075254999886965,True,15
A003K26,100,experiment,168,↓,down,↓,0.6598795000027167,True,15
A003K26,101,experiment,24,→,right,→,0.7343609999952605,True,15
A003K26,102,experiment,48,↓,down,↓,0.6618467000080273,True,15
A003K26,103,experiment,180,→,right,→,0.6482803999970201,True,15
A003K26,104,experiment,168,↑,down,↓,0.8035144000023138,False,15
A003K26,105,experiment,72,→,no_key,no_letter,-1.0,False,15
A003K26,106,experiment,24,↓,down,↓,0.6993026999989524,True,15
A003K26,107,experiment,60,↓,down,↓,0.7752996000053827,True,15
A003K26,108,experiment,96,←,left,←,0.7977776000043377,True,15
A003K26,109,experiment,36,←,left,←,0.7797526999929687,True,15
A003K26,110,experiment,180,←,left,←,0.8178686000028392,True,15
A003K26,111,experiment,120,↓,down,↓,1.1707801000011386,True,15
A003K26,112,experiment,144,→,right,→,0.675551300009829,True,15
A003K26,113,experiment,36,↓,no_key,no_letter,-1.0,False,15
A003K26,114,experiment,48,→,right,→,0.6599659999919822,True,15
A003K26,115,experiment,108,↑,no_key,no_letter,-1.0,False,15
A003K26,116,experiment,96,↓,down,↓,0.8046328000054928,True,15
A003K26,117,experiment,180,↑,no_key,no_letter,-1.0,False,15
A003K26,118,experiment,84,→,right,→,0.5797665999998571,True,15
A003K26,119,experiment,84,←,left,←,0.6302204999956302,True,15
A003K26,120,experiment,12,→,no_key,no_letter,-1.0,False,15
A003K26,121,experiment,72,→,right,→,0.5965544999926351,True,15
A003K26,122,experiment,48,↓,down,↓,0.7053266000002623,True,15
A003K26,123,experiment,48,↓,down,↓,0.6679586000100244,True,15
A003K26,124,experiment,168,←,left,←,0.7110325999965426,True,15
A003K26,125,experiment,108,↓,down,↓,0.6404044000082649,True,15
A003K26,126,experiment,108,←,left,←,1.1909542999928817,True,15
A003K26,127,experiment,72,↓,down,↓,0.6748619999998482,True,15
A003K26,128,experiment,84,→,right,→,0.6965855000016745,True,15
A003K26,129,experiment,156,←,right,→,0.6840147000038996,False,15
A003K26,130,experiment,144,→,right,→,0.6999112000048626,True,15
A003K26,131,experiment,84,→,right,→,0.66290840000147,True,15
A003K26,132,experiment,144,←,left,←,0.7362576000014087,True,15
A003K26,133,experiment,132,↑,no_key,no_letter,-1.0,False,15
A003K26,134,experiment,108,↑,down,↓,0.8150369999930263,False,15
A003K26,135,experiment,12,←,left,←,0.8222784999961732,True,15
A003K26,136,experiment,72,←,left,←,1.15126670000609,True,15
A003K26,137,experiment,132,↓,no_key,no_letter,-1.0,False,15
A003K26,138,experiment,180,↓,down,↓,0.695096299998113,True,15
A003K26,139,experiment,36,←,left,←,0.5744978000002448,True,15
A003K26,140,experiment,120,↑,down,↓,0.7123173999862047,False,15
A003K26,141,experiment,156,←,left,←,0.8013096999929985,True,15
A003K26,142,experiment,120,↑,up,↑,0.8567053000006126,True,15
A003K26,143,experiment,144,↓,down,↓,0.6719511000119383,True,15
A003K26,144,experiment,12,↓,down,↓,0.6481413000001339,True,15
A003K26,145,experiment,24,↑,up,↑,0.8256956999975955,True,15
A003K26,146,experiment,120,↑,down,↓,0.7482355999964057,False,15
A003K26,147,experiment,60,↓,down,↓,0.6435444000089774,True,15
A003K26,148,experiment,96,→,right,→,0.7605432999989716,True,15
A003K26,149,experiment,168,↓,down,↓,0.5868619999964722,True,15
A003K26,150,experiment,156,↓,no_key,no_letter,-1.0,False,15
A003K26,151,experiment,24,→,right,→,0.7611025999940466,True,15
A003K26,152,experiment,60,→,right,→,0.6375514000101248,True,15
A003K26,153,experiment,156,→,right,→,0.9707624000002397,True,15
A003K26,154,experiment,36,←,left,←,0.6609276999952272,True,15
A003K26,155,experiment,132,↓,down,↓,0.6462153000029502,True,15
A003K26,156,experiment,12,↓,down,↓,0.8492255000019213,True,15
A003K26,157,training,180,↓,down,↓,0.604004900000291,True,15
A003K26,158,training,108,←,left,←,0.6928596999932779,True,15
A003K26,159,training,36,←,left,←,0.6793439000030048,True,15
A003K26,160,experiment,72,↓,right,→,0.8363232999981847,False,15
A003K26,161,experiment,168,↓,down,↓,0.6925629999896046,True,15
A003K26,162,experiment,84,→,right,→,0.6815411999996286,True,15
A003K26,163,experiment,156,←,right,→,0.8442493999900762,False,15
A003K26,164,experiment,96,→,right,→,0.7168038999952842,True,15
A003K26,165,experiment,72,←,right,→,0.8668869999964954,False,15
A003K26,166,experiment,12,→,right,→,0.9411321000079624,True,15
A003K26,167,experiment,168,→,right,→,0.6404509999993024,True,15
A003K26,168,experiment,108,→,left,←,0.7883031999954255,False,15
A003K26,169,experiment,60,→,right,→,1.6132306000072276,True,15
A003K26,170,experiment,180,↓,down,↓,0.6881930999952601,True,15
A003K26,171,experiment,84,↑,up,↑,0.7991792000102578,True,15
A003K26,172,experiment,36,←,right,→,0.6702458999934606,False,15
A003K26,173,experiment,108,→,right,→,0.8579510999988997,True,15
A003K26,174,experiment,60,→,right,→,0.7674932000081753,True,15
A003K26,175,experiment,84,←,left,←,0.6730209999950603,True,15
A003K26,176,experiment,12,↓,no_key,no_letter,-1.0,False,15
A003K26,177,experiment,48,→,right,→,0.7330155000090599,True,15
A003K26,178,experiment,132,←,right,→,1.0483434999914607,False,15
A003K26,179,experiment,84,↓,down,↓,0.7268343000032473,True,15
A003K26,180,experiment,48,↓,no_key,no_letter,-1.0,False,15
A003K26,181,experiment,48,↓,down,↓,0.7553343000035966,True,15
A003K26,182,experiment,144,←,right,→,0.6706708999990951,False,15
A003K26,183,experiment,24,←,left,←,0.6643667000025744,True,15
A003K26,184,experiment,72,↑,down,↓,0.8483184999931837,False,15
A003K26,185,experiment,48,←,no_key,no_letter,-1.0,False,15
A003K26,186,experiment,72,↓,down,↓,0.7418009999964852,True,15
A003K26,187,experiment,132,↑,up,↑,0.8274374999891734,True,15
A003K26,188,experiment,120,→,right,→,0.5665211999876192,True,15
A003K26,189,experiment,132,↑,up,↑,0.7769404999999097,True,15
A003K26,190,experiment,144,↑,up,↑,0.7588896999950521,True,15
A003K26,191,experiment,96,→,right,→,0.6772984999988694,True,15
A003K26,192,experiment,108,↑,up,↑,0.7491130999987945,True,15
A003K26,193,experiment,96,↑,up,↑,0.7952126000018325,True,15
A003K26,194,experiment,36,→,right,→,0.6447379000019282,True,15
A003K26,195,experiment,108,←,right,→,0.7972826000041096,False,15
A003K26,196,experiment,144,↑,up,↑,0.6580815000052098,True,15
A003K26,197,experiment,156,↓,down,↓,0.975405100005446,True,15
A003K26,198,experiment,132,↓,up,↑,0.9268881000025431,False,15
A003K26,199,experiment,180,←,left,←,0.8069601000024704,True,15
A003K26,200,experiment,36,↑,up,↑,0.8944216999952914,True,15
A003K26,201,experiment,180,→,right,→,0.553050999995321,True,15
A003K26,202,experiment,12,↑,up,↑,0.7731618000107119,True,15
A003K26,203,experiment,156,↑,up,↑,0.7332243999990169,True,15
A003K26,204,experiment,12,↓,up,↑,0.7241903999965871,False,15
A003K26,205,experiment,60,↑,up,↑,0.9787835000024643,True,15
A003K26,206,experiment,24,→,right,→,0.6641094000078738,True,15
A003K26,207,experiment,180,↓,down,↓,0.6823200999933761,True,15
A003K26,208,experiment,144,↑,up,↑,0.72601840000425,True,15
A003K26,209,experiment,156,←,right,→,0.7213744000036968,False,15
A003K26,210,experiment,120,↑,up,↑,0.6878164999943692,True,15
A003K26,211,experiment,168,↑,up,↑,0.7783024000091245,True,15
A003K26,212,experiment,24,↓,up,↑,0.8069039999973029,False,15
A003K26,213,experiment,120,↑,down,↓,1.6702280000026803,False,15
A003K26,214,experiment,168,←,left,←,0.7801373000111198,True,15
A003K26,215,experiment,120,←,left,←,0.6987045999994734,True,15
A003K26,216,experiment,60,↓,no_key,no_letter,-1.0,False,15
A003K26,217,experiment,96,←,left,←,0.6709830000036163,True,15
A003K26,218,experiment,24,↑,up,↑,0.6346793999982765,True,15
A003K26,219,experiment,36,↑,up,↑,0.6083384000085061,True,15
A003K26,220,training,180,↑,up,↑,0.7359734000056051,True,15
A003K26,221,training,96,↓,up,↑,0.5962744999997085,False,15
A003K26,222,training,48,→,right,→,0.6439833999902476,True,15
A003K26,223,experiment,144,↓,down,↓,0.9425841000047512,True,15
A003K26,224,experiment,36,→,right,→,0.5188288999925135,True,15
A003K26,225,experiment,180,←,left,←,0.6021062000072561,True,15
A003K26,226,experiment,72,←,left,←,0.5818626999971457,True,15
A003K26,227,experiment,108,→,right,→,0.6770494000084,True,15
A003K26,228,experiment,36,←,left,←,0.5026461999950698,True,15
A003K26,229,experiment,132,←,left,←,0.5421143999992637,True,15
A003K26,230,experiment,24,↓,left,←,0.8266862000018591,False,15
A003K26,231,experiment,48,←,left,←,0.5692407000024104,True,15
A003K26,232,experiment,132,←,left,←,0.6695384999911766,True,15
A003K26,233,experiment,156,→,right,→,0.5579102999909082,True,15
A003K26,234,experiment,120,→,right,→,0.6081966999918222,True,15
A003K26,235,experiment,120,→,right,→,0.7718327999900794,True,15
A003K26,236,experiment,12,↓,no_key,no_letter,-1.0,False,15
A003K26,237,experiment,168,↑,right,→,1.8215278999996372,False,15
A003K26,238,experiment,60,←,left,←,0.6236132999911206,True,15
A003K26,239,experiment,168,→,left,←,0.7016797999967821,False,15
A003K26,240,experiment,96,↑,right,→,1.006987000000663,False,15
A003K26,241,experiment,144,→,right,→,0.5976251999964006,True,15
A003K26,242,experiment,84,→,right,→,0.6400571999984095,True,15
A003K26,243,experiment,180,↓,down,↓,1.179290799991577,True,15
A003K26,244,experiment,96,→,right,→,0.5450440999993589,True,15
A003K26,245,experiment,108,↑,up,↑,0.7103840000054333,True,15
A003K26,246,experiment,168,→,right,→,0.5475870999944163,True,15
A003K26,247,experiment,72,→,right,→,0.5320133999921381,True,15
A003K26,248,experiment,132,→,right,→,0.5742544999957317,True,15
A003K26,249,experiment,24,←,right,→,0.5312077999988105,False,15
A003K26,250,experiment,12,←,right,→,0.46942419999686535,False,15
A003K26,251,experiment,180,↑,up,↑,0.6563598999928217,True,15
A003K26,252,experiment,48,→,right,→,0.5752606000023661,True,15
A003K26,253,experiment,120,←,left,←,0.7220610999938799,True,15
A003K26,254,experiment,72,↑,no_key,no_letter,-1.0,False,15
A003K26,255,experiment,144,↑,up,↑,0.5744603000057396,True,15
A003K26,256,experiment,60,→,right,→,0.487730199994985,True,15
A003K26,257,experiment,120,←,left,←,0.5889920000045095,True,15
A003K26,258,experiment,24,↓,down,↓,0.8184590000018943,True,15
A003K26,259,experiment,72,→,right,→,0.5467558999953326,True,15
A003K26,260,experiment,36,↓,up,↑,0.792701099999249,False,15
A003K26,261,experiment,84,→,right,→,0.5621750999998767,True,15
A003K26,262,experiment,108,→,right,→,0.5076161999895703,True,15
A003K26,263,experiment,156,↑,up,↑,0.5844497999933083,True,15
A003K26,264,experiment,48,←,left,←,0.708424800002831,True,15
A003K26,265,experiment,48,←,left,←,0.6204235000041081,True,15
A003K26,266,experiment,168,↓,down,↓,0.7615790000127163,True,15
A003K26,267,experiment,12,←,right,→,0.5200906000100076,False,15
A003K26,268,experiment,84,←,left,←,0.5334674000041559,True,15
A003K26,269,experiment,12,↓,up,↑,0.7078923000080977,False,15
A003K26,270,experiment,24,→,no_key,no_letter,-1.0,False,15
A003K26,271,experiment,84,←,right,→,0.4347200000047451,False,15
A003K26,272,experiment,96,→,left,←,0.6325363999931142,False,15
A003K26,273,experiment,36,↑,up,↑,0.5997164000000339,True,15
A003K26,274,experiment,156,→,left,←,0.6518442999949912,False,15
A003K26,275,experiment,132,→,right,→,0.528931000008015,True,15
A003K26,276,experiment,108,←,left,←,0.5821331000042846,True,15
A003K26,277,experiment,96,↓,down,↓,0.6691814999940107,True,15
A003K26,278,experiment,144,↓,no_key,no_letter,-1.0,False,15
A003K26,279,experiment,60,←,no_key,no_letter,-1.0,False,15
A003K26,280,experiment,180,→,left,←,0.58892160000687,False,15
A003K26,281,experiment,156,→,right,→,0.5070496999978786,True,15
A003K26,282,experiment,60,↑,no_key,no_letter,-1.0,False,15
A003K26,283,training,96,←,left,←,0.6562424000003375,True,15
A003K26,284,training,132,←,left,←,0.5892467000085162,True,15
A003K26,285,training,48,↑,up,↑,0.6863930000108667,True,15
A003K26,286,experiment,132,→,right,→,0.6792317999934312,True,15
A003K26,287,experiment,180,↑,up,↑,0.5584027000004426,True,15
A003K26,288,experiment,108,↓,down,↓,0.6293602000077954,True,15
A003K26,289,experiment,132,↑,up,↑,0.6947037000063574,True,15
A003K26,290,experiment,12,↓,down,↓,0.5787369000026956,True,15
A003K26,291,experiment,96,↓,down,↓,0.7991172000038205,True,15
A003K26,292,experiment,168,↓,down,↓,0.6640632000053301,True,15
A003K26,293,experiment,120,←,left,←,0.5070328000001609,True,15
A003K26,294,experiment,108,↑,down,↓,0.613708000004408,False,15
A003K26,295,experiment,36,→,right,→,0.5448057999892626,True,15
A003K26,296,experiment,168,↓,down,↓,0.5802691999997478,True,15
A003K26,297,experiment,132,→,right,→,0.6537596999987727,True,15
A003K26,298,experiment,156,↑,down,↓,0.7241971000039484,False,15
A003K26,299,experiment,36,↓,no_key,no_letter,-1.0,False,15
A003K26,300,experiment,144,↑,up,↑,0.7107112000085181,True,15
A003K26,301,experiment,48,←,no_key,no_letter,-1.0,False,15
A003K26,302,experiment,60,→,right,→,0.5423445000051288,True,15
A003K26,303,experiment,108,↑,up,↑,0.7072700999997323,True,15
A003K26,304,experiment,132,←,left,←,0.5425602999894181,True,15
A003K26,305,experiment,156,↑,up,↑,0.6806613999942783,True,15
A003K26,306,experiment,72,→,right,→,0.6071232999966014,True,15
A003K26,307,experiment,24,↓,down,↓,0.583781799999997,True,15
A003K26,308,experiment,156,←,left,←,0.5777079999970738,True,15
A003K26,309,experiment,180,↓,down,↓,0.6127071999944746,True,15
A003K26,310,experiment,72,↓,down,↓,0.5986415999941528,True,15
A003K26,311,experiment,84,→,right,→,0.5432547999953385,True,15
A003K26,312,experiment,48,↓,down,↓,0.8820229999982985,True,15
A003K26,313,experiment,36,↓,down,↓,0.6617772000026889,True,15
A003K26,314,experiment,60,←,left,←,0.4721620000054827,True,15
A003K26,315,experiment,84,→,right,→,0.6520612000022084,True,15
A003K26,316,experiment,72,↑,up,↑,0.6250957000011113,True,15
A003K26,317,experiment,96,→,right,→,0.5135273999912897,True,15
A003K26,318,experiment,120,↑,up,↑,0.647981100002653,True,15
A003K26,319,experiment,12,↓,down,↓,0.836150600007386,True,15
A003K26,320,experiment,144,↑,left,←,0.8158174999989569,False,15
A003K26,321,experiment,12,→,right,→,0.5340872999950079,True,15
A003K26,322,experiment,120,→,right,→,0.48312830000941176,True,15
A003K26,323,experiment,84,↑,up,↑,0.5965847000043141,True,15
A003K26,324,experiment,108,→,right,→,0.5298671000055037,True,15
A003K26,325,experiment,168,↓,right,→,0.7036099000106333,False,15
A003K26,326,experiment,180,↑,left,←,0.7093391000089468,False,15
A003K26,327,experiment,144,→,right,→,0.5322788000048604,True,15
A003K26,328,experiment,60,←,left,←,0.7445466000062879,True,15
A003K26,329,experiment,24,←,left,←,0.6599407000030624,True,15
A003K26,330,experiment,144,→,right,→,0.43875139999727253,True,15
A003K26,331,experiment,24,←,left,←,0.7403163000126369,True,15
A003K26,332,experiment,120,←,left,←,0.5610003000037977,True,15
A003K26,333,experiment,48,↓,down,↓,0.5871915000025183,True,15
A003K26,334,experiment,96,↑,up,↑,0.8155842999985907,True,15
A003K26,335,experiment,96,↓,down,↓,0.5371764000010444,True,15
A003K26,336,experiment,156,↑,up,↑,0.6292067000031238,True,15
A003K26,337,experiment,84,↑,up,↑,0.6632704999938142,True,15
A003K26,338,experiment,168,↑,up,↑,0.5882744999980787,True,15
A003K26,339,experiment,48,↓,down,↓,0.6092217999976128,True,15
A003K26,340,experiment,72,↓,down,↓,0.6230533999914769,True,15
A003K26,341,experiment,12,↑,down,↓,0.9329135999869322,False,15
A003K26,342,experiment,60,↓,down,↓,0.6505484999943292,True,15
A003K26,343,experiment,180,←,left,←,0.5427825000078883,True,15
A003K26,344,experiment,24,↓,right,→,0.8506480999931227,False,15
A003K26,345,experiment,36,←,left,←,0.562522699998226,True,15
A003K26,346,training,72,←,right,→,0.43191420000221115,False,15
A003K26,347,training,144,→,left,←,0.611755500009167,False,15
A003K26,348,training,12,→,right,→,0.6550869999919087,True,15
A003K26,349,experiment,12,→,right,→,0.6991861999995308,True,15
A003K26,350,experiment,12,↑,up,↑,0.714351299990085,True,15
A003K26,351,experiment,108,←,left,←,0.6109249000001,True,15
A003K26,352,experiment,48,→,right,→,0.6314736999920569,True,15
A003K26,353,experiment,12,↓,down,↓,0.7225112000014633,True,15
A003K26,354,experiment,144,←,right,→,0.5650910000113072,False,15
A003K26,355,experiment,12,↓,down,↓,0.5440634999977192,True,15
A003K26,356,experiment,72,↑,up,↑,0.6759973000007449,True,15
A003K26,357,experiment,96,→,right,→,0.626868099992862,True,15
A003K26,358,experiment,156,↓,down,↓,0.7433409999939613,True,15
A003K26,359,experiment,180,↓,down,↓,0.6545542999956524,True,15
A003K26,360,experiment,180,↑,down,↓,0.5804769000096712,False,15
A003K26,361,experiment,84,↓,down,↓,0.6256116000004113,True,15
A003K26,362,experiment,120,↑,up,↑,0.6400032999954419,True,15
A003K26,363,experiment,180,←,left,←,0.5393198000092525,True,15
A003K26,364,experiment,108,↑,up,↑,0.7202964999887627,True,15
A003K26,365,experiment,36,↓,down,↓,0.6854036000004271,True,15
A003K26,366,experiment,120,↓,down,↓,0.8299458999972558,True,15
A003K26,367,experiment,96,→,right,→,0.45483980000426527,True,15
A003K26,368,experiment,120,↓,down,↓,0.9393003000004683,True,15
A003K26,369,experiment,120,←,left,←,0.5814567000052193,True,15
A003K26,370,experiment,72,↑,up,↑,0.5848294000024907,True,15
A003K26,371,experiment,180,←,left,←,0.532428800011985,True,15
A003K26,372,experiment,144,←,left,←,0.5434504000004381,True,15
A003K26,373,experiment,60,←,right,→,0.5291723999980604,False,15
A003K26,374,experiment,48,↑,no_key,no_letter,-1.0,False,15
A003K26,375,experiment,96,↓,right,→,0.8137998000020161,False,15
A003K26,376,experiment,24,↑,no_key,no_letter,-1.0,False,15
A003K26,377,experiment,132,←,left,←,0.6351352000056067,True,15
A003K26,378,experiment,96,→,left,←,0.7133254000073066,False,15
A003K26,379,experiment,168,↓,down,↓,0.7281670000083977,True,15
A003K26,380,experiment,60,→,right,→,0.6047474000079092,True,15
A003K26,381,experiment,72,→,right,→,0.5234477999911178,True,15
A003K26,382,experiment,144,←,left,←,0.5188911999866832,True,15
A003K26,383,experiment,156,←,left,←,0.6148484000004828,True,15
A003K26,384,experiment,144,↓,down,↓,0.6897026999940863,True,15
A003K26,385,experiment,84,↓,down,↓,1.0222836999892024,True,15
A003K26,386,experiment,168,←,left,←,0.5578038000094239,True,15
A003K26,387,experiment,168,↓,down,↓,0.5306167999951867,True,15
A003K26,388,experiment,132,←,left,←,0.585030000002007,True,15
A003K26,389,experiment,108,↓,down,↓,0.5262449000001652,True,15
A003K26,390,experiment,72,↓,down,↓,0.5946432000055211,True,15
A003K26,391,experiment,60,↓,no_key,no_letter,-1.0,False,15
A003K26,392,experiment,156,→,right,→,0.47220229999220464,True,15
A003K26,393,experiment,36,←,right,→,0.5156549000093946,False,15
A003K26,394,experiment,84,↓,no_key,no_letter,-1.0,False,15
A003K26,395,experiment,48,→,left,←,0.573374400002649,False,15
A003K26,396,experiment,168,→,right,→,0.5885674000019208,True,15
A003K26,397,experiment,132,↓,no_key,no_letter,-1.0,False,15
A003K26,398,experiment,60,→,left,←,0.4704786000074819,False,15
A003K26,399,experiment,108,↓,down,↓,0.5123342000006232,True,15
A003K26,400,experiment,24,→,right,→,0.4685219999955734,True,15
A003K26,401,experiment,48,→,right,→,0.5629639999970095,True,15
A003K26,402,experiment,36,↓,down,↓,0.5412027999991551,True,15
A003K26,403,experiment,132,←,left,←,0.5616250000020955,True,15
A003K26,404,experiment,156,←,left,←,0.5580573000042932,True,15
A003K26,405,experiment,36,→,right,→,0.527247999998508,True,15
A003K26,406,experiment,84,↓,down,↓,0.49485380000260193,True,15
A003K26,407,experiment,24,→,right,→,0.4891648000048008,True,15
A003K26,408,experiment,24,←,right,→,0.5685521999985212,False,15
A003K26,409,training,72,→,right,→,0.5123533000005409,True,15
A003K26,410,training,48,↓,down,↓,0.6184701000020141,True,15
A003K26,411,training,60,↑,down,↓,0.6596756000071764,False,15
A003K26,412,experiment,60,↓,down,↓,0.5838707000075374,True,15
A003K26,413,experiment,48,↑,down,↓,0.8412722000066424,False,15
A003K26,414,experiment,60,→,right,→,0.598704899995937,True,15
A003K26,415,experiment,180,↑,up,↑,0.8015697999944678,True,15
A003K26,416,experiment,60,←,right,→,0.5970670999959111,False,15
A003K26,417,experiment,48,→,right,→,0.9507713000057265,True,15
A003K26,418,experiment,120,↑,up,↑,0.6562794999917969,True,15
A003K26,419,experiment,72,←,right,→,0.8729050000110874,False,15
A003K26,420,experiment,96,←,left,←,0.5361790000024484,True,15
A003K26,421,experiment,48,→,right,→,0.8708384000055958,True,15
A003K26,422,experiment,180,←,left,←,0.5107304999983171,True,15
A003K26,423,experiment,168,↑,up,↑,0.7106772999977693,True,15
A003K26,424,experiment,156,↑,right,→,0.8002823999995599,False,15
A003K26,425,experiment,168,←,left,←,0.48831369999970775,True,15
A003K26,426,experiment,84,→,right,→,0.47993359999964014,True,15
A003K26,427,experiment,144,↑,left,←,0.7816196000057971,False,15
A003K26,428,experiment,36,↑,left,←,0.5396685000014259,False,15
A003K26,429,experiment,132,→,no_key,no_letter,-1.0,False,15
A003K26,430,experiment,156,←,left,←,0.5991969000024255,True,15
A003K26,431,experiment,24,→,right,→,0.5278166999923997,True,15
A003K26,432,experiment,12,↑,down,↓,0.8106717000046046,False,15
A003K26,433,experiment,84,←,left,←,0.6092957000073511,True,15
A003K26,434,experiment,12,↓,down,↓,0.702825300002587,True,15
A003K26,435,experiment,12,↑,up,↑,0.7445182999945246,True,15
A003K26,436,experiment,180,↓,down,↓,0.4994749000034062,True,15
A003K26,437,experiment,96,↓,down,↓,0.5656881000031717,True,15
A003K26,438,experiment,108,↓,down,↓,0.5767357000004267,True,15
A003K26,439,experiment,96,←,left,←,0.6230665000039153,True,15
A003K26,440,experiment,168,←,left,←,0.4967977000051178,True,15
A003K26,441,experiment,144,↑,down,↓,0.5406431000010343,False,15
A003K26,442,experiment,132,←,left,←,0.5737163000012515,True,15
A003K26,443,experiment,144,→,right,→,0.5920186000003014,True,15
A003K26,444,experiment,36,→,left,←,0.5273751000058837,False,15
A003K26,445,experiment,132,←,left,←,0.7104271999996854,True,15
A003K26,446,experiment,48,←,left,←,0.521408300002804,True,15
A003K26,447,experiment,132,↓,down,↓,0.5850934000045527,True,15
A003K26,448,experiment,84,↑,up,↑,0.7036351999995532,True,15
A003K26,449,experiment,36,↓,down,↓,0.5334354999940842,True,15
A003K26,450,experiment,144,←,right,→,0.5724126000131946,False,15
A003K26,451,experiment,108,↓,down,↓,0.5513693999964744,True,15
A003K26,452,experiment,24,↓,down,↓,0.5178619000071194,True,15
A003K26,453,experiment,120,↑,down,↓,0.4952557000069646,False,15
A003K26,454,experiment,108,↓,down,↓,0.8551874999975553,True,15
A003K26,455,experiment,156,→,right,→,0.46653669999795966,True,15
A003K26,456,experiment,24,↑,down,↓,0.7372808000072837,False,15
A003K26,457,experiment,168,→,right,→,0.6353463999985252,True,15
A003K26,458,experiment,108,↓,down,↓,0.6161865000030957,True,15
A003K26,459,experiment,96,→,right,→,0.5241948999901069,True,15
A003K26,460,experiment,120,↓,down,↓,0.6372687999974005,True,15
A003K26,461,experiment,180,←,left,←,0.6691958000010345,True,15
A003K26,462,experiment,24,↑,up,↑,0.7344047999940813,True,15
A003K26,463,experiment,72,→,right,→,0.5434202999895206,True,15
A003K26,464,experiment,60,→,right,→,0.6621191000012914,True,15
A003K26,465,experiment,156,↑,up,↑,0.8912431000062497,True,15
A003K26,466,experiment,72,→,right,→,0.49180210000486113,True,15
A003K26,467,experiment,12,→,right,→,0.6742173999955412,True,15
A003K26,468,experiment,84,↓,down,↓,0.7219340000010561,True,15
A003K26,469,experiment,36,→,right,→,0.5571230999921681,True,15
A003K26,470,experiment,72,→,right,→,0.48851910000666976,True,15
A003K26,471,experiment,120,→,right,→,0.4656167000066489,True,15
A003K26,472,training,48,→,left,←,0.439040199998999,False,15
A003K26,473,training,96,↑,down,↓,0.6447418000025209,False,15
A003K26,474,training,108,→,right,→,0.5741749000007985,True,15
A003K26,475,experiment,144,→,right,→,0.5403460000088671,True,15
A003K26,476,experiment,84,←,left,←,0.5430076000047848,True,15
A003K26,477,experiment,36,↑,right,→,0.5145440999913262,False,15
A003K26,478,experiment,168,→,right,→,0.44483689998742193,True,15
A003K26,479,experiment,156,←,left,←,0.5560057999973651,True,15
A003K26,480,experiment,108,←,left,←,0.6115525999921374,True,15
A003K26,481,experiment,24,←,left,←,0.6054924999916693,True,15
A003K26,482,experiment,132,↑,up,↑,0.7395293000008678,True,15
A003K26,483,experiment,12,↓,down,↓,0.7187929999927292,True,15
A003K26,484,experiment,60,→,right,→,0.6278572999872267,True,15
A003K26,485,experiment,12,↓,no_key,no_letter,-1.0,False,15
A003K26,486,experiment,36,←,left,←,0.5439651999913622,True,15
A003K26,487,experiment,48,←,left,←,0.529953100005514,True,15
A003K26,488,experiment,180,↓,down,↓,0.8459130999981426,True,15
A003K26,489,experiment,132,↑,up,↑,0.6284412999957567,True,15
A003K26,490,experiment,12,←,left,←,0.4679585000121733,True,15
A003K26,491,experiment,108,→,right,→,0.785952799997176,True,15
A003K26,492,experiment,12,←,right,→,0.8072733000008157,False,15
A003K26,493,experiment,180,←,left,←,0.46748970000771806,True,15
A003K26,494,experiment,180,→,right,→,0.5188739999866812,True,15
A003K26,495,experiment,60,←,right,→,0.6653782999928808,False,15
A003K26,496,experiment,144,←,right,→,0.5480381000088528,False,15
A003K26,497,experiment,72,↑,down,↓,0.7850300999998581,False,15
A003K26,498,experiment,144,↑,up,↑,1.4245338999899104,True,15
A003K26,499,experiment,180,←,left,←,0.6256701000093017,True,15
A003K26,500,experiment,84,→,right,→,0.6734738999948604,True,15
A003K26,501,experiment,156,↓,up,↑,0.5655906000029063,False,15
A003K26,502,experiment,156,→,right,→,0.475733900006162,True,15
A003K26,503,experiment,168,↑,up,↑,0.6629652999981772,True,15
A003K26,504,experiment,48,→,right,→,0.6053811000019778,True,15
A003K26,505,experiment,60,↓,down,↓,0.8475588000001153,True,15
A003K26,506,experiment,48,↓,down,↓,0.7928350000001956,True,15
A003K26,507,experiment,72,←,left,←,0.6949992000008933,True,15
A003K26,508,experiment,120,↑,up,↑,0.5290502999996534,True,15
A003K26,509,experiment,24,↓,down,↓,0.6411339999904158,True,15
A003K26,510,experiment,72,←,left,←,0.5734088000026532,True,15
A003K26,511,experiment,84,→,left,←,0.5350686000019778,False,15
A003K26,512,experiment,60,←,left,←,0.5640592999989167,True,15
A003K26,513,experiment,84,↓,down,↓,0.7649796000041533,True,15
A003K26,514,experiment,24,←,left,←,0.5954367999947863,True,15
A003K26,515,experiment,96,←,left,←,0.47937060000549536,True,15
A003K26,516,experiment,36,←,left,←,0.46635229999083094,True,15
A003K26,517,experiment,108,↓,down,↓,0.7815186999941943,True,15
A003K26,518,experiment,24,→,right,→,0.5575853000045754,True,15
A003K26,519,experiment,132,↑,up,↑,0.658933500002604,True,15
A003K26,520,experiment,36,↓,down,↓,0.675685499998508,True,15
A003K26,521,experiment,120,←,right,→,0.4896015999984229,False,15
A003K26,522,experiment,168,←,left,←,0.4795192000019597,True,15
A003K26,523,experiment,72,↓,left,←,0.8482107000018004,False,15
A003K26,524,experiment,120,↑,down,↓,0.5124164999870118,False,15
A003K26,525,experiment,132,↑,down,↓,0.581606699997792,False,15
A003K26,526,experiment,144,←,left,←,0.5298314999963623,True,15
A003K26,527,experiment,96,↑,up,↑,0.7568783000024268,True,15
A003K26,528,experiment,108,←,left,←,0.5094921000127215,True,15
A003K26,529,experiment,156,←,right,→,0.5330873000057181,False,15
A003K26,530,experiment,168,↓,down,↓,0.6608258000051137,True,15
A003K26,531,experiment,48,→,right,→,0.5625943999912124,True,15
A003K26,532,experiment,120,↓,down,↓,0.49695129999599885,True,15
A003K26,533,experiment,96,→,right,→,0.600841000006767,True,15
A003K26,534,experiment,96,→,right,→,0.588231600006111,True,15
A003K26,535,training,60,↑,left,←,0.9796435999887763,False,15
A003K26,536,training,84,←,left,←,0.5690409999951953,True,15
A003K26,537,training,168,→,right,→,0.6086489999870537,True,15
A003K26,538,experiment,144,←,left,←,0.6232295999943744,True,15
A003K26,539,experiment,12,↑,up,↑,0.7134464000118896,True,15
A003K26,540,experiment,168,→,left,←,0.5591370000038296,False,15
A003K26,541,experiment,180,→,right,→,0.5622585000091931,True,15
A003K26,542,experiment,48,↑,left,←,0.5519567000010284,False,15
A003K26,543,experiment,96,→,left,←,0.4991536999878008,False,15
A003K26,544,experiment,96,↑,up,↑,0.6814184999966528,True,15
A003K26,545,experiment,132,↓,up,↑,0.49148340000829194,False,15
A003K26,546,experiment,180,↑,up,↑,0.6355674999940675,True,15
A003K26,547,experiment,60,←,left,←,0.577256300006411,True,15
A003K26,548,experiment,132,←,left,←,0.5195341999933589,True,15
A003K26,549,experiment,84,↓,up,↑,0.5967092999926535,False,15
A003K26,550,experiment,108,→,right,→,0.5923046000098111,True,15
A003K26,551,experiment,72,↓,up,↑,0.5489492000051541,False,15
A003K26,552,experiment,48,→,right,→,0.5510152000060771,True,15
A003K26,553,experiment,120,←,right,→,0.7136131000006571,False,15
A003K26,554,experiment,144,↓,down,↓,0.7506011999939801,True,15
A003K26,555,experiment,168,→,left,←,0.7763445000018692,False,15
A003K26,556,experiment,24,↑,up,↑,0.72933680001006,True,15
A003K26,557,experiment,168,↑,up,↑,1.0687584999977844,True,15
A003K26,558,experiment,156,↑,up,↑,0.5767963000107557,True,15
A003K26,559,experiment,24,↑,up,↑,0.6981488000019453,True,15
A003K26,560,experiment,72,↓,down,↓,0.5230520000040997,True,15
A003K26,561,experiment,132,←,left,←,0.699675700001535,True,15
A003K26,562,experiment,144,↓,up,↑,0.6472466999985045,False,15
A003K26,563,experiment,24,↑,up,↑,0.595227400001022,True,15
A003K26,564,experiment,144,↓,down,↓,0.8437731000012718,True,15
A003K26,565,experiment,48,↑,up,↑,0.6387593999970704,True,15
A003K26,566,experiment,132,↓,down,↓,0.6878491999959806,True,15
A003K26,567,experiment,120,↓,down,↓,0.559363200009102,True,15
A003K26,568,experiment,180,↑,up,↑,0.9772151000070153,True,15
A003K26,569,experiment,96,←,left,←,0.6942829000035999,True,15
A003K26,570,experiment,72,→,right,→,0.6676360000128625,True,15
A003K26,571,experiment,168,↓,right,→,0.6809257999993861,False,15
A003K26,572,experiment,84,←,left,←,0.6085244999994757,True,15
A003K26,573,experiment,12,→,right,→,1.0480902999988757,True,15
A003K26,574,experiment,12,→,right,→,0.5473234999954002,True,15
A003K26,575,experiment,108,↑,no_key,no_letter,-1.0,False,15
A003K26,576,experiment,36,←,left,←,0.5493547000078252,True,15
A003K26,577,experiment,156,↓,left,←,0.532469099998707,False,15
A003K26,578,experiment,156,↑,up,↑,0.8857472999952734,True,15
A003K26,579,experiment,60,↑,up,↑,1.1163521999988006,True,15
A003K26,580,experiment,108,↑,up,↑,0.8012887999939267,True,15
A003K26,581,experiment,24,↓,down,↓,0.911832300000242,True,15
A003K26,582,experiment,48,↓,down,↓,0.6876013000000967,True,15
A003K26,583,experiment,60,↓,up,↑,0.8925874999986263,False,15
A003K26,584,experiment,36,↑,up,↑,0.8331538999918848,True,15
A003K26,585,experiment,156,→,right,→,0.7851796000031754,True,15
A003K26,586,experiment,120,←,right,→,0.5703528999874834,False,15
A003K26,587,experiment,108,→,right,→,0.5602778000029502,True,15
A003K26,588,experiment,60,↓,right,→,0.8058586999977706,False,15
A003K26,589,experiment,72,→,right,→,0.6162417000014102,True,15
A003K26,590,experiment,180,↑,up,↑,0.6951563000038732,True,15
A003K26,591,experiment,84,←,left,←,0.6978836000052979,True,15
A003K26,592,experiment,96,↓,up,↑,0.5986205999943195,False,15
A003K26,593,experiment,36,→,right,→,0.51787169999443,True,15
A003K26,594,experiment,84,↑,up,↑,0.5169807999918703,True,15
A003K26,595,experiment,36,→,right,→,0.5351455000054557,True,15
A003K26,596,experiment,12,↓,right,→,0.672867999994196,False,15
A003K26,597,experiment,120,↑,up,↑,0.5671005000040168,True,15
A003K26,598,training,36,←,left,←,0.653593600000022,True,15
A003K26,599,training,132,↓,down,↓,0.6720494999899529,True,15
A003K26,600,training,12,→,right,→,0.766117299994221,True,15
A003K26,601,experiment,84,↑,up,↑,0.8763796999992337,True,15
A003K26,602,experiment,60,←,left,←,0.5676787000120385,True,15
A003K26,603,experiment,24,→,left,←,0.5289813999988837,False,15
A003K26,604,experiment,108,→,right,→,0.6024550000001909,True,15
A003K26,605,experiment,156,↑,up,↑,0.7185890000109794,True,15
A003K26,606,experiment,48,↓,down,↓,0.6792272000020603,True,15
A003K26,607,experiment,144,←,left,←,0.5820760999922641,True,15
A003K26,608,experiment,24,→,right,→,0.5355129999952624,True,15
A003K26,609,experiment,120,↓,down,↓,0.6865919999981998,True,15
A003K26,610,experiment,48,←,left,←,0.5703625999885844,True,15
A003K26,611,experiment,60,→,right,→,0.5276060000032885,True,15
A003K26,612,experiment,120,↓,down,↓,0.6681376000051387,True,15
A003K26,613,experiment,168,↑,up,↑,0.8584957999992184,True,15
A003K26,614,experiment,12,↑,up,↑,0.7467114000028232,True,15
A003K26,615,experiment,120,↓,down,↓,0.7028613000002224,True,15
A003K26,616,experiment,72,←,right,→,0.6964184000098612,False,15
A003K26,617,experiment,96,←,right,→,0.6048886999924434,False,15
A003K26,618,experiment,156,↑,up,↑,0.8861581999954069,True,15
A003K26,619,experiment,96,↑,up,↑,0.7016376000101445,True,15
A003K26,620,experiment,108,←,left,←,0.5861777000100119,True,15
A003K26,621,experiment,120,↑,up,↑,0.5758999999961816,True,15
A003K26,622,experiment,60,↓,down,↓,0.7871344000013778,True,15
A003K26,623,experiment,84,↓,down,↓,0.691777700005332,True,15
A003K26,624,experiment,36,←,left,←,0.6579209000046831,True,15
A003K26,625,experiment,108,→,right,→,0.6333167999982834,True,15
A003K26,626,experiment,12,←,right,→,0.5827748000010615,False,15
A003K26,627,experiment,180,→,left,←,0.5817417999933241,False,15
A003K26,628,experiment,72,↓,down,↓,0.7573171999974875,True,15
A003K26,629,experiment,84,↓,down,↓,0.5495233999972697,True,15
A003K26,630,experiment,72,→,left,←,0.6202710999932606,False,15
A003K26,631,experiment,96,←,left,←,0.6055409000109648,True,15
A003K26,632,experiment,132,↓,left,←,0.933712399986689,False,15
A003K26,633,experiment,156,↑,right,→,0.6385321999987355,False,15
A003K26,634,experiment,180,→,right,→,0.6043164000002434,True,15
A003K26,635,experiment,168,↑,up,↑,0.7678491999977268,True,15
A003K26,636,experiment,180,→,right,→,0.6412013999943156,True,15
A003K26,637,experiment,168,←,left,←,0.6088007999933325,True,15
A003K26,638,experiment,108,↑,up,↑,0.5619519000028959,True,15
A003K26,639,experiment,48,→,right,→,0.5845002999994904,True,15
A003K26,640,experiment,168,↑,up,↑,0.6499507000116864,True,15
A003K26,641,experiment,24,←,right,→,0.5255130999867106,False,15
A003K26,642,experiment,156,↓,up,↑,0.5218097000033595,False,15
A003K26,643,experiment,72,→,right,→,0.4851589000027161,True,15
A003K26,644,experiment,132,↓,no_key,no_letter,-1.0,False,15
A003K26,645,experiment,60,↓,down,↓,0.7371679000061704,True,15
A003K26,646,experiment,36,↓,down,↓,0.527056699997047,True,15
A003K26,647,experiment,144,↑,down,↓,0.5665021000022534,False,15
A003K26,648,experiment,36,↓,down,↓,0.6066544999921462,True,15
A003K26,649,experiment,12,↑,up,↑,0.7553814999992028,True,15
A003K26,650,experiment,144,↑,up,↑,0.49653000000398606,True,15
A003K26,651,experiment,132,↓,down,↓,0.7257202000037069,True,15
A003K26,652,experiment,132,↑,up,↑,0.723537199999555,True,15
A003K26,653,experiment,144,→,right,→,0.6336661000095773,True,15
A003K26,654,experiment,84,→,right,→,0.5013230000040494,True,15
A003K26,655,experiment,96,→,right,→,0.5682598999992479,True,15
A003K26,656,experiment,12,→,right,→,0.7973122999974294,True,15
A003K26,657,experiment,24,↓,down,↓,0.6970542000053683,True,15
A003K26,658,experiment,48,→,right,→,0.5687713000079384,True,15
A003K26,659,experiment,36,↑,no_key,no_letter,-1.0,False,15
A003K26,660,experiment,180,↑,up,↑,0.6767504000017652,True,15
A003K26,661,training,84,↓,down,↓,1.1425278999959119,True,15
A003K26,662,training,72,→,right,→,0.5414711000048555,True,15
A003K26,663,training,72,↑,up,↑,0.5399225000001024,True,15
A003K26,664,experiment,156,→,right,→,0.7417539000016404,True,15
A003K26,665,experiment,180,↓,down,↓,0.6891317000117851,True,15
A003K26,666,experiment,168,↑,down,↓,0.7843461000011303,False,15
A003K26,667,experiment,36,↑,down,↓,0.5527410999929998,False,15
A003K26,668,experiment,48,→,right,→,0.5147448000061559,True,15
A003K26,669,experiment,48,→,right,→,0.541172800003551,True,15
A003K26,670,experiment,72,←,left,←,0.7192534000059823,True,15
A003K26,671,experiment,60,↓,down,↓,0.8287214999872958,True,15
A003K26,672,experiment,156,↓,down,↓,0.7181048000056762,True,15
A003K26,673,experiment,24,←,left,←,0.7100420000060694,True,15
A003K26,674,experiment,168,↑,down,↓,0.8160658999986481,False,15
A003K26,675,experiment,96,↓,down,↓,0.693677299990668,True,15
A003K26,676,experiment,144,↓,down,↓,0.6785985999886179,True,15
A003K26,677,experiment,108,↓,down,↓,0.6894453999993857,True,15
A003K26,678,experiment,24,↑,down,↓,0.8652890999946976,False,15
A003K26,679,experiment,60,→,right,→,0.6711802999925567,True,15
A003K26,680,experiment,48,↓,right,→,0.9132998999994015,False,15
A003K26,681,experiment,180,→,left,←,0.5455536999943433,False,15
A003K26,682,experiment,96,←,left,←,0.5297760999965249,True,15
A003K26,683,experiment,12,↓,left,←,0.8004847999982303,False,15
A003K26,684,experiment,48,→,right,→,0.6080612000077963,True,15
A003K26,685,experiment,84,→,right,→,0.5297457999986364,True,15
A003K26,686,experiment,180,→,left,←,0.7580891999969026,False,15
A003K26,687,experiment,108,→,right,→,0.8073069999954896,True,15
A003K26,688,experiment,12,→,right,→,0.5108628000016324,True,15
A003K26,689,experiment,156,↓,right,→,0.6268634000007296,False,15
A003K26,690,experiment,36,←,left,←,0.5591961000027368,True,15
A003K26,691,experiment,132,←,left,←,0.526223699998809,True,15
A003K26,692,experiment,36,↓,down,↓,0.7474327999952948,True,15
A003K26,693,experiment,12,↑,down,↓,0.5113778999948408,False,15
A003K26,694,experiment,60,→,right,→,0.5311794999870472,True,15
A003K26,695,experiment,84,←,left,←,0.534986900005606,True,15
A003K26,696,experiment,132,→,no_key,no_letter,-1.0,False,15
A003K26,697,experiment,156,↑,down,↓,0.6022318999894196,False,15
A003K26,698,experiment,120,↑,up,↑,0.8319140999956289,True,15
A003K26,699,experiment,72,↑,up,↑,0.5013535000034608,True,15
A003K26,700,experiment,120,↓,up,↑,0.6292132000089623,False,15
A003K26,701,experiment,180,↑,no_key,no_letter,-1.0,False,15
A003K26,702,experiment,144,↓,down,↓,0.6886069000029238,True,15
A003K26,703,experiment,84,←,right,→,0.554365299991332,False,15
A003K26,704,experiment,108,↑,up,↑,0.5115492999902926,True,15
A003K26,705,experiment,36,↓,up,↑,0.5962167999969097,False,15
A003K26,706,experiment,132,↑,up,↑,0.5274852000002284,True,15
A003K26,707,experiment,72,↑,up,↑,0.5380992999998853,True,15
A003K26,708,experiment,12,→,right,→,0.6164025000034599,True,15
A003K26,709,experiment,84,←,left,←,0.5563064000016311,True,15
A003K26,710,experiment,72,→,right,→,0.500202299997909,True,15
A003K26,711,experiment,144,→,right,→,0.45808179999585263,True,15
A003K26,712,experiment,96,←,left,←,0.5437265999935335,True,15
A003K26,713,experiment,168,→,right,→,0.4712613999872701,True,15
A003K26,714,experiment,168,→,right,→,0.5699718000105349,True,15
A003K26,715,experiment,24,→,right,→,0.7354494999890449,True,15
A003K26,716,experiment,24,↑,down,↓,0.9589465000026394,False,15
A003K26,717,experiment,96,↑,up,↑,0.6051592000003438,True,15
A003K26,718,experiment,108,↑,no_key,no_letter,-1.0,False,15
A003K26,719,experiment,60,←,left,←,0.5420854999974836,True,15
A003K26,720,experiment,132,↑,up,↑,0.5941328999906546,True,15
A003K26,721,experiment,120,←,left,←,0.6296492999972543,True,15
A003K26,722,experiment,144,↓,no_key,no_letter,-1.0,False,15
A003K26,723,experiment,120,→,no_key,no_letter,-1.0,False,15
A003K26,724,training,12,↑,up,↑,1.1467280999931972,True,15
A003K26,725,training,72,↑,up,↑,0.4834132999967551,True,15
A003K26,726,training,12,→,right,→,0.5865062999946531,True,15
A003K26,727,experiment,36,←,right,→,0.6511402000032831,False,15
A003K26,728,experiment,168,→,right,→,0.7261555000004591,True,15
A003K26,729,experiment,132,←,right,→,0.5858676999923773,False,15
A003K26,730,experiment,48,↓,down,↓,0.744277299992973,True,15
A003K26,731,experiment,168,→,right,→,1.1491194999980507,True,15
A003K26,732,experiment,24,→,right,→,0.6193765999923926,True,15
A003K26,733,experiment,144,↓,down,↓,0.6630837999982759,True,15
A003K26,734,experiment,180,↑,down,↓,0.5642002999957185,False,15
A003K26,735,experiment,96,↓,down,↓,0.5639973999932408,True,15
A003K26,736,experiment,132,↓,down,↓,0.4548055000050226,True,15
A003K26,737,experiment,48,↑,up,↑,0.7301984999940032,True,15
A003K26,738,experiment,144,↓,down,↓,0.4531513999972958,True,15
A003K26,739,experiment,180,→,right,→,0.6880153999954928,True,15
A003K26,740,experiment,60,←,right,→,0.47599150000314694,False,15
A003K26,741,experiment,24,↑,up,↑,0.6936337999941316,True,15
A003K26,742,experiment,84,←,left,←,0.655326399995829,True,15
A003K26,743,experiment,12,←,left,←,0.5505078000132926,True,15
A003K26,744,experiment,156,→,right,→,0.5693150000006426,True,15
A003K26,745,experiment,96,↑,up,↑,0.7415306000038981,True,15
A003K26,746,experiment,12,→,right,→,0.5368702000123449,True,15
A003K26,747,experiment,144,←,left,←,0.6378930999926524,True,15
A003K26,748,experiment,108,↓,up,↑,0.8385223999939626,False,15
A003K26,749,experiment,96,→,right,→,0.5016716999962227,True,15
A003K26,750,experiment,72,↓,up,↑,0.5720091999974102,False,15
A003K26,751,experiment,168,→,left,←,0.4758155000017723,False,15
A003K26,752,experiment,108,↑,up,↑,0.5171087000053376,True,15
A003K26,753,experiment,36,↑,up,↑,0.4799957000068389,True,15
A003K26,754,experiment,12,↑,no_key,no_letter,-1.0,False,15
A003K26,755,experiment,132,→,left,←,0.7792966999986675,False,15
A003K26,756,experiment,96,↑,up,↑,0.584159299993189,True,15
A003K26,757,experiment,12,↓,up,↑,0.5312388000020292,False,15
A003K26,758,experiment,72,→,right,→,0.9933839000004809,True,15
A003K26,759,experiment,48,↓,down,↓,0.6958272000047145,True,15
A003K26,760,experiment,24,↓,down,↓,0.6218311999982689,True,15
A003K26,761,experiment,108,↓,down,↓,0.5152175999974133,True,15
A003K26,762,experiment,180,→,left,←,0.5857638000015868,False,15
A003K26,763,experiment,132,↑,up,↑,0.7428126000013435,True,15
A003K26,764,experiment,108,→,right,→,0.5538562000001548,True,15
A003K26,765,experiment,72,←,right,→,0.4591043000109494,False,15
A003K26,766,experiment,60,↑,up,↑,0.7068915999989258,True,15
A003K26,767,experiment,156,↑,up,↑,0.5530717999936314,True,15
A003K26,768,experiment,168,↓,down,↓,0.8045263000094565,True,15
A003K26,769,experiment,72,↓,down,↓,0.7737896000035107,True,15
A003K26,770,experiment,60,←,left,←,0.6285432000004221,True,15
A003K26,771,experiment,36,→,left,←,0.5858014999976149,False,15
A003K26,772,experiment,60,→,right,→,0.5582207999977982,True,15
A003K26,773,experiment,120,→,right,→,0.5011802000080934,True,15
A003K26,774,experiment,156,→,right,→,0.4729003999964334,True,15
A003K26,775,experiment,120,←,left,←,0.6374969000025885,True,15
A003K26,776,experiment,84,←,left,←,0.5764282000018284,True,15
A003K26,777,experiment,48,↓,down,↓,0.6449433000088902,True,15
A003K26,778,experiment,180,←,left,←,0.6241167999978643,True,15
A003K26,779,experiment,24,↓,right,→,0.6507169999968028,False,15
A003K26,780,experiment,84,↓,down,↓,0.6112113999988651,True,15
A003K26,781,experiment,156,→,right,→,0.807451000000583,True,15
A003K26,782,experiment,120,↓,up,↑,0.6792837999964831,False,15
A003K26,783,experiment,120,←,right,→,0.6130191999982344,False,15
A003K26,784,experiment,144,↑,up,↑,0.8617705999931786,True,15
A003K26,785,experiment,36,→,right,→,0.5624721000058344,True,15
A003K26,786,experiment,84,↑,up,↑,0.6562607000087155,True,15
A003K26,787,training,120,→,right,→,0.5955919999978505,True,15
A003K26,788,training,156,←,left,←,0.6102525000023888,True,15
A003K26,789,training,132,→,left,←,0.5602983999997377,False,15
A003K26,790,experiment,36,→,right,→,0.5561145000101533,True,15
A003K26,791,experiment,144,↓,down,↓,0.6667824999894947,True,15
A003K26,792,experiment,60,→,right,→,0.6266331000078935,True,15
A003K26,793,experiment,168,↑,down,↓,0.747234299997217,False,15
A003K26,794,experiment,72,→,right,→,0.4762625000003027,True,15
A003K26,795,experiment,12,↓,down,↓,0.6438767999934498,True,15
A003K26,796,experiment,96,↓,down,↓,0.4791211999981897,True,15
A003K26,797,experiment,96,↓,no_key,no_letter,-1.0,False,15
A003K26,798,experiment,132,↓,down,↓,0.4752773999935016,True,15
A003K26,799,experiment,144,→,right,→,0.5605060999951093,True,15
A003K26,800,experiment,48,←,left,←,0.5638443999923766,True,15
A003K26,801,experiment,48,←,left,←,0.5549688000028254,True,15
A003K26,802,experiment,48,→,right,→,0.5348235000128625,True,15
A003K26,803,experiment,180,↓,down,↓,0.5501174999953946,True,15
A003K26,804,experiment,36,→,right,→,0.4621991999883903,True,15
A003K26,805,experiment,72,→,right,→,0.4539060000097379,True,15
A003K26,806,experiment,60,↑,down,↓,0.49030479999782983,False,15
A003K26,807,experiment,168,↓,down,↓,0.42930440000782255,True,15
A003K26,808,experiment,156,↓,down,↓,0.45234429999254644,True,15
A003K26,809,experiment,36,→,down,↓,0.534374899987597,False,15
A003K26,810,experiment,24,↑,down,↓,0.45750309999857564,False,15
A003K26,811,experiment,96,→,down,↓,0.6740625999955228,False,15
A003K26,812,experiment,144,→,down,↓,0.8588735000084853,False,15
A003K26,813,experiment,156,←,left,←,0.5617210000054911,True,15
A003K26,814,experiment,156,←,left,←,0.542849399993429,True,15
A003K26,815,experiment,84,←,left,←,0.5592415999999503,True,15
A003K26,816,experiment,132,↑,down,↓,0.5286754999979166,False,15
A003K26,817,experiment,120,↓,down,↓,0.47130099999776576,True,15
A003K26,818,experiment,48,→,left,←,0.5245362999994541,False,15
A003K26,819,experiment,72,→,no_key,no_letter,-1.0,False,15
A003K26,820,experiment,132,→,right,→,0.6170113000116544,True,15
A003K26,821,experiment,180,→,right,→,0.47043430000485387,True,15
A003K26,822,experiment,36,←,left,←,0.5943057999975281,True,15
A003K26,823,experiment,180,↓,down,↓,0.4996167999925092,True,15
A003K26,824,experiment,84,↓,down,↓,0.5140343999955803,True,15
A003K26,825,experiment,12,←,down,↓,0.6901320000033593,False,15
A003K26,826,experiment,168,→,right,→,0.47544150000612717,True,15
A003K26,827,experiment,72,←,right,→,0.7969446999923093,False,15
A003K26,828,experiment,60,←,left,←,0.6514407000067877,True,15
A003K26,829,experiment,120,←,right,→,0.73653930000728,False,15
A003K26,830,experiment,84,←,left,←,0.5276320999983,True,15
A003K26,831,experiment,24,→,right,→,0.6033762000006391,True,15
A003K26,832,experiment,24,↑,up,↑,0.6678279000043403,True,15
A003K26,833,experiment,108,↑,up,↑,0.5108614999917336,True,15
A003K26,834,experiment,108,←,left,←,0.5534184999996796,True,15
A003K26,835,experiment,12,↓,down,↓,0.7619115000125021,True,15
A003K26,836,experiment,60,→,right,→,0.4291016000061063,True,15
A003K26,837,experiment,132,↑,down,↓,0.6155117000016617,False,15
A003K26,838,experiment,156,→,right,→,0.45308530000329483,True,15
A003K26,839,experiment,96,→,right,→,0.42745299999660347,True,15
A003K26,840,experiment,12,↓,down,↓,0.6519429000036325,True,15
A003K26,841,experiment,108,←,left,←,0.444484099993133,True,15
A003K26,842,experiment,144,↑,up,↑,0.5221874999988358,True,15
A003K26,843,experiment,180,↓,down,↓,0.7109247000043979,True,15
A003K26,844,experiment,168,↓,down,↓,0.6471008999942569,True,15
A003K26,845,experiment,120,→,right,→,0.5026414000021759,True,15
A003K26,846,experiment,24,←,left,←,0.666271299996879,True,15
A003K26,847,experiment,120,↑,up,↑,0.6567473999893991,True,15
A003K26,848,experiment,84,↑,down,↓,0.5763642999954754,False,15
A003K26,849,experiment,108,←,right,→,0.43194039999798406,False,15
