PART_ID,Trial_no,Trial_type,PDI,Stim_letter,Key_pressed,letter_choose,Rt,Corr,Stimulus Time
A004M40,1,training,10,↓,left,←,0.2338605999830179,False,30
A004M40,2,training,10,←,left,←,0.7461706000030972,True,30
A004M40,3,training,10,→,right,→,0.4506876000086777,True,30
A004M40,4,training,10,←,left,←,0.5673018000088632,True,30
A004M40,5,training,10,↑,up,↑,0.7191789000062272,True,30
A004M40,6,training,10,↓,right,→,1.5218831999809481,False,30
A004M40,7,training,10,↓,left,←,1.483286999980919,False,30
A004M40,8,training,10,↑,down,↓,1.6214022999629378,False,30
A004M40,9,training,10,←,left,←,0.9791724999668077,True,30
A004M40,10,training,10,↑,right,→,1.6286927000037394,False,30
A004M40,11,training,10,↑,no_key,no_letter,-1.0,False,30
A004M40,12,training,10,←,right,→,1.547396999958437,False,30
A004M40,13,training,10,↑,up,↑,1.104621100006625,True,30
A004M40,14,training,10,←,left,←,0.9729449000442401,True,30
A004M40,15,training,10,↓,down,↓,0.9469912999775261,True,30
A004M40,16,training,10,↓,down,↓,1.0211933000246063,True,30
A004M40,17,training,10,→,right,→,0.9887220000382513,True,30
A004M40,18,training,10,←,left,←,0.8146338000078686,True,30
A004M40,19,training,10,↑,up,↑,1.048445799970068,True,30
A004M40,20,training,10,↓,down,↓,1.3233085999963805,True,30
A004M40,21,training,10,←,left,←,0.7701083999709226,True,18
A004M40,22,training,10,↓,down,↓,0.8135763000464067,True,18
A004M40,23,training,10,←,up,↑,1.0713425999856554,False,18
A004M40,24,training,10,←,left,←,0.6179450000054203,True,18
A004M40,25,training,10,→,left,←,1.4963848000043072,False,18
A004M40,26,training,10,↑,up,↑,1.282030800008215,True,18
A004M40,27,training,10,↑,down,↓,1.0447425000020303,False,18
A004M40,28,training,10,→,up,↑,1.446559400006663,False,18
A004M40,29,training,10,↓,down,↓,1.0985282000037841,True,18
A004M40,30,training,10,↑,up,↑,0.802227700012736,True,18
A004M40,31,training,144,↓,down,↓,0.8335805999813601,True,15
A004M40,32,training,96,↑,up,↑,0.9521384999970905,True,15
A004M40,33,training,12,↑,left,←,1.2154751000343822,False,15
A004M40,34,experiment,168,→,left,←,0.7842730999691412,False,15
A004M40,35,experiment,60,↓,down,↓,0.8035272000124678,True,15
A004M40,36,experiment,168,↓,down,↓,1.6282185000018217,True,15
A004M40,37,experiment,72,↑,up,↑,1.328329499985557,True,15
A004M40,38,experiment,36,↓,left,←,1.4814164999988861,False,15
A004M40,39,experiment,180,↑,down,↓,1.1015444999793544,False,15
A004M40,40,experiment,132,→,right,→,0.7828110000118613,True,15
A004M40,41,experiment,12,→,left,←,1.51210190000711,False,15
A004M40,42,experiment,72,↑,right,→,0.8822424999671057,False,15
A004M40,43,experiment,48,→,right,→,0.7907657999894582,True,15
A004M40,44,experiment,48,←,left,←,0.6535408000345342,True,15
A004M40,45,experiment,120,↑,up,↑,1.8843612000346184,True,15
A004M40,46,experiment,180,←,right,→,1.5475701999966986,False,15
A004M40,47,experiment,156,←,left,←,0.8762451999937184,True,15
A004M40,48,experiment,180,←,right,→,1.4662965000024997,False,15
A004M40,49,experiment,120,↑,up,↑,1.0423366999602877,True,15
A004M40,50,experiment,24,↓,down,↓,0.8969825999811292,True,15
A004M40,51,experiment,72,↓,down,↓,0.9785336999921128,True,15
A004M40,52,experiment,120,↓,up,↑,1.1474801000440493,False,15
A004M40,53,experiment,60,↓,down,↓,1.1222346000140533,True,15
A004M40,54,experiment,60,↓,down,↓,0.9990566999767907,True,15
A004M40,55,experiment,132,↓,up,↑,1.1307903000270016,False,15
A004M40,56,experiment,96,→,left,←,0.9147343999939039,False,15
A004M40,57,experiment,48,↑,right,→,1.9160630999831483,False,15
A004M40,58,experiment,132,←,left,←,0.8983639999642037,True,15
A004M40,59,experiment,24,→,right,→,0.8175127999857068,True,15
A004M40,60,experiment,72,↑,up,↑,0.6923162000020966,True,15
A004M40,61,experiment,108,→,left,←,1.6283701000502333,False,15
A004M40,62,experiment,144,↓,up,↑,1.299839699990116,False,15
A004M40,63,experiment,96,↓,down,↓,0.9173976000165567,True,15
A004M40,64,experiment,36,←,left,←,0.8847451999899931,True,15
A004M40,65,experiment,168,↑,no_key,no_letter,-1.0,False,15
A004M40,66,experiment,120,→,left,←,0.9499389000120573,False,15
A004M40,67,experiment,84,↑,down,↓,1.5276793999946676,False,15
A004M40,68,experiment,132,↓,down,↓,0.9760827000136487,True,15
A004M40,69,experiment,156,↑,no_key,no_letter,-1.0,False,15
A004M40,70,experiment,12,↓,no_key,no_letter,-1.0,False,15
A004M40,71,experiment,12,→,down,↓,1.5215558999916539,False,15
A004M40,72,experiment,96,←,right,→,1.0798418000340462,False,15
A004M40,73,experiment,36,→,up,↑,1.1190378000028431,False,15
A004M40,74,experiment,108,↑,down,↓,1.4496004999964498,False,15
A004M40,75,experiment,24,←,right,→,1.2181716000195593,False,15
A004M40,76,experiment,156,→,left,←,1.4186290000216104,False,15
A004M40,77,experiment,96,↑,up,↑,1.5985622000298463,True,15
A004M40,78,experiment,180,→,right,→,1.4057008000090718,True,15
A004M40,79,experiment,48,←,left,←,0.8258611999917775,True,15
A004M40,80,experiment,84,↓,right,→,1.6444123000255786,False,15
A004M40,81,experiment,144,→,up,↑,1.4607424000278115,False,15
A004M40,82,experiment,168,↓,down,↓,1.128335099958349,True,15
A004M40,83,experiment,36,↓,up,↑,1.371896900003776,False,15
A004M40,84,experiment,156,→,left,←,0.7815803000121377,False,15
A004M40,85,experiment,12,→,right,→,0.7378867999650538,True,15
A004M40,86,experiment,84,↓,no_key,no_letter,-1.0,False,15
A004M40,87,experiment,84,↑,left,←,1.3524743000161834,False,15
A004M40,88,experiment,60,↑,right,→,1.8608280000044033,False,15
A004M40,89,experiment,144,↓,down,↓,1.845442500023637,True,15
A004M40,90,experiment,144,→,right,→,0.9065398999955505,True,15
A004M40,91,experiment,108,→,right,→,1.368318900000304,True,15
A004M40,92,experiment,108,←,left,←,1.3049118000199087,True,15
A004M40,93,experiment,24,←,up,↑,1.5581542000290938,False,15
A004M40,94,training,132,→,right,→,0.5648765999940224,True,16
A004M40,95,training,36,↓,right,→,1.5054172999807633,False,16
A004M40,96,training,48,↑,up,↑,0.689762800000608,True,16
A004M40,97,experiment,144,→,up,↑,1.2105577000183985,False,16
A004M40,98,experiment,132,←,left,←,1.02874919999158,True,16
A004M40,99,experiment,72,→,no_key,no_letter,-1.0,False,16
A004M40,100,experiment,120,↑,down,↓,1.0449318999890238,False,16
A004M40,101,experiment,36,→,left,←,1.0765126999467611,False,16
A004M40,102,experiment,120,↑,left,←,0.9827053000335582,False,16
A004M40,103,experiment,72,→,right,→,1.011535500001628,True,16
A004M40,104,experiment,156,→,up,↑,1.5230756999808364,False,16
A004M40,105,experiment,96,↓,left,←,0.9906724999891594,False,16
A004M40,106,experiment,12,↑,right,→,1.3357295000459999,False,16
A004M40,107,experiment,108,→,up,↑,1.2153138000285253,False,16
A004M40,108,experiment,48,←,left,←,1.1873925999971107,True,16
A004M40,109,experiment,132,←,left,←,0.65415340004256,True,16
A004M40,110,experiment,36,↑,no_key,no_letter,-1.0,False,16
A004M40,111,experiment,12,↓,left,←,1.1891197999939322,False,16
A004M40,112,experiment,108,←,right,→,0.9907361000077799,False,16
A004M40,113,experiment,60,↑,right,→,1.1837332000141032,False,16
A004M40,114,experiment,132,↓,up,↑,1.0217865000013262,False,16
A004M40,115,experiment,12,←,left,←,1.230374600039795,True,16
A004M40,116,experiment,156,↓,right,→,1.093794299988076,False,16
A004M40,117,experiment,168,↓,down,↓,1.1668038999778219,True,16
A004M40,118,experiment,108,↓,no_key,no_letter,-1.0,False,16
A004M40,119,experiment,180,→,left,←,0.9866577000357211,False,16
A004M40,120,experiment,168,↑,right,→,1.4464320999686606,False,16
A004M40,121,experiment,60,←,right,→,1.3015259999665432,False,16
A004M40,122,experiment,108,↑,down,↓,1.2843611999996938,False,16
A004M40,123,experiment,132,→,right,→,1.2769617000012659,True,16
A004M40,124,experiment,144,↑,up,↑,1.3040811999817379,True,16
A004M40,125,experiment,96,↑,down,↓,1.330737800046336,False,16
A004M40,126,experiment,72,←,right,→,1.0227909000241198,False,16
A004M40,127,experiment,48,←,left,←,0.9713543000398204,True,16
A004M40,128,experiment,120,←,right,→,1.0394710999680683,False,16
A004M40,129,experiment,60,↓,right,→,1.1574217999586836,False,16
A004M40,130,experiment,156,←,left,←,0.9179860000149347,True,16
A004M40,131,experiment,48,↑,down,↓,1.2174655999988317,False,16
A004M40,132,experiment,144,↓,up,↑,0.9701965000131167,False,16
A004M40,133,experiment,12,↓,no_key,no_letter,-1.0,False,16
A004M40,134,experiment,84,→,right,→,1.1527878000051714,True,16
A004M40,135,experiment,48,→,left,←,0.8849412000272423,False,16
A004M40,136,experiment,180,←,right,→,0.8444477999582887,False,16
A004M40,137,experiment,84,←,left,←,0.7201913999742828,True,16
A004M40,138,experiment,24,←,left,←,1.386483300011605,True,16
A004M40,139,experiment,120,→,right,→,0.9496758000459522,True,16
A004M40,140,experiment,24,→,no_key,no_letter,-1.0,False,16
A004M40,141,experiment,96,←,left,←,0.8749764999956824,True,16
A004M40,142,experiment,24,←,right,→,0.8591215999913402,False,16
A004M40,143,experiment,144,←,right,→,1.0296013000188395,False,16
A004M40,144,experiment,156,↓,down,↓,1.10660800000187,True,16
A004M40,145,experiment,72,↓,up,↑,1.0011816999758594,False,16
A004M40,146,experiment,96,↑,up,↑,0.7718231999897398,True,16
A004M40,147,experiment,168,↓,down,↓,0.9919294000137597,True,16
A004M40,148,experiment,36,↓,down,↓,0.8318914000410587,True,16
A004M40,149,experiment,60,↓,down,↓,0.765568400034681,True,16
A004M40,150,experiment,36,←,left,←,0.6379346000030637,True,16
A004M40,151,experiment,180,←,left,←,0.6905047000036575,True,16
A004M40,152,experiment,24,←,right,→,1.335324199986644,False,16
A004M40,153,experiment,84,↓,down,↓,0.8436321999761276,True,16
A004M40,154,experiment,168,↑,left,←,0.9866219999967143,False,16
A004M40,155,experiment,180,↑,down,↓,0.9724035999970511,False,16
A004M40,156,experiment,84,↓,up,↑,0.982367200020235,False,16
A004M40,157,training,84,↑,down,↓,1.0470217999536544,False,17
A004M40,158,training,168,←,left,←,0.7142850999953225,True,17
A004M40,159,training,108,↓,no_key,no_letter,-1.0,False,17
A004M40,160,experiment,84,←,left,←,0.8701419999706559,True,17
A004M40,161,experiment,24,←,left,←,0.5331797000253573,True,17
A004M40,162,experiment,132,→,right,→,0.6563137000193819,True,17
A004M40,163,experiment,108,←,up,↑,1.2640489999903366,False,17
A004M40,164,experiment,72,←,right,→,1.0395254999748431,False,17
A004M40,165,experiment,84,↓,left,←,1.039052799984347,False,17
A004M40,166,experiment,12,→,right,→,0.8758845999836922,True,17
A004M40,167,experiment,120,↓,up,↑,0.9260040000081062,False,17
A004M40,168,experiment,48,→,right,→,1.316830400028266,True,17
A004M40,169,experiment,144,←,left,←,0.7125322999781929,True,17
A004M40,170,experiment,48,→,right,→,0.9213544999947771,True,17
A004M40,171,experiment,36,↑,down,↓,1.2458462999784388,False,17
A004M40,172,experiment,72,↓,up,↑,1.2419316000305116,False,17
A004M40,173,experiment,36,↑,up,↑,0.7517650999943726,True,17
A004M40,174,experiment,108,←,left,←,0.673552899970673,True,17
A004M40,175,experiment,156,↓,down,↓,0.7957024000352249,True,17
A004M40,176,experiment,144,←,left,←,1.2172400000272319,True,17
A004M40,177,experiment,144,↓,down,↓,0.8935361999901943,True,17
A004M40,178,experiment,60,↓,down,↓,0.8282464000512846,True,17
A004M40,179,experiment,156,↑,up,↑,0.7404971999931149,True,17
A004M40,180,experiment,96,←,left,←,0.9551970000029542,True,17
A004M40,181,experiment,60,↑,left,←,1.596259000012651,False,17
A004M40,182,experiment,180,→,right,→,0.9887754000374116,True,17
A004M40,183,experiment,120,↑,up,↑,0.9087140000192448,True,17
A004M40,184,experiment,24,↓,down,↓,0.744292100018356,True,17
A004M40,185,experiment,12,←,right,→,0.9849061999702826,False,17
A004M40,186,experiment,72,↑,no_key,no_letter,-1.0,False,17
A004M40,187,experiment,144,↑,up,↑,1.0467176000238396,True,17
A004M40,188,experiment,96,←,right,→,0.8341703999903984,False,17
A004M40,189,experiment,96,→,right,→,0.8304861999931745,True,17
A004M40,190,experiment,132,↓,down,↓,0.7908663999987766,True,17
A004M40,191,experiment,24,↑,up,↑,0.4931882000528276,True,17
A004M40,192,experiment,168,↑,up,↑,0.9234182999935001,True,17
A004M40,193,experiment,180,↑,up,↑,0.7837783999857493,True,17
A004M40,194,experiment,156,↑,up,↑,0.7763046000036411,True,17
A004M40,195,experiment,156,↑,up,↑,0.6834575000102632,True,17
A004M40,196,experiment,36,→,right,→,1.007290399982594,True,17
A004M40,197,experiment,48,←,left,←,1.0317531999899074,True,17
A004M40,198,experiment,168,↓,down,↓,0.7580794999958016,True,17
A004M40,199,experiment,168,↑,up,↑,0.5789033999899402,True,17
A004M40,200,experiment,180,←,left,←,0.7396541000343859,True,17
A004M40,201,experiment,48,→,no_key,no_letter,-1.0,False,17
A004M40,202,experiment,96,←,left,←,1.2896145000122488,True,17
A004M40,203,experiment,84,←,left,←,0.7424167999997735,True,17
A004M40,204,experiment,120,↓,down,↓,1.2416595999966376,True,17
A004M40,205,experiment,108,→,left,←,1.0422713999869302,False,17
A004M40,206,experiment,84,↑,up,↑,0.9582190000219271,True,17
A004M40,207,experiment,168,↓,down,↓,1.4508642999571748,True,17
A004M40,208,experiment,132,↓,no_key,no_letter,-1.0,False,17
A004M40,209,experiment,180,←,up,↑,1.3332711000111885,False,17
A004M40,210,experiment,60,↑,down,↓,1.1360634000157006,False,17
A004M40,211,experiment,132,↓,down,↓,0.7546817999682389,True,17
A004M40,212,experiment,108,←,left,←,0.7392177999718115,True,17
A004M40,213,experiment,120,←,right,→,1.0708819999708794,False,17
A004M40,214,experiment,72,↓,up,↑,1.3737022000132129,False,17
A004M40,215,experiment,60,↓,up,↑,0.8985741999931633,False,17
A004M40,216,experiment,24,↑,no_key,no_letter,-1.0,False,17
A004M40,217,experiment,12,→,no_key,no_letter,-1.0,False,17
A004M40,218,experiment,12,←,left,←,0.5699397000134923,True,17
A004M40,219,experiment,36,←,left,←,0.6835651000146754,True,17
A004M40,220,training,144,↓,down,↓,1.3236930000130087,True,17
A004M40,221,training,12,↑,up,↑,0.9718745999853127,True,17
A004M40,222,training,156,→,right,→,0.6818621000275016,True,17
A004M40,223,experiment,84,←,left,←,1.091757299960591,True,17
A004M40,224,experiment,156,↓,right,→,0.9505871000001207,False,17
A004M40,225,experiment,144,↑,up,↑,0.5705521000199951,True,17
A004M40,226,experiment,108,↓,down,↓,1.2113123000017367,True,17
A004M40,227,experiment,120,↑,up,↑,0.9538428999949247,True,17
A004M40,228,experiment,180,↑,up,↑,0.8705858999746852,True,17
A004M40,229,experiment,72,↑,up,↑,1.3908314000000246,True,17
A004M40,230,experiment,96,↓,up,↑,0.8814751000027172,False,17
A004M40,231,experiment,180,←,left,←,0.8629703000187874,True,17
A004M40,232,experiment,12,→,right,→,0.8362705000326969,True,17
A004M40,233,experiment,12,←,left,←,0.9280963999917731,True,17
A004M40,234,experiment,132,↓,down,↓,0.7920452000107616,True,17
A004M40,235,experiment,180,↓,down,↓,0.7874141999636777,True,17
A004M40,236,experiment,24,↑,up,↑,0.5127160000265576,True,17
A004M40,237,experiment,132,→,right,→,0.7956511999946088,True,17
A004M40,238,experiment,168,←,left,←,0.6897371999802999,True,17
A004M40,239,experiment,120,↓,down,↓,0.7947772000334226,True,17
A004M40,240,experiment,132,↓,down,↓,0.7393198999925517,True,17
A004M40,241,experiment,168,↓,up,↑,0.9247489999979734,False,17
A004M40,242,experiment,24,↓,down,↓,0.8439528999733739,True,17
A004M40,243,experiment,60,↓,down,↓,1.0566713000298478,True,17
A004M40,244,experiment,156,↓,up,↑,0.9822366000153124,False,17
A004M40,245,experiment,132,→,right,→,0.6680301000014879,True,17
A004M40,246,experiment,36,↑,up,↑,0.9010051000514068,True,17
A004M40,247,experiment,144,↓,down,↓,1.4653410000028089,True,17
A004M40,248,experiment,24,↑,up,↑,0.526889500033576,True,17
A004M40,249,experiment,156,→,right,→,0.5606614000280388,True,17
A004M40,250,experiment,24,←,left,←,1.5876590000116266,True,17
A004M40,251,experiment,36,↓,up,↑,0.8770636999979615,False,17
A004M40,252,experiment,48,↑,up,↑,0.5335431999992579,True,17
A004M40,253,experiment,96,→,right,→,0.5423684999695979,True,17
A004M40,254,experiment,48,↓,down,↓,0.7164525000262074,True,17
A004M40,255,experiment,36,↓,down,↓,0.7703078999766149,True,17
A004M40,256,experiment,156,↓,down,↓,0.8725591000402346,True,17
A004M40,257,experiment,48,↑,up,↑,0.8704695000196807,True,17
A004M40,258,experiment,84,↓,down,↓,1.0027650999836624,True,17
A004M40,259,experiment,72,↑,left,←,1.1690672000404447,False,17
A004M40,260,experiment,48,→,right,→,0.8812533000018448,True,17
A004M40,261,experiment,120,←,left,←,1.0269498000270687,True,17
A004M40,262,experiment,72,↓,up,↑,1.3947728999773972,False,17
A004M40,263,experiment,36,↑,right,→,1.6548787000356242,False,17
A004M40,264,experiment,108,↓,down,↓,0.8277902000118047,True,17
A004M40,265,experiment,60,↓,down,↓,0.6833456000313163,True,17
A004M40,266,experiment,72,→,right,→,0.6137724000145681,True,17
A004M40,267,experiment,60,→,right,→,1.0526173999533057,True,17
A004M40,268,experiment,96,↓,right,→,0.928076800017152,False,17
A004M40,269,experiment,144,↑,up,↑,0.591258900007233,True,17
A004M40,270,experiment,168,→,right,→,0.47203810000792146,True,17
A004M40,271,experiment,12,←,left,←,0.6539799000020139,True,17
A004M40,272,experiment,84,↓,up,↑,1.0661886999732815,False,17
A004M40,273,experiment,108,↓,down,↓,0.8712043999694288,True,17
A004M40,274,experiment,168,←,left,←,0.9396770999883302,True,17
A004M40,275,experiment,96,↑,up,↑,0.7297344999969937,True,17
A004M40,276,experiment,120,↓,down,↓,0.7418540000217035,True,17
A004M40,277,experiment,60,↓,down,↓,0.741341500019189,True,17
A004M40,278,experiment,12,→,left,←,1.0333037999807857,False,17
A004M40,279,experiment,144,↑,up,↑,0.738569799985271,True,17
A004M40,280,experiment,84,→,up,↑,1.2794890999794006,False,17
A004M40,281,experiment,108,↑,down,↓,1.100296599965077,False,17
A004M40,282,experiment,180,↓,down,↓,0.9418630999862216,True,17
A004M40,283,training,12,↓,no_key,no_letter,-1.0,False,17
A004M40,284,training,108,←,right,→,0.9438434000476263,False,17
A004M40,285,training,132,↓,right,→,0.8592081000097096,False,17
A004M40,286,experiment,24,←,right,→,1.07863579998957,False,17
A004M40,287,experiment,72,←,left,←,0.8917183000012301,True,17
A004M40,288,experiment,156,↓,down,↓,0.9988080999464728,True,17
A004M40,289,experiment,96,→,left,←,1.3183146999799646,False,17
A004M40,290,experiment,132,→,right,→,0.6710743000148796,True,17
A004M40,291,experiment,144,←,left,←,0.6933021000004373,True,17
A004M40,292,experiment,72,→,right,→,0.5570155999739654,True,17
A004M40,293,experiment,48,→,right,→,0.4824791999999434,True,17
A004M40,294,experiment,168,←,left,←,0.602068500011228,True,17
A004M40,295,experiment,180,↓,down,↓,0.7879329000134021,True,17
A004M40,296,experiment,36,→,right,→,0.6458375999936834,True,17
A004M40,297,experiment,84,↑,up,↑,0.7700447000097483,True,17
A004M40,298,experiment,72,↓,down,↓,0.823553099995479,True,17
A004M40,299,experiment,132,→,right,→,0.6284368999768049,True,17
A004M40,300,experiment,144,↑,up,↑,0.7120050000376068,True,17
A004M40,301,experiment,180,→,right,→,0.6300525999977253,True,17
A004M40,302,experiment,108,←,left,←,0.6018037000321783,True,17
A004M40,303,experiment,60,↑,up,↑,0.841715499991551,True,17
A004M40,304,experiment,156,←,left,←,0.6446589999832213,True,17
A004M40,305,experiment,108,←,left,←,0.86813690001145,True,17
A004M40,306,experiment,84,→,left,←,0.8084260000032373,False,17
A004M40,307,experiment,132,↑,up,↑,0.6927890999941155,True,17
A004M40,308,experiment,144,←,down,↓,1.1181151999626309,False,17
A004M40,309,experiment,60,↓,up,↑,0.9328276000451297,False,17
A004M40,310,experiment,156,↓,down,↓,1.149702399969101,True,17
A004M40,311,experiment,96,←,down,↓,0.9963517999858595,False,17
A004M40,312,experiment,120,↓,down,↓,0.8191981999552809,True,17
A004M40,313,experiment,168,→,left,←,1.3208392999949865,False,17
A004M40,314,experiment,120,→,right,→,0.573596499976702,True,17
A004M40,315,experiment,48,↑,right,→,1.0023332999553531,False,17
A004M40,316,experiment,168,→,right,→,0.92951320001157,True,17
A004M40,317,experiment,12,↑,up,↑,0.8287114000413567,True,17
A004M40,318,experiment,180,←,left,←,0.5977093999972567,True,17
A004M40,319,experiment,180,←,right,→,0.7544468999840319,False,17
A004M40,320,experiment,108,↑,down,↓,1.0892760999849997,False,17
A004M40,321,experiment,144,↑,up,↑,0.9956113999942318,True,17
A004M40,322,experiment,60,↑,down,↓,0.6865801999811083,False,17
A004M40,323,experiment,12,↑,no_key,no_letter,-1.0,False,17
A004M40,324,experiment,48,↓,up,↑,1.0006038999999873,False,17
A004M40,325,experiment,36,←,left,←,0.6360961000318639,True,17
A004M40,326,experiment,96,→,right,→,0.6431537999887951,True,17
A004M40,327,experiment,96,↑,right,→,1.175586600031238,False,17
A004M40,328,experiment,12,↑,left,←,1.4008208999875933,False,17
A004M40,329,experiment,84,↓,down,↓,0.8155689999694005,True,17
A004M40,330,experiment,36,→,right,→,0.8213950000354089,True,17
A004M40,331,experiment,108,↑,up,↑,1.066774999955669,True,17
A004M40,332,experiment,120,↑,up,↑,0.6919207000173628,True,17
A004M40,333,experiment,36,↑,up,↑,0.6676327999448404,True,17
A004M40,334,experiment,168,→,right,→,0.6797737000160851,True,17
A004M40,335,experiment,60,↑,up,↑,0.8785637999535538,True,17
A004M40,336,experiment,156,→,right,→,0.8133692999836057,True,17
A004M40,337,experiment,132,↑,down,↓,1.0504166999598965,False,17
A004M40,338,experiment,24,↑,right,→,1.5470364000066184,False,17
A004M40,339,experiment,120,←,left,←,0.9932926999754272,True,17
A004M40,340,experiment,84,←,right,→,0.8192991000250913,False,17
A004M40,341,experiment,24,→,no_key,no_letter,-1.0,False,17
A004M40,342,experiment,48,→,right,→,0.8081678000162356,True,17
A004M40,343,experiment,24,↑,left,←,1.0445759000140242,False,17
A004M40,344,experiment,72,↓,up,↑,1.0920804000343196,False,17
A004M40,345,experiment,12,↓,down,↓,0.8285903999931179,True,17
A004M40,346,training,120,→,right,→,0.5518722999840975,True,17
A004M40,347,training,168,←,left,←,0.6996862000087276,True,17
A004M40,348,training,12,←,left,←,0.5459094999823719,True,17
A004M40,349,experiment,72,←,right,→,0.8279554999899119,False,17
A004M40,350,experiment,84,←,left,←,0.6403114999993704,True,17
A004M40,351,experiment,108,↓,down,↓,0.8122637000051327,True,17
A004M40,352,experiment,180,↑,up,↑,0.5644907000241801,True,17
A004M40,353,experiment,108,↓,up,↑,0.7784212999977171,False,17
A004M40,354,experiment,168,←,right,→,0.8436314000282437,False,17
A004M40,355,experiment,24,→,down,↓,0.9457533999811858,False,17
A004M40,356,experiment,60,→,right,→,0.5773855000152253,True,17
A004M40,357,experiment,120,↑,up,↑,0.5596402999944985,True,17
A004M40,358,experiment,12,→,right,→,1.0411754000233486,True,17
A004M40,359,experiment,180,↓,down,↓,0.7984075999702327,True,17
A004M40,360,experiment,72,→,down,↓,1.7544174999929965,False,17
A004M40,361,experiment,48,←,up,↑,1.084316199994646,False,17
A004M40,362,experiment,180,↑,right,→,1.1481798999593593,False,17
A004M40,363,experiment,96,←,up,↑,0.9006760999909602,False,17
A004M40,364,experiment,12,↑,up,↑,0.6586225000210106,True,17
A004M40,365,experiment,36,↓,down,↓,0.7586640999652445,True,17
A004M40,366,experiment,72,←,right,→,1.0044039000058547,False,17
A004M40,367,experiment,24,→,right,→,1.2730135999736376,True,17
A004M40,368,experiment,156,↑,up,↑,1.061066199967172,True,17
A004M40,369,experiment,60,↓,down,↓,1.0992741999798454,True,17
A004M40,370,experiment,144,→,right,→,0.5565282999887131,True,17
A004M40,371,experiment,84,→,left,←,0.8470707000233233,False,17
A004M40,372,experiment,72,↑,up,↑,0.8769215999636799,True,17
A004M40,373,experiment,120,←,left,←,0.7539791000308469,True,17
A004M40,374,experiment,48,↓,right,→,0.9048571000457741,False,17
A004M40,375,experiment,24,→,up,↑,0.7889546999940649,False,17
A004M40,376,experiment,144,↓,down,↓,0.8873564000241458,True,17
A004M40,377,experiment,60,↓,down,↓,1.4949518999783322,True,17
A004M40,378,experiment,60,↓,down,↓,0.6830576999927871,True,17
A004M40,379,experiment,168,↓,down,↓,0.7571843999903649,True,17
A004M40,380,experiment,156,↓,down,↓,0.8032787999836728,True,17
A004M40,381,experiment,156,↓,down,↓,0.9088360000168905,True,17
A004M40,382,experiment,48,→,right,→,1.2153410000028089,True,17
A004M40,383,experiment,36,←,left,←,0.6680643000290729,True,17
A004M40,384,experiment,132,←,left,←,0.6195404999889433,True,17
A004M40,385,experiment,120,←,left,←,0.7034121000324376,True,17
A004M40,386,experiment,132,←,right,→,0.8654512999928556,False,17
A004M40,387,experiment,132,↑,down,↓,1.112984100007452,False,17
A004M40,388,experiment,108,↓,down,↓,0.7356270999880508,True,17
A004M40,389,experiment,96,→,right,→,0.8662890000268817,True,17
A004M40,390,experiment,156,←,left,←,0.7803453000378795,True,17
A004M40,391,experiment,36,↑,up,↑,1.02415369998198,True,17
A004M40,392,experiment,132,↓,down,↓,1.0616935000289232,True,17
A004M40,393,experiment,84,↑,up,↑,0.5265452999738045,True,17
A004M40,394,experiment,12,↑,up,↑,0.48310059995856136,True,17
A004M40,395,experiment,48,←,left,←,0.6336069999961182,True,17
A004M40,396,experiment,12,↓,down,↓,0.7728610999765806,True,17
A004M40,397,experiment,168,↑,up,↑,0.5855881000170484,True,17
A004M40,398,experiment,168,←,no_key,no_letter,-1.0,False,17
A004M40,399,experiment,144,→,right,→,0.761597900011111,True,17
A004M40,400,experiment,96,↑,down,↓,1.1862846000003628,False,17
A004M40,401,experiment,36,←,left,←,0.7336933999904431,True,17
A004M40,402,experiment,108,↑,up,↑,1.6675033000065014,True,17
A004M40,403,experiment,180,←,left,←,0.9636593000032008,True,17
A004M40,404,experiment,120,←,left,←,0.921769000007771,True,17
A004M40,405,experiment,24,↓,down,↓,0.7089679000200704,True,17
A004M40,406,experiment,144,↑,up,↑,0.474831199971959,True,17
A004M40,407,experiment,84,←,left,←,0.5354137999820523,True,17
A004M40,408,experiment,96,↓,down,↓,0.754450700012967,True,17
A004M40,409,training,96,→,right,→,0.9954000999568962,True,17
A004M40,410,training,60,↓,down,↓,0.7298695999779738,True,17
A004M40,411,training,132,←,left,←,0.687632700020913,True,17
A004M40,412,experiment,48,→,right,→,0.4676723000011407,True,17
A004M40,413,experiment,108,↓,down,↓,0.8375230999663472,True,17
A004M40,414,experiment,24,↓,down,↓,0.9437213999917731,True,17
A004M40,415,experiment,60,←,left,←,0.7688399999751709,True,17
A004M40,416,experiment,108,↑,up,↑,0.8554251000168733,True,17
A004M40,417,experiment,168,→,right,→,0.5103221000172198,True,17
A004M40,418,experiment,24,←,left,←,0.6152330000186339,True,17
A004M40,419,experiment,168,↓,down,↓,1.281431999988854,True,17
A004M40,420,experiment,120,←,left,←,0.6933893000241369,True,17
A004M40,421,experiment,180,↑,up,↑,0.588043799973093,True,17
A004M40,422,experiment,72,↑,up,↑,0.5812045999919064,True,17
A004M40,423,experiment,60,←,left,←,0.6245865999953821,True,17
A004M40,424,experiment,12,←,no_key,no_letter,-1.0,False,17
A004M40,425,experiment,84,↓,down,↓,0.7968651999835856,True,17
A004M40,426,experiment,36,↑,down,↓,1.527471899986267,False,17
A004M40,427,experiment,144,→,right,→,0.7630686999764293,True,17
A004M40,428,experiment,12,→,down,↓,1.6214599999948405,False,17
A004M40,429,experiment,84,↑,up,↑,1.293564400053583,True,17
A004M40,430,experiment,156,→,left,←,1.015833500016015,False,17
A004M40,431,experiment,60,→,right,→,0.613452999969013,True,17
A004M40,432,experiment,24,↑,up,↑,0.633921200002078,True,17
A004M40,433,experiment,168,→,right,→,0.47740249999333173,True,17
A004M40,434,experiment,180,←,left,←,1.0566695000161417,True,17
A004M40,435,experiment,96,←,left,←,1.3794360000174493,True,17
A004M40,436,experiment,36,←,right,→,0.8052084000082687,False,17
A004M40,437,experiment,156,←,right,→,1.1545353999827057,False,17
A004M40,438,experiment,156,→,right,→,0.6719163000234403,True,17
A004M40,439,experiment,120,↑,up,↑,0.5777030999888666,True,17
A004M40,440,experiment,180,←,left,←,0.7415952000301331,True,17
A004M40,441,experiment,120,↓,down,↓,1.4813069999800064,True,17
A004M40,442,experiment,72,↓,down,↓,0.7440736000426114,True,17
A004M40,443,experiment,144,↑,up,↑,0.9392816000035964,True,17
A004M40,444,experiment,96,↓,up,↑,1.6304024999844842,False,17
A004M40,445,experiment,132,←,right,→,0.8398061000043526,False,17
A004M40,446,experiment,36,→,right,→,0.7729683999787085,True,17
A004M40,447,experiment,108,↓,down,↓,0.7756288999808021,True,17
A004M40,448,experiment,132,←,left,←,0.7953940000152215,True,17
A004M40,449,experiment,180,←,right,→,0.8242446999647655,False,17
A004M40,450,experiment,132,←,left,←,0.7677001999691129,True,17
A004M40,451,experiment,84,↓,right,→,1.0506938000326045,False,17
A004M40,452,experiment,72,↓,right,→,0.8754573999904096,False,17
A004M40,453,experiment,84,←,down,↓,0.9788903999724425,False,17
A004M40,454,experiment,144,←,left,←,0.8339785999851301,True,17
A004M40,455,experiment,48,↓,down,↓,0.8068244999740273,True,17
A004M40,456,experiment,24,↓,up,↑,0.9600036999909207,False,17
A004M40,457,experiment,132,↑,up,↑,0.6875594999874011,True,17
A004M40,458,experiment,156,↑,up,↑,0.7695747999823652,True,17
A004M40,459,experiment,108,↓,down,↓,0.8410707000293769,True,17
A004M40,460,experiment,120,↑,up,↑,0.6247421000152826,True,17
A004M40,461,experiment,96,↓,down,↓,1.1496546000125818,True,17
A004M40,462,experiment,48,↓,up,↑,1.7382405999815091,False,17
A004M40,463,experiment,12,→,right,→,0.8688778000068851,True,17
A004M40,464,experiment,96,←,left,←,0.8468425999744795,True,17
A004M40,465,experiment,60,↓,down,↓,0.7053740000119433,True,17
A004M40,466,experiment,72,↓,no_key,no_letter,-1.0,False,17
A004M40,467,experiment,144,→,no_key,no_letter,-1.0,False,17
A004M40,468,experiment,48,↑,up,↑,1.060883600031957,True,17
A004M40,469,experiment,12,→,left,←,0.8215956000494771,False,17
A004M40,470,experiment,36,←,left,←,0.6251909999991767,True,17
A004M40,471,experiment,168,←,right,→,0.8204540999722667,False,17
A004M40,472,training,36,←,left,←,0.9348304999875836,True,17
A004M40,473,training,96,→,right,→,0.5834053999860771,True,17
A004M40,474,training,36,↑,left,←,0.8800929000135511,False,17
A004M40,475,experiment,72,→,left,←,0.7867431999766268,False,17
A004M40,476,experiment,120,←,right,→,0.9189118999638595,False,17
A004M40,477,experiment,36,↓,down,↓,0.855008100043051,True,17
A004M40,478,experiment,84,←,left,←,0.6155553999706171,True,17
A004M40,479,experiment,180,→,right,→,0.7735949999769218,True,17
A004M40,480,experiment,132,←,left,←,0.5176812999998219,True,17
A004M40,481,experiment,132,↓,right,→,1.029150500020478,False,17
A004M40,482,experiment,144,→,right,→,0.5634490000084043,True,17
A004M40,483,experiment,12,→,right,→,0.8537003999808803,True,17
A004M40,484,experiment,84,←,left,←,0.6003272999660112,True,17
A004M40,485,experiment,156,↑,no_key,no_letter,-1.0,False,17
A004M40,486,experiment,60,←,left,←,0.6148095999960788,True,17
A004M40,487,experiment,72,↑,no_key,no_letter,-1.0,False,17
A004M40,488,experiment,60,←,left,←,0.5444869000348262,True,17
A004M40,489,experiment,108,↓,right,→,0.8285190999740735,False,17
A004M40,490,experiment,72,↑,up,↑,0.9012843999662437,True,17
A004M40,491,experiment,180,→,right,→,0.8095938000478782,True,17
A004M40,492,experiment,132,→,down,↓,1.160613700048998,False,17
A004M40,493,experiment,144,↑,up,↑,0.5843775999965146,True,17
A004M40,494,experiment,108,→,right,→,0.7728235999820754,True,17
A004M40,495,experiment,96,←,left,←,0.647374399995897,True,17
A004M40,496,experiment,108,←,right,→,0.9405519999563694,False,17
A004M40,497,experiment,144,→,right,→,0.6017844000016339,True,17
A004M40,498,experiment,120,→,right,→,1.065822799981106,True,17
A004M40,499,experiment,60,↑,up,↑,0.5998341999948025,True,17
A004M40,500,experiment,12,↑,up,↑,0.5040352999931201,True,17
A004M40,501,experiment,24,←,right,→,0.8693348999950103,False,17
A004M40,502,experiment,12,↑,up,↑,0.6449741999967955,True,17
A004M40,503,experiment,168,↓,down,↓,1.1060066999634728,True,17
A004M40,504,experiment,24,↓,up,↑,1.1317536000278778,False,17
A004M40,505,experiment,108,←,right,→,0.7976025000098161,False,17
A004M40,506,experiment,180,→,right,→,0.7923871999955736,True,17
A004M40,507,experiment,48,↑,right,→,1.1634667999460362,False,17
A004M40,508,experiment,48,↓,up,↑,0.7925380999804474,False,17
A004M40,509,experiment,24,↓,down,↓,0.9153576999669895,True,17
A004M40,510,experiment,36,↑,up,↑,0.49915009998949245,True,17
A004M40,511,experiment,60,←,down,↓,0.9327985999989323,False,17
A004M40,512,experiment,120,↑,up,↑,0.5895083999494091,True,17
A004M40,513,experiment,96,→,up,↑,1.2513330000219867,False,17
A004M40,514,experiment,48,→,right,→,0.6539848999818787,True,17
A004M40,515,experiment,168,→,right,→,0.7519713999936357,True,17
A004M40,516,experiment,36,↓,right,→,0.8593773999600671,False,17
A004M40,517,experiment,84,↓,up,↑,1.6220731000066735,False,17
A004M40,518,experiment,24,→,right,→,0.9081086000078358,True,17
A004M40,519,experiment,156,→,right,→,0.7378539000055753,True,17
A004M40,520,experiment,96,↓,down,↓,0.7558928999933414,True,17
A004M40,521,experiment,48,→,right,→,0.5391363999806345,True,17
A004M40,522,experiment,144,→,right,→,0.7476009000092745,True,17
A004M40,523,experiment,168,↓,down,↓,0.8150932000135072,True,17
A004M40,524,experiment,156,→,right,→,0.5253042999538593,True,17
A004M40,525,experiment,156,→,right,→,0.890116200025659,True,17
A004M40,526,experiment,84,↑,no_key,no_letter,-1.0,False,17
A004M40,527,experiment,96,→,down,↓,1.2095169000094756,False,17
A004M40,528,experiment,180,↑,up,↑,0.8611868000007235,True,17
A004M40,529,experiment,12,↑,down,↓,1.0559914000332355,False,17
A004M40,530,experiment,72,↑,down,↓,1.011025499959942,False,17
A004M40,531,experiment,168,↓,no_key,no_letter,-1.0,False,17
A004M40,532,experiment,132,←,left,←,0.8921772000030614,True,17
A004M40,533,experiment,120,↓,down,↓,0.749339499976486,True,17
A004M40,534,experiment,36,↓,down,↓,0.7599201999837533,True,17
A004M40,535,training,60,↑,down,↓,0.8236228000023402,False,17
A004M40,536,training,132,→,down,↓,0.9133964999928139,False,17
A004M40,537,training,96,↑,down,↓,1.1334526999853551,False,17
A004M40,538,experiment,96,←,down,↓,0.6415588000090793,False,17
A004M40,539,experiment,120,↓,down,↓,0.7827118000132032,True,17
A004M40,540,experiment,84,→,left,←,0.8303217000211589,False,17
A004M40,541,experiment,132,↑,up,↑,0.6266714999801479,True,17
A004M40,542,experiment,156,↑,up,↑,1.1337656000396237,True,17
A004M40,543,experiment,120,↑,down,↓,0.9448077999986708,False,17
A004M40,544,experiment,132,↓,down,↓,0.6795452999649569,True,17
A004M40,545,experiment,48,↑,up,↑,0.5294195000315085,True,17
A004M40,546,experiment,168,→,right,→,0.6987772999564186,True,17
A004M40,547,experiment,96,↑,down,↓,1.5668921999749728,False,17
A004M40,548,experiment,108,↓,down,↓,0.8007866999832913,True,17
A004M40,549,experiment,36,↓,no_key,no_letter,-1.0,False,17
A004M40,550,experiment,12,↑,left,←,0.017908899986650795,False,17
A004M40,551,experiment,180,↑,up,↑,0.7915427999687381,True,17
A004M40,552,experiment,36,←,left,←,0.6195889999507926,True,17
A004M40,553,experiment,156,↓,down,↓,0.7525636999635026,True,17
A004M40,554,experiment,132,→,left,←,0.8258891000295989,False,17
A004M40,555,experiment,108,↑,up,↑,0.5626447000540793,True,17
A004M40,556,experiment,180,↑,up,↑,0.5100119999842718,True,17
A004M40,557,experiment,120,↑,up,↑,0.4953584999893792,True,17
A004M40,558,experiment,156,→,left,←,0.6010757000185549,False,17
A004M40,559,experiment,72,←,right,→,0.78861250000773,False,17
A004M40,560,experiment,60,↑,up,↑,0.4682734999805689,True,17
A004M40,561,experiment,84,←,left,←,0.5434003000264056,True,17
A004M40,562,experiment,60,↑,right,→,1.3139664999907836,False,17
A004M40,563,experiment,84,←,left,←,0.888474999985192,True,17
A004M40,564,experiment,180,↑,right,→,0.8865774000296369,False,17
A004M40,565,experiment,144,→,right,→,0.5259209999931045,True,17
A004M40,566,experiment,12,→,right,→,0.7395988999633119,True,17
A004M40,567,experiment,156,→,left,←,0.8441973000299186,False,17
A004M40,568,experiment,180,↓,up,↑,0.7077237000339665,False,17
A004M40,569,experiment,168,↓,up,↑,0.8832920999848284,False,17
A004M40,570,experiment,108,↑,up,↑,0.4952742999885231,True,17
A004M40,571,experiment,168,↑,up,↑,0.7533142999745905,True,17
A004M40,572,experiment,96,←,left,←,0.8669676000135951,True,17
A004M40,573,experiment,48,↓,up,↑,0.8598058999632485,False,17
A004M40,574,experiment,72,←,left,←,0.9280334999784827,True,17
A004M40,575,experiment,72,←,no_key,no_letter,-1.0,False,17
A004M40,576,experiment,120,→,right,→,0.5630284999497235,True,17
A004M40,577,experiment,144,←,left,←,0.936221799987834,True,17
A004M40,578,experiment,12,↑,right,→,1.0796012000064366,False,17
A004M40,579,experiment,36,↓,right,→,0.9524777000187896,False,17
A004M40,580,experiment,84,↓,up,↑,0.8786999000003561,False,17
A004M40,581,experiment,48,←,left,←,0.7333688999642618,True,17
A004M40,582,experiment,132,↓,down,↓,0.8855581000098027,True,17
A004M40,583,experiment,144,↓,down,↓,0.7651676000095904,True,17
A004M40,584,experiment,24,↑,up,↑,0.9367174999788404,True,17
A004M40,585,experiment,168,→,right,→,0.7210937999770977,True,17
A004M40,586,experiment,108,→,right,→,0.8626833000453189,True,17
A004M40,587,experiment,24,←,no_key,no_letter,-1.0,False,17
A004M40,588,experiment,72,←,left,←,0.8634444000199437,True,17
A004M40,589,experiment,24,←,right,→,1.0119073999812827,False,17
A004M40,590,experiment,144,↓,down,↓,0.9336334000108764,True,17
A004M40,591,experiment,24,→,up,↑,1.0514957000268623,False,17
A004M40,592,experiment,12,↓,down,↓,0.8964085000334308,True,17
A004M40,593,experiment,36,←,down,↓,1.3355416000122204,False,17
A004M40,594,experiment,60,→,up,↑,1.2026507999980822,False,17
A004M40,595,experiment,60,←,down,↓,1.1816188000375405,False,17
A004M40,596,experiment,96,→,right,→,0.5191607999731787,True,17
A004M40,597,experiment,48,←,left,←,0.9467224999680184,True,17
A004M40,598,training,180,←,left,←,1.035454099997878,True,18
A004M40,599,training,60,←,left,←,0.6776813000324182,True,18
A004M40,600,training,144,↑,down,↓,0.9799834999721497,False,18
A004M40,601,experiment,36,↑,up,↑,0.9811358000151813,True,18
A004M40,602,experiment,108,↑,down,↓,1.1470057999831624,False,18
A004M40,603,experiment,180,←,right,→,0.7861894000088796,False,18
A004M40,604,experiment,108,←,down,↓,1.120037799992133,False,18
A004M40,605,experiment,60,→,no_key,no_letter,-1.0,False,18
A004M40,606,experiment,108,↑,right,→,0.8610177999944426,False,18
A004M40,607,experiment,180,→,right,→,0.5490116999717429,True,18
A004M40,608,experiment,96,←,left,←,0.7673253000248224,True,18
A004M40,609,experiment,168,→,right,→,0.5049931000103243,True,18
A004M40,610,experiment,144,→,right,→,0.3834583999705501,True,18
A004M40,611,experiment,72,↓,up,↑,0.9219564999802969,False,18
A004M40,612,experiment,72,←,right,→,0.8441052000271156,False,18
A004M40,613,experiment,96,←,left,←,0.7592352000065148,True,18
A004M40,614,experiment,132,↓,down,↓,1.1618413000251167,True,18
A004M40,615,experiment,144,↓,down,↓,0.7879976000403985,True,18
A004M40,616,experiment,36,↓,down,↓,0.7273188999970444,True,18
A004M40,617,experiment,120,←,right,→,0.7516085000243038,False,18
A004M40,618,experiment,48,←,right,→,0.8219249999965541,False,18
A004M40,619,experiment,96,←,left,←,0.6056029999745078,True,18
A004M40,620,experiment,12,→,right,→,0.6960591999813914,True,18
A004M40,621,experiment,156,↓,down,↓,0.7522985000396147,True,18
A004M40,622,experiment,84,↑,up,↑,0.7885737000033259,True,18
A004M40,623,experiment,180,↓,down,↓,0.7500696999486536,True,18
A004M40,624,experiment,24,↓,up,↑,1.0875754000153393,False,18
A004M40,625,experiment,168,↓,down,↓,0.8060344000114128,True,18
A004M40,626,experiment,156,↓,down,↓,0.6841944999760017,True,18
A004M40,627,experiment,60,↑,up,↑,0.6236372999846935,True,18
A004M40,628,experiment,168,↑,up,↑,0.7112440000055358,True,18
A004M40,629,experiment,12,←,left,←,0.6527416000026278,True,18
A004M40,630,experiment,156,→,right,→,0.5405657999799587,True,18
A004M40,631,experiment,24,↑,right,→,1.250062800012529,False,18
A004M40,632,experiment,12,←,left,←,0.988089399994351,True,18
A004M40,633,experiment,48,←,left,←,0.9435108000179753,True,18
A004M40,634,experiment,144,←,left,←,0.6869144999654964,True,18
A004M40,635,experiment,84,↓,right,→,0.6525602000183426,False,18
A004M40,636,experiment,96,↓,right,→,1.1254350999952294,False,18
A004M40,637,experiment,108,←,right,→,0.5859307000064291,False,18
A004M40,638,experiment,120,→,right,→,0.6770451000193134,True,18
A004M40,639,experiment,168,←,right,→,0.5204550999915227,False,18
A004M40,640,experiment,180,↑,right,→,0.7346262999926694,False,18
A004M40,641,experiment,84,↑,no_key,no_letter,-1.0,False,18
A004M40,642,experiment,60,↓,up,↑,1.9321816999581642,False,18
A004M40,643,experiment,132,↑,down,↓,1.909421599993948,False,18
A004M40,644,experiment,36,↑,up,↑,0.8424012999748811,True,18
A004M40,645,experiment,72,→,right,→,1.0796257000183687,True,18
A004M40,646,experiment,120,←,left,←,0.5924582000006922,True,18
A004M40,647,experiment,132,←,right,→,0.6982364999712445,False,18
A004M40,648,experiment,24,←,right,→,0.6141811999841593,False,18
A004M40,649,experiment,144,↑,up,↑,0.6348191000288352,True,18
A004M40,650,experiment,24,→,up,↑,0.8576379000442103,False,18
A004M40,651,experiment,48,→,right,→,0.7053850999800488,True,18
A004M40,652,experiment,48,→,right,→,0.9857958000502549,True,18
A004M40,653,experiment,60,↓,down,↓,0.8346581000369042,True,18
A004M40,654,experiment,36,→,left,←,0.8870566000114195,False,18
A004M40,655,experiment,12,←,left,←,0.7266581999720074,True,18
A004M40,656,experiment,72,↓,up,↑,0.9197352000046521,False,18
A004M40,657,experiment,132,←,down,↓,1.0161156000103801,False,18
A004M40,658,experiment,120,↓,right,→,0.8940198000054806,False,18
A004M40,659,experiment,156,→,right,→,0.534991699969396,True,18
A004M40,660,experiment,84,→,no_key,no_letter,-1.0,False,18
A004M40,661,training,132,↓,down,↓,0.8271957000251859,True,18
A004M40,662,training,108,↑,up,↑,0.5318743000389077,True,18
A004M40,663,training,108,←,left,←,0.5784869000199251,True,18
A004M40,664,experiment,96,←,left,←,0.6762003999901935,True,18
A004M40,665,experiment,84,←,left,←,0.6707803000463173,True,18
A004M40,666,experiment,180,↑,up,↑,0.5781799000105821,True,18
A004M40,667,experiment,96,→,right,→,0.5740426999982446,True,18
A004M40,668,experiment,72,↑,up,↑,0.6098890999564901,True,18
A004M40,669,experiment,60,↑,up,↑,0.6001926999888383,True,18
A004M40,670,experiment,60,←,up,↑,1.1562107000499964,False,18
A004M40,671,experiment,48,←,down,↓,1.1817343999864534,False,18
A004M40,672,experiment,132,←,down,↓,0.9253898000461049,False,18
A004M40,673,experiment,120,↓,down,↓,0.7080168999964371,True,18
A004M40,674,experiment,12,←,left,←,1.1374882000382058,True,18
A004M40,675,experiment,60,↓,down,↓,0.7351171000045724,True,18
A004M40,676,experiment,156,→,right,→,0.904278100002557,True,18
A004M40,677,experiment,48,→,up,↑,1.133038999978453,False,18
A004M40,678,experiment,12,↓,down,↓,0.8020642999908887,True,18
A004M40,679,experiment,108,↑,up,↑,1.2958180000423454,True,18
A004M40,680,experiment,132,→,no_key,no_letter,-1.0,False,18
A004M40,681,experiment,24,→,right,→,0.703841500042472,True,18
A004M40,682,experiment,24,↑,right,→,1.4594570000190288,False,18
A004M40,683,experiment,12,→,down,↓,1.6180540000204928,False,18
A004M40,684,experiment,168,→,up,↑,0.8435783999739215,False,18
A004M40,685,experiment,180,→,no_key,no_letter,-1.0,False,18
A004M40,686,experiment,156,→,no_key,no_letter,-1.0,False,18
A004M40,687,experiment,24,↑,up,↑,0.7557216999703087,True,18
A004M40,688,experiment,24,↓,no_key,no_letter,-1.0,False,18
A004M40,689,experiment,60,→,right,→,0.5941511000273749,True,18
A004M40,690,experiment,48,←,left,←,0.5119046000181697,True,18
A004M40,691,experiment,36,↑,up,↑,0.5421806999947876,True,18
A004M40,692,experiment,156,←,right,→,1.1041494000237435,False,18
A004M40,693,experiment,36,↑,up,↑,1.2118465999956243,True,18
A004M40,694,experiment,132,↓,down,↓,1.3160656999680214,True,18
A004M40,695,experiment,168,↑,no_key,no_letter,-1.0,False,18
A004M40,696,experiment,108,←,right,→,0.5893826999817975,False,18
A004M40,697,experiment,156,↓,down,↓,0.8631101000355557,True,18
A004M40,698,experiment,168,↓,down,↓,1.2250444000237621,True,18
A004M40,699,experiment,36,→,right,→,0.6840990000055172,True,18
A004M40,700,experiment,36,←,right,→,1.055979800003115,False,18
A004M40,701,experiment,144,←,right,→,1.7646720000193454,False,18
A004M40,702,experiment,120,→,no_key,no_letter,-1.0,False,18
A004M40,703,experiment,168,↑,left,←,0.9611641999799758,False,18
A004M40,704,experiment,72,↑,left,←,1.1779221999458969,False,18
A004M40,705,experiment,48,↑,down,↓,0.9911630999995396,False,18
A004M40,706,experiment,96,←,right,→,0.5569995999685489,False,18
A004M40,707,experiment,144,→,right,→,0.5087385000078939,True,18
A004M40,708,experiment,120,↓,down,↓,0.7807452999986708,True,18
A004M40,709,experiment,144,↓,up,↑,0.9106729999766685,False,18
A004M40,710,experiment,84,↓,down,↓,0.8282415000139736,True,18
A004M40,711,experiment,72,→,right,→,0.5917807000223547,True,18
A004M40,712,experiment,12,←,left,←,0.7104442000272684,True,18
A004M40,713,experiment,132,→,right,→,0.6599096999852918,True,18
A004M40,714,experiment,108,←,right,→,0.520689399971161,False,18
A004M40,715,experiment,84,→,right,→,0.7166216999758035,True,18
A004M40,716,experiment,96,↑,up,↑,0.5934009000193328,True,18
A004M40,717,experiment,180,←,right,→,0.7600669999956153,False,18
A004M40,718,experiment,120,↓,up,↑,0.9942903000046499,False,18
A004M40,719,experiment,144,→,right,→,0.4968288000090979,True,18
A004M40,720,experiment,84,→,right,→,0.681012999964878,True,18
A004M40,721,experiment,72,←,left,←,0.6896502000163309,True,18
A004M40,722,experiment,108,→,left,←,0.9222588000120595,False,18
A004M40,723,experiment,180,→,right,→,0.4934073999756947,True,18
A004M40,724,training,24,↓,no_key,no_letter,-1.0,False,18
A004M40,725,training,48,→,right,→,0.9262968999682926,True,18
A004M40,726,training,72,←,up,↑,0.8053854999598116,False,18
A004M40,727,experiment,12,↑,up,↑,0.7133105000248179,True,18
A004M40,728,experiment,48,←,down,↓,0.9739950000075623,False,18
A004M40,729,experiment,72,↑,down,↓,1.4613824000116438,False,18
A004M40,730,experiment,156,↑,down,↓,1.1259857999975793,False,18
A004M40,731,experiment,96,↑,down,↓,1.717753300035838,False,18
A004M40,732,experiment,72,↓,down,↓,1.028066300030332,True,18
A004M40,733,experiment,180,←,no_key,no_letter,-1.0,False,18
A004M40,734,experiment,120,↑,no_key,no_letter,-1.0,False,18
A004M40,735,experiment,144,→,down,↓,0.6136834999779239,False,18
A004M40,736,experiment,144,→,down,↓,1.1121135000139475,False,18
A004M40,737,experiment,156,↑,no_key,no_letter,-1.0,False,18
A004M40,738,experiment,108,→,no_key,no_letter,-1.0,False,18
A004M40,739,experiment,36,←,no_key,no_letter,-1.0,False,18
A004M40,740,experiment,24,→,no_key,no_letter,-1.0,False,18
A004M40,741,experiment,12,↓,down,↓,1.6775844999938272,True,18
A004M40,742,experiment,72,↓,right,→,0.8910765000036918,False,18
A004M40,743,experiment,132,↑,up,↑,0.7830534999957308,True,18
A004M40,744,experiment,108,→,no_key,no_letter,-1.0,False,18
A004M40,745,experiment,168,↓,down,↓,1.468364299973473,True,18
A004M40,746,experiment,60,←,up,↑,1.091736399976071,False,18
A004M40,747,experiment,36,→,down,↓,1.568350699963048,False,18
A004M40,748,experiment,132,→,right,→,1.3151051999884658,True,18
A004M40,749,experiment,84,↑,up,↑,1.113630399981048,True,18
A004M40,750,experiment,96,→,up,↑,1.0275857000378892,False,18
A004M40,751,experiment,48,←,up,↑,1.299756599997636,False,18
A004M40,752,experiment,96,←,left,←,0.6025689999805763,True,18
A004M40,753,experiment,48,→,left,←,1.107797099975869,False,18
A004M40,754,experiment,24,→,right,→,1.381483000004664,True,18
A004M40,755,experiment,180,→,right,→,0.4757736999890767,True,18
A004M40,756,experiment,144,←,left,←,0.9352230000076815,True,18
A004M40,757,experiment,60,←,left,←,0.7679359000176191,True,18
A004M40,758,experiment,168,←,left,←,0.8529588999808766,True,18
A004M40,759,experiment,24,↓,down,↓,0.9016831999761052,True,18
A004M40,760,experiment,180,→,no_key,no_letter,-1.0,False,18
A004M40,761,experiment,60,↓,down,↓,0.9305298000108451,True,18
A004M40,762,experiment,36,↓,down,↓,0.769673100032378,True,18
A004M40,763,experiment,120,↑,right,→,0.06719089997932315,False,18
A004M40,764,experiment,120,↑,up,↑,0.8484137999475934,True,18
A004M40,765,experiment,120,←,left,←,0.5844022000092082,True,18
A004M40,766,experiment,132,→,right,→,0.4786768000340089,True,18
A004M40,767,experiment,60,→,left,←,0.6926488000317477,False,18
A004M40,768,experiment,180,↑,up,↑,0.7002319999737665,True,18
A004M40,769,experiment,168,↓,down,↓,0.8387757000164129,True,18
A004M40,770,experiment,108,↓,down,↓,0.695695300004445,True,18
A004M40,771,experiment,12,↑,up,↑,0.8969008999993093,True,18
A004M40,772,experiment,72,↑,up,↑,0.6451523000141606,True,18
A004M40,773,experiment,84,←,right,→,0.8254114000010304,False,18
A004M40,774,experiment,156,→,right,→,0.6762488000094891,True,18
A004M40,775,experiment,168,→,no_key,no_letter,-1.0,False,18
A004M40,776,experiment,132,↑,up,↑,0.6018581999815069,True,18
A004M40,777,experiment,24,→,right,→,0.9498821999877691,True,18
A004M40,778,experiment,156,↑,up,↑,0.5867271000170149,True,18
A004M40,779,experiment,48,→,up,↑,0.8405420999624766,False,18
A004M40,780,experiment,84,↑,up,↑,0.5740238999715075,True,18
A004M40,781,experiment,108,↑,down,↓,1.2454252000316046,False,18
A004M40,782,experiment,12,↑,up,↑,0.6019225000054576,True,18
A004M40,783,experiment,36,↓,down,↓,0.7859662999981083,True,18
A004M40,784,experiment,84,↑,no_key,no_letter,-1.0,False,18
A004M40,785,experiment,96,↑,up,↑,0.5734956999658607,True,18
A004M40,786,experiment,144,↑,up,↑,0.525600699998904,True,18
A004M40,787,training,168,→,down,↓,1.0933491000323556,False,18
A004M40,788,training,12,→,right,→,0.8009564999956638,True,18
A004M40,789,training,156,→,right,→,0.5219507000292651,True,18
A004M40,790,experiment,108,→,right,→,0.6273570999619551,True,18
A004M40,791,experiment,108,←,left,←,1.2769465000019409,True,18
A004M40,792,experiment,180,↑,no_key,no_letter,-1.0,False,18
A004M40,793,experiment,24,↓,down,↓,0.8289403999806382,True,18
A004M40,794,experiment,120,↑,up,↑,0.8105434000026435,True,18
A004M40,795,experiment,24,←,left,←,0.7115362000185996,True,18
A004M40,796,experiment,24,←,right,→,0.8039013000088744,False,18
A004M40,797,experiment,48,↓,no_key,no_letter,-1.0,False,18
A004M40,798,experiment,60,↓,up,↑,1.2437104000127874,False,18
A004M40,799,experiment,144,→,down,↓,0.7619800000102259,False,18
A004M40,800,experiment,12,←,left,←,0.6539765999768861,True,18
A004M40,801,experiment,108,→,no_key,no_letter,-1.0,False,18
A004M40,802,experiment,84,↓,up,↑,0.6409368999884464,False,18
A004M40,803,experiment,36,↓,no_key,no_letter,-1.0,False,18
A004M40,804,experiment,96,←,left,←,1.0687024999642745,True,18
A004M40,805,experiment,12,↓,right,→,0.8273115999763831,False,18
A004M40,806,experiment,168,↓,up,↑,1.0092315999791026,False,18
A004M40,807,experiment,72,→,right,→,1.0086000000010245,True,18
A004M40,808,experiment,120,↓,right,→,0.9731821999885142,False,18
A004M40,809,experiment,84,←,right,→,0.7505722999922,False,18
A004M40,810,experiment,132,↑,right,→,1.3688545000040904,False,18
A004M40,811,experiment,48,→,left,←,1.1530562000116333,False,18
A004M40,812,experiment,96,↑,up,↑,0.7483584000146948,True,18
A004M40,813,experiment,168,↑,up,↑,0.6882329999934882,True,18
A004M40,814,experiment,48,↓,down,↓,1.1410560999647714,True,18
A004M40,815,experiment,96,↓,right,→,1.0639315000153147,False,18
A004M40,816,experiment,60,→,right,→,0.8635484999977052,True,18
A004M40,817,experiment,156,↑,left,←,1.2070249000098556,False,18
A004M40,818,experiment,132,↑,right,→,0.6792238000198267,False,18
A004M40,819,experiment,180,→,up,↑,0.9183463000226766,False,18
A004M40,820,experiment,12,←,left,←,0.670101199997589,True,18
A004M40,821,experiment,84,↓,right,→,0.7046833999920636,False,18
A004M40,822,experiment,132,←,right,→,0.6065508999745362,False,18
A004M40,823,experiment,60,↓,right,→,0.3669675000128336,False,18
A004M40,824,experiment,48,→,right,→,0.6297880000201985,True,18
A004M40,825,experiment,120,←,left,←,0.5763679999508895,True,18
A004M40,826,experiment,132,↓,down,↓,0.7815048999618739,True,18
A004M40,827,experiment,168,→,down,↓,1.19333129998995,False,18
A004M40,828,experiment,12,↑,no_key,no_letter,-1.0,False,18
A004M40,829,experiment,180,↑,up,↑,0.6037999000400305,True,18
A004M40,830,experiment,168,←,left,←,1.0165835000225343,True,18
A004M40,831,experiment,72,←,right,→,1.1317120000021532,False,18
A004M40,832,experiment,84,↑,right,→,1.0364203000208363,False,18
A004M40,833,experiment,180,←,left,←,0.9258665000088513,True,18
A004M40,834,experiment,120,→,right,→,0.5483830000157468,True,18
A004M40,835,experiment,36,↑,up,↑,0.5137414000346325,True,18
A004M40,836,experiment,156,↓,down,↓,0.73539470002288,True,18
A004M40,837,experiment,144,↑,up,↑,0.5835459000081755,True,18
A004M40,838,experiment,72,←,down,↓,0.8567492000292987,False,18
A004M40,839,experiment,156,↑,up,↑,0.720232899999246,True,18
A004M40,840,experiment,24,↑,up,↑,0.714666300045792,True,18
A004M40,841,experiment,36,↑,up,↑,0.6788501999690197,True,18
A004M40,842,experiment,144,→,right,→,0.6479786999989301,True,18
A004M40,843,experiment,72,←,left,←,0.6488583000027575,True,18
A004M40,844,experiment,156,↓,right,→,1.0260392999625765,False,18
A004M40,845,experiment,96,↑,up,↑,0.5314655000111088,True,18
A004M40,846,experiment,60,→,right,→,0.5424760999740101,True,18
A004M40,847,experiment,144,→,right,→,0.48606560000916943,True,18
A004M40,848,experiment,36,↓,down,↓,0.8427245999919251,True,18
A004M40,849,experiment,108,→,right,→,0.7275513000204228,True,18
