PART_ID,Trial_no,Trial_type,PDI,Stim_letter,Key_pressed,letter_choose,Rt,Corr,Stimulus Time
A007K26,1,training,10,↑,no_key,no_letter,-1.0,False,30
A007K26,2,training,10,↑,down,↓,1.3942698000464588,False,30
A007K26,3,training,10,↓,down,↓,0.8767929999157786,True,30
A007K26,4,training,10,↓,down,↓,0.7005864998791367,True,30
A007K26,5,training,10,↓,down,↓,0.9275070999283344,True,30
A007K26,6,training,10,↑,down,↓,1.2842850999440998,False,30
A007K26,7,training,10,↓,down,↓,1.1777572000864893,True,30
A007K26,8,training,10,←,left,←,2.00963840004988,True,30
A007K26,9,training,10,→,right,→,1.2383600999601185,True,30
A007K26,10,training,10,↑,up,↑,0.7277376998681575,True,30
A007K26,11,training,10,→,right,→,0.8440684000961483,True,30
A007K26,12,training,10,→,right,→,0.5669704000465572,True,30
A007K26,13,training,10,↓,right,→,1.0451076999306679,False,30
A007K26,14,training,10,←,left,←,0.5671820000279695,True,30
A007K26,15,training,10,↓,down,↓,0.6172349001280963,True,30
A007K26,16,training,10,→,right,→,0.43510470003820956,True,30
A007K26,17,training,10,↓,right,→,0.7881841999478638,False,30
A007K26,18,training,10,←,up,↑,1.9704921999946237,False,30
A007K26,19,training,10,↑,up,↑,0.8465454000979662,True,30
A007K26,20,training,10,→,no_key,no_letter,-1.0,False,30
A007K26,21,training,10,←,up,↑,1.0390192000195384,False,18
A007K26,22,training,10,↓,down,↓,0.6008427001070231,True,18
A007K26,23,training,10,↓,right,→,0.6875040999148041,False,18
A007K26,24,training,10,↓,right,→,1.0306796999648213,False,18
A007K26,25,training,10,←,down,↓,1.174869199981913,False,18
A007K26,26,training,10,→,no_key,no_letter,-1.0,False,18
A007K26,27,training,10,↑,up,↑,0.787260300014168,True,18
A007K26,28,training,10,→,right,→,0.8511578000616282,True,18
A007K26,29,training,10,↓,right,→,0.751355699962005,False,18
A007K26,30,training,10,→,right,→,0.5319238998927176,True,18
A007K26,31,training,12,→,right,→,0.580515000037849,True,15
A007K26,32,training,168,↓,right,→,1.129224899923429,False,15
A007K26,33,training,72,↑,up,↑,0.6950938000809401,True,15
A007K26,34,experiment,120,←,up,↑,1.1178490000311285,False,15
A007K26,35,experiment,108,↑,up,↑,0.8807604000903666,True,15
A007K26,36,experiment,36,↓,right,→,1.0419886000454426,False,15
A007K26,37,experiment,132,←,left,←,1.0295286998152733,True,15
A007K26,38,experiment,24,↑,up,↑,0.741074499906972,True,15
A007K26,39,experiment,156,↑,up,↑,1.084283399861306,True,15
A007K26,40,experiment,120,←,right,→,0.7059937999583781,False,15
A007K26,41,experiment,48,↓,down,↓,0.6749855999369174,True,15
A007K26,42,experiment,12,↑,down,↓,1.5924329000990838,False,15
A007K26,43,experiment,12,↑,right,→,1.5433698000852019,False,15
A007K26,44,experiment,84,↑,up,↑,0.6710274999495596,True,15
A007K26,45,experiment,48,←,down,↓,1.1580161000601947,False,15
A007K26,46,experiment,96,→,right,→,0.9363035999704152,True,15
A007K26,47,experiment,36,↓,down,↓,1.1255308000836521,True,15
A007K26,48,experiment,12,→,up,↑,1.146855799946934,False,15
A007K26,49,experiment,48,↓,up,↑,1.867117099929601,False,15
A007K26,50,experiment,72,←,left,←,1.5581912000197917,True,15
A007K26,51,experiment,108,←,left,←,0.6832373000215739,True,15
A007K26,52,experiment,180,↑,right,→,0.802426400128752,False,15
A007K26,53,experiment,72,→,right,→,0.9365751999430358,True,15
A007K26,54,experiment,60,→,left,←,0.8163226000033319,False,15
A007K26,55,experiment,108,←,right,→,0.9832711000926793,False,15
A007K26,56,experiment,96,↑,up,↑,0.7036862999666482,True,15
A007K26,57,experiment,120,←,right,→,0.6883027001749724,False,15
A007K26,58,experiment,72,←,down,↓,1.2338288000319153,False,15
A007K26,59,experiment,132,↑,up,↑,0.7936563999392092,True,15
A007K26,60,experiment,84,↑,up,↑,0.7851077001541853,True,15
A007K26,61,experiment,144,↑,up,↑,0.8765087998472154,True,15
A007K26,62,experiment,24,↓,down,↓,1.385588999837637,True,15
A007K26,63,experiment,180,←,up,↑,0.861083900090307,False,15
A007K26,64,experiment,132,←,down,↓,0.8602833999320865,False,15
A007K26,65,experiment,168,↑,up,↑,0.6852060998789966,True,15
A007K26,66,experiment,24,↓,down,↓,0.916044200072065,True,15
A007K26,67,experiment,144,↑,up,↑,0.6663302001543343,True,15
A007K26,68,experiment,144,→,up,↑,0.7968969000503421,False,15
A007K26,69,experiment,168,←,left,←,0.9591709000524133,True,15
A007K26,70,experiment,120,→,left,←,0.976918299915269,False,15
A007K26,71,experiment,156,↑,right,→,0.8609861999284476,False,15
A007K26,72,experiment,48,→,up,↑,1.1523515998851508,False,15
A007K26,73,experiment,96,↓,up,↑,0.7963430001400411,False,15
A007K26,74,experiment,24,↑,up,↑,0.8034535001497716,True,15
A007K26,75,experiment,36,↑,up,↑,0.8074163999408484,True,15
A007K26,76,experiment,132,→,up,↑,0.8099783998914063,False,15
A007K26,77,experiment,168,↑,up,↑,0.6962524000555277,True,15
A007K26,78,experiment,156,↓,right,→,1.1796621999237686,False,15
A007K26,79,experiment,180,↓,up,↑,0.7645268999040127,False,15
A007K26,80,experiment,60,↑,up,↑,0.5739741001743823,True,15
A007K26,81,experiment,144,←,left,←,0.6527336998842657,True,15
A007K26,82,experiment,168,←,left,←,0.5925652999430895,True,15
A007K26,83,experiment,96,←,left,←,0.6130152000114322,True,15
A007K26,84,experiment,60,←,left,←,0.5366611999925226,True,15
A007K26,85,experiment,84,↓,up,↑,1.2247847998514771,False,15
A007K26,86,experiment,108,→,right,→,0.4551626001484692,True,15
A007K26,87,experiment,12,↑,up,↑,1.1781921000219882,True,15
A007K26,88,experiment,36,↓,up,↑,0.9838350999634713,False,15
A007K26,89,experiment,60,↑,up,↑,0.6185746998526156,True,15
A007K26,90,experiment,180,←,left,←,0.6674653999507427,True,15
A007K26,91,experiment,156,↑,up,↑,0.6289733001030982,True,15
A007K26,92,experiment,84,↓,down,↓,0.8035530000925064,True,15
A007K26,93,experiment,72,↑,up,↑,0.7210299000144005,True,15
A007K26,94,training,132,↓,down,↓,0.7415443998761475,True,16
A007K26,95,training,24,↑,left,←,1.1754784998483956,False,16
A007K26,96,training,120,←,down,↓,1.5849653000477701,False,16
A007K26,97,experiment,144,↑,up,↑,0.7667879001237452,True,16
A007K26,98,experiment,36,↑,up,↑,0.7081200000829995,True,16
A007K26,99,experiment,84,→,right,→,0.5878587001934648,True,16
A007K26,100,experiment,12,←,no_key,no_letter,-1.0,False,16
A007K26,101,experiment,168,↑,left,←,1.275870299898088,False,16
A007K26,102,experiment,120,→,right,→,0.5670606999192387,True,16
A007K26,103,experiment,156,←,left,←,1.121095399837941,True,16
A007K26,104,experiment,12,←,right,→,0.7618309000972658,False,16
A007K26,105,experiment,60,↑,up,↑,0.6457215000409633,True,16
A007K26,106,experiment,96,↑,up,↑,0.6324196001514792,True,16
A007K26,107,experiment,84,↑,down,↓,1.5533329001627862,False,16
A007K26,108,experiment,72,←,left,←,0.49196649994701147,True,16
A007K26,109,experiment,24,←,left,←,1.227102299919352,True,16
A007K26,110,experiment,108,←,left,←,0.49424310005269945,True,16
A007K26,111,experiment,156,←,left,←,0.5426513999700546,True,16
A007K26,112,experiment,156,→,right,→,0.5575508000329137,True,16
A007K26,113,experiment,132,↑,no_key,no_letter,-1.0,False,16
A007K26,114,experiment,12,←,left,←,0.5809660998638719,True,16
A007K26,115,experiment,96,←,left,←,0.4829433998093009,True,16
A007K26,116,experiment,48,↑,right,→,0.9305881999898702,False,16
A007K26,117,experiment,72,↓,down,↓,1.4128250000067055,True,16
A007K26,118,experiment,132,→,right,→,0.9644922001753002,True,16
A007K26,119,experiment,180,→,left,←,1.1358881001360714,False,16
A007K26,120,experiment,144,←,left,←,0.6404700002167374,True,16
A007K26,121,experiment,168,↑,right,→,1.2203024001792073,False,16
A007K26,122,experiment,60,→,down,↓,1.1941049001179636,False,16
A007K26,123,experiment,60,↓,left,←,1.0955066999886185,False,16
A007K26,124,experiment,120,→,right,→,0.5820631000678986,True,16
A007K26,125,experiment,180,↑,up,↑,0.7738298000767827,True,16
A007K26,126,experiment,96,→,right,→,0.6119073999579996,True,16
A007K26,127,experiment,72,←,left,←,0.6169293001294136,True,16
A007K26,128,experiment,84,↑,right,→,1.2681307999882847,False,16
A007K26,129,experiment,120,→,left,←,0.7399591000285,False,16
A007K26,130,experiment,120,→,right,→,0.49118139990605414,True,16
A007K26,131,experiment,108,↑,up,↑,0.6331108000595123,True,16
A007K26,132,experiment,156,↓,left,←,1.3699186998419464,False,16
A007K26,133,experiment,84,↓,up,↑,0.8418569001369178,False,16
A007K26,134,experiment,48,→,down,↓,1.547295399941504,False,16
A007K26,135,experiment,132,←,left,←,0.5586703999433666,True,16
A007K26,136,experiment,48,←,no_key,no_letter,-1.0,False,16
A007K26,137,experiment,96,↓,down,↓,1.2674006999004632,True,16
A007K26,138,experiment,72,↑,up,↑,0.6640832999255508,True,16
A007K26,139,experiment,168,↓,right,→,0.8877532000187784,False,16
A007K26,140,experiment,24,→,right,→,0.9655806999653578,True,16
A007K26,141,experiment,48,↑,up,↑,1.869286899920553,True,16
A007K26,142,experiment,36,↑,up,↑,1.1751993999350816,True,16
A007K26,143,experiment,24,↑,up,↑,0.7178013001102954,True,16
A007K26,144,experiment,108,↑,up,↑,0.5891544001642615,True,16
A007K26,145,experiment,180,↓,down,↓,0.6584141999483109,True,16
A007K26,146,experiment,168,←,left,←,0.9312927999999374,True,16
A007K26,147,experiment,108,→,right,→,0.6230490000452846,True,16
A007K26,148,experiment,144,←,left,←,0.7928794999606907,True,16
A007K26,149,experiment,12,↓,right,→,1.0769891000818461,False,16
A007K26,150,experiment,180,↑,up,↑,0.621739599853754,True,16
A007K26,151,experiment,144,←,left,←,0.5527289998717606,True,16
A007K26,152,experiment,36,↓,down,↓,0.6571458999533206,True,16
A007K26,153,experiment,36,↑,up,↑,0.665880000218749,True,16
A007K26,154,experiment,24,←,right,→,0.8628227999433875,False,16
A007K26,155,experiment,60,↑,up,↑,1.025265899952501,True,16
A007K26,156,experiment,132,→,right,→,0.7081097001209855,True,16
A007K26,157,training,12,←,right,→,0.8076800999697298,False,16
A007K26,158,training,132,↓,down,↓,0.7670867000706494,True,16
A007K26,159,training,84,↑,left,←,1.012933999998495,False,16
A007K26,160,experiment,108,↑,up,↑,0.5176593000069261,True,16
A007K26,161,experiment,36,→,down,↓,1.03623399999924,False,16
A007K26,162,experiment,144,→,up,↑,1.114466099999845,False,16
A007K26,163,experiment,12,↓,left,←,0.5172216000501066,False,16
A007K26,164,experiment,144,↑,up,↑,0.7595565998926759,True,16
A007K26,165,experiment,36,↓,down,↓,0.5535765998065472,True,16
A007K26,166,experiment,96,←,left,←,0.6766727000940591,True,16
A007K26,167,experiment,120,←,left,←,0.5918900999240577,True,16
A007K26,168,experiment,180,→,down,↓,0.8853535999078304,False,16
A007K26,169,experiment,156,↓,down,↓,1.0563952000811696,True,16
A007K26,170,experiment,72,↑,down,↓,0.9978800001554191,False,16
A007K26,171,experiment,84,↓,down,↓,0.5694154999218881,True,16
A007K26,172,experiment,48,→,right,→,0.5840692999772727,True,16
A007K26,173,experiment,24,←,left,←,0.9245476999785751,True,16
A007K26,174,experiment,60,→,right,→,0.8774943999014795,True,16
A007K26,175,experiment,24,↓,down,↓,1.0388756999745965,True,16
A007K26,176,experiment,168,↑,down,↓,0.8235012998338789,False,16
A007K26,177,experiment,180,→,right,→,0.9531111000105739,True,16
A007K26,178,experiment,96,↑,down,↓,1.166171400109306,False,16
A007K26,179,experiment,156,↑,down,↓,1.1651782998815179,False,16
A007K26,180,experiment,96,↑,down,↓,0.7645658999681473,False,16
A007K26,181,experiment,36,↑,right,→,1.0351056999061257,False,16
A007K26,182,experiment,24,↓,down,↓,0.5146926001179963,True,16
A007K26,183,experiment,48,↓,down,↓,0.564754799939692,True,16
A007K26,184,experiment,72,↑,down,↓,1.152111800154671,False,16
A007K26,185,experiment,72,↓,down,↓,0.5840292999055237,True,16
A007K26,186,experiment,156,←,down,↓,1.108322799904272,False,16
A007K26,187,experiment,84,↑,down,↓,0.6645415001548827,False,16
A007K26,188,experiment,108,→,down,↓,1.0232059000991285,False,16
A007K26,189,experiment,60,↑,right,→,1.0688151000067592,False,16
A007K26,190,experiment,132,→,right,→,0.5633002000395209,True,16
A007K26,191,experiment,72,↓,down,↓,0.715089000063017,True,16
A007K26,192,experiment,12,→,right,→,0.5725353001616895,True,16
A007K26,193,experiment,36,→,down,↓,0.8261193998623639,False,16
A007K26,194,experiment,60,→,right,→,0.9576291998382658,True,16
A007K26,195,experiment,12,→,right,→,0.45447200001217425,True,16
A007K26,196,experiment,168,←,right,→,0.795519000152126,False,16
A007K26,197,experiment,108,→,right,→,0.4916014999616891,True,16
A007K26,198,experiment,48,↓,down,↓,0.6506302999332547,True,16
A007K26,199,experiment,132,↑,up,↑,0.6551782998722047,True,16
A007K26,200,experiment,108,←,right,→,0.6501170999836177,False,16
A007K26,201,experiment,144,←,left,←,0.676945999963209,True,16
A007K26,202,experiment,12,←,left,←,0.8296508998610079,True,16
A007K26,203,experiment,24,↑,down,↓,0.8937184000387788,False,16
A007K26,204,experiment,156,→,right,→,0.5202585998922586,True,16
A007K26,205,experiment,120,←,down,↓,1.0239617000333965,False,16
A007K26,206,experiment,84,←,down,↓,0.8149224000517279,False,16
A007K26,207,experiment,180,←,left,←,0.5288311999756843,True,16
A007K26,208,experiment,120,↑,right,→,0.8178244000300765,False,16
A007K26,209,experiment,132,→,right,→,0.559914099983871,True,16
A007K26,210,experiment,168,←,left,←,0.48772120010107756,True,16
A007K26,211,experiment,168,←,left,←,0.47902329987846315,True,16
A007K26,212,experiment,132,→,right,→,0.46537670004181564,True,16
A007K26,213,experiment,84,↓,down,↓,1.7424707999452949,True,16
A007K26,214,experiment,144,↓,right,→,0.9447346001397818,False,16
A007K26,215,experiment,60,→,left,←,0.6404830999672413,False,16
A007K26,216,experiment,48,↑,up,↑,0.596986599965021,True,16
A007K26,217,experiment,180,↓,down,↓,0.6246654000133276,True,16
A007K26,218,experiment,96,↓,down,↓,0.9640263998880982,True,16
A007K26,219,experiment,120,→,left,←,1.0145431000273675,False,16
A007K26,220,training,180,↑,up,↑,0.8908955999650061,True,17
A007K26,221,training,84,↑,down,↓,0.9200281000230461,False,17
A007K26,222,training,96,←,left,←,0.5513102998957038,True,17
A007K26,223,experiment,156,→,right,→,0.5321021000854671,True,17
A007K26,224,experiment,96,↓,down,↓,0.553681300021708,True,17
A007K26,225,experiment,120,↑,down,↓,0.8213322998490185,False,17
A007K26,226,experiment,84,↓,down,↓,0.7983129001222551,True,17
A007K26,227,experiment,60,↓,up,↑,1.0848360999953002,False,17
A007K26,228,experiment,108,↑,up,↑,0.48296410008333623,True,17
A007K26,229,experiment,48,↓,down,↓,0.8506827999372035,True,17
A007K26,230,experiment,168,↓,down,↓,0.7369007000233978,True,17
A007K26,231,experiment,60,↑,up,↑,1.0004139000084251,True,17
A007K26,232,experiment,180,↓,down,↓,0.5854460999835283,True,17
A007K26,233,experiment,36,←,left,←,0.6135587999597192,True,17
A007K26,234,experiment,144,↑,up,↑,0.5187691000755876,True,17
A007K26,235,experiment,48,→,right,→,0.47780140000395477,True,17
A007K26,236,experiment,48,↓,right,→,0.4917860000859946,False,17
A007K26,237,experiment,84,←,down,↓,0.9652953001204878,False,17
A007K26,238,experiment,180,←,right,→,0.695270299911499,False,17
A007K26,239,experiment,24,↑,left,←,0.9570188999641687,False,17
A007K26,240,experiment,96,←,left,←,0.5324746000114828,True,17
A007K26,241,experiment,108,↑,up,↑,0.5538172000087798,True,17
A007K26,242,experiment,72,→,right,→,0.970089899841696,True,17
A007K26,243,experiment,156,←,right,→,0.6898990001063794,False,17
A007K26,244,experiment,12,↑,right,→,0.7630119000095874,False,17
A007K26,245,experiment,36,→,left,←,1.0639196000993252,False,17
A007K26,246,experiment,24,←,left,←,0.48292570002377033,True,17
A007K26,247,experiment,120,←,left,←,0.4774581999517977,True,17
A007K26,248,experiment,36,←,left,←,0.4170719999819994,True,17
A007K26,249,experiment,24,→,right,→,0.9202933998312801,True,17
A007K26,250,experiment,84,←,up,↑,1.3876980000641197,False,17
A007K26,251,experiment,120,↑,left,←,0.8421720999758691,False,17
A007K26,252,experiment,108,↑,down,↓,0.8450594998430461,False,17
A007K26,253,experiment,72,←,left,←,0.5490064998157322,True,17
A007K26,254,experiment,168,↓,down,↓,0.6374667000491172,True,17
A007K26,255,experiment,96,→,right,→,0.5460547001566738,True,17
A007K26,256,experiment,12,←,left,←,0.531820299802348,True,17
A007K26,257,experiment,12,↑,down,↓,0.9316527999471873,False,17
A007K26,258,experiment,156,→,left,←,0.7259076000191271,False,17
A007K26,259,experiment,144,→,right,→,0.6389511998277158,True,17
A007K26,260,experiment,132,↑,up,↑,0.5816580001264811,True,17
A007K26,261,experiment,24,↓,down,↓,0.8840748998336494,True,17
A007K26,262,experiment,144,↑,up,↑,0.6587184998206794,True,17
A007K26,263,experiment,120,↓,down,↓,0.5625330999027938,True,17
A007K26,264,experiment,108,↑,up,↑,0.5384620998520404,True,17
A007K26,265,experiment,72,↑,down,↓,1.0733626999426633,False,17
A007K26,266,experiment,168,←,down,↓,0.8793013000395149,False,17
A007K26,267,experiment,12,←,left,←,0.677190599963069,True,17
A007K26,268,experiment,180,→,right,→,0.5124355999287218,True,17
A007K26,269,experiment,96,→,right,→,0.470528099918738,True,17
A007K26,270,experiment,72,→,right,→,0.46691700001247227,True,17
A007K26,271,experiment,60,←,left,←,0.5728349999990314,True,17
A007K26,272,experiment,168,↓,right,→,0.6276167000178248,False,17
A007K26,273,experiment,156,→,right,→,0.8058558001648635,True,17
A007K26,274,experiment,84,↓,down,↓,0.646004700101912,True,17
A007K26,275,experiment,144,→,down,↓,0.7273969000671059,False,17
A007K26,276,experiment,36,↑,up,↑,0.5751742001157254,True,17
A007K26,277,experiment,48,↑,up,↑,0.45332959992811084,True,17
A007K26,278,experiment,132,↑,no_key,no_letter,-1.0,False,17
A007K26,279,experiment,132,↓,down,↓,0.9202916000504047,True,17
A007K26,280,experiment,60,←,down,↓,1.2375822998583317,False,17
A007K26,281,experiment,180,→,down,↓,0.7299973999615759,False,17
A007K26,282,experiment,132,↑,up,↑,0.5234117000363767,True,17
A007K26,283,training,108,↓,right,→,0.843115400057286,False,17
A007K26,284,training,132,←,down,↓,0.6607731999829412,False,17
A007K26,285,training,108,→,left,←,1.1422925998922437,False,17
A007K26,286,experiment,180,↓,down,↓,0.7500450999941677,True,17
A007K26,287,experiment,168,↑,down,↓,0.9564872998744249,False,17
A007K26,288,experiment,120,→,left,←,0.7379620000720024,False,17
A007K26,289,experiment,96,←,right,→,0.8851079000160098,False,17
A007K26,290,experiment,108,↑,up,↑,0.5174059001728892,True,17
A007K26,291,experiment,156,→,right,→,0.5307968999259174,True,17
A007K26,292,experiment,36,←,down,↓,0.9571152001153678,False,17
A007K26,293,experiment,168,↓,down,↓,0.6626775998156518,True,17
A007K26,294,experiment,120,↓,down,↓,0.5712949000298977,True,17
A007K26,295,experiment,24,↓,down,↓,0.8749337000772357,True,17
A007K26,296,experiment,24,↓,down,↓,0.8952852000948042,True,17
A007K26,297,experiment,108,↓,down,↓,0.5785121000371873,True,17
A007K26,298,experiment,60,→,right,→,0.8835575000848621,True,17
A007K26,299,experiment,84,↓,down,↓,0.5915407999418676,True,17
A007K26,300,experiment,168,↑,down,↓,0.8168291000183672,False,17
A007K26,301,experiment,108,←,right,→,0.9777869000099599,False,17
A007K26,302,experiment,12,→,right,→,0.788587799994275,True,17
A007K26,303,experiment,72,↑,right,→,0.9618398000020534,False,17
A007K26,304,experiment,12,↓,down,↓,0.7059921000618488,True,17
A007K26,305,experiment,132,←,left,←,0.48444400005973876,True,17
A007K26,306,experiment,12,→,down,↓,1.0539171998389065,False,17
A007K26,307,experiment,156,↓,down,↓,0.5881308000534773,True,17
A007K26,308,experiment,120,→,right,→,0.5882086998317391,True,17
A007K26,309,experiment,36,↓,down,↓,0.753448799951002,True,17
A007K26,310,experiment,72,↓,down,↓,0.5000982000492513,True,17
A007K26,311,experiment,180,→,right,→,0.5067352999467403,True,17
A007K26,312,experiment,24,←,down,↓,0.9670500000938773,False,17
A007K26,313,experiment,48,→,down,↓,0.7955648000352085,False,17
A007K26,314,experiment,120,↓,down,↓,0.8125513999257237,True,17
A007K26,315,experiment,48,↑,right,→,0.9711943999864161,False,17
A007K26,316,experiment,156,←,right,→,0.6071268999949098,False,17
A007K26,317,experiment,96,↓,right,→,0.5903910000342876,False,17
A007K26,318,experiment,24,←,left,←,0.4756010000128299,True,17
A007K26,319,experiment,156,→,right,→,0.540614000055939,True,17
A007K26,320,experiment,48,↑,down,↓,0.7391880000941455,False,17
A007K26,321,experiment,180,→,down,↓,0.8152161000762135,False,17
A007K26,322,experiment,84,←,right,→,0.5957408000249416,False,17
A007K26,323,experiment,144,←,right,→,0.5517130000516772,False,17
A007K26,324,experiment,72,←,left,←,0.5229621999897063,True,17
A007K26,325,experiment,84,←,down,↓,1.16998829995282,False,17
A007K26,326,experiment,168,←,down,↓,0.7699494999833405,False,17
A007K26,327,experiment,48,←,left,←,0.47468230011872947,True,17
A007K26,328,experiment,12,↑,right,→,0.8740660001058131,False,17
A007K26,329,experiment,132,→,right,→,0.6238329999614507,True,17
A007K26,330,experiment,60,→,right,→,0.525997000047937,True,17
A007K26,331,experiment,132,↓,left,←,0.8474137999583036,False,17
A007K26,332,experiment,180,↓,down,↓,0.6186479001771659,True,17
A007K26,333,experiment,132,↓,right,→,0.8648812000174075,False,17
A007K26,334,experiment,60,↓,down,↓,0.6637410998810083,True,17
A007K26,335,experiment,36,←,left,←,1.0308768001850694,True,17
A007K26,336,experiment,144,←,left,←,0.46364440000616014,True,17
A007K26,337,experiment,108,↑,down,↓,0.7606811998412013,False,17
A007K26,338,experiment,84,→,right,→,0.5428116999100894,True,17
A007K26,339,experiment,144,↑,up,↑,0.5224826000630856,True,17
A007K26,340,experiment,96,↑,up,↑,0.45461440016515553,True,17
A007K26,341,experiment,72,←,left,←,0.46043439977802336,True,17
A007K26,342,experiment,144,↑,up,↑,0.738763100001961,True,17
A007K26,343,experiment,96,←,right,→,0.9478972998913378,False,17
A007K26,344,experiment,60,↓,down,↓,0.650399399921298,True,17
A007K26,345,experiment,36,↓,down,↓,1.0643217000178993,True,17
A007K26,346,training,120,←,no_key,no_letter,-1.0,False,17
A007K26,347,training,132,→,right,→,0.8821552998851985,True,17
A007K26,348,training,72,←,left,←,0.45169400004670024,True,17
A007K26,349,experiment,156,↓,down,↓,0.5967673999257386,True,17
A007K26,350,experiment,180,←,right,→,0.5238421999383718,False,17
A007K26,351,experiment,72,↑,up,↑,0.7031669998541474,True,17
A007K26,352,experiment,132,↑,up,↑,0.7415366000495851,True,17
A007K26,353,experiment,132,↓,down,↓,0.7525145998224616,True,17
A007K26,354,experiment,24,←,left,←,0.4743115999735892,True,17
A007K26,355,experiment,168,↓,up,↑,0.7764288999605924,False,17
A007K26,356,experiment,60,←,left,←,0.6409676999319345,True,17
A007K26,357,experiment,156,↓,down,↓,0.6642692999448627,True,17
A007K26,358,experiment,24,↓,down,↓,0.711824500001967,True,17
A007K26,359,experiment,120,←,right,→,0.7615928999148309,False,17
A007K26,360,experiment,144,↑,up,↑,0.6019047999288887,True,17
A007K26,361,experiment,168,→,down,↓,0.8403113998938352,False,17
A007K26,362,experiment,108,↑,up,↑,0.5496065998449922,True,17
A007K26,363,experiment,168,↓,down,↓,0.6026357000228018,True,17
A007K26,364,experiment,96,↑,down,↓,1.451177000068128,False,17
A007K26,365,experiment,24,↑,up,↑,0.6915384999010712,True,17
A007K26,366,experiment,72,→,down,↓,0.5790548999793828,False,17
A007K26,367,experiment,48,↑,up,↑,0.5937751999590546,True,17
A007K26,368,experiment,132,→,right,→,0.5732670000288635,True,17
A007K26,369,experiment,120,←,down,↓,0.821735099889338,False,17
A007K26,370,experiment,168,→,right,→,0.5603804001584649,True,17
A007K26,371,experiment,24,→,down,↓,0.9589846997987479,False,17
A007K26,372,experiment,60,←,left,←,0.4844384999014437,True,17
A007K26,373,experiment,60,↓,down,↓,0.7176043998915702,True,17
A007K26,374,experiment,48,↑,down,↓,0.7960329002235085,False,17
A007K26,375,experiment,12,→,right,→,0.696001400006935,True,17
A007K26,376,experiment,132,↓,down,↓,0.5789099999237806,True,17
A007K26,377,experiment,48,↑,up,↑,0.5062775001861155,True,17
A007K26,378,experiment,96,↑,up,↑,0.5134374999906868,True,17
A007K26,379,experiment,84,↑,up,↑,0.815387399867177,True,17
A007K26,380,experiment,84,↓,down,↓,0.49050329998135567,True,17
A007K26,381,experiment,36,←,left,←,0.45486670010723174,True,17
A007K26,382,experiment,156,↓,down,↓,0.5250207998324186,True,17
A007K26,383,experiment,36,←,down,↓,0.7446264000609517,False,17
A007K26,384,experiment,36,←,no_key,no_letter,-1.0,False,17
A007K26,385,experiment,180,←,left,←,0.45887630013749003,True,17
A007K26,386,experiment,180,→,right,→,0.5747169000096619,True,17
A007K26,387,experiment,72,→,right,→,0.5744958000723273,True,17
A007K26,388,experiment,12,↑,no_key,no_letter,-1.0,False,17
A007K26,389,experiment,12,↓,down,↓,1.0630348999984562,True,17
A007K26,390,experiment,12,←,left,←,0.4844894998241216,True,17
A007K26,391,experiment,48,↑,up,↑,0.6209863999392837,True,17
A007K26,392,experiment,144,↓,down,↓,0.6737184000667185,True,17
A007K26,393,experiment,84,←,right,→,0.7828681999817491,False,17
A007K26,394,experiment,108,↑,right,→,0.585026300046593,False,17
A007K26,395,experiment,108,↓,down,↓,0.614704699954018,True,17
A007K26,396,experiment,120,←,left,←,0.5171433000359684,True,17
A007K26,397,experiment,156,↓,down,↓,0.5230892000254244,True,17
A007K26,398,experiment,108,↓,down,↓,0.7912510999012738,True,17
A007K26,399,experiment,60,↑,down,↓,0.643027399899438,False,17
A007K26,400,experiment,144,←,right,→,0.5966513999737799,False,17
A007K26,401,experiment,36,→,right,→,0.5451412000693381,True,17
A007K26,402,experiment,72,↑,up,↑,0.48662989982403815,True,17
A007K26,403,experiment,96,→,right,→,0.5355695998296142,True,17
A007K26,404,experiment,84,→,right,→,0.48244030005298555,True,17
A007K26,405,experiment,180,↓,down,↓,0.5311058000661433,True,17
A007K26,406,experiment,96,→,no_key,no_letter,-1.0,False,17
A007K26,407,experiment,144,→,right,→,0.5638586001005024,True,17
A007K26,408,experiment,120,→,right,→,0.9242190001532435,True,17
A007K26,409,training,144,↑,up,↑,0.6895615998655558,True,17
A007K26,410,training,132,↓,down,↓,0.6472020999062806,True,17
A007K26,411,training,36,→,right,→,0.5977769999299198,True,17
A007K26,412,experiment,60,↑,up,↑,0.4527918000239879,True,17
A007K26,413,experiment,12,↓,down,↓,0.6419426000211388,True,17
A007K26,414,experiment,120,↑,right,→,0.6947358998004347,False,17
A007K26,415,experiment,84,←,right,→,0.9119493998587132,False,17
A007K26,416,experiment,144,↓,down,↓,0.7381329999770969,True,17
A007K26,417,experiment,168,↓,down,↓,0.5531513998284936,True,17
A007K26,418,experiment,72,↑,up,↑,0.5675911998841912,True,17
A007K26,419,experiment,156,←,left,←,0.5044293000828475,True,17
A007K26,420,experiment,60,↓,down,↓,0.5523633998818696,True,17
A007K26,421,experiment,48,←,left,←,0.5154312001541257,True,17
A007K26,422,experiment,48,→,right,→,0.5224613000173122,True,17
A007K26,423,experiment,84,↑,up,↑,0.541279099881649,True,17
A007K26,424,experiment,108,↓,right,→,0.675891000078991,False,17
A007K26,425,experiment,108,↑,up,↑,0.5331884999759495,True,17
A007K26,426,experiment,96,←,right,→,0.6939731000456959,False,17
A007K26,427,experiment,96,→,down,↓,1.2288508000783622,False,17
A007K26,428,experiment,144,←,down,↓,1.0469323000870645,False,17
A007K26,429,experiment,108,↓,up,↑,1.1490826001390815,False,17
A007K26,430,experiment,132,↑,up,↑,0.641441399930045,True,17
A007K26,431,experiment,180,↑,up,↑,0.5421462999656796,True,17
A007K26,432,experiment,84,→,right,→,0.5579686001874506,True,17
A007K26,433,experiment,132,↓,down,↓,1.0075373998843133,True,17
A007K26,434,experiment,48,←,left,←,0.5145362000912428,True,17
A007K26,435,experiment,24,→,down,↓,1.0450375999789685,False,17
A007K26,436,experiment,168,→,right,→,0.6105459001846611,True,17
A007K26,437,experiment,156,↓,down,↓,0.9246088999789208,True,17
A007K26,438,experiment,168,→,right,→,0.8176655999850482,True,17
A007K26,439,experiment,36,→,right,→,0.515063899802044,True,17
A007K26,440,experiment,180,←,left,←,0.5111360000446439,True,17
A007K26,441,experiment,180,↓,down,↓,0.590733699966222,True,17
A007K26,442,experiment,132,→,down,↓,0.5624416000209749,False,17
A007K26,443,experiment,144,↑,up,↑,0.5282329998444766,True,17
A007K26,444,experiment,36,↓,down,↓,0.5141809000633657,True,17
A007K26,445,experiment,108,↓,down,↓,0.7491554000880569,True,17
A007K26,446,experiment,72,↑,down,↓,0.6243598000146449,False,17
A007K26,447,experiment,96,←,left,←,0.4880651000421494,True,17
A007K26,448,experiment,12,↓,down,↓,0.6528849999886006,True,17
A007K26,449,experiment,24,↑,down,↓,0.7643957999534905,False,17
A007K26,450,experiment,120,↑,up,↑,0.5159430999774486,True,17
A007K26,451,experiment,36,↑,up,↑,0.5575114001985639,True,17
A007K26,452,experiment,132,↑,down,↓,0.7477102000266314,False,17
A007K26,453,experiment,24,←,down,↓,0.7846345999278128,False,17
A007K26,454,experiment,72,↓,up,↑,0.7604584998916835,False,17
A007K26,455,experiment,96,→,up,↑,0.9179545999504626,False,17
A007K26,456,experiment,72,↑,up,↑,0.5094212999101728,True,17
A007K26,457,experiment,24,←,down,↓,0.6848065999802202,False,17
A007K26,458,experiment,36,↑,up,↑,0.41708489996381104,True,17
A007K26,459,experiment,84,↑,up,↑,0.5098458998836577,True,17
A007K26,460,experiment,168,←,down,↓,0.8423431001137942,False,17
A007K26,461,experiment,120,→,down,↓,0.9565489001106471,False,17
A007K26,462,experiment,60,→,down,↓,0.7348877999465913,False,17
A007K26,463,experiment,144,←,left,←,0.5670279001351446,True,17
A007K26,464,experiment,156,←,right,→,0.7452158001251519,False,17
A007K26,465,experiment,60,↓,down,↓,0.9675491999369115,True,17
A007K26,466,experiment,120,←,down,↓,0.8585805001202971,False,17
A007K26,467,experiment,48,↑,down,↓,0.741093099815771,False,17
A007K26,468,experiment,12,↓,down,↓,0.825731499819085,True,17
A007K26,469,experiment,12,→,right,→,0.5757598001509905,True,17
A007K26,470,experiment,180,↓,down,↓,0.6819947001058608,True,17
A007K26,471,experiment,156,↑,up,↑,0.646869600052014,True,17
A007K26,472,training,156,←,left,←,0.4716669002082199,True,17
A007K26,473,training,84,←,right,→,0.5280099001247436,False,17
A007K26,474,training,180,→,right,→,0.6001209001988173,True,17
A007K26,475,experiment,120,←,left,←,0.48609010013751686,True,17
A007K26,476,experiment,180,↑,right,→,0.5654283999465406,False,17
A007K26,477,experiment,144,↓,right,→,0.5711981998756528,False,17
A007K26,478,experiment,24,↑,right,→,0.8396838998887688,False,17
A007K26,479,experiment,132,←,no_key,no_letter,-1.0,False,17
A007K26,480,experiment,24,↓,right,→,1.0116659000050277,False,17
A007K26,481,experiment,108,↓,down,↓,0.6659218000713736,True,17
A007K26,482,experiment,36,↓,right,→,0.5200203000567853,False,17
A007K26,483,experiment,168,↑,down,↓,0.8157664998434484,False,17
A007K26,484,experiment,120,←,down,↓,0.736278000054881,False,17
A007K26,485,experiment,96,→,right,→,0.4653156998101622,True,17
A007K26,486,experiment,96,↑,up,↑,0.5309001000132412,True,17
A007K26,487,experiment,84,→,right,→,0.5757451001554728,True,17
A007K26,488,experiment,60,→,right,→,0.4589785998687148,True,17
A007K26,489,experiment,60,←,left,←,0.4553360000718385,True,17
A007K26,490,experiment,108,↑,up,↑,0.5211736001074314,True,17
A007K26,491,experiment,48,←,left,←,0.40058800019323826,True,17
A007K26,492,experiment,24,→,right,→,0.5426864000037313,True,17
A007K26,493,experiment,84,↓,down,↓,0.6279386999085546,True,17
A007K26,494,experiment,12,↑,right,→,0.6181324000936002,False,17
A007K26,495,experiment,72,→,right,→,0.5579691000748426,True,17
A007K26,496,experiment,72,←,right,→,0.510325700044632,False,17
A007K26,497,experiment,48,←,right,→,0.5852562999352813,False,17
A007K26,498,experiment,96,↓,down,↓,0.5675937000196427,True,17
A007K26,499,experiment,12,↓,down,↓,0.5419400001410395,True,17
A007K26,500,experiment,12,→,right,→,0.6398875000886619,True,17
A007K26,501,experiment,168,↑,up,↑,0.5960228000767529,True,17
A007K26,502,experiment,156,→,right,→,0.539830100024119,True,17
A007K26,503,experiment,48,↓,right,→,0.5964905999135226,False,17
A007K26,504,experiment,24,↑,up,↑,0.47032610001042485,True,17
A007K26,505,experiment,144,→,right,→,0.5191875998862088,True,17
A007K26,506,experiment,108,↑,up,↑,0.470521799987182,True,17
A007K26,507,experiment,36,→,right,→,0.4617292999755591,True,17
A007K26,508,experiment,60,→,right,→,0.5449729000683874,True,17
A007K26,509,experiment,36,→,right,→,0.45004280004650354,True,17
A007K26,510,experiment,60,→,right,→,0.5480708000250161,True,17
A007K26,511,experiment,168,→,right,→,0.5591853999067098,True,17
A007K26,512,experiment,48,←,right,→,0.5416883998550475,False,17
A007K26,513,experiment,168,→,right,→,0.4926015001256019,True,17
A007K26,514,experiment,156,↑,right,→,0.6664173998869956,False,17
A007K26,515,experiment,72,→,no_key,no_letter,-1.0,False,17
A007K26,516,experiment,132,←,left,←,0.4689364000223577,True,17
A007K26,517,experiment,180,→,right,→,0.5733424001373351,True,17
A007K26,518,experiment,84,←,right,→,0.5792137999087572,False,17
A007K26,519,experiment,156,↑,right,→,0.5635212999768555,False,17
A007K26,520,experiment,120,↓,right,→,0.8196733000222594,False,17
A007K26,521,experiment,156,→,right,→,0.5602439998183399,True,17
A007K26,522,experiment,108,↑,right,→,0.4672604000661522,False,17
A007K26,523,experiment,72,↓,right,→,0.6813193000853062,False,17
A007K26,524,experiment,84,←,right,→,0.6409201000351459,False,17
A007K26,525,experiment,132,↓,down,↓,0.9442918999120593,True,17
A007K26,526,experiment,96,↓,up,↑,1.0256316000595689,False,17
A007K26,527,experiment,144,↓,down,↓,0.76649110019207,True,17
A007K26,528,experiment,12,↑,up,↑,0.5244211000390351,True,17
A007K26,529,experiment,180,←,left,←,0.5538941000122577,True,17
A007K26,530,experiment,36,↑,no_key,no_letter,-1.0,False,17
A007K26,531,experiment,132,←,no_key,no_letter,-1.0,False,17
A007K26,532,experiment,120,↑,up,↑,0.47353680012747645,True,17
A007K26,533,experiment,180,→,right,→,0.6431776999961585,True,17
A007K26,534,experiment,144,↑,up,↑,0.5396157000213861,True,17
A007K26,535,training,108,←,no_key,no_letter,-1.0,False,17
A007K26,536,training,168,↓,down,↓,0.806241299957037,True,17
A007K26,537,training,120,↑,up,↑,0.4819549999665469,True,17
A007K26,538,experiment,180,←,right,→,0.5701693999581039,False,17
A007K26,539,experiment,72,←,no_key,no_letter,-1.0,False,17
A007K26,540,experiment,72,←,right,→,0.6893168000970036,False,17
A007K26,541,experiment,12,→,right,→,0.604471200145781,True,17
A007K26,542,experiment,24,↓,right,→,0.5273947000969201,False,17
A007K26,543,experiment,144,↑,up,↑,0.5102685999590904,True,17
A007K26,544,experiment,12,→,right,→,0.5187901000026613,True,17
A007K26,545,experiment,36,↓,down,↓,0.6527161998674273,True,17
A007K26,546,experiment,144,→,right,→,0.6316662000026554,True,17
A007K26,547,experiment,48,↓,right,→,0.5919304999988526,False,17
A007K26,548,experiment,60,↓,down,↓,0.5698502000886947,True,17
A007K26,549,experiment,108,←,right,→,0.513761900132522,False,17
A007K26,550,experiment,120,↑,no_key,no_letter,-1.0,False,17
A007K26,551,experiment,144,↓,down,↓,0.5769529000390321,True,17
A007K26,552,experiment,96,←,right,→,0.6600236999802291,False,17
A007K26,553,experiment,84,↓,down,↓,0.7597598000429571,True,17
A007K26,554,experiment,156,↓,right,→,0.5025495998561382,False,17
A007K26,555,experiment,12,↑,up,↑,0.5305351000279188,True,17
A007K26,556,experiment,60,←,left,←,0.47704310016706586,True,17
A007K26,557,experiment,96,→,right,→,0.6312468000687659,True,17
A007K26,558,experiment,84,↑,up,↑,0.7068866998888552,True,17
A007K26,559,experiment,96,→,right,→,0.5501206000335515,True,17
A007K26,560,experiment,120,↓,right,→,0.5050582999829203,False,17
A007K26,561,experiment,168,↓,right,→,0.5930869001895189,False,17
A007K26,562,experiment,60,↓,down,↓,0.6124455998651683,True,17
A007K26,563,experiment,36,←,right,→,1.0035769999958575,False,17
A007K26,564,experiment,120,→,right,→,0.7671018000692129,True,17
A007K26,565,experiment,24,→,right,→,0.5345220000017434,True,17
A007K26,566,experiment,180,→,right,→,0.736179200001061,True,17
A007K26,567,experiment,36,→,right,→,0.542218100046739,True,17
A007K26,568,experiment,120,↑,up,↑,0.4728395000565797,True,17
A007K26,569,experiment,168,←,down,↓,0.9125951000023633,False,17
A007K26,570,experiment,156,←,right,→,0.5290064001455903,False,17
A007K26,571,experiment,24,↑,up,↑,0.5006151001434773,True,17
A007K26,572,experiment,96,↑,right,→,0.826962900115177,False,17
A007K26,573,experiment,48,←,left,←,0.4644482999574393,True,17
A007K26,574,experiment,84,→,right,→,0.46385110006667674,True,17
A007K26,575,experiment,132,→,right,→,0.4727521000895649,True,17
A007K26,576,experiment,36,→,right,→,0.5618322000373155,True,17
A007K26,577,experiment,108,→,right,→,0.5194079000502825,True,17
A007K26,578,experiment,24,→,right,→,0.9617221001535654,True,17
A007K26,579,experiment,132,→,up,↑,1.0862161999102682,False,17
A007K26,580,experiment,168,→,right,→,0.7841194998472929,True,17
A007K26,581,experiment,180,↑,right,→,0.9319690000265837,False,17
A007K26,582,experiment,108,↑,right,→,0.7741012000478804,False,17
A007K26,583,experiment,60,→,right,→,0.6205094000324607,True,17
A007K26,584,experiment,72,↑,left,←,1.7850597999058664,False,17
A007K26,585,experiment,12,↑,up,↑,0.6008126998785883,True,17
A007K26,586,experiment,48,↑,right,→,0.675755999982357,False,17
A007K26,587,experiment,144,→,down,↓,0.8159375998657197,False,17
A007K26,588,experiment,72,←,down,↓,0.9253618000075221,False,17
A007K26,589,experiment,132,←,down,↓,0.7735673999413848,False,17
A007K26,590,experiment,156,↑,up,↑,0.528516799909994,True,17
A007K26,591,experiment,108,←,down,↓,0.7617166000418365,False,17
A007K26,592,experiment,180,←,left,←,0.540180099895224,True,17
A007K26,593,experiment,84,←,no_key,no_letter,-1.0,False,17
A007K26,594,experiment,48,↑,right,→,0.6210551001131535,False,17
A007K26,595,experiment,132,←,right,→,0.7038267999887466,False,17
A007K26,596,experiment,168,←,left,←,0.4954368998296559,True,17
A007K26,597,experiment,156,↑,right,→,0.64210160006769,False,17
A007K26,598,training,132,←,no_key,no_letter,-1.0,False,18
A007K26,599,training,60,↑,right,→,0.6442185000050813,False,18
A007K26,600,training,120,↑,right,→,0.6247984999790788,False,18
A007K26,601,experiment,84,←,left,←,0.4004623999353498,True,18
A007K26,602,experiment,156,→,no_key,no_letter,-1.0,False,18
A007K26,603,experiment,108,↑,up,↑,0.6423353999853134,True,18
A007K26,604,experiment,120,→,right,→,0.4776758998632431,True,18
A007K26,605,experiment,12,←,left,←,0.47437920002266765,True,18
A007K26,606,experiment,144,↑,up,↑,0.518265699967742,True,18
A007K26,607,experiment,108,→,right,→,0.503408000105992,True,18
A007K26,608,experiment,60,↓,down,↓,0.7814533999189734,True,18
A007K26,609,experiment,48,→,right,→,0.518277799943462,True,18
A007K26,610,experiment,48,↑,right,→,0.5458488999865949,False,18
A007K26,611,experiment,144,↑,no_key,no_letter,-1.0,False,18
A007K26,612,experiment,84,←,up,↑,0.9474784000776708,False,18
A007K26,613,experiment,108,↑,up,↑,0.9377576000988483,True,18
A007K26,614,experiment,168,↑,up,↑,0.8475446000229567,True,18
A007K26,615,experiment,48,↑,up,↑,0.5668405001051724,True,18
A007K26,616,experiment,84,→,down,↓,0.6611752000171691,False,18
A007K26,617,experiment,180,←,down,↓,1.0911737000569701,False,18
A007K26,618,experiment,36,↑,up,↑,0.7155260997824371,True,18
A007K26,619,experiment,36,↓,down,↓,0.5801864000968635,True,18
A007K26,620,experiment,12,→,up,↑,0.6978235999122262,False,18
A007K26,621,experiment,168,←,no_key,no_letter,-1.0,False,18
A007K26,622,experiment,36,↑,up,↑,0.9253446001093835,True,18
A007K26,623,experiment,72,↑,up,↑,0.6106207999400795,True,18
A007K26,624,experiment,180,↑,up,↑,0.5403058999218047,True,18
A007K26,625,experiment,24,↑,up,↑,0.7214424998965114,True,18
A007K26,626,experiment,36,↓,down,↓,0.5073514000978321,True,18
A007K26,627,experiment,48,→,right,→,0.8625215999782085,True,18
A007K26,628,experiment,96,←,left,←,0.5892757000401616,True,18
A007K26,629,experiment,180,←,up,↑,0.7891950998455286,False,18
A007K26,630,experiment,132,↓,down,↓,0.5945751999970526,True,18
A007K26,631,experiment,60,↑,down,↓,0.7005713998805732,False,18
A007K26,632,experiment,12,↑,up,↑,0.6864710000809282,True,18
A007K26,633,experiment,24,←,left,←,0.4003423999529332,True,18
A007K26,634,experiment,24,→,right,→,0.5142095999326557,True,18
A007K26,635,experiment,96,←,left,←,0.4174566001165658,True,18
A007K26,636,experiment,168,→,right,→,0.5944094997830689,True,18
A007K26,637,experiment,96,←,right,→,0.6991156998556107,False,18
A007K26,638,experiment,72,←,left,←,0.48782040015794337,True,18
A007K26,639,experiment,72,↓,up,↑,0.8180991001427174,False,18
A007K26,640,experiment,132,↓,down,↓,0.5875973000656813,True,18
A007K26,641,experiment,60,↑,down,↓,0.7981950000394136,False,18
A007K26,642,experiment,132,↓,down,↓,0.6126420998480171,True,18
A007K26,643,experiment,156,↑,left,←,0.7478285999968648,False,18
A007K26,644,experiment,168,↓,down,↓,0.7214683000929654,True,18
A007K26,645,experiment,120,↑,up,↑,0.6754911998286843,True,18
A007K26,646,experiment,108,↑,up,↑,0.5226684999652207,True,18
A007K26,647,experiment,72,→,right,→,0.5148907999973744,True,18
A007K26,648,experiment,144,↑,left,←,0.36701259994879365,False,18
A007K26,649,experiment,120,→,down,↓,0.730354700004682,False,18
A007K26,650,experiment,156,→,right,→,0.5929321998264641,True,18
A007K26,651,experiment,60,↓,down,↓,0.5875720998737961,True,18
A007K26,652,experiment,132,→,right,→,0.49202620005235076,True,18
A007K26,653,experiment,24,←,left,←,0.5747213000431657,True,18
A007K26,654,experiment,12,←,left,←,0.41748860012739897,True,18
A007K26,655,experiment,120,←,left,←,0.4833566998131573,True,18
A007K26,656,experiment,144,←,down,↓,1.008341500069946,False,18
A007K26,657,experiment,84,↓,down,↓,0.6292688001412898,True,18
A007K26,658,experiment,96,←,right,→,0.6237519001588225,False,18
A007K26,659,experiment,180,↓,down,↓,0.6282598997931927,True,18
A007K26,660,experiment,156,↓,down,↓,0.5566378000658005,True,18
A007K26,661,training,48,←,left,←,0.5429648000281304,True,18
A007K26,662,training,72,↓,down,↓,0.6282416000030935,True,18
A007K26,663,training,156,↓,down,↓,0.9149116999469697,True,18
A007K26,664,experiment,72,↓,down,↓,0.6576384999789298,True,18
A007K26,665,experiment,180,←,left,←,0.5687279999256134,True,18
A007K26,666,experiment,180,←,down,↓,0.9735391999129206,False,18
A007K26,667,experiment,48,↓,down,↓,0.6020309999585152,True,18
A007K26,668,experiment,96,←,down,↓,0.8045969000086188,False,18
A007K26,669,experiment,96,↑,up,↑,0.5359509999398142,True,18
A007K26,670,experiment,168,←,down,↓,0.8072253002319485,False,18
A007K26,671,experiment,84,↑,right,→,0.6383481998927891,False,18
A007K26,672,experiment,120,↑,right,→,0.6022229997906834,False,18
A007K26,673,experiment,60,↑,up,↑,0.5319658000953496,True,18
A007K26,674,experiment,84,↑,down,↓,0.913806099910289,False,18
A007K26,675,experiment,156,→,right,→,0.5954195000231266,True,18
A007K26,676,experiment,132,←,left,←,0.5126183000393212,True,18
A007K26,677,experiment,12,←,left,←,0.5065874999854714,True,18
A007K26,678,experiment,24,→,right,→,0.5648920000530779,True,18
A007K26,679,experiment,36,↓,right,→,0.6676541001070291,False,18
A007K26,680,experiment,180,↑,up,↑,0.5282817000988871,True,18
A007K26,681,experiment,48,←,right,→,0.6875648000277579,False,18
A007K26,682,experiment,144,←,right,→,0.6998731000348926,False,18
A007K26,683,experiment,12,←,no_key,no_letter,-1.0,False,18
A007K26,684,experiment,156,↑,up,↑,0.4858394998591393,True,18
A007K26,685,experiment,36,→,right,→,0.5209391999524087,True,18
A007K26,686,experiment,36,←,left,←,0.43378680013120174,True,18
A007K26,687,experiment,108,↑,right,→,0.4750875998288393,False,18
A007K26,688,experiment,48,↑,up,↑,1.0178687998559326,True,18
A007K26,689,experiment,108,→,right,→,0.5570557001046836,True,18
A007K26,690,experiment,108,←,left,←,0.4338276998605579,True,18
A007K26,691,experiment,60,↑,down,↓,0.9816328999586403,False,18
A007K26,692,experiment,144,←,right,→,0.6054652000311762,False,18
A007K26,693,experiment,24,←,right,→,1.7826180001720786,False,18
A007K26,694,experiment,168,←,left,←,0.4870527999009937,True,18
A007K26,695,experiment,180,←,no_key,no_letter,-1.0,False,18
A007K26,696,experiment,108,↓,up,↑,0.7139484998770058,False,18
A007K26,697,experiment,96,↑,up,↑,0.5719200000166893,True,18
A007K26,698,experiment,84,→,right,→,0.5894460999406874,True,18
A007K26,699,experiment,24,←,left,←,0.6918591998983175,True,18
A007K26,700,experiment,156,↑,up,↑,0.5037509000394493,True,18
A007K26,701,experiment,120,→,right,→,0.5739146000705659,True,18
A007K26,702,experiment,144,←,left,←,0.4816962000913918,True,18
A007K26,703,experiment,96,←,right,→,0.5513183001894504,False,18
A007K26,704,experiment,60,→,right,→,0.5167952000629157,True,18
A007K26,705,experiment,132,↑,up,↑,0.7074229000136256,True,18
A007K26,706,experiment,132,↑,up,↑,0.5350273000076413,True,18
A007K26,707,experiment,12,↓,no_key,no_letter,-1.0,False,18
A007K26,708,experiment,144,→,up,↑,1.2095618001185358,False,18
A007K26,709,experiment,120,↑,up,↑,0.5806376000400633,True,18
A007K26,710,experiment,72,↓,right,→,0.8663159999996424,False,18
A007K26,711,experiment,24,↑,up,↑,0.5462269999552518,True,18
A007K26,712,experiment,168,→,right,→,0.5319739999249578,True,18
A007K26,713,experiment,132,↑,up,↑,0.8526670997962356,True,18
A007K26,714,experiment,60,↑,up,↑,0.47178849996998906,True,18
A007K26,715,experiment,120,↑,up,↑,0.721895799972117,True,18
A007K26,716,experiment,72,←,right,→,0.979363199789077,False,18
A007K26,717,experiment,36,↓,down,↓,0.6414473000913858,True,18
A007K26,718,experiment,72,↓,down,↓,0.5003651001024991,True,18
A007K26,719,experiment,12,↓,down,↓,0.8535753998439759,True,18
A007K26,720,experiment,84,↑,down,↓,0.7518994000274688,False,18
A007K26,721,experiment,168,→,right,→,0.5838069999590516,True,18
A007K26,722,experiment,156,→,right,→,0.5434999999124557,True,18
A007K26,723,experiment,48,↑,up,↑,0.48780290014110506,True,18
A007K26,724,training,24,←,right,→,0.7941726997960359,False,18
A007K26,725,training,180,↓,down,↓,0.6466464998666197,True,18
A007K26,726,training,60,←,left,←,0.564978500129655,True,18
A007K26,727,experiment,24,↓,down,↓,0.6087468999903649,True,18
A007K26,728,experiment,48,→,right,→,0.5201892000623047,True,18
A007K26,729,experiment,180,→,right,→,0.536347399931401,True,18
A007K26,730,experiment,120,↑,right,→,0.6102960999123752,False,18
A007K26,731,experiment,96,→,right,→,0.47901160013861954,True,18
A007K26,732,experiment,84,↓,right,→,0.6582493998575956,False,18
A007K26,733,experiment,144,→,right,→,0.5436807000078261,True,18
A007K26,734,experiment,24,←,right,→,0.5929835999850184,False,18
A007K26,735,experiment,60,←,down,↓,1.8962367000058293,False,18
A007K26,736,experiment,168,→,right,→,0.4858130000066012,True,18
A007K26,737,experiment,156,→,right,→,0.7268137000501156,True,18
A007K26,738,experiment,84,↑,right,→,0.5360551001504064,False,18
A007K26,739,experiment,48,↓,down,↓,0.6679172001313418,True,18
A007K26,740,experiment,60,↑,down,↓,0.8012006001081318,False,18
A007K26,741,experiment,108,→,right,→,0.7241253999527544,True,18
A007K26,742,experiment,72,→,no_key,no_letter,-1.0,False,18
A007K26,743,experiment,48,↑,up,↑,0.5356504998635501,True,18
A007K26,744,experiment,120,↓,right,→,0.7329714999068528,False,18
A007K26,745,experiment,12,↑,up,↑,0.5099816001020372,True,18
A007K26,746,experiment,48,↑,up,↑,0.40105009987019,True,18
A007K26,747,experiment,168,→,right,→,0.6181699999142438,True,18
A007K26,748,experiment,156,→,right,→,0.433748799841851,True,18
A007K26,749,experiment,144,↓,down,↓,0.7701021998655051,True,18
A007K26,750,experiment,12,↓,down,↓,0.6316323999781162,True,18
A007K26,751,experiment,12,↓,no_key,no_letter,-1.0,False,18
A007K26,752,experiment,96,↑,no_key,no_letter,-1.0,False,18
A007K26,753,experiment,132,↑,right,→,0.6041691999416798,False,18
A007K26,754,experiment,156,→,down,↓,1.258034500060603,False,18
A007K26,755,experiment,24,↑,up,↑,0.7115700000431389,True,18
A007K26,756,experiment,180,↓,down,↓,0.6490263999439776,True,18
A007K26,757,experiment,108,↑,right,→,0.8351612000260502,False,18
A007K26,758,experiment,96,→,right,→,0.5359481000341475,True,18
A007K26,759,experiment,108,←,left,←,0.5255939001217484,True,18
A007K26,760,experiment,60,←,right,→,0.6067963000386953,False,18
A007K26,761,experiment,36,↓,right,→,0.7780991999898106,False,18
A007K26,762,experiment,72,↓,down,↓,1.0151130999438465,True,18
A007K26,763,experiment,36,↓,down,↓,0.5799563999753445,True,18
A007K26,764,experiment,60,↓,down,↓,0.6942267999984324,True,18
A007K26,765,experiment,72,←,down,↓,0.8219566000625491,False,18
A007K26,766,experiment,24,↑,down,↓,1.2068165999371558,False,18
A007K26,767,experiment,72,→,right,→,0.6211218000389636,True,18
A007K26,768,experiment,156,→,right,→,0.7074080999009311,True,18
A007K26,769,experiment,144,↓,down,↓,0.6336870999075472,True,18
A007K26,770,experiment,144,↑,down,↓,0.7577963001094759,False,18
A007K26,771,experiment,132,↓,down,↓,0.5004019998013973,True,18
A007K26,772,experiment,180,→,right,→,0.621969599975273,True,18
A007K26,773,experiment,120,↑,right,→,0.7090143000241369,False,18
A007K26,774,experiment,36,↑,up,↑,0.6496492000296712,True,18
A007K26,775,experiment,12,→,down,↓,0.8792487001046538,False,18
A007K26,776,experiment,120,↑,down,↓,0.8780032000504434,False,18
A007K26,777,experiment,168,↑,left,←,0.8439222001470625,False,18
A007K26,778,experiment,36,→,right,→,0.5748240000102669,True,18
A007K26,779,experiment,180,→,right,→,0.47705579991452396,True,18
A007K26,780,experiment,168,↓,down,↓,0.8601448000408709,True,18
A007K26,781,experiment,84,→,right,→,0.5833507000934333,True,18
A007K26,782,experiment,132,↓,down,↓,0.6090925999451429,True,18
A007K26,783,experiment,96,↑,no_key,no_letter,-1.0,False,18
A007K26,784,experiment,84,↑,right,→,0.7755845999345183,False,18
A007K26,785,experiment,132,←,left,←,0.4337737997993827,True,18
A007K26,786,experiment,108,←,right,→,0.6131108999252319,False,18
A007K26,787,training,96,→,left,←,0.7589022000320256,False,18
A007K26,788,training,96,↓,right,→,0.6221811000723392,False,18
A007K26,789,training,96,→,right,→,0.540559999877587,True,18
A007K26,790,experiment,12,←,left,←,1.4530211999081075,True,18
A007K26,791,experiment,24,→,right,→,0.9574577000457793,True,18
A007K26,792,experiment,144,↓,down,↓,0.7250819001346827,True,18
A007K26,793,experiment,48,←,no_key,no_letter,-1.0,False,18
A007K26,794,experiment,156,↑,up,↑,0.7386946999467909,True,18
A007K26,795,experiment,24,←,no_key,no_letter,-1.0,False,18
A007K26,796,experiment,84,↑,up,↑,0.5323582999408245,True,18
A007K26,797,experiment,108,←,right,→,0.587721599964425,False,18
A007K26,798,experiment,12,↓,down,↓,0.7427074001170695,True,18
A007K26,799,experiment,144,→,right,→,0.5195930998306721,True,18
A007K26,800,experiment,168,↑,no_key,no_letter,-1.0,False,18
A007K26,801,experiment,108,→,right,→,0.5908076998312026,True,18
A007K26,802,experiment,120,←,left,←,0.5782981999218464,True,18
A007K26,803,experiment,168,↓,right,→,0.5626586000435054,False,18
A007K26,804,experiment,72,→,left,←,1.0934908001217991,False,18
A007K26,805,experiment,12,↓,right,→,0.7496433998458087,False,18
A007K26,806,experiment,132,→,right,→,0.569162400206551,True,18
A007K26,807,experiment,168,→,right,→,0.5571596999652684,True,18
A007K26,808,experiment,156,↓,down,↓,0.7559957001358271,True,18
A007K26,809,experiment,60,→,right,→,0.6362119000405073,True,18
A007K26,810,experiment,12,←,left,←,0.48555290000513196,True,18
A007K26,811,experiment,84,←,left,←,0.4877215998712927,True,18
A007K26,812,experiment,72,↑,up,↑,0.5382641998585314,True,18
A007K26,813,experiment,84,←,right,→,0.535458599915728,False,18
A007K26,814,experiment,36,↓,right,→,0.5509466000366956,False,18
A007K26,815,experiment,156,↑,right,→,0.5207586998585612,False,18
A007K26,816,experiment,96,→,right,→,0.5346307000145316,True,18
A007K26,817,experiment,96,↑,right,→,0.8806799999438226,False,18
A007K26,818,experiment,156,→,right,→,0.495142700150609,True,18
A007K26,819,experiment,168,↑,right,→,0.6018217999953777,False,18
A007K26,820,experiment,108,←,left,←,0.41711800009943545,True,18
A007K26,821,experiment,72,→,right,→,0.5531219998374581,True,18
A007K26,822,experiment,132,↓,down,↓,0.6655357999261469,True,18
A007K26,823,experiment,60,→,right,→,1.1947673000395298,True,18
A007K26,824,experiment,96,←,right,→,0.5175083000212908,False,18
A007K26,825,experiment,36,↑,up,↑,0.6213863999582827,True,18
A007K26,826,experiment,48,→,right,→,0.5954887999687344,True,18
A007K26,827,experiment,132,↓,down,↓,0.6183434000704437,True,18
A007K26,828,experiment,96,→,down,↓,1.0288801998831332,False,18
A007K26,829,experiment,48,↓,down,↓,0.5947742001153529,True,18
A007K26,830,experiment,36,←,right,→,0.8655701000243425,False,18
A007K26,831,experiment,108,→,right,→,0.5186032000929117,True,18
A007K26,832,experiment,144,↓,down,↓,0.6099918999243528,True,18
A007K26,833,experiment,120,↑,up,↑,0.48210819996893406,True,18
A007K26,834,experiment,60,←,no_key,no_letter,-1.0,False,18
A007K26,835,experiment,120,↓,down,↓,0.6471051000989974,True,18
A007K26,836,experiment,24,←,left,←,0.7254767001140863,True,18
A007K26,837,experiment,72,↓,left,←,0.38382670003920794,False,18
A007K26,838,experiment,36,←,down,↓,0.8423741001170129,False,18
A007K26,839,experiment,180,→,down,↓,0.6930647999979556,False,18
A007K26,840,experiment,60,→,right,→,0.557461200049147,True,18
A007K26,841,experiment,24,↑,up,↑,0.4922936998773366,True,18
A007K26,842,experiment,132,↓,down,↓,0.6833951999433339,True,18
A007K26,843,experiment,84,←,left,←,0.51352130016312,True,18
A007K26,844,experiment,180,↑,right,→,0.756612699944526,False,18
A007K26,845,experiment,120,←,right,→,0.7481756000779569,False,18
A007K26,846,experiment,144,↓,down,↓,0.7554802999366075,True,18
A007K26,847,experiment,180,↓,left,←,1.6472744999919087,False,18
A007K26,848,experiment,180,→,right,→,0.6388964999932796,True,18
A007K26,849,experiment,48,↑,down,↓,0.9585045999847353,False,18
