PART_ID,Trial_no,Trial_type,PDI,Stim_letter,Key_pressed,letter_choose,Rt,Corr,Stimulus Time
A008K28,1,training,10,↑,no_key,no_letter,-1.0,False,30
A008K28,2,training,10,↑,right,→,0.21691839999402873,False,30
A008K28,3,training,10,↑,right,→,1.3740408000012394,False,30
A008K28,4,training,10,←,left,←,1.8288616000063485,True,30
A008K28,5,training,10,←,left,←,0.9050767000007909,True,30
A008K28,6,training,10,←,left,←,1.0751769999915268,True,30
A008K28,7,training,10,←,left,←,0.9501414999976987,True,30
A008K28,8,training,10,↓,down,↓,1.5686961000028532,True,30
A008K28,9,training,10,↓,down,↓,0.9951068999944255,True,30
A008K28,10,training,10,→,right,→,0.9001414999947883,True,30
A008K28,11,training,10,←,left,←,0.8952627999969991,True,30
A008K28,12,training,10,↓,down,↓,1.0662066000077175,True,30
A008K28,13,training,10,→,right,→,1.1324365999898873,True,30
A008K28,14,training,10,↑,right,→,1.7664661000017077,False,30
A008K28,15,training,10,↓,down,↓,1.0530868000059854,True,30
A008K28,16,training,10,↑,up,↑,1.5469688000011956,True,30
A008K28,17,training,10,→,right,→,0.6004979999997886,True,30
A008K28,18,training,10,↑,down,↓,1.948368199999095,False,30
A008K28,19,training,10,←,left,←,1.0089117000024999,True,30
A008K28,20,training,10,→,right,→,0.5504265000054147,True,30
A008K28,21,training,10,→,left,←,0.535126400005538,False,18
A008K28,22,training,10,↓,down,↓,0.5096579000091879,True,18
A008K28,23,training,10,→,right,→,0.7484258999902522,True,18
A008K28,24,training,10,←,left,←,0.686221600000863,True,18
A008K28,25,training,10,↑,up,↑,1.2024735000013607,True,18
A008K28,26,training,10,←,left,←,0.7991534000029787,True,18
A008K28,27,training,10,↓,down,↓,0.6607441999949515,True,18
A008K28,28,training,10,↓,down,↓,0.8171964999928605,True,18
A008K28,29,training,10,←,down,↓,1.5810679999995045,False,18
A008K28,30,training,10,↑,up,↑,0.6892878000071505,True,18
A008K28,31,training,72,↓,down,↓,0.7119801999942865,True,15
A008K28,32,training,132,↑,down,↓,0.9688440999889281,False,15
A008K28,33,training,168,↑,up,↑,0.8436191999935545,True,15
A008K28,34,experiment,96,↑,up,↑,1.679271000000881,True,15
A008K28,35,experiment,132,←,no_key,no_letter,-1.0,False,15
A008K28,36,experiment,48,←,left,←,0.6456910999986576,True,15
A008K28,37,experiment,132,↑,down,↓,0.9770125000068219,False,15
A008K28,38,experiment,108,↓,no_key,no_letter,-1.0,False,15
A008K28,39,experiment,24,←,left,←,1.2818289999995613,True,15
A008K28,40,experiment,12,→,right,→,1.0249502999940887,True,15
A008K28,41,experiment,168,↓,down,↓,0.7821392000041669,True,15
A008K28,42,experiment,48,↑,right,→,1.0162989999953425,False,15
A008K28,43,experiment,144,→,right,→,0.508502500000759,True,15
A008K28,44,experiment,36,↑,no_key,no_letter,-1.0,False,15
A008K28,45,experiment,168,→,right,→,0.8799265999987256,True,15
A008K28,46,experiment,108,→,right,→,0.47025790000043344,True,15
A008K28,47,experiment,36,↑,no_key,no_letter,-1.0,False,15
A008K28,48,experiment,72,↓,down,↓,1.6580605000053765,True,15
A008K28,49,experiment,132,↓,down,↓,0.62010790000204,True,15
A008K28,50,experiment,84,→,right,→,1.0433098999928916,True,15
A008K28,51,experiment,180,→,right,→,0.4735369999980321,True,15
A008K28,52,experiment,84,↓,down,↓,0.5826541999995243,True,15
A008K28,53,experiment,36,↑,right,→,1.1563802000018768,False,15
A008K28,54,experiment,156,→,right,→,0.6086189999914495,True,15
A008K28,55,experiment,180,↑,up,↑,0.7881334999983665,True,15
A008K28,56,experiment,12,→,up,↑,1.4888596999953734,False,15
A008K28,57,experiment,72,←,right,→,1.0195012999902247,False,15
A008K28,58,experiment,48,→,right,→,0.6147609000036027,True,15
A008K28,59,experiment,12,→,right,→,1.0173991000046954,True,15
A008K28,60,experiment,156,→,right,→,0.5945769000099972,True,15
A008K28,61,experiment,24,→,left,←,0.9869433999992907,False,15
A008K28,62,experiment,60,→,right,→,0.47020729999348987,True,15
A008K28,63,experiment,84,←,left,←,0.6032019999984186,True,15
A008K28,64,experiment,144,→,right,→,0.4624047000106657,True,15
A008K28,65,experiment,120,←,left,←,0.4519063999905484,True,15
A008K28,66,experiment,108,←,left,←,0.6173733999894466,True,15
A008K28,67,experiment,168,↑,up,↑,1.008043000008911,True,15
A008K28,68,experiment,156,↓,left,←,0.783447800000431,False,15
A008K28,69,experiment,96,↓,down,↓,0.5784601000050316,True,15
A008K28,70,experiment,60,→,right,→,0.5521522000053665,True,15
A008K28,71,experiment,108,→,right,→,0.48133860000234563,True,15
A008K28,72,experiment,168,↑,down,↓,0.751120600005379,False,15
A008K28,73,experiment,12,↓,down,↓,0.8534079000091879,True,15
A008K28,74,experiment,72,→,down,↓,0.7175036000116961,False,15
A008K28,75,experiment,48,←,left,←,0.5244031000038376,True,15
A008K28,76,experiment,24,↑,up,↑,1.5253137000108836,True,15
A008K28,77,experiment,96,↓,down,↓,1.3430700000026263,True,15
A008K28,78,experiment,96,↑,down,↓,0.8626185000030091,False,15
A008K28,79,experiment,24,↓,down,↓,0.7653416999964975,True,15
A008K28,80,experiment,120,↑,up,↑,0.6245671999931801,True,15
A008K28,81,experiment,144,↑,up,↑,1.301186199998483,True,15
A008K28,82,experiment,60,↑,up,↑,0.8039451000076951,True,15
A008K28,83,experiment,72,↓,right,→,1.308376999993925,False,15
A008K28,84,experiment,180,→,left,←,0.9679541999939829,False,15
A008K28,85,experiment,120,→,right,→,0.5254079000005731,True,15
A008K28,86,experiment,120,→,right,→,0.9609230999922147,True,15
A008K28,87,experiment,132,↑,left,←,0.8483050000068033,False,15
A008K28,88,experiment,180,→,right,→,0.8705134999909205,True,15
A008K28,89,experiment,156,↓,down,↓,0.6375313999888021,True,15
A008K28,90,experiment,60,↓,left,←,1.4468123999977252,False,15
A008K28,91,experiment,36,→,left,←,0.8434756000060588,False,15
A008K28,92,experiment,84,↑,left,←,1.007375699991826,False,15
A008K28,93,experiment,144,←,right,→,1.2291710999998031,False,15
A008K28,94,training,168,↓,down,↓,1.1077012000023387,True,15
A008K28,95,training,48,←,right,→,1.076972199996817,False,15
A008K28,96,training,48,↓,right,→,0.9154344000126002,False,15
A008K28,97,experiment,72,→,right,→,0.7250350999966031,True,15
A008K28,98,experiment,180,↑,up,↑,1.0069059999950696,True,15
A008K28,99,experiment,60,→,left,←,0.6753729000047315,False,15
A008K28,100,experiment,108,↓,right,→,0.7629391000082251,False,15
A008K28,101,experiment,180,←,left,←,0.5161428999999771,True,15
A008K28,102,experiment,144,↑,down,↓,0.9235863999929279,False,15
A008K28,103,experiment,84,↓,down,↓,1.762097900005756,True,15
A008K28,104,experiment,84,↑,up,↑,0.5887825000099838,True,15
A008K28,105,experiment,12,↓,down,↓,0.695229200005997,True,15
A008K28,106,experiment,72,→,right,→,0.6754555999941658,True,15
A008K28,107,experiment,84,←,left,←,0.9618726999906357,True,15
A008K28,108,experiment,156,↑,up,↑,0.5757842000020901,True,15
A008K28,109,experiment,36,→,right,→,0.5922607999964384,True,15
A008K28,110,experiment,24,↑,up,↑,0.5437655999994604,True,15
A008K28,111,experiment,156,↓,down,↓,0.5782423000055132,True,15
A008K28,112,experiment,72,←,right,→,1.0300821999990148,False,15
A008K28,113,experiment,48,←,right,→,0.7582027000025846,False,15
A008K28,114,experiment,156,←,left,←,0.5503047999955015,True,15
A008K28,115,experiment,24,↓,right,→,0.9553095000010217,False,15
A008K28,116,experiment,120,↑,up,↑,0.6180794000101741,True,15
A008K28,117,experiment,84,→,right,→,0.7305297999992035,True,15
A008K28,118,experiment,36,←,left,←,0.6183858000003966,True,15
A008K28,119,experiment,120,←,left,←,1.1559046999900602,True,15
A008K28,120,experiment,132,←,left,←,0.5112746999948286,True,15
A008K28,121,experiment,156,↑,up,↑,0.5668376999965403,True,15
A008K28,122,experiment,108,↑,up,↑,0.49623350000183564,True,15
A008K28,123,experiment,180,↓,down,↓,0.64229940000223,True,15
A008K28,124,experiment,48,→,right,→,0.5746820000058506,True,15
A008K28,125,experiment,108,→,right,→,0.9441441000089981,True,15
A008K28,126,experiment,24,↑,left,←,1.1489202000084333,False,15
A008K28,127,experiment,120,↑,up,↑,0.6238409000070533,True,15
A008K28,128,experiment,132,↑,up,↑,0.6053118999989238,True,15
A008K28,129,experiment,168,↑,up,↑,0.5581936999951722,True,15
A008K28,130,experiment,60,→,right,→,0.9787775000004331,True,15
A008K28,131,experiment,168,↑,up,↑,0.5614430999994511,True,15
A008K28,132,experiment,144,↑,right,→,0.7492343000049004,False,15
A008K28,133,experiment,132,↑,up,↑,0.4790960999962408,True,15
A008K28,134,experiment,12,←,left,←,0.5979000000079395,True,15
A008K28,135,experiment,60,↓,right,→,0.9230362999951467,False,15
A008K28,136,experiment,96,←,left,←,0.4757840000092983,True,15
A008K28,137,experiment,48,←,right,→,0.6987501999974484,False,15
A008K28,138,experiment,180,←,right,→,0.4614011999947252,False,15
A008K28,139,experiment,96,←,right,→,0.48749910001060925,False,15
A008K28,140,experiment,36,↓,right,→,0.9226824999932433,False,15
A008K28,141,experiment,48,→,right,→,0.696447199996328,True,15
A008K28,142,experiment,72,←,right,→,1.1001485000015236,False,15
A008K28,143,experiment,144,→,right,→,1.1627361999999266,True,15
A008K28,144,experiment,12,↑,down,↓,0.7779127999965567,False,15
A008K28,145,experiment,12,↓,down,↓,0.720126900007017,True,15
A008K28,146,experiment,120,←,right,→,0.7291051000065636,False,15
A008K28,147,experiment,144,←,left,←,0.5807873000012478,True,15
A008K28,148,experiment,36,→,right,→,0.6987478999944869,True,15
A008K28,149,experiment,96,←,left,←,0.42425890000595246,True,15
A008K28,150,experiment,132,→,right,→,0.5137069000047632,True,15
A008K28,151,experiment,108,→,right,→,0.5499172000127146,True,15
A008K28,152,experiment,168,↓,down,↓,0.6492487999930745,True,15
A008K28,153,experiment,60,→,right,→,0.5392345000000205,True,15
A008K28,154,experiment,168,↑,down,↓,0.8102789999975357,False,15
A008K28,155,experiment,96,↓,down,↓,0.6446874999965075,True,15
A008K28,156,experiment,24,→,right,→,0.6479613999981666,True,15
A008K28,157,training,96,↑,right,→,0.48771359999955166,False,15
A008K28,158,training,12,←,left,←,0.6840342999930726,True,15
A008K28,159,training,12,↓,down,↓,0.9093001000001095,True,15
A008K28,160,experiment,132,↑,down,↓,0.7045590999914566,False,15
A008K28,161,experiment,108,↓,down,↓,0.5644114999886369,True,15
A008K28,162,experiment,24,↑,up,↑,0.5941387000057148,True,15
A008K28,163,experiment,72,↑,up,↑,0.48353459998907056,True,15
A008K28,164,experiment,24,←,right,→,0.828956700002891,False,15
A008K28,165,experiment,108,↓,up,↑,0.5101426999899559,False,15
A008K28,166,experiment,144,↑,down,↓,0.7216351000097347,False,15
A008K28,167,experiment,36,↓,up,↑,0.8307778000016697,False,15
A008K28,168,experiment,24,↑,right,→,0.9722925000096438,False,15
A008K28,169,experiment,72,→,right,→,0.522570100001758,True,15
A008K28,170,experiment,84,↑,up,↑,0.7697458999900846,True,15
A008K28,171,experiment,84,↑,up,↑,0.5804912000021432,True,15
A008K28,172,experiment,12,↓,right,→,0.8496168999990914,False,15
A008K28,173,experiment,144,→,right,→,0.5034307000023546,True,15
A008K28,174,experiment,132,→,right,→,0.49498859999584965,True,15
A008K28,175,experiment,60,→,right,→,0.5440133999945829,True,15
A008K28,176,experiment,60,←,left,←,1.0560878000105731,True,15
A008K28,177,experiment,84,↓,down,↓,0.618851099992753,True,15
A008K28,178,experiment,84,←,left,←,0.5618647999945097,True,15
A008K28,179,experiment,36,↓,right,→,0.6783602999930736,False,15
A008K28,180,experiment,180,↓,down,↓,0.718838799992227,True,15
A008K28,181,experiment,168,←,left,←,0.7574003999907291,True,15
A008K28,182,experiment,96,→,left,←,0.6061076000041794,False,15
A008K28,183,experiment,168,←,right,→,0.591921100000036,False,15
A008K28,184,experiment,120,↓,down,↓,0.6824064999964321,True,15
A008K28,185,experiment,48,→,right,→,0.9326984000072116,True,15
A008K28,186,experiment,144,↓,down,↓,0.6782385000115028,True,15
A008K28,187,experiment,24,↑,left,←,0.7701279000029899,False,15
A008K28,188,experiment,96,←,left,←,0.4389762999926461,True,15
A008K28,189,experiment,108,←,left,←,0.46084390000032727,True,15
A008K28,190,experiment,60,←,right,→,0.7855649999983143,False,15
A008K28,191,experiment,36,→,right,→,0.576327400005539,True,15
A008K28,192,experiment,156,→,right,→,0.5576838999986649,True,15
A008K28,193,experiment,12,↓,right,→,1.027958500009845,False,15
A008K28,194,experiment,48,↓,down,↓,0.7182173000037437,True,15
A008K28,195,experiment,168,→,right,→,0.4999447999871336,True,15
A008K28,196,experiment,96,→,right,→,0.7320938000048045,True,15
A008K28,197,experiment,36,→,right,→,0.6277277000044705,True,15
A008K28,198,experiment,156,↑,down,↓,0.8657106000027852,False,15
A008K28,199,experiment,144,↑,right,→,0.5251461000007112,False,15
A008K28,200,experiment,12,←,left,←,0.5374136999889743,True,15
A008K28,201,experiment,96,←,left,←,0.46518479999213014,True,15
A008K28,202,experiment,132,←,left,←,0.6812754999991739,True,15
A008K28,203,experiment,72,↓,down,↓,0.9399159000022337,True,15
A008K28,204,experiment,180,↑,up,↑,0.8464203000039561,True,15
A008K28,205,experiment,180,↑,left,←,1.4030978000082541,False,15
A008K28,206,experiment,12,→,right,→,1.1771393999952124,True,15
A008K28,207,experiment,156,↓,down,↓,0.8314182000030996,True,15
A008K28,208,experiment,120,↓,down,↓,0.6998081999918213,True,15
A008K28,209,experiment,156,↑,up,↑,1.1361100999929477,True,15
A008K28,210,experiment,132,→,right,→,0.6138571999908891,True,15
A008K28,211,experiment,168,←,left,←,0.5123086999956286,True,15
A008K28,212,experiment,180,←,right,→,0.4615228000038769,False,15
A008K28,213,experiment,48,←,left,←,0.4688882000045851,True,15
A008K28,214,experiment,72,→,left,←,0.4237283000111347,False,15
A008K28,215,experiment,108,↓,down,↓,0.8949993000132963,True,15
A008K28,216,experiment,60,←,left,←,0.5601671999902464,True,15
A008K28,217,experiment,120,→,right,→,0.5179837999894517,True,15
A008K28,218,experiment,120,↑,up,↑,0.5074113000009675,True,15
A008K28,219,experiment,48,←,left,←,0.634201299995766,True,15
A008K28,220,training,144,↓,down,↓,0.6304219000012381,True,15
A008K28,221,training,24,↑,no_key,no_letter,-1.0,False,15
A008K28,222,training,84,↑,up,↑,0.8054548999934923,True,15
A008K28,223,experiment,60,↓,down,↓,0.7235259000008227,True,15
A008K28,224,experiment,24,↓,down,↓,1.3229807000025176,True,15
A008K28,225,experiment,72,↑,up,↑,0.9842515000054846,True,15
A008K28,226,experiment,12,↑,up,↑,0.5657608000037726,True,15
A008K28,227,experiment,168,↑,down,↓,0.9239724000071874,False,15
A008K28,228,experiment,96,→,right,→,0.6703298000065843,True,15
A008K28,229,experiment,72,→,no_key,no_letter,-1.0,False,15
A008K28,230,experiment,120,↓,down,↓,0.7661391000001458,True,15
A008K28,231,experiment,168,↓,down,↓,0.6578092000127072,True,15
A008K28,232,experiment,144,↓,down,↓,0.64068870000483,True,15
A008K28,233,experiment,12,←,down,↓,0.8604437000030885,False,15
A008K28,234,experiment,84,↓,down,↓,0.8162766000023112,True,15
A008K28,235,experiment,36,↑,down,↓,0.7186537999950815,False,15
A008K28,236,experiment,180,→,right,→,0.5922333999915281,True,15
A008K28,237,experiment,180,↓,right,→,0.9266717999998946,False,15
A008K28,238,experiment,72,↓,right,→,0.7066007999965223,False,15
A008K28,239,experiment,12,←,left,←,0.7138929000066128,True,15
A008K28,240,experiment,144,→,right,→,0.4574312999902759,True,15
A008K28,241,experiment,24,↑,down,↓,0.821601700008614,False,15
A008K28,242,experiment,156,↓,left,←,0.5019254000071669,False,15
A008K28,243,experiment,168,←,left,←,0.45606059998681303,True,15
A008K28,244,experiment,120,↑,up,↑,0.5669989000016358,True,15
A008K28,245,experiment,132,↑,up,↑,0.5337570999981835,True,15
A008K28,246,experiment,132,↓,up,↑,0.534236499996041,False,15
A008K28,247,experiment,156,←,right,→,0.5262072000041371,False,15
A008K28,248,experiment,36,←,right,→,1.3315315999934683,False,15
A008K28,249,experiment,108,←,left,←,0.8911857000057353,True,15
A008K28,250,experiment,144,↓,left,←,1.4221369000006234,False,15
A008K28,251,experiment,60,↑,right,→,0.8050169000052847,False,15
A008K28,252,experiment,84,←,left,←,0.7843686999985948,True,15
A008K28,253,experiment,36,→,left,←,0.5827604999940377,False,15
A008K28,254,experiment,96,↑,up,↑,0.6170509000075981,True,15
A008K28,255,experiment,144,↓,down,↓,0.6912044000055175,True,15
A008K28,256,experiment,84,↑,up,↑,0.7110628000082215,True,15
A008K28,257,experiment,180,←,left,←,0.8375927000015508,True,15
A008K28,258,experiment,108,↓,down,↓,0.698873299988918,True,15
A008K28,259,experiment,60,→,left,←,1.4654970999981742,False,15
A008K28,260,experiment,132,←,left,←,0.6165192000044044,True,15
A008K28,261,experiment,60,↑,down,↓,0.7489370999974199,False,15
A008K28,262,experiment,156,→,left,←,0.6346822000050452,False,15
A008K28,263,experiment,96,↑,up,↑,0.5694573000073433,True,15
A008K28,264,experiment,72,←,left,←,0.7981992999993963,True,15
A008K28,265,experiment,24,→,right,→,0.8600338000105694,True,15
A008K28,266,experiment,120,←,left,←,1.492566999993869,True,15
A008K28,267,experiment,48,←,left,←,0.5714225999981863,True,15
A008K28,268,experiment,48,←,left,←,0.7835086999984924,True,15
A008K28,269,experiment,168,↑,down,↓,0.7677766999986488,False,15
A008K28,270,experiment,180,→,right,→,0.6779702000058023,True,15
A008K28,271,experiment,48,↓,down,↓,0.6545790999953169,True,15
A008K28,272,experiment,108,↑,down,↓,0.6530270999937784,False,15
A008K28,273,experiment,84,↓,down,↓,0.62387409999792,True,15
A008K28,274,experiment,12,↑,down,↓,1.0219280000019353,False,15
A008K28,275,experiment,24,↑,up,↑,0.6562478999985615,True,15
A008K28,276,experiment,132,←,left,←,0.52000560000306,True,15
A008K28,277,experiment,96,→,left,←,0.4782250000134809,False,15
A008K28,278,experiment,48,→,right,→,0.8107130999997025,True,15
A008K28,279,experiment,36,↓,down,↓,0.8061119000049075,True,15
A008K28,280,experiment,156,←,left,←,0.5572135999973398,True,15
A008K28,281,experiment,120,→,right,→,0.5260771000030218,True,15
A008K28,282,experiment,108,↑,up,↑,0.7629557000036584,True,15
A008K28,283,training,156,←,left,←,0.5603084999893326,True,15
A008K28,284,training,180,↑,up,↑,0.5278000999969663,True,15
A008K28,285,training,168,←,left,←,0.5330825999990338,True,15
A008K28,286,experiment,24,←,left,←,1.009834900003625,True,15
A008K28,287,experiment,108,↑,up,↑,0.5091840000095544,True,15
A008K28,288,experiment,156,←,left,←,0.5309755999915069,True,15
A008K28,289,experiment,132,↑,up,↑,0.5816236999962712,True,15
A008K28,290,experiment,156,←,left,←,0.5206310000066878,True,15
A008K28,291,experiment,168,↑,up,↑,0.5171706000110134,True,15
A008K28,292,experiment,36,↑,down,↓,0.8209234999958426,False,15
A008K28,293,experiment,84,→,left,←,0.6407506000105059,False,15
A008K28,294,experiment,96,↑,down,↓,0.6864681000006385,False,15
A008K28,295,experiment,84,↓,down,↓,0.6092912000021897,True,15
A008K28,296,experiment,60,→,left,←,0.6650099999969825,False,15
A008K28,297,experiment,12,→,left,←,0.6987840000074357,False,15
A008K28,298,experiment,48,↓,up,↑,0.5380655999906594,False,15
A008K28,299,experiment,48,↑,down,↓,0.7839448999875458,False,15
A008K28,300,experiment,48,←,left,←,0.5477232999983244,True,15
A008K28,301,experiment,132,←,left,←,0.47895219999190886,True,15
A008K28,302,experiment,84,←,left,←,0.600220200009062,True,15
A008K28,303,experiment,96,→,left,←,0.47829810000257567,False,15
A008K28,304,experiment,36,↑,right,→,0.9803739000053611,False,15
A008K28,305,experiment,72,←,left,←,0.47633479999785777,True,15
A008K28,306,experiment,96,↑,up,↑,0.546178599994164,True,15
A008K28,307,experiment,60,↑,down,↓,0.6720821000053547,False,15
A008K28,308,experiment,60,→,right,→,0.6216446999897016,True,15
A008K28,309,experiment,12,↓,down,↓,0.6817404000030365,True,15
A008K28,310,experiment,168,→,right,→,0.6338007000013022,True,15
A008K28,311,experiment,156,→,right,→,0.5227777999971295,True,15
A008K28,312,experiment,168,→,right,→,0.6805281999986619,True,15
A008K28,313,experiment,108,←,left,←,0.5526030999899376,True,15
A008K28,314,experiment,144,↓,down,↓,0.6703065000037896,True,15
A008K28,315,experiment,24,→,up,↑,1.0127111000037985,False,15
A008K28,316,experiment,36,↑,down,↓,0.734279999989667,False,15
A008K28,317,experiment,60,↓,up,↑,1.0297513999976218,False,15
A008K28,318,experiment,108,←,left,←,0.6127262000081828,True,15
A008K28,319,experiment,12,↓,down,↓,0.7077504000044428,True,15
A008K28,320,experiment,144,←,right,→,0.720687299995916,False,15
A008K28,321,experiment,72,→,left,←,0.5236377999972319,False,15
A008K28,322,experiment,144,↑,up,↑,0.5002611999952933,True,15
A008K28,323,experiment,96,→,down,↓,0.6125879000028362,False,15
A008K28,324,experiment,84,←,left,←,0.606018699996639,True,15
A008K28,325,experiment,24,↑,down,↓,0.7005636999965645,False,15
A008K28,326,experiment,132,↓,down,↓,0.6842465000081575,True,15
A008K28,327,experiment,132,←,left,←,0.608042400010163,True,15
A008K28,328,experiment,156,←,left,←,0.5812783000001218,True,15
A008K28,329,experiment,180,↓,down,↓,0.6204320999968331,True,15
A008K28,330,experiment,24,↑,up,↑,0.5134827000001678,True,15
A008K28,331,experiment,180,→,right,→,0.6380337999871699,True,15
A008K28,332,experiment,168,↑,up,↑,0.7788190999999642,True,15
A008K28,333,experiment,72,↓,down,↓,0.7521426999883261,True,15
A008K28,334,experiment,180,↑,up,↑,0.5244335000024876,True,15
A008K28,335,experiment,120,↓,down,↓,0.7931974999955855,True,15
A008K28,336,experiment,144,→,right,→,0.6266077000036603,True,15
A008K28,337,experiment,72,→,left,←,1.1987134000082733,False,15
A008K28,338,experiment,120,→,right,→,0.6301470000034897,True,15
A008K28,339,experiment,48,↑,down,↓,0.8075851000030525,False,15
A008K28,340,experiment,120,←,left,←,0.6592767999973148,True,15
A008K28,341,experiment,12,←,right,→,0.6001706999959424,False,15
A008K28,342,experiment,36,←,left,←,0.8899557999975514,True,15
A008K28,343,experiment,120,↑,up,↑,0.5661339999933261,True,15
A008K28,344,experiment,108,↑,up,↑,0.5196742999978596,True,15
A008K28,345,experiment,180,→,left,←,0.6053418999945279,False,15
A008K28,346,training,36,↓,down,↓,0.7361836999916704,True,15
A008K28,347,training,168,←,left,←,0.6453886999952374,True,15
A008K28,348,training,120,→,left,←,0.4397954000014579,False,15
A008K28,349,experiment,144,↑,up,↑,0.6277167999942321,True,15
A008K28,350,experiment,84,↓,down,↓,0.6204741999972612,True,15
A008K28,351,experiment,36,→,left,←,0.5740096000081394,False,15
A008K28,352,experiment,156,→,right,→,0.5032332999981008,True,15
A008K28,353,experiment,60,←,left,←,0.467115699997521,True,15
A008K28,354,experiment,168,↑,up,↑,0.5502249999990454,True,15
A008K28,355,experiment,60,→,left,←,0.5791036000009626,False,15
A008K28,356,experiment,24,←,left,←,0.6081491000077222,True,15
A008K28,357,experiment,84,↑,down,↓,0.6496606000000611,False,15
A008K28,358,experiment,180,→,right,→,0.46753280000120867,True,15
A008K28,359,experiment,36,↓,down,↓,0.6721855999930995,True,15
A008K28,360,experiment,24,↑,down,↓,0.6008765000005951,False,15
A008K28,361,experiment,168,→,right,→,0.5354551999917021,True,15
A008K28,362,experiment,108,↑,left,←,0.9884026999934576,False,15
A008K28,363,experiment,12,←,right,→,0.5193991999985883,False,15
A008K28,364,experiment,36,←,right,→,0.4776156000007177,False,15
A008K28,365,experiment,108,↑,up,↑,0.509529000002658,True,15
A008K28,366,experiment,72,↑,down,↓,0.6857263999991119,False,15
A008K28,367,experiment,72,↓,down,↓,0.5548090999945998,True,15
A008K28,368,experiment,72,↑,up,↑,0.6713540000055218,True,15
A008K28,369,experiment,144,↓,down,↓,0.5800906000076793,True,15
A008K28,370,experiment,108,←,down,↓,0.6032779999950435,False,15
A008K28,371,experiment,36,↓,down,↓,0.6991103000036674,True,15
A008K28,372,experiment,60,↓,down,↓,0.6047736999898916,True,15
A008K28,373,experiment,96,↓,down,↓,0.579984299998614,True,15
A008K28,374,experiment,132,→,left,←,0.7560055999929318,False,15
A008K28,375,experiment,48,↑,down,↓,0.5827582000056282,False,15
A008K28,376,experiment,48,↑,down,↓,0.6909217999927932,False,15
A008K28,377,experiment,168,↑,down,↓,0.6883472000045003,False,15
A008K28,378,experiment,84,↓,down,↓,0.6369468000048073,True,15
A008K28,379,experiment,120,↓,down,↓,0.575500999999349,True,15
A008K28,380,experiment,48,↑,down,↓,0.6367459000030067,False,15
A008K28,381,experiment,132,→,left,←,0.517043100000592,False,15
A008K28,382,experiment,24,↑,up,↑,0.6593926999921678,True,15
A008K28,383,experiment,156,→,right,→,0.5139978999941377,True,15
A008K28,384,experiment,24,↓,down,↓,0.6274011000059545,True,15
A008K28,385,experiment,144,→,right,→,0.5165938999998616,True,15
A008K28,386,experiment,60,←,left,←,0.6107161000109045,True,15
A008K28,387,experiment,12,→,right,→,0.7053338999976404,True,15
A008K28,388,experiment,132,→,left,←,0.7309655999997631,False,15
A008K28,389,experiment,48,←,right,→,0.5429234000039287,False,15
A008K28,390,experiment,144,→,right,→,0.572324299995671,True,15
A008K28,391,experiment,120,↓,left,←,0.4286863000015728,False,15
A008K28,392,experiment,12,→,right,→,0.8741652000026079,True,15
A008K28,393,experiment,180,←,left,←,0.7310740999964764,True,15
A008K28,394,experiment,96,→,right,→,0.5575728999974672,True,15
A008K28,395,experiment,120,↓,right,→,0.5564523000066401,False,15
A008K28,396,experiment,96,←,left,←,0.5088593999971636,True,15
A008K28,397,experiment,72,↑,down,↓,0.6683129000011832,False,15
A008K28,398,experiment,12,←,left,←,0.5444019999995362,True,15
A008K28,399,experiment,132,←,left,←,0.7647761999978684,True,15
A008K28,400,experiment,180,↓,down,↓,0.6169771999993827,True,15
A008K28,401,experiment,168,↑,up,↑,0.5050132000033045,True,15
A008K28,402,experiment,96,→,right,→,0.6245020999922417,True,15
A008K28,403,experiment,180,↑,up,↑,0.5042494999943301,True,15
A008K28,404,experiment,84,→,right,→,0.5782221999979811,True,15
A008K28,405,experiment,156,→,right,→,0.5516288000071654,True,15
A008K28,406,experiment,120,↓,up,↑,0.4852183999901172,False,15
A008K28,407,experiment,108,↑,up,↑,0.5025755999959074,True,15
A008K28,408,experiment,156,↓,down,↓,0.6315355999977328,True,15
A008K28,409,training,144,→,left,←,0.5194623999996111,False,15
A008K28,410,training,156,←,left,←,0.5115242000028957,True,15
A008K28,411,training,48,→,right,→,0.5576796999957878,True,15
A008K28,412,experiment,84,↑,up,↑,0.6034652999951504,True,15
A008K28,413,experiment,12,↑,up,↑,0.5622848000057274,True,15
A008K28,414,experiment,168,→,right,→,0.46121320000384003,True,15
A008K28,415,experiment,180,→,right,→,0.4449679999961518,True,15
A008K28,416,experiment,96,→,right,→,0.6957264999946347,True,15
A008K28,417,experiment,168,↑,up,↑,0.4972583000053419,True,15
A008K28,418,experiment,144,↑,up,↑,0.48300780000863597,True,15
A008K28,419,experiment,120,↑,up,↑,0.4293582999962382,True,15
A008K28,420,experiment,132,→,left,←,0.5230612000013934,False,15
A008K28,421,experiment,96,→,right,→,0.4685810999944806,True,15
A008K28,422,experiment,96,→,right,→,0.59088819999306,True,15
A008K28,423,experiment,24,↓,down,↓,0.6721474999940256,True,15
A008K28,424,experiment,72,↓,down,↓,0.6017146999947727,True,15
A008K28,425,experiment,108,↑,down,↓,0.5615199999883771,False,15
A008K28,426,experiment,156,←,no_key,no_letter,-1.0,False,15
A008K28,427,experiment,156,↓,down,↓,0.6854301999992458,True,15
A008K28,428,experiment,168,↓,down,↓,0.6201873999962118,True,15
A008K28,429,experiment,96,↓,down,↓,0.6802384000038728,True,15
A008K28,430,experiment,12,↑,up,↑,1.0161688000080176,True,15
A008K28,431,experiment,36,↓,down,↓,0.5541348999977345,True,15
A008K28,432,experiment,144,→,left,←,1.241361299995333,False,15
A008K28,433,experiment,120,→,right,→,0.49617650000436697,True,15
A008K28,434,experiment,144,↑,up,↑,0.6918443000031402,True,15
A008K28,435,experiment,120,→,right,→,1.221306799998274,True,15
A008K28,436,experiment,180,→,left,←,0.6981965000013588,False,15
A008K28,437,experiment,36,←,left,←,0.6679294000059599,True,15
A008K28,438,experiment,12,↑,up,↑,0.5989308999996865,True,15
A008K28,439,experiment,168,↑,up,↑,0.5137161000020569,True,15
A008K28,440,experiment,60,←,left,←,0.5332717999990564,True,15
A008K28,441,experiment,24,↑,up,↑,0.6165171000029659,True,15
A008K28,442,experiment,48,→,right,→,0.529519399991841,True,15
A008K28,443,experiment,36,↑,down,↓,0.8197551000048406,False,15
A008K28,444,experiment,24,↑,up,↑,0.7013231000019005,True,15
A008K28,445,experiment,156,←,left,←,0.5223973000101978,True,15
A008K28,446,experiment,132,↓,down,↓,1.0574745999911102,True,15
A008K28,447,experiment,132,←,left,←,0.5485560999950394,True,15
A008K28,448,experiment,84,↓,down,↓,0.7328411000053165,True,15
A008K28,449,experiment,132,↑,down,↓,0.614029299991671,False,15
A008K28,450,experiment,84,↓,down,↓,0.6441629999899305,True,15
A008K28,451,experiment,60,←,left,←,0.7203697999939322,True,15
A008K28,452,experiment,84,↑,up,↑,0.6476426999870455,True,15
A008K28,453,experiment,48,↑,up,↑,1.0278588000073796,True,15
A008K28,454,experiment,108,→,right,→,0.5614736999996239,True,15
A008K28,455,experiment,60,→,left,←,0.6022554999944987,False,15
A008K28,456,experiment,156,→,left,←,0.5142782000039006,False,15
A008K28,457,experiment,12,←,right,→,0.5970491000043694,False,15
A008K28,458,experiment,108,→,right,→,0.5186893000063719,True,15
A008K28,459,experiment,120,↓,down,↓,0.6563244999997551,True,15
A008K28,460,experiment,180,→,right,→,0.574311200005468,True,15
A008K28,461,experiment,180,→,right,→,0.679100000008475,True,15
A008K28,462,experiment,72,→,right,→,0.5750351000024239,True,15
A008K28,463,experiment,72,↓,down,↓,0.6364711000060197,True,15
A008K28,464,experiment,48,←,left,←,0.631967799999984,True,15
A008K28,465,experiment,48,←,right,→,0.5650791999942157,False,15
A008K28,466,experiment,144,→,left,←,0.5422296000033384,False,15
A008K28,467,experiment,72,↓,down,↓,0.5716842000110773,True,15
A008K28,468,experiment,24,→,down,↓,1.471740899985889,False,15
A008K28,469,experiment,108,↓,down,↓,0.5874805000057677,True,15
A008K28,470,experiment,36,←,left,←,0.7127955000032671,True,15
A008K28,471,experiment,60,←,left,←,0.9212522000016179,True,15
A008K28,472,training,12,←,right,→,0.7886771999910707,False,15
A008K28,473,training,36,←,left,←,0.6639463000028627,True,15
A008K28,474,training,120,→,right,→,0.5788594000041485,True,15
A008K28,475,experiment,120,↑,up,↑,0.5379616999998689,True,15
A008K28,476,experiment,108,↑,down,↓,0.8833416999987094,False,15
A008K28,477,experiment,132,↑,up,↑,0.5859501999948407,True,15
A008K28,478,experiment,72,→,right,→,0.9612042000080692,True,15
A008K28,479,experiment,96,↓,down,↓,0.6249758000049042,True,15
A008K28,480,experiment,144,↑,right,→,0.864697500001057,False,15
A008K28,481,experiment,12,←,left,←,0.7323120000073686,True,15
A008K28,482,experiment,84,↓,down,↓,0.6257982999959495,True,15
A008K28,483,experiment,84,↑,down,↓,0.5829012000031071,False,15
A008K28,484,experiment,120,↓,down,↓,0.6312803000037093,True,15
A008K28,485,experiment,72,↑,up,↑,0.6721342999953777,True,15
A008K28,486,experiment,168,↓,down,↓,0.5364455999952042,True,15
A008K28,487,experiment,132,↓,down,↓,0.5672654999943916,True,15
A008K28,488,experiment,72,↓,down,↓,0.5639030000020284,True,15
A008K28,489,experiment,24,↓,down,↓,0.689093100008904,True,15
A008K28,490,experiment,48,→,down,↓,0.5420204999973066,False,15
A008K28,491,experiment,48,↑,down,↓,0.6067199000099208,False,15
A008K28,492,experiment,180,↑,left,←,0.6801284999964992,False,15
A008K28,493,experiment,60,↑,down,↓,0.5683282999962103,False,15
A008K28,494,experiment,156,↑,up,↑,1.0456594999996014,True,15
A008K28,495,experiment,72,→,right,→,0.6245675999962259,True,15
A008K28,496,experiment,60,←,left,←,0.5700691000092775,True,15
A008K28,497,experiment,84,←,right,→,0.6714383999933489,False,15
A008K28,498,experiment,144,←,right,→,0.5535019999952056,False,15
A008K28,499,experiment,36,↓,down,↓,0.6815919000073336,True,15
A008K28,500,experiment,180,→,right,→,0.5417315999948187,True,15
A008K28,501,experiment,168,→,right,→,0.5415232000086689,True,15
A008K28,502,experiment,60,↑,up,↑,0.5602457999921171,True,15
A008K28,503,experiment,48,→,left,←,0.592645700002322,False,15
A008K28,504,experiment,36,→,right,→,0.5673570999933872,True,15
A008K28,505,experiment,168,←,left,←,0.5696758999984013,True,15
A008K28,506,experiment,84,↑,up,↑,0.5225872000009986,True,15
A008K28,507,experiment,132,→,right,→,0.5236413999955403,True,15
A008K28,508,experiment,180,←,left,←,0.6845669999893289,True,15
A008K28,509,experiment,60,↑,up,↑,0.7261117000016384,True,15
A008K28,510,experiment,132,←,left,←,0.575213399992208,True,15
A008K28,511,experiment,36,←,left,←,1.1439222000044538,True,15
A008K28,512,experiment,24,←,left,←,0.8110161000076914,True,15
A008K28,513,experiment,48,↓,down,↓,0.6888781000016024,True,15
A008K28,514,experiment,96,←,left,←,0.5264109999989159,True,15
A008K28,515,experiment,156,↓,up,↑,0.5474697000026936,False,15
A008K28,516,experiment,12,→,right,→,0.6341842999972869,True,15
A008K28,517,experiment,168,←,left,←,0.6545405999931972,True,15
A008K28,518,experiment,108,↑,up,↑,0.622060000008787,True,15
A008K28,519,experiment,96,←,left,←,0.5926070999994408,True,15
A008K28,520,experiment,156,↑,up,↑,0.7682262999878731,True,15
A008K28,521,experiment,144,→,up,↑,0.6045300999976462,False,15
A008K28,522,experiment,12,←,left,←,0.7002942999970401,True,15
A008K28,523,experiment,12,↓,down,↓,0.7505834000039613,True,15
A008K28,524,experiment,156,↓,down,↓,0.657942700010608,True,15
A008K28,525,experiment,108,↓,down,↓,0.647349499995471,True,15
A008K28,526,experiment,144,→,left,←,0.6839967999985674,False,15
A008K28,527,experiment,108,→,right,→,0.7132645000092452,True,15
A008K28,528,experiment,120,↑,up,↑,0.6418571999965934,True,15
A008K28,529,experiment,24,→,left,←,0.6736197999998694,False,15
A008K28,530,experiment,96,↓,down,↓,0.7065061000030255,True,15
A008K28,531,experiment,180,↑,up,↑,0.6090997999999672,True,15
A008K28,532,experiment,36,↑,up,↑,0.5886708999896655,True,15
A008K28,533,experiment,120,←,left,←,0.5486089000041829,True,15
A008K28,534,experiment,24,→,right,→,0.5715628000034485,True,15
A008K28,535,training,132,↓,down,↓,0.6672077999974135,True,15
A008K28,536,training,60,↑,up,↑,0.5731834999896819,True,15
A008K28,537,training,168,←,left,←,0.7461460999911651,True,15
A008K28,538,experiment,48,→,right,→,0.5780045999999857,True,15
A008K28,539,experiment,36,→,left,←,0.9520016000024043,False,15
A008K28,540,experiment,120,→,right,→,0.5167157999967458,True,15
A008K28,541,experiment,168,↑,up,↑,0.5456453000078909,True,15
A008K28,542,experiment,12,→,right,→,0.6339208999997936,True,15
A008K28,543,experiment,60,←,left,←,0.5253349999984493,True,15
A008K28,544,experiment,48,→,left,←,0.7311538999929326,False,15
A008K28,545,experiment,156,↑,right,→,1.447597799997311,False,15
A008K28,546,experiment,132,↑,up,↑,0.430470500010415,True,15
A008K28,547,experiment,60,↓,down,↓,0.8971091999992495,True,15
A008K28,548,experiment,156,→,left,←,0.5151760000007926,False,15
A008K28,549,experiment,36,←,left,←,0.6932907000009436,True,15
A008K28,550,experiment,24,↓,up,↑,0.5388175999978557,False,15
A008K28,551,experiment,168,→,right,→,0.9207397999998648,True,15
A008K28,552,experiment,180,←,right,→,0.5164873000030639,False,15
A008K28,553,experiment,84,←,left,←,0.6676934999995865,True,15
A008K28,554,experiment,120,←,left,←,0.5599567000026582,True,15
A008K28,555,experiment,156,←,left,←,0.7004237000073772,True,15
A008K28,556,experiment,156,↑,left,←,0.7214544000016758,False,15
A008K28,557,experiment,48,↓,down,↓,0.6688948999944841,True,15
A008K28,558,experiment,24,←,left,←,1.108302000007825,True,15
A008K28,559,experiment,24,↓,no_key,no_letter,-1.0,False,15
A008K28,560,experiment,144,←,left,←,0.644149900006596,True,15
A008K28,561,experiment,12,↓,left,←,0.8933424999995623,False,15
A008K28,562,experiment,168,←,left,←,0.6842156000057003,True,15
A008K28,563,experiment,72,←,left,←,0.4657507999945665,True,15
A008K28,564,experiment,72,←,left,←,0.4956999999994878,True,15
A008K28,565,experiment,24,↓,down,↓,0.6985295000049518,True,15
A008K28,566,experiment,60,↓,down,↓,0.4883987000066554,True,15
A008K28,567,experiment,180,↓,down,↓,0.5015406999882543,True,15
A008K28,568,experiment,132,←,left,←,0.4581697000103304,True,15
A008K28,569,experiment,96,↓,down,↓,0.7246526999952039,True,15
A008K28,570,experiment,108,↑,left,←,0.6219194000004791,False,15
A008K28,571,experiment,108,←,left,←,0.6551261999993585,True,15
A008K28,572,experiment,96,→,right,→,0.5419257000030484,True,15
A008K28,573,experiment,96,↓,down,↓,0.587335999996867,True,15
A008K28,574,experiment,84,←,left,←,0.5347646000009263,True,15
A008K28,575,experiment,168,←,left,←,0.5272426000010455,True,15
A008K28,576,experiment,120,→,right,→,0.8083072000008542,True,15
A008K28,577,experiment,180,↑,down,↓,0.6454248999943957,False,15
A008K28,578,experiment,108,→,right,→,0.9113626999896951,True,15
A008K28,579,experiment,12,↓,right,→,1.0273332000069786,False,15
A008K28,580,experiment,84,→,right,→,0.6992424000054598,True,15
A008K28,581,experiment,132,↓,right,→,0.8611306999955559,False,15
A008K28,582,experiment,144,↓,down,↓,0.6330296000087401,True,15
A008K28,583,experiment,144,←,left,←,0.6419771000073524,True,15
A008K28,584,experiment,84,↓,down,↓,0.7014158999954816,True,15
A008K28,585,experiment,36,→,right,→,0.5412452000018675,True,15
A008K28,586,experiment,72,→,right,→,0.49544919999607373,True,15
A008K28,587,experiment,48,←,left,←,0.7561410999915097,True,15
A008K28,588,experiment,36,↓,up,↑,0.7659315000055358,False,15
A008K28,589,experiment,108,↑,up,↑,0.7680688999971608,True,15
A008K28,590,experiment,180,←,left,←,0.5454469000105746,True,15
A008K28,591,experiment,60,→,right,→,0.49228199999197386,True,15
A008K28,592,experiment,96,←,left,←,0.4851842000061879,True,15
A008K28,593,experiment,144,↓,down,↓,0.7004457000002731,True,15
A008K28,594,experiment,72,→,right,→,0.5583145999989938,True,15
A008K28,595,experiment,12,→,left,←,1.0788524999952642,False,15
A008K28,596,experiment,120,↓,down,↓,0.6920164000039222,True,15
A008K28,597,experiment,132,←,left,←,0.534890599999926,True,15
A008K28,598,training,156,←,left,←,0.49293890000262763,True,15
A008K28,599,training,12,↑,left,←,1.427417200000491,False,15
A008K28,600,training,108,↑,up,↑,0.5949989999935497,True,15
A008K28,601,experiment,108,←,left,←,0.7961054999905173,True,15
A008K28,602,experiment,48,↑,down,↓,0.7672407000063686,False,15
A008K28,603,experiment,72,↑,up,↑,0.46281869999074843,True,15
A008K28,604,experiment,108,←,right,→,1.4501663999981247,False,15
A008K28,605,experiment,96,→,left,←,0.5434854000050109,False,15
A008K28,606,experiment,180,↑,right,→,0.6557075000018813,False,15
A008K28,607,experiment,48,↑,right,→,0.9722682999999961,False,15
A008K28,608,experiment,132,←,left,←,0.5166541000071447,True,15
A008K28,609,experiment,12,↑,up,↑,0.6602231000142638,True,15
A008K28,610,experiment,132,↓,up,↑,1.0026708999939729,False,15
A008K28,611,experiment,36,←,left,←,0.8522865999984788,True,15
A008K28,612,experiment,156,←,up,↑,0.609192100004293,False,15
A008K28,613,experiment,168,→,right,→,0.5276854999974603,True,15
A008K28,614,experiment,36,→,right,→,0.5402595999912592,True,15
A008K28,615,experiment,48,↑,up,↑,0.8124808000138728,True,15
A008K28,616,experiment,72,↑,up,↑,0.5456211000127951,True,15
A008K28,617,experiment,36,↑,right,→,0.7372480000049109,False,15
A008K28,618,experiment,96,←,left,←,0.5603605000069365,True,15
A008K28,619,experiment,180,↑,up,↑,0.4707403000065824,True,15
A008K28,620,experiment,120,→,right,→,0.600972999993246,True,15
A008K28,621,experiment,60,→,right,→,0.5200457000028109,True,15
A008K28,622,experiment,156,↑,up,↑,0.6053607000067132,True,15
A008K28,623,experiment,36,↓,down,↓,0.6843257000000449,True,15
A008K28,624,experiment,60,↓,down,↓,0.8167350000003353,True,15
A008K28,625,experiment,12,→,right,→,0.8485443000099622,True,15
A008K28,626,experiment,48,←,left,←,0.5248064999905182,True,15
A008K28,627,experiment,108,←,left,←,0.6140906999935396,True,15
A008K28,628,experiment,24,→,right,→,0.5970486000005621,True,15
A008K28,629,experiment,120,←,left,←,0.5200986999989254,True,15
A008K28,630,experiment,144,↓,down,↓,0.7053730000043288,True,15
A008K28,631,experiment,108,→,right,→,0.5071219000092242,True,15
A008K28,632,experiment,72,↓,down,↓,0.6226993999880506,True,15
A008K28,633,experiment,60,↓,down,↓,0.5822230999910971,True,15
A008K28,634,experiment,24,↑,down,↓,0.6892981999990297,False,15
A008K28,635,experiment,168,→,down,↓,0.6052449999988312,False,15
A008K28,636,experiment,12,←,left,←,0.5997610000049463,True,15
A008K28,637,experiment,84,→,right,→,0.539766799993231,True,15
A008K28,638,experiment,144,→,left,←,0.5886580000078538,False,15
A008K28,639,experiment,180,↓,up,↑,0.6888294999953359,False,15
A008K28,640,experiment,24,→,right,→,0.5637768000015058,True,15
A008K28,641,experiment,180,→,right,→,0.916072299994994,True,15
A008K28,642,experiment,96,↑,up,↑,0.6501312999898801,True,15
A008K28,643,experiment,144,↑,up,↑,0.6057300999964355,True,15
A008K28,644,experiment,168,↑,left,←,0.80617149999307,False,15
A008K28,645,experiment,120,←,left,←,0.4910983000008855,True,15
A008K28,646,experiment,168,→,left,←,0.5529603000031784,False,15
A008K28,647,experiment,84,←,right,→,0.4911398999975063,False,15
A008K28,648,experiment,96,↓,down,↓,0.6884147000091616,True,15
A008K28,649,experiment,156,↑,down,↓,0.759271599992644,False,15
A008K28,650,experiment,60,→,right,→,0.4998780000023544,True,15
A008K28,651,experiment,84,→,right,→,0.5378568000014639,True,15
A008K28,652,experiment,144,↑,up,↑,0.5276306000014301,True,15
A008K28,653,experiment,132,→,right,→,0.4972632999997586,True,15
A008K28,654,experiment,132,→,right,→,0.9278537999925902,True,15
A008K28,655,experiment,120,↓,down,↓,0.7634569999936502,True,15
A008K28,656,experiment,72,←,left,←,0.5034029999951599,True,15
A008K28,657,experiment,84,↑,up,↑,0.6541389000049094,True,15
A008K28,658,experiment,156,→,right,→,0.5087099999946076,True,15
A008K28,659,experiment,24,↓,no_key,no_letter,-1.0,False,15
A008K28,660,experiment,12,←,left,←,0.41933820000849664,True,15
A008K28,661,training,24,↓,right,→,0.8434421999991173,False,15
A008K28,662,training,168,↓,down,↓,0.5314758000022266,True,15
A008K28,663,training,108,↓,left,←,0.8508829999918817,False,15
A008K28,664,experiment,12,←,left,←,0.5123311000061221,True,15
A008K28,665,experiment,144,↓,down,↓,0.6199139999953331,True,15
A008K28,666,experiment,132,←,left,←,0.5895247000007657,True,15
A008K28,667,experiment,120,↓,down,↓,0.6508688000030816,True,15
A008K28,668,experiment,84,←,left,←,0.5133771000109846,True,15
A008K28,669,experiment,24,↓,down,↓,0.5745198000076925,True,15
A008K28,670,experiment,12,↓,down,↓,0.713235099989106,True,15
A008K28,671,experiment,60,→,right,→,0.6053348999994341,True,15
A008K28,672,experiment,48,↓,no_key,no_letter,-1.0,False,15
A008K28,673,experiment,132,↓,down,↓,0.6826582999929087,True,15
A008K28,674,experiment,72,→,left,←,0.48147379999863915,False,15
A008K28,675,experiment,168,→,right,→,0.47392190000391565,True,15
A008K28,676,experiment,36,↑,right,→,0.5838398000050802,False,15
A008K28,677,experiment,48,←,right,→,0.49313090000941884,False,15
A008K28,678,experiment,72,↑,down,↓,0.7347162000078242,False,15
A008K28,679,experiment,120,→,right,→,0.5309574999992037,True,15
A008K28,680,experiment,180,→,right,→,0.48635220000869595,True,15
A008K28,681,experiment,96,←,right,→,0.5381987000000663,False,15
A008K28,682,experiment,156,↓,down,↓,0.7310747000010451,True,15
A008K28,683,experiment,24,↓,down,↓,0.6325674000108847,True,15
A008K28,684,experiment,84,→,right,→,0.5258103000087431,True,15
A008K28,685,experiment,180,↑,up,↑,0.518958400003612,True,15
A008K28,686,experiment,36,↑,down,↓,0.6552888000005623,False,15
A008K28,687,experiment,108,→,right,→,0.7194795999967027,True,15
A008K28,688,experiment,72,←,left,←,0.6186544999945909,True,15
A008K28,689,experiment,108,↓,down,↓,0.7157030000089435,True,15
A008K28,690,experiment,36,←,left,←,0.6672077999974135,True,15
A008K28,691,experiment,156,↓,down,↓,0.6654777000076137,True,15
A008K28,692,experiment,144,↓,down,↓,0.7236240000056569,True,15
A008K28,693,experiment,168,←,left,←,0.7266131999931531,True,15
A008K28,694,experiment,108,←,left,←,0.5486751999997068,True,15
A008K28,695,experiment,132,→,right,→,0.8368122000101721,True,15
A008K28,696,experiment,96,↓,down,↓,0.6514208000007784,True,15
A008K28,697,experiment,144,→,right,→,0.5247969000047306,True,15
A008K28,698,experiment,24,↓,down,↓,0.6327362999873003,True,15
A008K28,699,experiment,132,↓,down,↓,0.7618557999958284,True,15
A008K28,700,experiment,156,→,right,→,0.5834351999947103,True,15
A008K28,701,experiment,48,←,left,←,0.6288510000013048,True,15
A008K28,702,experiment,168,↓,down,↓,0.6119757999986177,True,15
A008K28,703,experiment,48,→,right,→,0.5835357000032673,True,15
A008K28,704,experiment,144,↓,right,→,0.7920910000102594,False,15
A008K28,705,experiment,12,←,left,←,1.0840667000011308,True,15
A008K28,706,experiment,12,↓,down,↓,0.651905299993814,True,15
A008K28,707,experiment,180,→,left,←,0.5636159999994561,False,15
A008K28,708,experiment,120,←,left,←,0.6646938000048976,True,15
A008K28,709,experiment,60,→,right,→,0.6755550000088988,True,15
A008K28,710,experiment,168,↑,right,→,0.6990312999987509,False,15
A008K28,711,experiment,108,↓,down,↓,0.6574691999994684,True,15
A008K28,712,experiment,96,←,left,←,0.5913003000023309,True,15
A008K28,713,experiment,60,↓,down,↓,0.6610272999969311,True,15
A008K28,714,experiment,180,↑,up,↑,0.8498536000115564,True,15
A008K28,715,experiment,36,↓,down,↓,0.6958825000037905,True,15
A008K28,716,experiment,84,↑,up,↑,0.6396641999890562,True,15
A008K28,717,experiment,84,→,right,→,0.6103211000008741,True,15
A008K28,718,experiment,72,→,right,→,0.7734478000056697,True,15
A008K28,719,experiment,60,↑,up,↑,0.7451252000028035,True,15
A008K28,720,experiment,96,↓,down,↓,0.8315485999919474,True,15
A008K28,721,experiment,120,→,right,→,0.7299657999974443,True,15
A008K28,722,experiment,156,←,left,←,0.5614723999897251,True,15
A008K28,723,experiment,24,↓,down,↓,0.6528868999885162,True,15
A008K28,724,training,156,←,left,←,0.5149081999988994,True,15
A008K28,725,training,132,→,left,←,0.5087564999994356,False,15
A008K28,726,training,156,↑,up,↑,0.526208499999484,True,15
A008K28,727,experiment,48,→,left,←,0.594694499988691,False,15
A008K28,728,experiment,180,↑,left,←,0.5330755999893881,False,15
A008K28,729,experiment,96,↑,up,↑,0.5068996000045445,True,15
A008K28,730,experiment,12,↑,up,↑,0.8957914999919012,True,15
A008K28,731,experiment,60,↑,up,↑,0.5511263000080362,True,15
A008K28,732,experiment,108,←,left,←,0.5986197000020184,True,15
A008K28,733,experiment,24,↓,down,↓,0.6887378999963403,True,15
A008K28,734,experiment,144,←,left,←,0.4804424000030849,True,15
A008K28,735,experiment,12,↓,right,→,0.7853943000081927,False,15
A008K28,736,experiment,180,→,right,→,0.49182109998946544,True,15
A008K28,737,experiment,156,↓,down,↓,0.6783472999959486,True,15
A008K28,738,experiment,156,↓,down,↓,0.5780794000020251,True,15
A008K28,739,experiment,48,←,right,→,0.48126549999869894,False,15
A008K28,740,experiment,12,→,right,→,0.5258370000083232,True,15
A008K28,741,experiment,36,↑,right,→,0.8704012999951374,False,15
A008K28,742,experiment,132,→,right,→,0.7306247999949846,True,15
A008K28,743,experiment,84,↓,down,↓,0.672451499995077,True,15
A008K28,744,experiment,120,←,left,←,0.5355973999976413,True,15
A008K28,745,experiment,72,→,left,←,0.5460464999923715,False,15
A008K28,746,experiment,180,→,left,←,0.7512760000099661,False,15
A008K28,747,experiment,168,↑,down,↓,0.6568131999956677,False,15
A008K28,748,experiment,156,↑,down,↓,0.8598801999905845,False,15
A008K28,749,experiment,156,→,left,←,0.5562942999968072,False,15
A008K28,750,experiment,24,←,left,←,0.6754573000071105,True,15
A008K28,751,experiment,36,←,left,←,0.592281200006255,True,15
A008K28,752,experiment,180,↑,left,←,0.9588859000068624,False,15
A008K28,753,experiment,84,→,right,→,0.7431990999903064,True,15
A008K28,754,experiment,60,←,left,←,0.8481580999941798,True,15
A008K28,755,experiment,108,↓,down,↓,0.6440488999942318,True,15
A008K28,756,experiment,36,↓,down,↓,0.7394668000051752,True,15
A008K28,757,experiment,120,↓,right,→,0.7058086000033654,False,15
A008K28,758,experiment,168,→,left,←,0.5650332999939565,False,15
A008K28,759,experiment,132,←,left,←,0.5242143000068609,True,15
A008K28,760,experiment,168,↑,up,↑,0.7440179000113858,True,15
A008K28,761,experiment,96,→,right,→,0.8932265999901574,True,15
A008K28,762,experiment,96,←,left,←,0.5805268999974942,True,15
A008K28,763,experiment,48,←,down,↓,0.8360541000001831,False,15
A008K28,764,experiment,24,↑,up,↑,0.6433977999986382,True,15
A008K28,765,experiment,60,↓,up,↑,0.5481364000006579,False,15
A008K28,766,experiment,84,→,right,→,0.5413446999882581,True,15
A008K28,767,experiment,132,↑,left,←,0.8841862999979639,False,15
A008K28,768,experiment,48,↓,right,→,0.891669799995725,False,15
A008K28,769,experiment,144,←,right,→,0.5231856000027619,False,15
A008K28,770,experiment,36,↑,no_key,no_letter,-1.0,False,15
A008K28,771,experiment,120,↑,up,↑,0.6008174999878975,True,15
A008K28,772,experiment,120,↓,down,↓,0.6922211999917636,True,15
A008K28,773,experiment,168,←,right,→,0.5007850999973016,False,15
A008K28,774,experiment,144,↑,up,↑,0.6730359000066528,True,15
A008K28,775,experiment,144,↑,up,↑,0.5966906999965431,True,15
A008K28,776,experiment,24,→,up,↑,1.1300229000044055,False,15
A008K28,777,experiment,84,↑,up,↑,0.48017610001261346,True,15
A008K28,778,experiment,72,↑,up,↑,0.6416884999925969,True,15
A008K28,779,experiment,12,↑,up,↑,0.5215745000023162,True,15
A008K28,780,experiment,60,↑,up,↑,0.545009299996309,True,15
A008K28,781,experiment,132,↑,up,↑,0.5007596000068588,True,15
A008K28,782,experiment,72,←,left,←,0.725658299998031,True,15
A008K28,783,experiment,108,↑,up,↑,0.49849069998890627,True,15
A008K28,784,experiment,108,→,right,→,0.5676722000062,True,15
A008K28,785,experiment,96,→,left,←,0.724030400000629,False,15
A008K28,786,experiment,72,←,left,←,0.5592920000053709,True,15
A008K28,787,training,60,→,right,→,0.7118207000021357,True,15
A008K28,788,training,96,↑,up,↑,0.5033567999926163,True,15
A008K28,789,training,144,↑,up,↑,0.5455658999999287,True,15
A008K28,790,experiment,48,→,right,→,0.5391690000105882,True,15
A008K28,791,experiment,24,↑,up,↑,0.5142881000065245,True,15
A008K28,792,experiment,144,↓,down,↓,0.6711983999994118,True,15
A008K28,793,experiment,156,↓,right,→,0.9837678999901982,False,15
A008K28,794,experiment,36,→,right,→,0.5895882000040729,True,15
A008K28,795,experiment,168,←,right,→,0.7085094000067329,False,15
A008K28,796,experiment,120,←,left,←,0.9548720999882789,True,15
A008K28,797,experiment,12,←,right,→,0.6657031999930041,False,15
A008K28,798,experiment,120,→,right,→,0.5517352000024403,True,15
A008K28,799,experiment,96,→,left,←,0.635575800013612,False,15
A008K28,800,experiment,108,↓,down,↓,0.7168056999944383,True,15
A008K28,801,experiment,84,→,left,←,0.5878991999925347,False,15
A008K28,802,experiment,48,↑,up,↑,0.5434488000028068,True,15
A008K28,803,experiment,36,↑,down,↓,0.8463793999981135,False,15
A008K28,804,experiment,156,↑,down,↓,0.5720047000068007,False,15
A008K28,805,experiment,108,↓,down,↓,0.5952982000017073,True,15
A008K28,806,experiment,48,←,left,←,0.6853143000043929,True,15
A008K28,807,experiment,84,↑,up,↑,0.6537462999986019,True,15
A008K28,808,experiment,144,↑,up,↑,0.534073000002536,True,15
A008K28,809,experiment,180,→,left,←,0.5873193000006722,False,15
A008K28,810,experiment,12,←,right,→,0.6659687000064878,False,15
A008K28,811,experiment,12,→,left,←,0.5942214999959106,False,15
A008K28,812,experiment,168,↓,down,↓,0.7582572999963304,True,15
A008K28,813,experiment,24,↑,right,→,0.5903362999961246,False,15
A008K28,814,experiment,180,↓,up,↑,0.5236700999957975,False,15
A008K28,815,experiment,72,↓,down,↓,0.6150158999953419,True,15
A008K28,816,experiment,84,←,left,←,0.5281885000003967,True,15
A008K28,817,experiment,96,→,down,↓,0.663558499989449,False,15
A008K28,818,experiment,96,→,right,→,0.5200837000011234,True,15
A008K28,819,experiment,96,→,left,←,0.49900339999294374,False,15
A008K28,820,experiment,144,↓,down,↓,0.6390687999955844,True,15
A008K28,821,experiment,72,→,left,←,0.5155844999972032,False,15
A008K28,822,experiment,180,→,right,→,0.598148700009915,True,15
A008K28,823,experiment,180,↓,down,↓,0.717604500008747,True,15
A008K28,824,experiment,120,↓,down,↓,0.6218091000046115,True,15
A008K28,825,experiment,24,→,left,←,0.6257674000080442,False,15
A008K28,826,experiment,132,↓,down,↓,0.9294860999943921,True,15
A008K28,827,experiment,60,↓,down,↓,0.7050413999968441,True,15
A008K28,828,experiment,168,↑,up,↑,0.549869900001795,True,15
A008K28,829,experiment,60,→,left,←,0.7443417000031332,False,15
A008K28,830,experiment,156,↑,up,↑,0.5173437999910675,True,15
A008K28,831,experiment,132,↓,up,↑,0.49639879999449477,False,15
A008K28,832,experiment,132,↓,down,↓,0.7509836000099313,True,15
A008K28,833,experiment,24,←,left,←,0.5854451999912271,True,15
A008K28,834,experiment,156,→,right,→,1.337538100007805,True,15
A008K28,835,experiment,132,←,right,→,0.6990220000006957,False,15
A008K28,836,experiment,72,↑,up,↑,0.947799200002919,True,15
A008K28,837,experiment,12,←,left,←,0.5425547000049846,True,15
A008K28,838,experiment,108,←,left,←,0.578597700005048,True,15
A008K28,839,experiment,48,↑,down,↓,0.6977552000025753,False,15
A008K28,840,experiment,120,↑,down,↓,0.7331146000069566,False,15
A008K28,841,experiment,36,↓,down,↓,0.7773974000010639,True,15
A008K28,842,experiment,60,→,left,←,0.528466900010244,False,15
A008K28,843,experiment,84,←,left,←,0.5991997000091942,True,15
A008K28,844,experiment,108,←,left,←,0.7706003999919631,True,15
A008K28,845,experiment,144,→,right,→,0.5543445000075735,True,15
A008K28,846,experiment,36,↓,down,↓,0.7242417000088608,True,15
A008K28,847,experiment,168,↓,down,↓,0.7735864999995101,True,15
A008K28,848,experiment,60,↑,down,↓,0.4858937999961199,False,15
A008K28,849,experiment,72,←,left,←,0.6163812000013422,True,15
