PART_ID,Trial_no,Trial_type,PDI,Stim_letter,Key_pressed,letter_choose,Rt,Corr,Stimulus Time
A009K27,1,training,10,↓,no_key,no_letter,-1.0,False,30
A009K27,2,training,10,↑,up,↑,0.7269478000234812,True,30
A009K27,3,training,10,→,right,→,0.8455229001119733,True,30
A009K27,4,training,10,↓,down,↓,0.7799964000005275,True,30
A009K27,5,training,10,←,left,←,0.9298076000995934,True,30
A009K27,6,training,10,←,left,←,1.2441798001527786,True,30
A009K27,7,training,10,←,left,←,0.8718361998908222,True,30
A009K27,8,training,10,↑,up,↑,0.7204940000083297,True,30
A009K27,9,training,10,↓,no_key,no_letter,-1.0,False,30
A009K27,10,training,10,→,right,→,0.6169881999958307,True,30
A009K27,11,training,10,↑,no_key,no_letter,-1.0,False,30
A009K27,12,training,10,↑,up,↑,0.6171131001319736,True,30
A009K27,13,training,10,↓,down,↓,0.5838933000341058,True,30
A009K27,14,training,10,←,left,←,0.6337941999081522,True,30
A009K27,15,training,10,↓,down,↓,0.6170999999158084,True,30
A009K27,16,training,10,↓,right,→,0.2675270000472665,False,30
A009K27,17,training,10,↓,no_key,no_letter,-1.0,False,30
A009K27,18,training,10,↓,down,↓,0.7036435999907553,True,30
A009K27,19,training,10,↑,up,↑,0.9078003000468016,True,30
A009K27,20,training,10,↓,down,↓,0.7594014999922365,True,30
A009K27,21,training,10,↓,down,↓,0.5567185000982136,True,18
A009K27,22,training,10,↓,down,↓,0.43383569992147386,True,18
A009K27,23,training,10,→,right,→,0.6268386000301689,True,18
A009K27,24,training,10,→,right,→,0.8997446000576019,True,18
A009K27,25,training,10,←,right,→,0.5607823000755161,False,18
A009K27,26,training,10,↓,down,↓,0.6862665000371635,True,18
A009K27,27,training,10,←,left,←,0.7059189002029598,True,18
A009K27,28,training,10,↓,no_key,no_letter,-1.0,False,18
A009K27,29,training,10,←,left,←,0.5591641999781132,True,18
A009K27,30,training,10,↑,up,↑,0.6909721000120044,True,18
A009K27,31,training,108,↑,no_key,no_letter,-1.0,False,15
A009K27,32,training,132,→,left,←,1.042776299873367,False,15
A009K27,33,training,168,↑,no_key,no_letter,-1.0,False,15
A009K27,34,experiment,156,→,right,→,0.6075253000017256,True,15
A009K27,35,experiment,12,↓,no_key,no_letter,-1.0,False,15
A009K27,36,experiment,120,↓,down,↓,0.8973780998494476,True,15
A009K27,37,experiment,12,→,left,←,1.1491488001774997,False,15
A009K27,38,experiment,144,↑,down,↓,1.106086399871856,False,15
A009K27,39,experiment,96,↓,down,↓,0.6966825001873076,True,15
A009K27,40,experiment,48,←,left,←,0.8654122999869287,True,15
A009K27,41,experiment,180,→,right,→,0.6180349001660943,True,15
A009K27,42,experiment,120,↓,up,↑,1.3864392000250518,False,15
A009K27,43,experiment,60,←,left,←,0.620826399885118,True,15
A009K27,44,experiment,144,↓,down,↓,0.7421771001536399,True,15
A009K27,45,experiment,180,→,right,→,1.4095296999439597,True,15
A009K27,46,experiment,180,↓,no_key,no_letter,-1.0,False,15
A009K27,47,experiment,108,←,left,←,0.45135580003261566,True,15
A009K27,48,experiment,120,↓,up,↑,1.2021522000432014,False,15
A009K27,49,experiment,36,←,left,←,0.9543847001623362,True,15
A009K27,50,experiment,60,↑,up,↑,0.4537551000248641,True,15
A009K27,51,experiment,132,←,left,←,0.47684390004724264,True,15
A009K27,52,experiment,24,→,left,←,0.6035017999820411,False,15
A009K27,53,experiment,84,←,left,←,0.5196146001107991,True,15
A009K27,54,experiment,144,→,right,→,0.6864316000137478,True,15
A009K27,55,experiment,96,←,down,↓,1.633945400128141,False,15
A009K27,56,experiment,36,←,left,←,0.4756192001514137,True,15
A009K27,57,experiment,24,→,right,→,0.698878699913621,True,15
A009K27,58,experiment,48,←,right,→,0.7605183999985456,False,15
A009K27,59,experiment,144,←,left,←,1.2199884001165628,True,15
A009K27,60,experiment,156,→,right,→,0.8310881000943482,True,15
A009K27,61,experiment,108,←,left,←,0.7770344000309706,True,15
A009K27,62,experiment,12,↑,up,↑,0.5505321000237018,True,15
A009K27,63,experiment,96,→,right,→,0.5201522000133991,True,15
A009K27,64,experiment,24,↓,up,↑,0.9968427999410778,False,15
A009K27,65,experiment,48,←,left,←,0.7195605000015348,True,15
A009K27,66,experiment,60,↑,left,←,0.9983467999845743,False,15
A009K27,67,experiment,132,↓,left,←,0.9939347000326961,False,15
A009K27,68,experiment,72,↑,up,↑,0.7137299000751227,True,15
A009K27,69,experiment,36,←,left,←,0.6500409999862313,True,15
A009K27,70,experiment,156,→,right,→,0.5144147998653352,True,15
A009K27,71,experiment,120,←,left,←,0.9473175001330674,True,15
A009K27,72,experiment,36,←,left,←,0.4770522001199424,True,15
A009K27,73,experiment,180,↓,down,↓,0.7186278998851776,True,15
A009K27,74,experiment,156,↓,down,↓,0.7232644001487643,True,15
A009K27,75,experiment,12,→,up,↑,1.0189818001817912,False,15
A009K27,76,experiment,132,←,left,←,0.509735600091517,True,15
A009K27,77,experiment,84,←,left,←,0.45606320002116263,True,15
A009K27,78,experiment,96,→,right,→,0.5354999999981374,True,15
A009K27,79,experiment,168,↑,left,←,1.779367000097409,False,15
A009K27,80,experiment,48,↑,right,→,0.9268054000567645,False,15
A009K27,81,experiment,72,←,left,←,0.737369199981913,True,15
A009K27,82,experiment,84,↓,down,↓,0.629038600018248,True,15
A009K27,83,experiment,168,↑,up,↑,0.5756027000024915,True,15
A009K27,84,experiment,24,↓,up,↑,1.1982186001259834,False,15
A009K27,85,experiment,168,←,right,→,1.6298131998628378,False,15
A009K27,86,experiment,108,←,right,→,0.9212779998779297,False,15
A009K27,87,experiment,72,↑,down,↓,1.4552928998600692,False,15
A009K27,88,experiment,72,↓,no_key,no_letter,-1.0,False,15
A009K27,89,experiment,84,↓,down,↓,0.8142355000600219,True,15
A009K27,90,experiment,108,←,up,↑,1.4499324997887015,False,15
A009K27,91,experiment,132,→,up,↑,1.454531299881637,False,15
A009K27,92,experiment,168,→,up,↑,0.7625831000041217,False,15
A009K27,93,experiment,60,↑,down,↓,1.022448900155723,False,15
A009K27,94,training,24,→,up,↑,1.541783400112763,False,15
A009K27,95,training,24,←,down,↓,0.8476352000143379,False,15
A009K27,96,training,60,→,right,→,0.52160369977355,True,15
A009K27,97,experiment,180,↑,down,↓,0.7115645001176745,False,15
A009K27,98,experiment,84,→,up,↑,0.8751730001531541,False,15
A009K27,99,experiment,36,←,right,→,1.5276934998109937,False,15
A009K27,100,experiment,12,↓,down,↓,0.8010239999275655,True,15
A009K27,101,experiment,72,→,right,→,0.9529945999383926,True,15
A009K27,102,experiment,108,↑,up,↑,0.5186054001096636,True,15
A009K27,103,experiment,96,↑,up,↑,0.7040261998772621,True,15
A009K27,104,experiment,24,↓,down,↓,0.6961745000444353,True,15
A009K27,105,experiment,48,↑,down,↓,0.700986199779436,False,15
A009K27,106,experiment,96,←,left,←,0.6789526999928057,True,15
A009K27,107,experiment,144,→,left,←,0.5824775998480618,False,15
A009K27,108,experiment,60,→,right,→,0.5753836000803858,True,15
A009K27,109,experiment,168,↑,up,↑,1.021100799785927,True,15
A009K27,110,experiment,180,↓,up,↑,0.9786468998063356,False,15
A009K27,111,experiment,108,↓,down,↓,0.8401802000589669,True,15
A009K27,112,experiment,60,↑,down,↓,0.829076400026679,False,15
A009K27,113,experiment,72,←,up,↑,1.2168158001732081,False,15
A009K27,114,experiment,120,↓,left,←,0.9087587997782975,False,15
A009K27,115,experiment,60,↓,right,→,0.6333061999175698,False,15
A009K27,116,experiment,144,→,right,→,0.6476167000364512,True,15
A009K27,117,experiment,48,↓,left,←,1.5152216998394579,False,15
A009K27,118,experiment,24,←,left,←,0.5471232999116182,True,15
A009K27,119,experiment,120,↑,up,↑,0.7340806999709457,True,15
A009K27,120,experiment,36,→,no_key,no_letter,-1.0,False,15
A009K27,121,experiment,12,↓,left,←,0.5875535998493433,False,15
A009K27,122,experiment,12,↑,down,↓,0.4286748000886291,False,15
A009K27,123,experiment,132,↓,down,↓,0.6090146999340504,True,15
A009K27,124,experiment,144,↑,down,↓,1.1330175001639873,False,15
A009K27,125,experiment,72,↓,down,↓,0.5905500000808388,True,15
A009K27,126,experiment,96,←,left,←,0.5629153999034315,True,15
A009K27,127,experiment,84,↑,down,↓,0.9148629999253899,False,15
A009K27,128,experiment,108,→,right,→,0.8192952000536025,True,15
A009K27,129,experiment,168,←,up,↑,1.281114799901843,False,15
A009K27,130,experiment,84,←,left,←,0.9965399999637157,True,15
A009K27,131,experiment,168,→,left,←,1.7623392001260072,False,15
A009K27,132,experiment,96,←,left,←,0.5605344998184592,True,15
A009K27,133,experiment,24,↓,no_key,no_letter,-1.0,False,15
A009K27,134,experiment,84,↑,up,↑,0.5992836998775601,True,15
A009K27,135,experiment,156,↓,down,↓,1.4873623999301344,True,15
A009K27,136,experiment,36,↓,down,↓,0.8080299000721425,True,15
A009K27,137,experiment,60,↓,down,↓,0.5795825999230146,True,15
A009K27,138,experiment,48,↑,up,↑,0.5753671999555081,True,15
A009K27,139,experiment,72,→,right,→,1.29325670003891,True,15
A009K27,140,experiment,120,↓,up,↑,0.8005389999598265,False,15
A009K27,141,experiment,132,↓,down,↓,0.5490482999011874,True,15
A009K27,142,experiment,12,←,right,→,0.9104109001345932,False,15
A009K27,143,experiment,108,↑,up,↑,1.1419087001122534,True,15
A009K27,144,experiment,180,→,right,→,0.7446564000565559,True,15
A009K27,145,experiment,120,↑,up,↑,0.6036576998885721,True,15
A009K27,146,experiment,156,↓,down,↓,0.5055988999083638,True,15
A009K27,147,experiment,156,→,up,↑,1.3150241998955607,False,15
A009K27,148,experiment,156,←,left,←,0.5177796999923885,True,15
A009K27,149,experiment,36,→,right,→,0.71153310011141,True,15
A009K27,150,experiment,180,↑,up,↑,0.5157928001135588,True,15
A009K27,151,experiment,24,↑,up,↑,0.5481485999189317,True,15
A009K27,152,experiment,48,↑,no_key,no_letter,-1.0,False,15
A009K27,153,experiment,168,↑,up,↑,0.46654880000278354,True,15
A009K27,154,experiment,132,→,right,→,0.8031514999456704,True,15
A009K27,155,experiment,132,→,right,→,0.7037921999581158,True,15
A009K27,156,experiment,144,↓,down,↓,0.6653982000425458,True,15
A009K27,157,training,96,←,left,←,0.6750541999936104,True,15
A009K27,158,training,108,→,right,→,0.9919312000274658,True,15
A009K27,159,training,120,←,left,←,0.7793584000319242,True,15
A009K27,160,experiment,180,↑,up,↑,0.6980572000611573,True,15
A009K27,161,experiment,156,→,right,→,0.6269233000930399,True,15
A009K27,162,experiment,12,↑,up,↑,0.5546523001976311,True,15
A009K27,163,experiment,132,↓,down,↓,0.9803490999620408,True,15
A009K27,164,experiment,72,↓,down,↓,0.5631675999611616,True,15
A009K27,165,experiment,60,→,right,→,0.5356305001769215,True,15
A009K27,166,experiment,24,↑,no_key,no_letter,-1.0,False,15
A009K27,167,experiment,108,↑,up,↑,0.4557283998001367,True,15
A009K27,168,experiment,24,↑,up,↑,0.4397348999045789,True,15
A009K27,169,experiment,84,←,down,↓,0.9981483998708427,False,15
A009K27,170,experiment,72,←,left,←,0.4743005000054836,True,15
A009K27,171,experiment,96,↑,up,↑,0.43615480000153184,True,15
A009K27,172,experiment,144,↑,up,↑,0.7473283999133855,True,15
A009K27,173,experiment,84,↓,down,↓,0.9379414999857545,True,15
A009K27,174,experiment,180,↓,right,→,0.9721570000983775,False,15
A009K27,175,experiment,168,↑,up,↑,0.5091210000682622,True,15
A009K27,176,experiment,36,→,right,→,0.509509100113064,True,15
A009K27,177,experiment,108,↓,down,↓,1.0151696999091655,True,15
A009K27,178,experiment,120,→,right,→,0.5394739999901503,True,15
A009K27,179,experiment,84,←,left,←,0.617794900201261,True,15
A009K27,180,experiment,60,↑,up,↑,0.6092095000203699,True,15
A009K27,181,experiment,60,↑,up,↑,0.5855572000145912,True,15
A009K27,182,experiment,60,↓,down,↓,0.9977987001184374,True,15
A009K27,183,experiment,180,←,left,←,0.5407484001480043,True,15
A009K27,184,experiment,108,↓,up,↑,0.9370770999230444,False,15
A009K27,185,experiment,96,↓,right,→,1.1589480000548065,False,15
A009K27,186,experiment,96,↑,up,↑,0.5111289999913424,True,15
A009K27,187,experiment,168,←,left,←,0.9036308999639004,True,15
A009K27,188,experiment,48,→,right,→,0.49603829998522997,True,15
A009K27,189,experiment,132,↓,down,↓,0.7663667998276651,True,15
A009K27,190,experiment,156,→,right,→,0.5238272999413311,True,15
A009K27,191,experiment,120,←,left,←,0.7775193001143634,True,15
A009K27,192,experiment,12,↑,up,↑,0.9594131000339985,True,15
A009K27,193,experiment,156,↑,up,↑,0.8677332999650389,True,15
A009K27,194,experiment,144,↑,up,↑,0.49490439984947443,True,15
A009K27,195,experiment,132,↓,down,↓,0.7382184001617134,True,15
A009K27,196,experiment,168,→,up,↑,0.4950213001575321,False,15
A009K27,197,experiment,144,←,left,←,0.49523890018463135,True,15
A009K27,198,experiment,120,↓,up,↑,0.8478200999088585,False,15
A009K27,199,experiment,24,↓,down,↓,0.6549013000912964,True,15
A009K27,200,experiment,48,↑,up,↑,0.5976235000416636,True,15
A009K27,201,experiment,36,→,left,←,1.385220600059256,False,15
A009K27,202,experiment,132,←,left,←,0.5395255000330508,True,15
A009K27,203,experiment,180,↓,down,↓,0.9366909998934716,True,15
A009K27,204,experiment,168,↓,down,↓,0.6231889000628144,True,15
A009K27,205,experiment,48,↑,up,↑,0.9005239999387413,True,15
A009K27,206,experiment,48,↑,up,↑,0.5993025999050587,True,15
A009K27,207,experiment,36,↑,up,↑,0.9519567000679672,True,15
A009K27,208,experiment,108,↓,right,→,1.1534028998576105,False,15
A009K27,209,experiment,96,←,left,←,0.7963636999484152,True,15
A009K27,210,experiment,72,↑,down,↓,1.162298700073734,False,15
A009K27,211,experiment,84,↑,up,↑,0.8634025999344885,True,15
A009K27,212,experiment,12,→,up,↑,0.8919023000635207,False,15
A009K27,213,experiment,72,←,left,←,0.48380329995416105,True,15
A009K27,214,experiment,120,↑,up,↑,0.5025567999109626,True,15
A009K27,215,experiment,36,→,right,→,0.9957785999868065,True,15
A009K27,216,experiment,24,←,left,←,0.7901039998978376,True,15
A009K27,217,experiment,144,→,right,→,0.7884804999921471,True,15
A009K27,218,experiment,12,↑,up,↑,0.4817415000870824,True,15
A009K27,219,experiment,156,↑,up,↑,0.48014190001413226,True,15
A009K27,220,training,168,↓,up,↑,0.7255420999135822,False,15
A009K27,221,training,108,←,up,↑,1.3838573000393808,False,15
A009K27,222,training,48,→,left,←,0.7027020999230444,False,15
A009K27,223,experiment,156,←,left,←,0.45081540010869503,True,15
A009K27,224,experiment,96,↓,down,↓,0.6288318999577314,True,15
A009K27,225,experiment,72,↓,down,↓,0.4248999999836087,True,15
A009K27,226,experiment,168,↑,up,↑,0.6223917999304831,True,15
A009K27,227,experiment,156,→,right,→,0.6602547999937087,True,15
A009K27,228,experiment,144,←,left,←,0.6700194000732154,True,15
A009K27,229,experiment,48,←,left,←,0.9487531001213938,True,15
A009K27,230,experiment,108,↓,up,↑,1.296772199915722,False,15
A009K27,231,experiment,24,←,left,←,0.9794417000375688,True,15
A009K27,232,experiment,108,↓,down,↓,0.8504948997870088,True,15
A009K27,233,experiment,132,↑,down,↓,0.7641048000659794,False,15
A009K27,234,experiment,96,←,left,←,0.5747909001074731,True,15
A009K27,235,experiment,12,↑,up,↑,0.6276986000593752,True,15
A009K27,236,experiment,120,←,left,←,0.9144799001514912,True,15
A009K27,237,experiment,48,↓,down,↓,0.6948228001128882,True,15
A009K27,238,experiment,132,↓,down,↓,0.6243323001544923,True,15
A009K27,239,experiment,132,↑,up,↑,0.6846308999229223,True,15
A009K27,240,experiment,120,→,right,→,0.5485593001358211,True,15
A009K27,241,experiment,144,←,left,←,1.1399985998868942,True,15
A009K27,242,experiment,60,↑,up,↑,0.5705273000057787,True,15
A009K27,243,experiment,60,↓,down,↓,0.6317248998675495,True,15
A009K27,244,experiment,60,↑,up,↑,0.6346219999250025,True,15
A009K27,245,experiment,180,↓,up,↑,0.8634279000107199,False,15
A009K27,246,experiment,168,↑,up,↑,0.6429512999020517,True,15
A009K27,247,experiment,120,↑,down,↓,0.814380600117147,False,15
A009K27,248,experiment,84,→,right,→,0.5304086999967694,True,15
A009K27,249,experiment,48,←,left,←,0.604782200185582,True,15
A009K27,250,experiment,84,←,left,←,0.793539599981159,True,15
A009K27,251,experiment,24,↓,up,↑,1.1184585001319647,False,15
A009K27,252,experiment,24,↑,up,↑,1.0901353999506682,True,15
A009K27,253,experiment,96,→,right,→,0.5723973999265581,True,15
A009K27,254,experiment,12,↑,down,↓,1.269145700149238,False,15
A009K27,255,experiment,84,→,right,→,0.5300934000406414,True,15
A009K27,256,experiment,24,↓,down,↓,1.088175999931991,True,15
A009K27,257,experiment,156,→,right,→,0.5201687000226229,True,15
A009K27,258,experiment,108,↓,down,↓,0.712562499800697,True,15
A009K27,259,experiment,12,→,right,→,0.6022061998955905,True,15
A009K27,260,experiment,36,→,right,→,0.6720587001182139,True,15
A009K27,261,experiment,168,←,left,←,0.6433614999987185,True,15
A009K27,262,experiment,120,←,left,←,0.43060199986211956,True,15
A009K27,263,experiment,144,←,left,←,0.49852959997951984,True,15
A009K27,264,experiment,48,↑,up,↑,0.8598128000739962,True,15
A009K27,265,experiment,72,↑,left,←,1.0360878000501543,False,15
A009K27,266,experiment,36,←,left,←,0.9197386000305414,True,15
A009K27,267,experiment,132,←,left,←,0.5025651000905782,True,15
A009K27,268,experiment,96,→,left,←,0.8825746001675725,False,15
A009K27,269,experiment,108,↓,down,↓,0.9145897999405861,True,15
A009K27,270,experiment,72,←,left,←,0.5700171000789851,True,15
A009K27,271,experiment,144,↓,down,↓,0.7132387000601739,True,15
A009K27,272,experiment,180,↑,up,↑,1.1190352998673916,True,15
A009K27,273,experiment,168,→,right,→,0.5852683000266552,True,15
A009K27,274,experiment,72,→,right,→,0.555744000012055,True,15
A009K27,275,experiment,60,↑,left,←,0.906217799987644,False,15
A009K27,276,experiment,36,→,left,←,0.674010300077498,False,15
A009K27,277,experiment,180,←,left,←,0.6230121001135558,True,15
A009K27,278,experiment,36,↓,down,↓,1.017304299864918,True,15
A009K27,279,experiment,156,↓,up,↑,0.884313500020653,False,15
A009K27,280,experiment,12,↓,down,↓,0.8717114001046866,True,15
A009K27,281,experiment,84,↓,down,↓,0.5676412000320852,True,15
A009K27,282,experiment,180,↑,down,↓,0.9132364001125097,False,15
A009K27,283,training,12,↑,up,↑,0.6250742999836802,True,15
A009K27,284,training,60,↑,up,↑,0.5931216001044959,True,15
A009K27,285,training,168,↑,up,↑,0.4609155999496579,True,15
A009K27,286,experiment,108,↑,up,↑,0.4282005000859499,True,15
A009K27,287,experiment,12,↑,up,↑,1.8314771000295877,True,15
A009K27,288,experiment,180,←,right,→,1.1179253000300378,False,15
A009K27,289,experiment,24,↑,up,↑,0.4939224000554532,True,15
A009K27,290,experiment,144,↑,up,↑,1.1306962000671774,True,15
A009K27,291,experiment,72,←,left,←,0.5724841000046581,True,15
A009K27,292,experiment,96,↑,up,↑,0.5093437000177801,True,15
A009K27,293,experiment,48,↓,down,↓,0.862391100032255,True,15
A009K27,294,experiment,48,↓,down,↓,0.6693038998637348,True,15
A009K27,295,experiment,144,↓,down,↓,0.6545057999901474,True,15
A009K27,296,experiment,72,↓,down,↓,1.2671942999586463,True,15
A009K27,297,experiment,120,↑,up,↑,0.47962819994427264,True,15
A009K27,298,experiment,168,←,left,←,0.5856312001124024,True,15
A009K27,299,experiment,96,↓,right,→,1.2421250001061708,False,15
A009K27,300,experiment,144,↓,down,↓,0.7330083001870662,True,15
A009K27,301,experiment,156,↓,down,↓,0.41938800015486777,True,15
A009K27,302,experiment,36,→,left,←,0.7768967000301927,False,15
A009K27,303,experiment,108,→,left,←,0.878155899932608,False,15
A009K27,304,experiment,108,←,left,←,0.7650052001699805,True,15
A009K27,305,experiment,60,→,right,→,0.5395413998048753,True,15
A009K27,306,experiment,84,←,right,→,1.48155270004645,False,15
A009K27,307,experiment,12,→,right,→,0.6034347000531852,True,15
A009K27,308,experiment,168,↓,up,↑,0.797178499866277,False,15
A009K27,309,experiment,96,↑,up,↑,0.7085134000517428,True,15
A009K27,310,experiment,168,↓,up,↑,1.3254336998797953,False,15
A009K27,311,experiment,156,→,right,→,0.6017313001211733,True,15
A009K27,312,experiment,144,↑,up,↑,1.0371216000057757,True,15
A009K27,313,experiment,156,↓,up,↑,0.8556278001051396,False,15
A009K27,314,experiment,84,←,left,←,0.5972782999742776,True,15
A009K27,315,experiment,132,↑,up,↑,0.5366165000014007,True,15
A009K27,316,experiment,60,↓,right,→,1.3559025002177805,False,15
A009K27,317,experiment,36,↓,up,↑,0.7666762999724597,False,15
A009K27,318,experiment,12,←,left,←,0.5362960998900235,True,15
A009K27,319,experiment,132,↑,up,↑,0.49254760006442666,True,15
A009K27,320,experiment,120,↓,down,↓,0.6988714002072811,True,15
A009K27,321,experiment,60,←,left,←,0.49064550013281405,True,15
A009K27,322,experiment,180,↑,up,↑,0.6070024999789894,True,15
A009K27,323,experiment,120,↓,up,↑,0.8169295999687165,False,15
A009K27,324,experiment,60,→,left,←,0.7950000998098403,False,15
A009K27,325,experiment,96,↓,up,↑,0.6565809000749141,False,15
A009K27,326,experiment,120,→,right,→,0.7688282001763582,True,15
A009K27,327,experiment,180,←,left,←,0.632173900026828,True,15
A009K27,328,experiment,168,↑,up,↑,0.8688425000291318,True,15
A009K27,329,experiment,180,→,left,←,0.8722753999754786,False,15
A009K27,330,experiment,132,←,left,←,0.5872105001471937,True,15
A009K27,331,experiment,72,↑,left,←,1.313035200117156,False,15
A009K27,332,experiment,36,→,right,→,0.5015038000419736,True,15
A009K27,333,experiment,36,↑,up,↑,0.4816380001138896,True,15
A009K27,334,experiment,24,↓,up,↑,0.9145543999038637,False,15
A009K27,335,experiment,24,→,right,→,0.5770928000565618,True,15
A009K27,336,experiment,48,↓,down,↓,0.6127295000478625,True,15
A009K27,337,experiment,84,→,right,→,0.5419424998108298,True,15
A009K27,338,experiment,132,→,left,←,0.8397627999074757,False,15
A009K27,339,experiment,156,↑,left,←,0.9467314998619258,False,15
A009K27,340,experiment,24,→,right,→,0.7200156000908464,True,15
A009K27,341,experiment,72,←,left,←,0.48293429985642433,True,15
A009K27,342,experiment,108,→,right,→,0.8923353999853134,True,15
A009K27,343,experiment,48,↓,no_key,no_letter,-1.0,False,15
A009K27,344,experiment,84,←,right,→,0.8159376999828964,False,15
A009K27,345,experiment,12,→,left,←,0.592802100116387,False,15
A009K27,346,training,72,←,no_key,no_letter,-1.0,False,15
A009K27,347,training,84,↑,up,↑,0.7449432001449168,True,15
A009K27,348,training,180,↓,down,↓,0.643354999832809,True,15
A009K27,349,experiment,84,→,left,←,0.7985966000705957,False,15
A009K27,350,experiment,48,↓,right,→,0.7717998998705298,False,15
A009K27,351,experiment,36,←,right,→,0.6196694001555443,False,15
A009K27,352,experiment,108,←,left,←,0.531144900014624,True,15
A009K27,353,experiment,144,↓,down,↓,0.7208485999144614,True,15
A009K27,354,experiment,168,←,left,←,0.6361447998788208,True,15
A009K27,355,experiment,120,↑,up,↑,0.9415118000470102,True,15
A009K27,356,experiment,180,←,right,→,1.2551504999864846,False,15
A009K27,357,experiment,48,→,left,←,0.7513335000257939,False,15
A009K27,358,experiment,48,↓,up,↑,0.7586779999546707,False,15
A009K27,359,experiment,120,→,right,→,1.2741522998549044,True,15
A009K27,360,experiment,108,↑,up,↑,0.5987011999823153,True,15
A009K27,361,experiment,96,↓,up,↑,1.1489623000379652,False,15
A009K27,362,experiment,72,←,up,↑,0.5954095001798123,False,15
A009K27,363,experiment,108,↓,down,↓,0.5774254999123514,True,15
A009K27,364,experiment,12,↑,left,←,1.3512433997821063,False,15
A009K27,365,experiment,48,↑,up,↑,0.5254588001407683,True,15
A009K27,366,experiment,12,→,left,←,0.49534999998286366,False,15
A009K27,367,experiment,72,↓,up,↑,1.010586699936539,False,15
A009K27,368,experiment,168,→,no_key,no_letter,-1.0,False,15
A009K27,369,experiment,156,↓,down,↓,0.43622319982387125,True,15
A009K27,370,experiment,168,↓,down,↓,0.4917720998637378,True,15
A009K27,371,experiment,36,↑,up,↑,0.6761413000058383,True,15
A009K27,372,experiment,84,←,left,←,1.5325541000347584,True,15
A009K27,373,experiment,168,→,right,→,0.46157460007816553,True,15
A009K27,374,experiment,132,↑,up,↑,0.7786173999775201,True,15
A009K27,375,experiment,60,↑,right,→,0.6958492000121623,False,15
A009K27,376,experiment,72,←,right,→,0.5703419998753816,False,15
A009K27,377,experiment,108,→,left,←,0.8263308999594301,False,15
A009K27,378,experiment,156,→,left,←,1.0768043999560177,False,15
A009K27,379,experiment,144,↑,up,↑,1.0647132999729365,True,15
A009K27,380,experiment,12,←,left,←,0.6299493999686092,True,15
A009K27,381,experiment,156,↓,down,↓,0.7008666999172419,True,15
A009K27,382,experiment,24,↓,down,↓,0.6210811999626458,True,15
A009K27,383,experiment,24,↓,down,↓,0.434999099932611,True,15
A009K27,384,experiment,96,↑,up,↑,0.5890609000343829,True,15
A009K27,385,experiment,84,←,left,←,1.028328499989584,True,15
A009K27,386,experiment,180,↑,up,↑,0.8616325000766665,True,15
A009K27,387,experiment,72,↑,up,↑,0.8557385997846723,True,15
A009K27,388,experiment,132,↓,down,↓,0.692411599913612,True,15
A009K27,389,experiment,96,↓,down,↓,1.6989102000370622,True,15
A009K27,390,experiment,60,←,right,→,0.8016822999343276,False,15
A009K27,391,experiment,144,↓,down,↓,0.875864899950102,True,15
A009K27,392,experiment,144,→,right,→,0.5946583000477403,True,15
A009K27,393,experiment,36,→,left,←,0.7363079998176545,False,15
A009K27,394,experiment,60,↑,up,↑,0.6482130999211222,True,15
A009K27,395,experiment,180,↑,up,↑,0.7111160000786185,True,15
A009K27,396,experiment,12,←,right,→,0.70352300000377,False,15
A009K27,397,experiment,156,↓,up,↑,0.6690851000603288,False,15
A009K27,398,experiment,36,↓,down,↓,1.0696470001712441,True,15
A009K27,399,experiment,60,↑,up,↑,0.6978933000937104,True,15
A009K27,400,experiment,120,→,right,→,0.6548536000773311,True,15
A009K27,401,experiment,132,→,right,→,0.541302400175482,True,15
A009K27,402,experiment,180,↓,down,↓,1.805675399955362,True,15
A009K27,403,experiment,24,←,left,←,0.9234083001501858,True,15
A009K27,404,experiment,132,↑,right,→,0.6394530001562089,False,15
A009K27,405,experiment,120,↓,down,↓,0.7204010998830199,True,15
A009K27,406,experiment,84,←,left,←,1.1261364000383765,True,15
A009K27,407,experiment,96,→,right,→,0.5055710000451654,True,15
A009K27,408,experiment,24,→,right,→,0.5219984001014382,True,15
A009K27,409,training,144,↓,down,↓,0.6781571998726577,True,15
A009K27,410,training,48,↓,up,↑,0.9111934998072684,False,15
A009K27,411,training,156,→,left,←,0.8029765000101179,False,15
A009K27,412,experiment,168,→,right,→,0.5129391998052597,True,15
A009K27,413,experiment,180,→,right,→,0.549590100068599,True,15
A009K27,414,experiment,180,↓,down,↓,0.6613826998509467,True,15
A009K27,415,experiment,120,↓,down,↓,0.8678613998927176,True,15
A009K27,416,experiment,144,→,no_key,no_letter,-1.0,False,15
A009K27,417,experiment,168,↑,up,↑,0.5862302000168711,True,15
A009K27,418,experiment,84,↑,up,↑,1.002101100049913,True,15
A009K27,419,experiment,24,←,down,↓,0.7304532998241484,False,15
A009K27,420,experiment,72,→,right,→,0.6239806001540273,True,15
A009K27,421,experiment,84,↓,up,↑,0.8259825001005083,False,15
A009K27,422,experiment,156,←,left,←,0.46552479988895357,True,15
A009K27,423,experiment,84,←,no_key,no_letter,-1.0,False,15
A009K27,424,experiment,120,→,right,→,0.6491088999900967,True,15
A009K27,425,experiment,156,↑,up,↑,0.6310503999702632,True,15
A009K27,426,experiment,168,→,down,↓,1.2126433001831174,False,15
A009K27,427,experiment,96,↑,up,↑,0.8293918999843299,True,15
A009K27,428,experiment,132,←,left,←,0.5229866001754999,True,15
A009K27,429,experiment,144,↑,up,↑,1.6449707001447678,True,15
A009K27,430,experiment,48,↓,down,↓,0.6783943998161703,True,15
A009K27,431,experiment,24,↑,up,↑,0.7531425000634044,True,15
A009K27,432,experiment,48,↓,down,↓,0.8648892000783235,True,15
A009K27,433,experiment,108,↓,down,↓,0.7071762999985367,True,15
A009K27,434,experiment,120,↑,up,↑,0.766491400077939,True,15
A009K27,435,experiment,24,↓,down,↓,0.9964590000454336,True,15
A009K27,436,experiment,36,→,right,→,0.44602610007859766,True,15
A009K27,437,experiment,108,↑,right,→,1.1105024002026767,False,15
A009K27,438,experiment,12,↑,up,↑,0.7731891998555511,True,15
A009K27,439,experiment,72,→,left,←,1.2191913998685777,False,15
A009K27,440,experiment,48,↓,up,↑,1.216289399890229,False,15
A009K27,441,experiment,132,↓,down,↓,0.6264200999867171,True,15
A009K27,442,experiment,72,↓,down,↓,0.8197961999103427,True,15
A009K27,443,experiment,96,←,left,←,0.5098947999067605,True,15
A009K27,444,experiment,108,↑,up,↑,0.7972840999718755,True,15
A009K27,445,experiment,12,←,up,↑,0.7909840000793338,False,15
A009K27,446,experiment,156,↑,up,↑,0.5183671000413597,True,15
A009K27,447,experiment,168,↓,down,↓,0.879226999823004,True,15
A009K27,448,experiment,36,→,right,→,0.8091231000144035,True,15
A009K27,449,experiment,72,→,right,→,0.5233124999795109,True,15
A009K27,450,experiment,132,→,right,→,0.5447751998435706,True,15
A009K27,451,experiment,144,→,right,→,0.7851447998546064,True,15
A009K27,452,experiment,180,→,right,→,0.7957949999254197,True,15
A009K27,453,experiment,48,↑,right,→,0.5918656000867486,False,15
A009K27,454,experiment,144,↑,up,↑,0.6696666998323053,True,15
A009K27,455,experiment,12,←,left,←,0.9412875999696553,True,15
A009K27,456,experiment,60,↓,down,↓,0.6440970001276582,True,15
A009K27,457,experiment,156,←,left,←,0.5886768000200391,True,15
A009K27,458,experiment,60,↑,up,↑,0.5479190999176353,True,15
A009K27,459,experiment,36,→,right,→,1.0940795999486,True,15
A009K27,460,experiment,120,↓,down,↓,0.7185758999548852,True,15
A009K27,461,experiment,60,↓,up,↑,1.883061499800533,False,15
A009K27,462,experiment,84,↓,down,↓,0.5051302998326719,True,15
A009K27,463,experiment,180,↓,down,↓,0.625579799991101,True,15
A009K27,464,experiment,12,←,right,→,0.627906700130552,False,15
A009K27,465,experiment,60,←,right,→,0.9722037999890745,False,15
A009K27,466,experiment,108,↓,down,↓,0.7319288998842239,True,15
A009K27,467,experiment,96,↑,up,↑,0.9213018999435008,True,15
A009K27,468,experiment,36,→,right,→,0.6608955999836326,True,15
A009K27,469,experiment,24,←,down,↓,1.1812904998660088,False,15
A009K27,470,experiment,96,→,right,→,0.5128330001607537,True,15
A009K27,471,experiment,132,↑,up,↑,0.4942348999902606,True,15
A009K27,472,training,12,↓,no_key,no_letter,-1.0,False,15
A009K27,473,training,84,→,right,→,0.5092837000265718,True,15
A009K27,474,training,120,↑,up,↑,0.4991222999524325,True,15
A009K27,475,experiment,60,←,left,←,0.5425328998826444,True,15
A009K27,476,experiment,60,↑,up,↑,0.5539477998390794,True,15
A009K27,477,experiment,120,←,left,←,0.6366091000381857,True,15
A009K27,478,experiment,168,↑,up,↑,0.48899029986932874,True,15
A009K27,479,experiment,48,←,no_key,no_letter,-1.0,False,15
A009K27,480,experiment,84,↓,up,↑,0.8188757000025362,False,15
A009K27,481,experiment,48,↑,up,↑,0.533725299872458,True,15
A009K27,482,experiment,84,↑,no_key,no_letter,-1.0,False,15
A009K27,483,experiment,12,↓,down,↓,0.9197704999241978,True,15
A009K27,484,experiment,36,→,right,→,0.5059162999968976,True,15
A009K27,485,experiment,72,→,right,→,0.5420186999253929,True,15
A009K27,486,experiment,120,←,left,←,0.5499199000187218,True,15
A009K27,487,experiment,72,←,left,←,0.47916080011054873,True,15
A009K27,488,experiment,180,→,left,←,0.8833890999667346,False,15
A009K27,489,experiment,108,→,right,→,0.897354100132361,True,15
A009K27,490,experiment,96,←,left,←,0.54277199995704,True,15
A009K27,491,experiment,144,→,right,→,0.740358600160107,True,15
A009K27,492,experiment,168,↑,up,↑,0.8978281000163406,True,15
A009K27,493,experiment,180,→,right,→,0.4984642998315394,True,15
A009K27,494,experiment,156,↑,up,↑,0.558995199855417,True,15
A009K27,495,experiment,84,↑,up,↑,0.48724679998122156,True,15
A009K27,496,experiment,24,↓,down,↓,0.6493254001252353,True,15
A009K27,497,experiment,60,←,left,←,0.5592972999438643,True,15
A009K27,498,experiment,12,↑,up,↑,0.5257006001193076,True,15
A009K27,499,experiment,132,↑,up,↑,0.6085868000518531,True,15
A009K27,500,experiment,48,↑,up,↑,0.45191480009816587,True,15
A009K27,501,experiment,12,↑,up,↑,0.9784202000591904,True,15
A009K27,502,experiment,72,→,right,→,0.5336209998931736,True,15
A009K27,503,experiment,156,↑,up,↑,0.4397262998390943,True,15
A009K27,504,experiment,96,↓,down,↓,0.6696580999996513,True,15
A009K27,505,experiment,24,→,left,←,0.8248420997988433,False,15
A009K27,506,experiment,180,→,left,←,0.7415862998459488,False,15
A009K27,507,experiment,96,←,left,←,0.6503996001556516,True,15
A009K27,508,experiment,72,↑,up,↑,0.5182600000407547,True,15
A009K27,509,experiment,48,↓,down,↓,0.6390764000825584,True,15
A009K27,510,experiment,144,↑,up,↑,0.44632280012592673,True,15
A009K27,511,experiment,156,→,right,→,0.4738648000638932,True,15
A009K27,512,experiment,180,→,left,←,0.9486211000476032,False,15
A009K27,513,experiment,24,↑,down,↓,1.0587761998176575,False,15
A009K27,514,experiment,108,↑,up,↑,0.5112884999252856,True,15
A009K27,515,experiment,144,←,left,←,0.5291259000077844,True,15
A009K27,516,experiment,108,↑,down,↓,0.9214353000279516,False,15
A009K27,517,experiment,168,→,right,→,0.8653635000810027,True,15
A009K27,518,experiment,84,↓,down,↓,0.629881199914962,True,15
A009K27,519,experiment,24,↑,up,↑,0.4557037998456508,True,15
A009K27,520,experiment,96,←,left,←,0.8824719998519868,True,15
A009K27,521,experiment,144,→,right,→,0.5724176000803709,True,15
A009K27,522,experiment,36,←,left,←,0.4806421999819577,True,15
A009K27,523,experiment,132,↑,no_key,no_letter,-1.0,False,15
A009K27,524,experiment,120,←,left,←,0.5998388999141753,True,15
A009K27,525,experiment,36,→,right,→,0.8759437999688089,True,15
A009K27,526,experiment,12,↑,down,↓,0.8602014998905361,False,15
A009K27,527,experiment,36,→,left,←,0.9021807000972331,False,15
A009K27,528,experiment,120,↓,down,↓,1.4577822999563068,True,15
A009K27,529,experiment,168,↑,up,↑,0.5460723000578582,True,15
A009K27,530,experiment,108,→,right,→,0.4862718000076711,True,15
A009K27,531,experiment,132,↓,down,↓,0.8106637999881059,True,15
A009K27,532,experiment,156,↓,down,↓,0.7636839000042528,True,15
A009K27,533,experiment,132,↑,no_key,no_letter,-1.0,False,15
A009K27,534,experiment,60,↑,left,←,1.1624511000700295,False,15
A009K27,535,training,12,→,right,→,0.5844511999748647,True,15
A009K27,536,training,48,←,no_key,no_letter,-1.0,False,15
A009K27,537,training,96,↓,down,↓,1.0720691999886185,True,15
A009K27,538,experiment,132,→,left,←,1.0255601999815553,False,15
A009K27,539,experiment,120,→,right,→,0.7612279001623392,True,15
A009K27,540,experiment,144,←,left,←,1.0844214998651296,True,15
A009K27,541,experiment,108,↓,down,↓,0.6955729997716844,True,15
A009K27,542,experiment,96,←,left,←,0.812615699833259,True,15
A009K27,543,experiment,36,↑,down,↓,0.7104529000353068,False,15
A009K27,544,experiment,180,→,up,↑,0.9713568000588566,False,15
A009K27,545,experiment,132,→,right,→,0.5147155998274684,True,15
A009K27,546,experiment,108,←,left,←,0.5290598999708891,True,15
A009K27,547,experiment,84,←,right,→,0.960293399868533,False,15
A009K27,548,experiment,156,↑,up,↑,0.5451226998120546,True,15
A009K27,549,experiment,156,←,left,←,0.5201044001150876,True,15
A009K27,550,experiment,144,←,left,←,0.5149266000371426,True,15
A009K27,551,experiment,72,→,left,←,0.8489596000872552,False,15
A009K27,552,experiment,144,→,right,→,0.5419399999082088,True,15
A009K27,553,experiment,48,↑,up,↑,0.5058079001028091,True,15
A009K27,554,experiment,84,←,left,←,0.5524808999616653,True,15
A009K27,555,experiment,48,↑,down,↓,1.603410700103268,False,15
A009K27,556,experiment,132,→,right,→,0.4986137000378221,True,15
A009K27,557,experiment,96,→,right,→,0.5913706000428647,True,15
A009K27,558,experiment,108,↑,up,↑,0.5650269000325352,True,15
A009K27,559,experiment,60,←,left,←,0.8313973001204431,True,15
A009K27,560,experiment,180,←,left,←,0.8322908000554889,True,15
A009K27,561,experiment,120,↑,down,↓,0.476620800094679,False,15
A009K27,562,experiment,24,→,right,→,0.45528370002284646,True,15
A009K27,563,experiment,24,↑,no_key,no_letter,-1.0,False,15
A009K27,564,experiment,84,↓,up,↑,0.7160120001062751,False,15
A009K27,565,experiment,72,→,left,←,0.6360162999480963,False,15
A009K27,566,experiment,60,↑,no_key,no_letter,-1.0,False,15
A009K27,567,experiment,12,←,up,↑,0.7267409001942724,False,15
A009K27,568,experiment,12,↑,left,←,0.9288896999787539,False,15
A009K27,569,experiment,24,←,right,→,0.8651256999000907,False,15
A009K27,570,experiment,72,←,left,←,0.5462579000741243,True,15
A009K27,571,experiment,36,↑,left,←,0.9526512001175433,False,15
A009K27,572,experiment,156,←,left,←,0.5985156998503953,True,15
A009K27,573,experiment,96,↑,left,←,0.7674559000879526,False,15
A009K27,574,experiment,48,→,left,←,0.7157880000304431,False,15
A009K27,575,experiment,180,↓,down,↓,0.6680455000605434,True,15
A009K27,576,experiment,48,→,right,→,0.6951604001224041,True,15
A009K27,577,experiment,60,→,down,↓,0.9759633999783546,False,15
A009K27,578,experiment,108,↑,up,↑,0.444498399971053,True,15
A009K27,579,experiment,144,→,right,→,0.8036551000550389,True,15
A009K27,580,experiment,60,↓,down,↓,0.6990914999041706,True,15
A009K27,581,experiment,72,←,left,←,1.2769271000288427,True,15
A009K27,582,experiment,156,→,right,→,0.9533270997926593,True,15
A009K27,583,experiment,168,→,left,←,0.8909986999351531,False,15
A009K27,584,experiment,12,←,left,←,0.6869816998951137,True,15
A009K27,585,experiment,120,↓,down,↓,0.785902600036934,True,15
A009K27,586,experiment,168,→,right,→,0.624939100118354,True,15
A009K27,587,experiment,24,→,right,→,0.45004829997196794,True,15
A009K27,588,experiment,84,↑,down,↓,0.9645006998907775,False,15
A009K27,589,experiment,180,↑,up,↑,0.6158140001352876,True,15
A009K27,590,experiment,36,←,left,←,0.8645168000366539,True,15
A009K27,591,experiment,120,↓,down,↓,0.4207876999862492,True,15
A009K27,592,experiment,96,←,left,←,0.9089907999150455,True,15
A009K27,593,experiment,12,←,left,←,0.630139600019902,True,15
A009K27,594,experiment,168,→,right,→,0.6082164000254124,True,15
A009K27,595,experiment,168,↑,down,↓,0.8074731000233442,False,15
A009K27,596,experiment,36,↓,down,↓,0.5801142000127584,True,15
A009K27,597,experiment,132,↑,up,↑,0.6532443999312818,True,15
A009K27,598,training,60,↑,up,↑,0.753862600075081,True,15
A009K27,599,training,48,→,left,←,0.5687222999986261,False,15
A009K27,600,training,12,→,right,→,0.44655729993246496,True,15
A009K27,601,experiment,36,↓,down,↓,0.5464982001576573,True,15
A009K27,602,experiment,168,↑,up,↑,0.5722008000593632,True,15
A009K27,603,experiment,24,↑,up,↑,0.6838640999048948,True,15
A009K27,604,experiment,60,←,left,←,0.4766601000446826,True,15
A009K27,605,experiment,24,←,left,←,0.51127739995718,True,15
A009K27,606,experiment,84,↓,no_key,no_letter,-1.0,False,15
A009K27,607,experiment,36,↓,down,↓,0.901177000021562,True,15
A009K27,608,experiment,48,←,left,←,0.8186137999873608,True,15
A009K27,609,experiment,108,→,right,→,0.485113900154829,True,15
A009K27,610,experiment,120,↓,down,↓,0.7349290000274777,True,15
A009K27,611,experiment,12,←,left,←,0.4809421000536531,True,15
A009K27,612,experiment,12,↑,up,↑,0.7584369000978768,True,15
A009K27,613,experiment,108,←,left,←,0.662108400138095,True,15
A009K27,614,experiment,24,→,right,→,1.0282370999921113,True,15
A009K27,615,experiment,24,←,left,←,0.46225680015049875,True,15
A009K27,616,experiment,48,↓,down,↓,0.6147203000728041,True,15
A009K27,617,experiment,180,↓,down,↓,0.9230895999353379,True,15
A009K27,618,experiment,180,↓,down,↓,0.5683875000104308,True,15
A009K27,619,experiment,156,↑,up,↑,0.9059214000590146,True,15
A009K27,620,experiment,84,←,left,←,1.1455395999364555,True,15
A009K27,621,experiment,72,↓,up,↑,0.9095677000004798,False,15
A009K27,622,experiment,36,↑,up,↑,0.42520550009794533,True,15
A009K27,623,experiment,60,↑,no_key,no_letter,-1.0,False,15
A009K27,624,experiment,48,→,right,→,0.49965050001628697,True,15
A009K27,625,experiment,156,→,right,→,0.9293434000574052,True,15
A009K27,626,experiment,48,→,right,→,0.7251391001045704,True,15
A009K27,627,experiment,132,←,right,→,1.1484779000747949,False,15
A009K27,628,experiment,132,↑,down,↓,1.4672596000600606,False,15
A009K27,629,experiment,108,↓,down,↓,0.8909718000795692,True,15
A009K27,630,experiment,168,↓,down,↓,1.405076100025326,True,15
A009K27,631,experiment,12,←,left,←,1.6562167999800295,True,15
A009K27,632,experiment,108,↑,up,↑,0.7307615000754595,True,15
A009K27,633,experiment,120,←,left,←,0.5439385001081973,True,15
A009K27,634,experiment,144,↓,down,↓,0.7079945998266339,True,15
A009K27,635,experiment,72,↓,down,↓,0.6286534999962896,True,15
A009K27,636,experiment,180,←,right,→,0.9458842999301851,False,15
A009K27,637,experiment,96,←,left,←,1.1088832998648286,True,15
A009K27,638,experiment,156,↓,up,↑,0.898069400107488,False,15
A009K27,639,experiment,36,↓,up,↑,0.9418954998254776,False,15
A009K27,640,experiment,168,↓,down,↓,0.9329650001600385,True,15
A009K27,641,experiment,12,→,down,↓,0.7603535000234842,False,15
A009K27,642,experiment,72,←,left,←,0.6615382998716086,True,15
A009K27,643,experiment,132,→,left,←,1.1812308998778462,False,15
A009K27,644,experiment,60,←,left,←,0.48817089991644025,True,15
A009K27,645,experiment,84,↑,up,↑,1.2609186000190675,True,15
A009K27,646,experiment,144,→,right,→,0.5829163999296725,True,15
A009K27,647,experiment,120,↑,up,↑,0.7028510000091046,True,15
A009K27,648,experiment,144,→,up,↑,0.5738971000537276,False,15
A009K27,649,experiment,144,←,left,←,0.6257449998520315,True,15
A009K27,650,experiment,132,←,left,←,0.6745535000227392,True,15
A009K27,651,experiment,168,←,left,←,0.55082460003905,True,15
A009K27,652,experiment,96,→,left,←,0.799667099956423,False,15
A009K27,653,experiment,156,↓,down,↓,0.726605299860239,True,15
A009K27,654,experiment,84,↓,up,↑,0.8744469999801368,False,15
A009K27,655,experiment,96,↑,down,↓,0.8949026998598129,False,15
A009K27,656,experiment,72,←,left,←,0.6005069999955595,True,15
A009K27,657,experiment,120,↓,left,←,0.8603302000556141,False,15
A009K27,658,experiment,180,←,left,←,1.49398920009844,True,15
A009K27,659,experiment,60,←,left,←,0.8015658999793231,True,15
A009K27,660,experiment,96,↓,up,↑,0.7471199000719935,False,15
A009K27,661,training,36,←,left,←,0.6333320999983698,True,15
A009K27,662,training,108,↓,down,↓,0.5971464000176638,True,15
A009K27,663,training,156,↓,no_key,no_letter,-1.0,False,15
A009K27,664,experiment,156,↓,down,↓,0.8932785000652075,True,15
A009K27,665,experiment,132,↓,down,↓,1.0168033000081778,True,15
A009K27,666,experiment,36,←,right,→,0.8703682001214474,False,15
A009K27,667,experiment,156,↓,down,↓,0.6900319000706077,True,15
A009K27,668,experiment,24,→,right,→,0.539595200214535,True,15
A009K27,669,experiment,12,→,left,←,0.7019280001986772,False,15
A009K27,670,experiment,132,↓,down,↓,0.6758626999799162,True,15
A009K27,671,experiment,132,→,left,←,0.8920257999561727,False,15
A009K27,672,experiment,24,←,left,←,0.544711499940604,True,15
A009K27,673,experiment,60,↑,up,↑,0.5203641999978572,True,15
A009K27,674,experiment,12,↓,up,↑,0.6375029999762774,False,15
A009K27,675,experiment,108,→,right,→,0.48766559991054237,True,15
A009K27,676,experiment,36,↑,up,↑,1.03189089987427,True,15
A009K27,677,experiment,144,→,right,→,0.5929894999135286,True,15
A009K27,678,experiment,180,→,right,→,0.5683207998517901,True,15
A009K27,679,experiment,84,←,right,→,0.6614936001133174,False,15
A009K27,680,experiment,36,→,up,↑,0.9748577000573277,False,15
A009K27,681,experiment,156,←,left,←,0.765877400059253,True,15
A009K27,682,experiment,96,→,left,←,0.905478699831292,False,15
A009K27,683,experiment,72,↓,down,↓,1.4202713000122458,True,15
A009K27,684,experiment,108,→,left,←,0.5951910000294447,False,15
A009K27,685,experiment,72,↑,up,↑,0.5286725000478327,True,15
A009K27,686,experiment,108,←,left,←,0.7265067999251187,True,15
A009K27,687,experiment,24,←,left,←,0.5955159000586718,True,15
A009K27,688,experiment,48,↑,up,↑,0.6025033998303115,True,15
A009K27,689,experiment,84,→,left,←,0.6150327001232654,False,15
A009K27,690,experiment,120,↑,up,↑,0.7452309001237154,True,15
A009K27,691,experiment,60,↑,left,←,0.6659998998511583,False,15
A009K27,692,experiment,168,↓,down,↓,0.6036039001774043,True,15
A009K27,693,experiment,60,←,left,←,0.489546500146389,True,15
A009K27,694,experiment,108,←,left,←,0.7262752999085933,True,15
A009K27,695,experiment,168,←,right,→,1.1516447002068162,False,15
A009K27,696,experiment,24,→,right,→,0.653289700159803,True,15
A009K27,697,experiment,132,→,left,←,0.6675462999846786,False,15
A009K27,698,experiment,120,↓,down,↓,0.7453369998838753,True,15
A009K27,699,experiment,156,←,left,←,0.7927564999554306,True,15
A009K27,700,experiment,144,↓,down,↓,0.5170587000902742,True,15
A009K27,701,experiment,96,↑,up,↑,0.7775844999123365,True,15
A009K27,702,experiment,12,↓,down,↓,0.5829008999280632,True,15
A009K27,703,experiment,96,↑,down,↓,1.1076410000678152,False,15
A009K27,704,experiment,96,←,left,←,0.48710499983280897,True,15
A009K27,705,experiment,120,↓,down,↓,0.9439916000701487,True,15
A009K27,706,experiment,180,↑,down,↓,1.665309099946171,False,15
A009K27,707,experiment,144,←,left,←,0.539068000158295,True,15
A009K27,708,experiment,120,→,right,→,0.6009337999857962,True,15
A009K27,709,experiment,12,←,no_key,no_letter,-1.0,False,15
A009K27,710,experiment,168,→,left,←,0.7487583998590708,False,15
A009K27,711,experiment,48,→,right,→,0.9323251999448985,True,15
A009K27,712,experiment,84,→,right,→,0.5394170000217855,True,15
A009K27,713,experiment,180,←,right,→,1.1168984998948872,False,15
A009K27,714,experiment,36,↓,down,↓,0.6929754000157118,True,15
A009K27,715,experiment,48,↑,up,↑,0.6644967999309301,True,15
A009K27,716,experiment,48,↑,down,↓,1.3727557000238448,False,15
A009K27,717,experiment,72,↓,down,↓,0.6037063000258058,True,15
A009K27,718,experiment,168,←,left,←,0.5527680998202413,True,15
A009K27,719,experiment,180,←,left,←,0.9001513000112027,True,15
A009K27,720,experiment,60,←,left,←,0.593107599997893,True,15
A009K27,721,experiment,72,↑,down,↓,0.8183506999630481,False,15
A009K27,722,experiment,144,↑,up,↑,0.9725170999299735,True,15
A009K27,723,experiment,84,→,right,→,0.7532794999424368,True,15
A009K27,724,training,168,↓,down,↓,0.6455836999230087,True,15
A009K27,725,training,48,↑,up,↑,0.5898229000158608,True,15
A009K27,726,training,72,↓,down,↓,0.6536010000854731,True,15
A009K27,727,experiment,108,↑,up,↑,1.001262600068003,True,15
A009K27,728,experiment,48,←,left,←,1.1054614000022411,True,15
A009K27,729,experiment,156,→,down,↓,0.6944524999707937,False,15
A009K27,730,experiment,72,↑,up,↑,0.6122516000177711,True,15
A009K27,731,experiment,132,→,up,↑,0.7057644999586046,False,15
A009K27,732,experiment,96,↑,up,↑,0.5942965999711305,True,15
A009K27,733,experiment,24,←,left,←,0.5342420998495072,True,15
A009K27,734,experiment,120,→,left,←,0.7438433999195695,False,15
A009K27,735,experiment,120,←,left,←,0.7257990001235157,True,15
A009K27,736,experiment,84,↑,up,↑,0.575917299836874,True,15
A009K27,737,experiment,36,←,left,←,0.5724206001032144,True,15
A009K27,738,experiment,108,←,left,←,0.5064805001020432,True,15
A009K27,739,experiment,48,←,left,←,0.5257612999994308,True,15
A009K27,740,experiment,60,→,right,→,0.6766667999327183,True,15
A009K27,741,experiment,84,→,right,→,0.6264526001177728,True,15
A009K27,742,experiment,168,←,up,↑,0.8913789000362158,False,15
A009K27,743,experiment,168,←,up,↑,0.7521923999302089,False,15
A009K27,744,experiment,72,↑,up,↑,0.6538748000748456,True,15
A009K27,745,experiment,36,↑,down,↓,0.8305658001918346,False,15
A009K27,746,experiment,96,←,left,←,0.5995360999368131,True,15
A009K27,747,experiment,36,→,right,→,0.5415165000595152,True,15
A009K27,748,experiment,156,→,left,←,1.0615789000876248,False,15
A009K27,749,experiment,96,←,left,←,0.49331189994700253,True,15
A009K27,750,experiment,144,←,right,→,0.8290914997924119,False,15
A009K27,751,experiment,108,→,right,→,0.5014859000220895,True,15
A009K27,752,experiment,144,↓,down,↓,0.7107849000021815,True,15
A009K27,753,experiment,72,↓,up,↑,1.3783578998409212,False,15
A009K27,754,experiment,72,→,right,→,0.5599016000051051,True,15
A009K27,755,experiment,168,→,left,←,0.7955827000550926,False,15
A009K27,756,experiment,12,→,right,→,0.5502677999902517,True,15
A009K27,757,experiment,60,↑,up,↑,0.6295990999788046,True,15
A009K27,758,experiment,60,←,right,→,0.936772899935022,False,15
A009K27,759,experiment,132,→,left,←,0.9366254000924528,False,15
A009K27,760,experiment,144,←,left,←,0.8652890999801457,True,15
A009K27,761,experiment,36,↓,down,↓,1.2913169998209924,True,15
A009K27,762,experiment,12,↓,up,↑,1.0836696999613196,False,15
A009K27,763,experiment,48,←,up,↑,1.473849100060761,False,15
A009K27,764,experiment,180,→,right,→,0.5700556000228971,True,15
A009K27,765,experiment,180,↓,up,↑,0.7033945999573916,False,15
A009K27,766,experiment,120,←,left,←,0.5338349000085145,True,15
A009K27,767,experiment,84,→,right,→,0.539024000056088,True,15
A009K27,768,experiment,132,→,left,←,1.1820279001258314,False,15
A009K27,769,experiment,108,↓,down,↓,0.7078597999643534,True,15
A009K27,770,experiment,84,←,left,←,0.8290539002045989,True,15
A009K27,771,experiment,156,←,left,←,0.5214746000710875,True,15
A009K27,772,experiment,60,↓,down,↓,0.9788551998790354,True,15
A009K27,773,experiment,12,↓,up,↑,0.9379011001437902,False,15
A009K27,774,experiment,48,←,left,←,0.909379499964416,True,15
A009K27,775,experiment,156,↓,down,↓,0.6551634999923408,True,15
A009K27,776,experiment,144,→,left,←,0.8174209999851882,False,15
A009K27,777,experiment,24,↑,up,↑,0.8615852000657469,True,15
A009K27,778,experiment,24,→,up,↑,0.6038692002184689,False,15
A009K27,779,experiment,132,→,down,↓,1.0142822000198066,False,15
A009K27,780,experiment,180,←,left,←,0.3673942999448627,True,15
A009K27,781,experiment,12,→,right,→,1.1251891001593322,True,15
A009K27,782,experiment,180,→,right,→,0.9073697999119759,True,15
A009K27,783,experiment,96,→,right,→,0.8523935000412166,True,15
A009K27,784,experiment,120,↑,left,←,0.664429800119251,False,15
A009K27,785,experiment,24,←,right,→,0.6829829001799226,False,15
A009K27,786,experiment,168,→,right,→,0.6997810998000205,True,15
A009K27,787,training,180,→,right,→,1.3787207999266684,True,15
A009K27,788,training,156,→,up,↑,0.8425624999217689,False,15
A009K27,789,training,72,↑,up,↑,0.4826362000312656,True,15
A009K27,790,experiment,72,↓,down,↓,0.7385935001075268,True,15
A009K27,791,experiment,108,←,left,←,0.7741825000848621,True,15
A009K27,792,experiment,96,↓,down,↓,0.7199989999644458,True,15
A009K27,793,experiment,72,↑,up,↑,0.7090229999739677,True,15
A009K27,794,experiment,120,→,right,→,0.5927936001680791,True,15
A009K27,795,experiment,60,→,left,←,0.7185745998285711,False,15
A009K27,796,experiment,84,←,left,←,0.7255609999410808,True,15
A009K27,797,experiment,144,←,no_key,no_letter,-1.0,False,15
A009K27,798,experiment,12,←,left,←,0.44162510009482503,True,15
A009K27,799,experiment,180,↓,down,↓,0.6763354002032429,True,15
A009K27,800,experiment,180,↓,down,↓,0.607544100144878,True,15
A009K27,801,experiment,36,↓,down,↓,0.558724399888888,True,15
A009K27,802,experiment,156,←,left,←,1.0848307001870126,True,15
A009K27,803,experiment,24,←,left,←,0.7518937999848276,True,15
A009K27,804,experiment,120,↑,up,↑,0.5029005000833422,True,15
A009K27,805,experiment,48,→,right,→,0.500034699914977,True,15
A009K27,806,experiment,12,↓,down,↓,0.5836854998487979,True,15
A009K27,807,experiment,84,↑,up,↑,0.6964326000306755,True,15
A009K27,808,experiment,180,←,left,←,0.8015644999686629,True,15
A009K27,809,experiment,108,←,left,←,0.541431900113821,True,15
A009K27,810,experiment,24,←,left,←,0.5953599999193102,True,15
A009K27,811,experiment,132,←,left,←,0.4690851999912411,True,15
A009K27,812,experiment,120,↓,down,↓,0.7554178000427783,True,15
A009K27,813,experiment,144,↑,down,↓,1.591669499874115,False,15
A009K27,814,experiment,156,↑,up,↑,1.0403762999922037,True,15
A009K27,815,experiment,168,↑,up,↑,0.47168250009417534,True,15
A009K27,816,experiment,60,→,right,→,0.5437933001667261,True,15
A009K27,817,experiment,180,↓,down,↓,0.7311943001113832,True,15
A009K27,818,experiment,132,↑,up,↑,0.9824856999330223,True,15
A009K27,819,experiment,60,↓,down,↓,0.6449300001841038,True,15
A009K27,820,experiment,168,↓,down,↓,0.46188630000688136,True,15
A009K27,821,experiment,96,↑,up,↑,1.124026299919933,True,15
A009K27,822,experiment,72,↑,up,↑,0.7883546999655664,True,15
A009K27,823,experiment,144,→,right,→,0.565091600175947,True,15
A009K27,824,experiment,12,↑,up,↑,1.352879400132224,True,15
A009K27,825,experiment,168,→,left,←,0.7728589000180364,False,15
A009K27,826,experiment,96,↓,down,↓,0.8194399999920279,True,15
A009K27,827,experiment,132,←,left,←,0.6122932001017034,True,15
A009K27,828,experiment,72,←,left,←,0.5698359999805689,True,15
A009K27,829,experiment,132,←,left,←,0.7768175001256168,True,15
A009K27,830,experiment,12,→,right,→,0.6892258999869227,True,15
A009K27,831,experiment,36,→,left,←,0.5965358999092132,False,15
A009K27,832,experiment,168,↓,down,↓,0.6335831000469625,True,15
A009K27,833,experiment,108,↑,down,↓,0.7110326001420617,False,15
A009K27,834,experiment,96,→,right,→,0.5263129998929799,True,15
A009K27,835,experiment,84,↓,up,↑,0.8891664000693709,False,15
A009K27,836,experiment,84,←,left,←,0.6757666999474168,True,15
A009K27,837,experiment,48,←,left,←,0.5379298999905586,True,15
A009K27,838,experiment,60,→,right,→,0.4862949999514967,True,15
A009K27,839,experiment,36,↑,up,↑,0.49093139986507595,True,15
A009K27,840,experiment,120,←,left,←,0.6338540001306683,True,15
A009K27,841,experiment,156,↑,down,↓,0.6370108998380601,False,15
A009K27,842,experiment,36,↓,up,↑,0.8350325999781489,False,15
A009K27,843,experiment,144,←,right,→,0.4774809000082314,False,15
A009K27,844,experiment,156,↓,down,↓,0.5505439999978989,True,15
A009K27,845,experiment,48,←,left,←,0.469299899879843,True,15
A009K27,846,experiment,24,↑,up,↑,0.4833110999315977,True,15
A009K27,847,experiment,24,→,right,→,0.5292670000344515,True,15
A009K27,848,experiment,108,↑,up,↑,0.6173150001559407,True,15
A009K27,849,experiment,48,←,left,←,0.5636559000704437,True,15
