PART_ID,Trial_no,Trial_type,PDI,Stim_letter,Key_pressed,letter_choose,Rt,Corr,Stimulus Time
A014M36,1,training,10,→,no_key,no_letter,-1.0,False,30
A014M36,2,training,10,→,no_key,no_letter,-1.0,False,30
A014M36,3,training,10,↑,no_key,no_letter,-1.0,False,30
A014M36,4,training,10,→,no_key,no_letter,-1.0,False,30
A014M36,5,training,10,→,right,→,1.394759100000016,True,30
A014M36,6,training,10,→,right,→,0.8386360000000082,True,30
A014M36,7,training,10,→,no_key,no_letter,-1.0,False,30
A014M36,8,training,10,→,no_key,no_letter,-1.0,False,30
A014M36,9,training,10,←,left,←,0.9548954999999921,True,30
A014M36,10,training,10,→,right,→,0.600218099999978,True,30
A014M36,11,training,10,↓,left,←,0.6174203999999861,False,30
A014M36,12,training,10,↓,up,↑,1.0763636000000076,False,30
A014M36,13,training,10,↓,right,→,1.2791291999999999,False,30
A014M36,14,training,10,↓,down,↓,0.9623609000000215,True,30
A014M36,15,training,10,←,left,←,0.8507578000000251,True,30
A014M36,16,training,10,←,left,←,0.7992222000000027,True,30
A014M36,17,training,10,↑,left,←,0.6753415999999959,False,30
A014M36,18,training,10,↑,up,↑,0.5837181999999927,True,30
A014M36,19,training,10,→,right,→,0.567052799999999,True,30
A014M36,20,training,10,↓,down,↓,0.858661699999999,True,30
A014M36,21,training,10,→,right,→,1.4897660000000315,True,18
A014M36,22,training,10,↑,up,↑,0.8305983000000197,True,18
A014M36,23,training,10,←,down,↓,1.3084891999999968,False,18
A014M36,24,training,10,↓,up,↑,0.8329239999999913,False,18
A014M36,25,training,10,↑,no_key,no_letter,-1.0,False,18
A014M36,26,training,10,↑,up,↑,0.6166590000000269,True,18
A014M36,27,training,10,←,down,↓,1.2775568999999791,False,18
A014M36,28,training,10,→,left,←,1.743000400000028,False,18
A014M36,29,training,10,↑,up,↑,0.9550360000000069,True,18
A014M36,30,training,10,←,left,←,1.0283086000000026,True,18
A014M36,31,training,96,→,no_key,no_letter,-1.0,False,15
A014M36,32,training,96,↓,down,↓,0.9095023000000424,True,15
A014M36,33,training,120,↑,up,↑,1.0159492999999884,True,15
A014M36,34,experiment,12,↓,no_key,no_letter,-1.0,False,15
A014M36,35,experiment,48,←,left,←,0.8539635000000203,True,15
A014M36,36,experiment,144,↑,up,↑,1.1026608000000238,True,15
A014M36,37,experiment,180,↑,up,↑,1.5974300000000312,True,15
A014M36,38,experiment,84,↑,no_key,no_letter,-1.0,False,15
A014M36,39,experiment,132,↓,down,↓,1.2193144999999959,True,15
A014M36,40,experiment,132,←,right,→,0.979725099999996,False,15
A014M36,41,experiment,84,↓,right,→,1.1672065000000202,False,15
A014M36,42,experiment,120,↓,down,↓,1.184815800000024,True,15
A014M36,43,experiment,96,↑,up,↑,0.8419795000000363,True,15
A014M36,44,experiment,96,↑,up,↑,0.9390808999999649,True,15
A014M36,45,experiment,84,↓,down,↓,0.9095126000000278,True,15
A014M36,46,experiment,36,←,left,←,1.07606880000003,True,15
A014M36,47,experiment,144,↓,down,↓,0.9622618999999872,True,15
A014M36,48,experiment,12,↓,down,↓,1.0543087000000355,True,15
A014M36,49,experiment,96,↑,down,↓,1.2413110999999617,False,15
A014M36,50,experiment,108,→,left,←,0.949021700000003,False,15
A014M36,51,experiment,168,→,right,→,1.141381200000012,True,15
A014M36,52,experiment,12,←,left,←,0.8602064000000382,True,15
A014M36,53,experiment,48,↓,left,←,1.170730400000025,False,15
A014M36,54,experiment,12,↓,left,←,0.9146475999999666,False,15
A014M36,55,experiment,120,↑,left,←,0.9939162999999667,False,15
A014M36,56,experiment,96,←,left,←,1.5040142000000287,True,15
A014M36,57,experiment,144,↓,down,↓,0.9684881000000019,True,15
A014M36,58,experiment,168,←,right,→,1.0073028000000477,False,15
A014M36,59,experiment,108,↑,no_key,no_letter,-1.0,False,15
A014M36,60,experiment,48,↑,left,←,0.9052613000000065,False,15
A014M36,61,experiment,72,→,no_key,no_letter,-1.0,False,15
A014M36,62,experiment,108,←,right,→,0.748601199999996,False,15
A014M36,63,experiment,180,←,left,←,0.8700335999999993,True,15
A014M36,64,experiment,36,↓,no_key,no_letter,-1.0,False,15
A014M36,65,experiment,48,←,left,←,0.9364643000000115,True,15
A014M36,66,experiment,120,→,right,→,0.8129959999999983,True,15
A014M36,67,experiment,180,←,left,←,0.862162699999999,True,15
A014M36,68,experiment,168,→,right,→,0.8276879000000008,True,15
A014M36,69,experiment,168,↑,no_key,no_letter,-1.0,False,15
A014M36,70,experiment,144,→,right,→,0.6896567000000005,True,15
A014M36,71,experiment,60,←,left,←,0.8681780000000003,True,15
A014M36,72,experiment,60,↓,right,→,0.9874943000000371,False,15
A014M36,73,experiment,156,→,no_key,no_letter,-1.0,False,15
A014M36,74,experiment,108,↓,right,→,0.869569800000022,False,15
A014M36,75,experiment,24,←,left,←,0.7465360000000487,True,15
A014M36,76,experiment,120,↑,down,↓,1.1858270000000175,False,15
A014M36,77,experiment,36,→,down,↓,0.832609199999979,False,15
A014M36,78,experiment,132,←,no_key,no_letter,-1.0,False,15
A014M36,79,experiment,156,↓,right,→,0.6166104000000132,False,15
A014M36,80,experiment,24,↓,down,↓,0.8996051000000307,True,15
A014M36,81,experiment,72,↑,down,↓,1.6841338999999493,False,15
A014M36,82,experiment,72,→,right,→,0.7756698000000029,True,15
A014M36,83,experiment,132,→,right,→,0.6114946000000145,True,15
A014M36,84,experiment,60,→,right,→,1.7164156999999705,True,15
A014M36,85,experiment,60,↑,up,↑,0.9785965999999462,True,15
A014M36,86,experiment,72,→,right,→,0.7309379000000717,True,15
A014M36,87,experiment,156,←,left,←,0.9025039000000561,True,15
A014M36,88,experiment,36,→,left,←,1.0858433999999306,False,15
A014M36,89,experiment,24,←,right,→,0.8731876000000511,False,15
A014M36,90,experiment,84,←,left,←,0.7985205999999607,True,15
A014M36,91,experiment,24,←,right,→,0.9775535999999647,False,15
A014M36,92,experiment,156,↑,no_key,no_letter,-1.0,False,15
A014M36,93,experiment,180,→,left,←,1.0517077999999174,False,15
A014M36,94,training,60,←,left,←,0.7237244000000373,True,16
A014M36,95,training,60,↑,right,→,0.604625800000008,False,16
A014M36,96,training,132,↓,right,→,0.8106964999999491,False,16
A014M36,97,experiment,120,→,left,←,0.5373091999999815,False,16
A014M36,98,experiment,120,↓,down,↓,1.15646670000001,True,16
A014M36,99,experiment,36,↓,up,↑,1.1919648000000507,False,16
A014M36,100,experiment,60,←,left,←,0.8636811999999736,True,16
A014M36,101,experiment,72,↓,down,↓,1.288320800000065,True,16
A014M36,102,experiment,180,↓,up,↑,1.3346969000001536,False,16
A014M36,103,experiment,132,↓,no_key,no_letter,-1.0,False,16
A014M36,104,experiment,144,←,no_key,no_letter,-1.0,False,16
A014M36,105,experiment,108,↓,no_key,no_letter,-1.0,False,16
A014M36,106,experiment,180,↓,down,↓,1.2986194000000069,True,16
A014M36,107,experiment,120,↓,down,↓,0.7500434000000951,True,16
A014M36,108,experiment,96,←,left,←,1.3342093999999634,True,16
A014M36,109,experiment,24,↓,down,↓,1.1040351999999984,True,16
A014M36,110,experiment,72,←,left,←,1.1271957000001294,True,16
A014M36,111,experiment,156,←,no_key,no_letter,-1.0,False,16
A014M36,112,experiment,120,→,right,→,0.8790759999999409,True,16
A014M36,113,experiment,24,↑,left,←,0.9297439000001759,False,16
A014M36,114,experiment,156,→,right,→,0.6669387000001734,True,16
A014M36,115,experiment,156,↑,down,↓,1.3910748000000694,False,16
A014M36,116,experiment,132,←,right,→,1.4688160000000607,False,16
A014M36,117,experiment,156,←,right,→,0.8280787999999575,False,16
A014M36,118,experiment,144,↓,right,→,0.8456619999999475,False,16
A014M36,119,experiment,108,←,right,→,1.0037341000002016,False,16
A014M36,120,experiment,60,←,right,→,0.7550131999998939,False,16
A014M36,121,experiment,144,↑,right,→,0.9744987999999921,False,16
A014M36,122,experiment,24,→,right,→,0.7280404999999064,True,16
A014M36,123,experiment,108,←,left,←,0.9352572000000237,True,16
A014M36,124,experiment,72,↓,up,↑,0.7782099999999446,False,16
A014M36,125,experiment,36,↓,no_key,no_letter,-1.0,False,16
A014M36,126,experiment,12,→,right,→,0.7270593000000645,True,16
A014M36,127,experiment,96,↑,no_key,no_letter,-1.0,False,16
A014M36,128,experiment,36,←,left,←,1.7755715000000691,True,16
A014M36,129,experiment,168,↓,left,←,1.5087651000001188,False,16
A014M36,130,experiment,180,↑,no_key,no_letter,-1.0,False,16
A014M36,131,experiment,168,←,right,→,1.1991424999998799,False,16
A014M36,132,experiment,168,→,right,→,1.8140074000000368,True,16
A014M36,133,experiment,24,↑,no_key,no_letter,-1.0,False,16
A014M36,134,experiment,132,←,left,←,0.8397750999999971,True,16
A014M36,135,experiment,60,→,right,→,0.7983910000000378,True,16
A014M36,136,experiment,108,↑,no_key,no_letter,-1.0,False,16
A014M36,137,experiment,132,←,left,←,0.8383161000001564,True,16
A014M36,138,experiment,84,↓,left,←,1.2047013000001243,False,16
A014M36,139,experiment,60,↓,no_key,no_letter,-1.0,False,16
A014M36,140,experiment,12,↑,no_key,no_letter,-1.0,False,16
A014M36,141,experiment,36,←,no_key,no_letter,-1.0,False,16
A014M36,142,experiment,12,↓,left,←,1.5718330999998216,False,16
A014M36,143,experiment,96,↑,up,↑,0.9945864999999685,True,16
A014M36,144,experiment,84,↑,up,↑,0.8120492000000468,True,16
A014M36,145,experiment,84,↑,up,↑,0.9849566000000323,True,16
A014M36,146,experiment,168,↑,no_key,no_letter,-1.0,False,16
A014M36,147,experiment,48,↑,up,↑,0.9450199000000339,True,16
A014M36,148,experiment,96,↓,up,↑,1.389518100000032,False,16
A014M36,149,experiment,48,↓,down,↓,0.9766265999999177,True,16
A014M36,150,experiment,12,↑,up,↑,0.7429251999999451,True,16
A014M36,151,experiment,180,←,no_key,no_letter,-1.0,False,16
A014M36,152,experiment,144,↓,left,←,1.3034059000001434,False,16
A014M36,153,experiment,48,←,right,→,1.094859499999984,False,16
A014M36,154,experiment,48,←,left,←,1.484520300000213,True,16
A014M36,155,experiment,84,→,right,→,0.8037426000000778,True,16
A014M36,156,experiment,72,↑,left,←,1.2949843999999757,False,16
A014M36,157,training,168,←,left,←,0.7579345000001467,True,17
A014M36,158,training,84,→,no_key,no_letter,-1.0,False,17
A014M36,159,training,12,↑,down,↓,0.9794326000001092,False,17
A014M36,160,experiment,12,←,right,→,0.7200840000000426,False,17
A014M36,161,experiment,180,↓,left,←,0.8240279999999984,False,17
A014M36,162,experiment,48,↑,up,↑,0.8051402999999482,True,17
A014M36,163,experiment,24,←,no_key,no_letter,-1.0,False,17
A014M36,164,experiment,180,←,left,←,1.1494701999999961,True,17
A014M36,165,experiment,168,↓,up,↑,0.7775300000000698,False,17
A014M36,166,experiment,144,←,left,←,0.7215894999999364,True,17
A014M36,167,experiment,36,→,right,→,0.7765279000000191,True,17
A014M36,168,experiment,48,↑,no_key,no_letter,-1.0,False,17
A014M36,169,experiment,12,↑,up,↑,1.5649108999998589,True,17
A014M36,170,experiment,96,↑,no_key,no_letter,-1.0,False,17
A014M36,171,experiment,12,↑,down,↓,0.9933187999999973,False,17
A014M36,172,experiment,60,→,right,→,0.9900467999998455,True,17
A014M36,173,experiment,60,↑,up,↑,1.1496971999999914,True,17
A014M36,174,experiment,96,←,left,←,1.3624273999998877,True,17
A014M36,175,experiment,60,→,right,→,0.9555566999999883,True,17
A014M36,176,experiment,24,↓,no_key,no_letter,-1.0,False,17
A014M36,177,experiment,84,←,left,←,0.9259746000000177,True,17
A014M36,178,experiment,24,↓,no_key,no_letter,-1.0,False,17
A014M36,179,experiment,168,↑,no_key,no_letter,-1.0,False,17
A014M36,180,experiment,132,↑,up,↑,1.0917963000001691,True,17
A014M36,181,experiment,156,←,no_key,no_letter,-1.0,False,17
A014M36,182,experiment,156,←,no_key,no_letter,-1.0,False,17
A014M36,183,experiment,36,→,right,→,0.7806864000001497,True,17
A014M36,184,experiment,156,↑,up,↑,0.6241353999998864,True,17
A014M36,185,experiment,84,↑,down,↓,0.9538067000000865,False,17
A014M36,186,experiment,72,↓,down,↓,1.0980850999999348,True,17
A014M36,187,experiment,12,↓,down,↓,0.8082050999998955,True,17
A014M36,188,experiment,108,←,no_key,no_letter,-1.0,False,17
A014M36,189,experiment,120,→,right,→,1.3660769000000528,True,17
A014M36,190,experiment,120,↓,no_key,no_letter,-1.0,False,17
A014M36,191,experiment,48,↓,down,↓,1.4612311999999292,True,17
A014M36,192,experiment,132,↓,no_key,no_letter,-1.0,False,17
A014M36,193,experiment,168,↓,no_key,no_letter,-1.0,False,17
A014M36,194,experiment,84,↓,down,↓,0.9809364999998706,True,17
A014M36,195,experiment,132,←,right,→,0.8910143000000517,False,17
A014M36,196,experiment,156,←,right,→,0.9714112000001478,False,17
A014M36,197,experiment,72,←,right,→,0.7576242000000093,False,17
A014M36,198,experiment,60,←,left,←,0.96201300000007,True,17
A014M36,199,experiment,108,↑,no_key,no_letter,-1.0,False,17
A014M36,200,experiment,108,↓,up,↑,1.2563941999999315,False,17
A014M36,201,experiment,132,→,right,→,1.0965530999999373,True,17
A014M36,202,experiment,180,←,right,→,0.7798950999999761,False,17
A014M36,203,experiment,96,↑,down,↓,1.1433523000000605,False,17
A014M36,204,experiment,36,→,no_key,no_letter,-1.0,False,17
A014M36,205,experiment,96,←,left,←,0.7626477999999679,True,17
A014M36,206,experiment,120,→,right,→,0.6570910000000367,True,17
A014M36,207,experiment,144,→,right,→,0.7322666000000027,True,17
A014M36,208,experiment,36,←,left,←,0.6696317999999337,True,17
A014M36,209,experiment,168,↑,left,←,1.1387084000000414,False,17
A014M36,210,experiment,84,↑,no_key,no_letter,-1.0,False,17
A014M36,211,experiment,120,↓,down,↓,0.9713576999999987,True,17
A014M36,212,experiment,108,↓,down,↓,1.117014700000027,True,17
A014M36,213,experiment,144,→,left,←,1.2553083999998762,False,17
A014M36,214,experiment,24,↓,no_key,no_letter,-1.0,False,17
A014M36,215,experiment,48,↑,no_key,no_letter,-1.0,False,17
A014M36,216,experiment,144,↑,down,↓,0.9315086000001429,False,17
A014M36,217,experiment,72,→,right,→,0.6483604000000014,True,17
A014M36,218,experiment,180,→,no_key,no_letter,-1.0,False,17
A014M36,219,experiment,72,↑,right,→,0.9363748000000669,False,17
A014M36,220,training,96,↓,no_key,no_letter,-1.0,False,18
A014M36,221,training,84,→,right,→,0.6650672999999188,True,18
A014M36,222,training,168,←,right,→,0.5019853999999668,False,18
A014M36,223,experiment,24,←,right,→,0.5461699999998473,False,18
A014M36,224,experiment,144,↑,no_key,no_letter,-1.0,False,18
A014M36,225,experiment,132,↓,right,→,1.058246600000075,False,18
A014M36,226,experiment,144,←,left,←,0.7044587999998839,True,18
A014M36,227,experiment,36,↓,left,←,0.838752999999997,False,18
A014M36,228,experiment,108,←,left,←,1.0150937999999314,True,18
A014M36,229,experiment,60,↑,right,→,1.3113797000000886,False,18
A014M36,230,experiment,24,↑,right,→,0.8958063000000038,False,18
A014M36,231,experiment,168,↑,left,←,1.1427263999999013,False,18
A014M36,232,experiment,96,←,left,←,0.8420386000000235,True,18
A014M36,233,experiment,120,↓,right,→,0.6553574000001845,False,18
A014M36,234,experiment,48,↑,right,→,0.6989776000000347,False,18
A014M36,235,experiment,84,↓,down,↓,1.6615514000000076,True,18
A014M36,236,experiment,36,↑,right,→,1.0509585999998308,False,18
A014M36,237,experiment,180,↓,left,←,1.1923401999999896,False,18
A014M36,238,experiment,72,↑,no_key,no_letter,-1.0,False,18
A014M36,239,experiment,72,↓,no_key,no_letter,-1.0,False,18
A014M36,240,experiment,12,↓,left,←,1.1485823999998956,False,18
A014M36,241,experiment,168,↓,no_key,no_letter,-1.0,False,18
A014M36,242,experiment,120,↓,up,↑,1.0516110000000936,False,18
A014M36,243,experiment,24,→,right,→,0.6995443999999225,True,18
A014M36,244,experiment,24,→,right,→,0.7197363999998743,True,18
A014M36,245,experiment,48,↑,no_key,no_letter,-1.0,False,18
A014M36,246,experiment,168,↓,right,→,1.4915407000000869,False,18
A014M36,247,experiment,132,→,right,→,0.6183312000000569,True,18
A014M36,248,experiment,180,→,right,→,0.6447177000000011,True,18
A014M36,249,experiment,36,←,right,→,0.9463056999998116,False,18
A014M36,250,experiment,120,→,right,→,0.7783956999999191,True,18
A014M36,251,experiment,12,←,right,→,0.6554555000000164,False,18
A014M36,252,experiment,132,↑,no_key,no_letter,-1.0,False,18
A014M36,253,experiment,96,→,up,↑,1.6965425999999297,False,18
A014M36,254,experiment,84,↑,up,↑,1.1436280000000352,True,18
A014M36,255,experiment,108,↑,no_key,no_letter,-1.0,False,18
A014M36,256,experiment,12,↓,no_key,no_letter,-1.0,False,18
A014M36,257,experiment,96,↑,down,↓,1.3591376000001674,False,18
A014M36,258,experiment,108,→,right,→,0.7557229000001371,True,18
A014M36,259,experiment,156,↓,up,↑,1.2366961000000174,False,18
A014M36,260,experiment,60,←,right,→,0.9723573000001124,False,18
A014M36,261,experiment,12,↑,no_key,no_letter,-1.0,False,18
A014M36,262,experiment,156,↓,right,→,1.4368333999998413,False,18
A014M36,263,experiment,72,←,right,→,1.1589559000001373,False,18
A014M36,264,experiment,156,→,right,→,0.592659200000071,True,18
A014M36,265,experiment,60,↓,up,↑,1.7077320999999301,False,18
A014M36,266,experiment,48,↑,right,→,1.1452862999999525,False,18
A014M36,267,experiment,180,←,right,→,0.7209533999998712,False,18
A014M36,268,experiment,60,←,no_key,no_letter,-1.0,False,18
A014M36,269,experiment,132,←,right,→,0.5884014000000661,False,18
A014M36,270,experiment,120,↑,right,→,0.8276112999999441,False,18
A014M36,271,experiment,72,↑,no_key,no_letter,-1.0,False,18
A014M36,272,experiment,108,↓,right,→,1.1415907999999035,False,18
A014M36,273,experiment,96,↓,no_key,no_letter,-1.0,False,18
A014M36,274,experiment,36,↓,no_key,no_letter,-1.0,False,18
A014M36,275,experiment,48,←,left,←,1.2672551000000567,True,18
A014M36,276,experiment,144,↓,left,←,1.3931294999999864,False,18
A014M36,277,experiment,84,↑,up,↑,1.211044500000071,True,18
A014M36,278,experiment,156,→,up,↑,0.9818771000000197,False,18
A014M36,279,experiment,180,↓,up,↑,0.23381709999989653,False,18
A014M36,280,experiment,84,↓,no_key,no_letter,-1.0,False,18
A014M36,281,experiment,168,↓,down,↓,1.0048503999998957,True,18
A014M36,282,experiment,144,↑,up,↑,1.5907234999999673,True,18
A014M36,283,training,12,↑,up,↑,1.2235527000000275,True,18
A014M36,284,training,108,↑,up,↑,0.781958799999984,True,18
A014M36,285,training,168,↓,up,↑,0.7588160000000244,False,18
A014M36,286,experiment,84,←,right,→,0.7103514000000359,False,18
A014M36,287,experiment,96,→,right,→,0.5279723000001013,True,18
A014M36,288,experiment,48,←,left,←,0.6961539999999786,True,18
A014M36,289,experiment,72,↑,no_key,no_letter,-1.0,False,18
A014M36,290,experiment,108,←,right,→,0.9542577000001984,False,18
A014M36,291,experiment,180,↓,no_key,no_letter,-1.0,False,18
A014M36,292,experiment,24,↑,up,↑,0.8691890000000058,True,18
A014M36,293,experiment,48,↑,no_key,no_letter,-1.0,False,18
A014M36,294,experiment,36,←,left,←,0.893059600000015,True,18
A014M36,295,experiment,24,↑,no_key,no_letter,-1.0,False,18
A014M36,296,experiment,144,→,no_key,no_letter,-1.0,False,18
A014M36,297,experiment,144,←,left,←,0.6596749999998792,True,18
A014M36,298,experiment,60,←,left,←,0.5978928000001815,True,18
A014M36,299,experiment,12,↑,right,→,1.1909866000000875,False,18
A014M36,300,experiment,108,←,left,←,0.9279635999998845,True,18
A014M36,301,experiment,156,↑,no_key,no_letter,-1.0,False,18
A014M36,302,experiment,84,↑,no_key,no_letter,-1.0,False,18
A014M36,303,experiment,72,→,right,→,0.7136462999999367,True,18
A014M36,304,experiment,156,→,right,→,0.8095321000000695,True,18
A014M36,305,experiment,108,→,right,→,0.5328401000001577,True,18
A014M36,306,experiment,60,↑,left,←,0.704647199999954,False,18
A014M36,307,experiment,60,↑,no_key,no_letter,-1.0,False,18
A014M36,308,experiment,12,↑,no_key,no_letter,-1.0,False,18
A014M36,309,experiment,168,→,right,→,0.717977000000019,True,18
A014M36,310,experiment,120,↓,up,↑,0.933002100000067,False,18
A014M36,311,experiment,24,←,right,→,0.6187176000000818,False,18
A014M36,312,experiment,156,↑,down,↓,1.0705516999998963,False,18
A014M36,313,experiment,144,→,right,→,0.6771562999999787,True,18
A014M36,314,experiment,48,↓,right,→,1.0505637999999635,False,18
A014M36,315,experiment,132,←,right,→,0.5503114000000551,False,18
A014M36,316,experiment,156,↓,down,↓,1.0988059999999678,True,18
A014M36,317,experiment,120,↓,no_key,no_letter,-1.0,False,18
A014M36,318,experiment,24,→,right,→,0.7907863000000361,True,18
A014M36,319,experiment,60,↑,left,←,0.8497995999998693,False,18
A014M36,320,experiment,180,←,right,→,1.6140419000000747,False,18
A014M36,321,experiment,120,↑,no_key,no_letter,-1.0,False,18
A014M36,322,experiment,72,→,right,→,0.5030280999999377,True,18
A014M36,323,experiment,144,←,right,→,0.8735257000000729,False,18
A014M36,324,experiment,84,↓,right,→,0.8786210999999184,False,18
A014M36,325,experiment,72,↓,right,→,1.3465354999998453,False,18
A014M36,326,experiment,132,↓,down,↓,0.9807863999999427,True,18
A014M36,327,experiment,48,↓,down,↓,0.7901776999999583,True,18
A014M36,328,experiment,36,↑,no_key,no_letter,-1.0,False,18
A014M36,329,experiment,132,→,right,→,0.7373607000001812,True,18
A014M36,330,experiment,168,↓,no_key,no_letter,-1.0,False,18
A014M36,331,experiment,12,←,right,→,0.6710399999999481,False,18
A014M36,332,experiment,12,↓,left,←,0.9706248999998479,False,18
A014M36,333,experiment,132,↑,no_key,no_letter,-1.0,False,18
A014M36,334,experiment,108,←,right,→,0.5145949000000201,False,18
A014M36,335,experiment,168,→,no_key,no_letter,-1.0,False,18
A014M36,336,experiment,180,↑,down,↓,1.6748761999999715,False,18
A014M36,337,experiment,36,↓,up,↑,0.9068545999998605,False,18
A014M36,338,experiment,96,↑,up,↑,0.9183184000000892,True,18
A014M36,339,experiment,168,↓,down,↓,1.3788861999998971,True,18
A014M36,340,experiment,96,↑,down,↓,0.9482794999998987,False,18
A014M36,341,experiment,120,↓,no_key,no_letter,-1.0,False,18
A014M36,342,experiment,36,←,left,←,0.8522007999999914,True,18
A014M36,343,experiment,84,↓,up,↑,1.5161596999998892,False,18
A014M36,344,experiment,96,↓,down,↓,0.7728761000000759,True,18
A014M36,345,experiment,180,→,no_key,no_letter,-1.0,False,18
A014M36,346,training,168,←,left,←,0.7791254999999637,True,18
A014M36,347,training,48,→,right,→,0.85491009999987,True,18
A014M36,348,training,120,↓,no_key,no_letter,-1.0,False,18
A014M36,349,experiment,180,↓,left,←,1.1928457999999864,False,18
A014M36,350,experiment,144,↑,right,→,0.7320819999999912,False,18
A014M36,351,experiment,12,↓,left,←,0.9195700000000215,False,18
A014M36,352,experiment,120,↓,up,↑,1.3059714999999414,False,18
A014M36,353,experiment,60,↑,up,↑,1.1017362999998568,True,18
A014M36,354,experiment,96,→,right,→,0.6418260000000373,True,18
A014M36,355,experiment,144,→,right,→,0.5415001999999731,True,18
A014M36,356,experiment,72,↓,up,↑,0.797964299999876,False,18
A014M36,357,experiment,108,←,right,→,0.5812880999999379,False,18
A014M36,358,experiment,108,→,right,→,1.0749269000000368,True,18
A014M36,359,experiment,24,↓,right,→,0.9544478000000254,False,18
A014M36,360,experiment,156,→,left,←,1.8755165999998553,False,18
A014M36,361,experiment,24,↓,no_key,no_letter,-1.0,False,18
A014M36,362,experiment,96,←,right,→,0.6109384000001228,False,18
A014M36,363,experiment,180,→,right,→,0.6953091000000313,True,18
A014M36,364,experiment,156,↑,up,↑,0.9639357999999447,True,18
A014M36,365,experiment,84,→,right,→,0.7220087000000603,True,18
A014M36,366,experiment,48,←,left,←,0.8810465999999906,True,18
A014M36,367,experiment,132,←,right,→,0.7397223000000395,False,18
A014M36,368,experiment,72,→,right,→,0.639554999999973,True,18
A014M36,369,experiment,84,←,right,→,0.8868694000000232,False,18
A014M36,370,experiment,72,→,right,→,0.6310734999999568,True,18
A014M36,371,experiment,96,↑,up,↑,0.6963498999998592,True,18
A014M36,372,experiment,12,←,left,←,0.898738000000094,True,18
A014M36,373,experiment,36,↑,no_key,no_letter,-1.0,False,18
A014M36,374,experiment,168,←,left,←,0.7211843000000044,True,18
A014M36,375,experiment,180,→,right,→,0.575721700000031,True,18
A014M36,376,experiment,36,↓,no_key,no_letter,-1.0,False,18
A014M36,377,experiment,132,↓,up,↑,0.7731544999999187,False,18
A014M36,378,experiment,120,↑,no_key,no_letter,-1.0,False,18
A014M36,379,experiment,180,↓,down,↓,0.9749786999998378,True,18
A014M36,380,experiment,120,↑,no_key,no_letter,-1.0,False,18
A014M36,381,experiment,168,←,left,←,0.9098665000001347,True,18
A014M36,382,experiment,48,→,right,→,1.0597798999999668,True,18
A014M36,383,experiment,108,←,no_key,no_letter,-1.0,False,18
A014M36,384,experiment,60,↑,no_key,no_letter,-1.0,False,18
A014M36,385,experiment,36,←,left,←,0.9018817999999555,True,18
A014M36,386,experiment,96,←,left,←,0.7199740999999449,True,18
A014M36,387,experiment,84,←,right,→,0.6990859,False,18
A014M36,388,experiment,132,←,left,←,0.8453497999998945,True,18
A014M36,389,experiment,156,↓,down,↓,1.0385384999999587,True,18
A014M36,390,experiment,144,→,right,→,0.7154358999998749,True,18
A014M36,391,experiment,84,←,left,←,1.6331559000000198,True,18
A014M36,392,experiment,168,↑,down,↓,1.026559700000007,False,18
A014M36,393,experiment,156,←,no_key,no_letter,-1.0,False,18
A014M36,394,experiment,72,→,right,→,0.7096965999999156,True,18
A014M36,395,experiment,60,↑,up,↑,1.2686068000000432,True,18
A014M36,396,experiment,24,→,right,→,1.582619200000181,True,18
A014M36,397,experiment,48,↑,down,↓,1.0969447999998465,False,18
A014M36,398,experiment,132,→,left,←,0.821500899999819,False,18
A014M36,399,experiment,168,←,right,→,0.7778258000000733,False,18
A014M36,400,experiment,36,↓,down,↓,1.3118979000000763,True,18
A014M36,401,experiment,12,↑,no_key,no_letter,-1.0,False,18
A014M36,402,experiment,144,↓,down,↓,1.2397804000001997,True,18
A014M36,403,experiment,24,↑,no_key,no_letter,-1.0,False,18
A014M36,404,experiment,120,→,right,→,0.7370608000001084,True,18
A014M36,405,experiment,60,↓,down,↓,0.9390012999999726,True,18
A014M36,406,experiment,48,→,right,→,0.6903795000000628,True,18
A014M36,407,experiment,108,→,right,→,0.8932013000001007,True,18
A014M36,408,experiment,12,↓,down,↓,0.8610329000000547,True,18
A014M36,409,training,156,→,right,→,0.6878942999999254,True,18
A014M36,410,training,168,↓,down,↓,1.0021746999998413,True,18
A014M36,411,training,96,←,right,→,0.7469014999999217,False,18
A014M36,412,experiment,156,←,right,→,0.6780966000001172,False,18
A014M36,413,experiment,180,→,right,→,0.49727809999990313,True,18
A014M36,414,experiment,120,↓,no_key,no_letter,-1.0,False,18
A014M36,415,experiment,168,←,left,←,1.197997100000066,True,18
A014M36,416,experiment,36,←,left,←,0.9288012999998045,True,18
A014M36,417,experiment,60,↑,up,↑,1.8613894999998593,True,18
A014M36,418,experiment,84,↑,no_key,no_letter,-1.0,False,18
A014M36,419,experiment,36,←,right,→,1.0359536999999364,False,18
A014M36,420,experiment,120,←,right,→,0.7632223999999042,False,18
A014M36,421,experiment,144,→,right,→,0.7329236999999011,True,18
A014M36,422,experiment,156,←,right,→,0.959775000000036,False,18
A014M36,423,experiment,180,↑,up,↑,0.7994797999999719,True,18
A014M36,424,experiment,60,↓,no_key,no_letter,-1.0,False,18
A014M36,425,experiment,24,↓,no_key,no_letter,-1.0,False,18
A014M36,426,experiment,120,↓,down,↓,1.0849456000000828,True,18
A014M36,427,experiment,96,↑,no_key,no_letter,-1.0,False,18
A014M36,428,experiment,84,↑,left,←,1.1131425000000945,False,18
A014M36,429,experiment,48,↑,up,↑,0.7677596999999423,True,18
A014M36,430,experiment,24,↓,no_key,no_letter,-1.0,False,18
A014M36,431,experiment,180,↓,no_key,no_letter,-1.0,False,18
A014M36,432,experiment,168,→,right,→,0.5943707999999788,True,18
A014M36,433,experiment,144,↑,no_key,no_letter,-1.0,False,18
A014M36,434,experiment,84,↓,no_key,no_letter,-1.0,False,18
A014M36,435,experiment,168,→,right,→,0.9667629000000488,True,18
A014M36,436,experiment,72,↓,down,↓,0.9992044999999052,True,18
A014M36,437,experiment,48,↓,down,↓,0.8983433999999306,True,18
A014M36,438,experiment,12,→,up,↑,1.2837544000001344,False,18
A014M36,439,experiment,132,↓,no_key,no_letter,-1.0,False,18
A014M36,440,experiment,72,↓,no_key,no_letter,-1.0,False,18
A014M36,441,experiment,48,←,right,→,0.8429084000001694,False,18
A014M36,442,experiment,108,→,right,→,0.6709184000001187,True,18
A014M36,443,experiment,24,→,right,→,0.49699729999997544,True,18
A014M36,444,experiment,12,↑,no_key,no_letter,-1.0,False,18
A014M36,445,experiment,72,←,no_key,no_letter,-1.0,False,18
A014M36,446,experiment,144,↑,left,←,1.331466999999975,False,18
A014M36,447,experiment,24,↓,right,→,0.6940319000000272,False,18
A014M36,448,experiment,36,→,right,→,0.5872827000000598,True,18
A014M36,449,experiment,156,←,right,→,0.5518730999999661,False,18
A014M36,450,experiment,60,→,right,→,0.6805681999999251,True,18
A014M36,451,experiment,156,←,right,→,0.9781176999999843,False,18
A014M36,452,experiment,12,→,right,→,0.6437943999999334,True,18
A014M36,453,experiment,96,↑,no_key,no_letter,-1.0,False,18
A014M36,454,experiment,96,↓,up,↑,0.7932353999999577,False,18
A014M36,455,experiment,120,↑,up,↑,0.1671277000000373,True,18
A014M36,456,experiment,36,↑,up,↑,0.8372930999998971,True,18
A014M36,457,experiment,84,←,left,←,0.7155773000001773,True,18
A014M36,458,experiment,132,←,left,←,0.7440412000000833,True,18
A014M36,459,experiment,144,↑,up,↑,1.605036600000176,True,18
A014M36,460,experiment,108,↑,up,↑,0.6949729999998908,True,18
A014M36,461,experiment,180,→,right,→,0.7673287000000073,True,18
A014M36,462,experiment,96,→,right,→,0.8286477999999988,True,18
A014M36,463,experiment,48,↓,right,→,0.9091807999998309,False,18
A014M36,464,experiment,168,←,no_key,no_letter,-1.0,False,18
A014M36,465,experiment,72,↓,no_key,no_letter,-1.0,False,18
A014M36,466,experiment,108,↑,up,↑,0.965515799999821,True,18
A014M36,467,experiment,60,↓,no_key,no_letter,-1.0,False,18
A014M36,468,experiment,132,↓,down,↓,1.0932581000001846,True,18
A014M36,469,experiment,108,↑,no_key,no_letter,-1.0,False,18
A014M36,470,experiment,12,↑,down,↓,0.7961986000000252,False,18
A014M36,471,experiment,132,↓,down,↓,0.9590310999999474,True,18
A014M36,472,training,60,←,left,←,0.4820278000001963,True,18
A014M36,473,training,180,←,no_key,no_letter,-1.0,False,18
A014M36,474,training,24,↑,left,←,0.7665947000000415,False,18
A014M36,475,experiment,12,←,left,←,0.5993740999999773,True,18
A014M36,476,experiment,120,↓,no_key,no_letter,-1.0,False,18
A014M36,477,experiment,108,→,no_key,no_letter,-1.0,False,18
A014M36,478,experiment,120,←,left,←,0.7509061999999176,True,18
A014M36,479,experiment,72,←,left,←,0.5876144999999724,True,18
A014M36,480,experiment,12,→,left,←,0.522322000000031,False,18
A014M36,481,experiment,60,→,right,→,0.927903600000036,True,18
A014M36,482,experiment,168,←,right,→,0.7576910000000225,False,18
A014M36,483,experiment,180,→,left,←,0.6964121999999406,False,18
A014M36,484,experiment,120,↑,up,↑,0.8669676999998046,True,18
A014M36,485,experiment,156,↓,down,↓,0.9592221999996582,True,18
A014M36,486,experiment,180,↑,down,↓,1.096061600000212,False,18
A014M36,487,experiment,144,↓,no_key,no_letter,-1.0,False,18
A014M36,488,experiment,132,↑,down,↓,0.7150348000000122,False,18
A014M36,489,experiment,156,↓,no_key,no_letter,-1.0,False,18
A014M36,490,experiment,96,→,right,→,0.9160208999996939,True,18
A014M36,491,experiment,48,↓,no_key,no_letter,-1.0,False,18
A014M36,492,experiment,60,←,left,←,0.8128569000000425,True,18
A014M36,493,experiment,168,↓,down,↓,1.0342630999998619,True,18
A014M36,494,experiment,156,↓,no_key,no_letter,-1.0,False,18
A014M36,495,experiment,60,←,right,→,0.7840993999998318,False,18
A014M36,496,experiment,36,←,left,←,1.2016858000001776,True,18
A014M36,497,experiment,144,←,right,→,0.8924263000003521,False,18
A014M36,498,experiment,180,↑,down,↓,0.9829764999999497,False,18
A014M36,499,experiment,36,←,right,→,1.6338229000002684,False,18
A014M36,500,experiment,168,↑,up,↑,1.0817140999997719,True,18
A014M36,501,experiment,96,↑,no_key,no_letter,-1.0,False,18
A014M36,502,experiment,132,↓,no_key,no_letter,-1.0,False,18
A014M36,503,experiment,24,↓,down,↓,1.228817500000332,True,18
A014M36,504,experiment,24,→,right,→,1.1277769999996963,True,18
A014M36,505,experiment,108,←,right,→,1.050495200000114,False,18
A014M36,506,experiment,24,←,right,→,0.5758167999997568,False,18
A014M36,507,experiment,72,↓,no_key,no_letter,-1.0,False,18
A014M36,508,experiment,84,→,right,→,0.7369429000000309,True,18
A014M36,509,experiment,180,←,left,←,0.8731769999999415,True,18
A014M36,510,experiment,108,↓,down,↓,1.0699978999996347,True,18
A014M36,511,experiment,84,→,right,→,0.7272803999999269,True,18
A014M36,512,experiment,48,↑,no_key,no_letter,-1.0,False,18
A014M36,513,experiment,24,→,right,→,0.6489773999996942,True,18
A014M36,514,experiment,168,→,right,→,0.8466952999997375,True,18
A014M36,515,experiment,96,↑,down,↓,1.0457452000000558,False,18
A014M36,516,experiment,84,↑,up,↑,0.8615585000002284,True,18
A014M36,517,experiment,132,↑,up,↑,1.071418800000174,True,18
A014M36,518,experiment,144,→,left,←,1.2334544000000278,False,18
A014M36,519,experiment,132,←,right,→,0.8065890000002582,False,18
A014M36,520,experiment,36,→,right,→,0.5486517999997886,True,18
A014M36,521,experiment,144,↑,no_key,no_letter,-1.0,False,18
A014M36,522,experiment,48,←,left,←,0.8915474000000359,True,18
A014M36,523,experiment,72,←,no_key,no_letter,-1.0,False,18
A014M36,524,experiment,72,→,left,←,0.9214876000000913,False,18
A014M36,525,experiment,120,↓,no_key,no_letter,-1.0,False,18
A014M36,526,experiment,12,→,left,←,1.9111299000001054,False,18
A014M36,527,experiment,96,→,right,→,0.6565654999999424,True,18
A014M36,528,experiment,84,←,left,←,1.5459192999996958,True,18
A014M36,529,experiment,108,↑,no_key,no_letter,-1.0,False,18
A014M36,530,experiment,156,←,left,←,0.9045874999997068,True,18
A014M36,531,experiment,48,←,left,←,0.8121178999999756,True,18
A014M36,532,experiment,60,↑,no_key,no_letter,-1.0,False,18
A014M36,533,experiment,36,↓,down,↓,1.1367645000000266,True,18
A014M36,534,experiment,12,↓,no_key,no_letter,-1.0,False,18
A014M36,535,training,96,↓,no_key,no_letter,-1.0,False,18
A014M36,536,training,60,→,left,←,1.2623773000000256,False,18
A014M36,537,training,168,↓,up,↑,1.2413566999998693,False,18
A014M36,538,experiment,96,↓,no_key,no_letter,-1.0,False,18
A014M36,539,experiment,60,↓,no_key,no_letter,-1.0,False,18
A014M36,540,experiment,180,↓,no_key,no_letter,-1.0,False,18
A014M36,541,experiment,108,↑,down,↓,1.4020302999997512,False,18
A014M36,542,experiment,132,←,left,←,0.8504511999999522,True,18
A014M36,543,experiment,168,→,right,→,0.7401060999995934,True,18
A014M36,544,experiment,108,↓,no_key,no_letter,-1.0,False,18
A014M36,545,experiment,12,←,right,→,0.936301100000037,False,18
A014M36,546,experiment,60,↑,no_key,no_letter,-1.0,False,18
A014M36,547,experiment,72,←,left,←,0.8080537000000731,True,18
A014M36,548,experiment,72,↑,down,↓,1.738961599999584,False,18
A014M36,549,experiment,144,←,no_key,no_letter,-1.0,False,18
A014M36,550,experiment,132,→,no_key,no_letter,-1.0,False,18
A014M36,551,experiment,72,↓,up,↑,1.0240523000002213,False,18
A014M36,552,experiment,96,↓,down,↓,0.8190937999997914,True,18
A014M36,553,experiment,108,↑,up,↑,1.9639721999997164,True,18
A014M36,554,experiment,96,←,left,←,0.8440454000001409,True,18
A014M36,555,experiment,48,↑,up,↑,1.399731299999985,True,18
A014M36,556,experiment,96,↓,down,↓,1.0249441999999362,True,18
A014M36,557,experiment,144,←,no_key,no_letter,-1.0,False,18
A014M36,558,experiment,48,←,left,←,0.8026485000000321,True,18
A014M36,559,experiment,24,←,left,←,0.8458890999995674,True,18
A014M36,560,experiment,120,→,left,←,0.8415027999999438,False,18
A014M36,561,experiment,36,→,right,→,0.6048347999999351,True,18
A014M36,562,experiment,72,←,left,←,0.8291663999998491,True,18
A014M36,563,experiment,84,→,right,→,0.6038988999998764,True,18
A014M36,564,experiment,12,↓,no_key,no_letter,-1.0,False,18
A014M36,565,experiment,24,↓,left,←,1.0924537000000782,False,18
A014M36,566,experiment,180,↓,down,↓,1.156398000000081,True,18
A014M36,567,experiment,84,↑,up,↑,1.4222967000000608,True,18
A014M36,568,experiment,12,↓,down,↓,0.744434100000035,True,18
A014M36,569,experiment,48,↑,no_key,no_letter,-1.0,False,18
A014M36,570,experiment,36,↓,down,↓,0.7140775000002577,True,18
A014M36,571,experiment,156,→,right,→,0.880622200000289,True,18
A014M36,572,experiment,132,↓,no_key,no_letter,-1.0,False,18
A014M36,573,experiment,156,↑,down,↓,0.9474464999998418,False,18
A014M36,574,experiment,180,←,left,←,0.8457797999999457,True,18
A014M36,575,experiment,36,↑,no_key,no_letter,-1.0,False,18
A014M36,576,experiment,120,↑,no_key,no_letter,-1.0,False,18
A014M36,577,experiment,120,↑,down,↓,0.9511757000000216,False,18
A014M36,578,experiment,156,→,left,←,1.1164896999998746,False,18
A014M36,579,experiment,156,←,left,←,0.8292182000000139,True,18
A014M36,580,experiment,84,↑,up,↑,0.7543147000001227,True,18
A014M36,581,experiment,60,↓,no_key,no_letter,-1.0,False,18
A014M36,582,experiment,120,→,right,→,0.9050452000001314,True,18
A014M36,583,experiment,84,↓,no_key,no_letter,-1.0,False,18
A014M36,584,experiment,24,←,left,←,0.8229627999999138,True,18
A014M36,585,experiment,168,↓,left,←,1.2241375999997217,False,18
A014M36,586,experiment,180,↓,no_key,no_letter,-1.0,False,18
A014M36,587,experiment,108,←,left,←,0.8240252999999029,True,18
A014M36,588,experiment,60,↓,down,↓,1.033951800000068,True,18
A014M36,589,experiment,24,→,left,←,0.8690669999996317,False,18
A014M36,590,experiment,132,↓,no_key,no_letter,-1.0,False,18
A014M36,591,experiment,168,→,right,→,1.0733981999997013,True,18
A014M36,592,experiment,48,←,no_key,no_letter,-1.0,False,18
A014M36,593,experiment,12,↓,no_key,no_letter,-1.0,False,18
A014M36,594,experiment,144,↓,down,↓,0.9517330000003312,True,18
A014M36,595,experiment,36,↓,down,↓,0.776722300000074,True,18
A014M36,596,experiment,168,←,left,←,0.877595299999939,True,18
A014M36,597,experiment,144,↓,down,↓,0.9265352999996139,True,18
A014M36,598,training,96,←,left,←,0.6701843999999255,True,18
A014M36,599,training,60,↓,no_key,no_letter,-1.0,False,18
A014M36,600,training,60,→,right,→,0.7277392999999392,True,18
A014M36,601,experiment,48,↑,left,←,0.7901554000000033,False,18
A014M36,602,experiment,180,↑,no_key,no_letter,-1.0,False,18
A014M36,603,experiment,120,→,right,→,0.7703791000003548,True,18
A014M36,604,experiment,120,→,right,→,0.5710379000001922,True,18
A014M36,605,experiment,108,↓,left,←,1.1487598999997317,False,18
A014M36,606,experiment,84,→,right,→,0.760666300000139,True,18
A014M36,607,experiment,132,←,right,→,1.0661332999998194,False,18
A014M36,608,experiment,180,→,no_key,no_letter,-1.0,False,18
A014M36,609,experiment,156,←,left,←,0.7197876999998698,True,18
A014M36,610,experiment,180,←,no_key,no_letter,-1.0,False,18
A014M36,611,experiment,108,→,right,→,0.701035900000079,True,18
A014M36,612,experiment,96,←,right,→,0.7667759999999362,False,18
A014M36,613,experiment,144,↑,no_key,no_letter,-1.0,False,18
A014M36,614,experiment,36,←,left,←,0.9616783000001305,True,18
A014M36,615,experiment,60,↓,right,→,0.9226346000000376,False,18
A014M36,616,experiment,60,↑,left,←,0.7053123000000596,False,18
A014M36,617,experiment,60,↓,no_key,no_letter,-1.0,False,18
A014M36,618,experiment,120,↑,no_key,no_letter,-1.0,False,18
A014M36,619,experiment,132,→,right,→,0.9474233999999342,True,18
A014M36,620,experiment,48,↓,no_key,no_letter,-1.0,False,18
A014M36,621,experiment,36,↑,up,↑,1.4336066999999275,True,18
A014M36,622,experiment,144,↓,down,↓,1.18975139999975,True,18
A014M36,623,experiment,84,↓,up,↑,0.9570988000000398,False,18
A014M36,624,experiment,168,↑,up,↑,1.108475499999713,True,18
A014M36,625,experiment,24,↑,up,↑,1.340005999999903,True,18
A014M36,626,experiment,156,↓,down,↓,1.2866039000000455,True,18
A014M36,627,experiment,24,↑,up,↑,0.8970908999999665,True,18
A014M36,628,experiment,36,↑,up,↑,0.813770399999612,True,18
A014M36,629,experiment,24,→,right,→,1.0227340000001277,True,18
A014M36,630,experiment,156,→,no_key,no_letter,-1.0,False,18
A014M36,631,experiment,132,↓,no_key,no_letter,-1.0,False,18
A014M36,632,experiment,12,←,no_key,no_letter,-1.0,False,18
A014M36,633,experiment,168,→,right,→,0.6155567000000701,True,18
A014M36,634,experiment,180,↑,up,↑,0.9410053000001426,True,18
A014M36,635,experiment,24,→,left,←,1.8751560999999128,False,18
A014M36,636,experiment,72,↓,right,→,0.8321005000002515,False,18
A014M36,637,experiment,72,↑,up,↑,1.7476287999998021,True,18
A014M36,638,experiment,84,↑,up,↑,0.8720249999996668,True,18
A014M36,639,experiment,60,↑,no_key,no_letter,-1.0,False,18
A014M36,640,experiment,144,↓,no_key,no_letter,-1.0,False,18
A014M36,641,experiment,168,↓,no_key,no_letter,-1.0,False,18
A014M36,642,experiment,96,→,right,→,0.8869076999999379,True,18
A014M36,643,experiment,36,→,right,→,0.5581442999996398,True,18
A014M36,644,experiment,12,→,right,→,0.8230319999997846,True,18
A014M36,645,experiment,96,↓,no_key,no_letter,-1.0,False,18
A014M36,646,experiment,48,←,no_key,no_letter,-1.0,False,18
A014M36,647,experiment,72,←,left,←,0.9048376000000644,True,18
A014M36,648,experiment,144,→,no_key,no_letter,-1.0,False,18
A014M36,649,experiment,84,↑,left,←,0.9984800999995969,False,18
A014M36,650,experiment,108,↓,left,←,1.3762683999998444,False,18
A014M36,651,experiment,12,↓,no_key,no_letter,-1.0,False,18
A014M36,652,experiment,108,↑,up,↑,0.8735130999998546,True,18
A014M36,653,experiment,48,→,right,→,0.7394626999998763,True,18
A014M36,654,experiment,120,↓,no_key,no_letter,-1.0,False,18
A014M36,655,experiment,96,←,left,←,1.109384400000181,True,18
A014M36,656,experiment,156,→,no_key,no_letter,-1.0,False,18
A014M36,657,experiment,12,↓,up,↑,0.7577723000003971,False,18
A014M36,658,experiment,72,↑,up,↑,0.7181918999999652,True,18
A014M36,659,experiment,132,↓,no_key,no_letter,-1.0,False,18
A014M36,660,experiment,168,↑,no_key,no_letter,-1.0,False,18
A014M36,661,training,84,↓,no_key,no_letter,-1.0,False,18
A014M36,662,training,72,↑,up,↑,0.6749900999998317,True,18
A014M36,663,training,48,←,left,←,0.6129384000000755,True,18
A014M36,664,experiment,168,↑,up,↑,0.6968796000001021,True,18
A014M36,665,experiment,24,↓,up,↑,0.5762918000000354,False,18
A014M36,666,experiment,132,↑,up,↑,0.5731807000001936,True,18
A014M36,667,experiment,180,↓,up,↑,0.6619064999999864,False,18
A014M36,668,experiment,72,←,up,↑,0.5078449000002365,False,18
A014M36,669,experiment,96,↓,up,↑,0.8211338000000978,False,18
A014M36,670,experiment,108,↑,up,↑,0.8173955000002024,True,18
A014M36,671,experiment,36,→,left,←,0.6075984999997672,False,18
A014M36,672,experiment,12,↓,no_key,no_letter,-1.0,False,18
A014M36,673,experiment,48,→,right,→,0.7983373000001848,True,18
A014M36,674,experiment,36,↓,right,→,1.3811153000001468,False,18
A014M36,675,experiment,168,↓,left,←,1.1513828000001922,False,18
A014M36,676,experiment,144,↑,no_key,no_letter,-1.0,False,18
A014M36,677,experiment,168,←,left,←,1.42708360000006,True,18
A014M36,678,experiment,132,←,left,←,0.7060010000000148,True,18
A014M36,679,experiment,36,↓,no_key,no_letter,-1.0,False,18
A014M36,680,experiment,24,↓,no_key,no_letter,-1.0,False,18
A014M36,681,experiment,144,↑,down,↓,1.2078341999999793,False,18
A014M36,682,experiment,48,←,left,←,0.8933999000000767,True,18
A014M36,683,experiment,84,↑,up,↑,0.928219700000227,True,18
A014M36,684,experiment,72,←,left,←,1.03940029999967,True,18
A014M36,685,experiment,60,↑,no_key,no_letter,-1.0,False,18
A014M36,686,experiment,108,←,left,←,0.7073517000003449,True,18
A014M36,687,experiment,60,→,no_key,no_letter,-1.0,False,18
A014M36,688,experiment,156,↑,no_key,no_letter,-1.0,False,18
A014M36,689,experiment,48,←,left,←,0.8705429999999978,True,18
A014M36,690,experiment,12,→,right,→,0.6140478999996049,True,18
A014M36,691,experiment,12,←,left,←,0.771476999999777,True,18
A014M36,692,experiment,12,←,left,←,0.5554120000001603,True,18
A014M36,693,experiment,36,↓,down,↓,1.325091600000178,True,18
A014M36,694,experiment,60,→,right,→,0.6713967999999113,True,18
A014M36,695,experiment,72,→,right,→,0.7395758000002388,True,18
A014M36,696,experiment,72,↑,no_key,no_letter,-1.0,False,18
A014M36,697,experiment,120,↑,right,→,1.0049388000002182,False,18
A014M36,698,experiment,180,↑,down,↓,1.08117940000011,False,18
A014M36,699,experiment,120,↓,down,↓,1.3572314000002734,True,18
A014M36,700,experiment,156,→,no_key,no_letter,-1.0,False,18
A014M36,701,experiment,84,←,left,←,1.0827313999998296,True,18
A014M36,702,experiment,180,↑,down,↓,1.1867049999996198,False,18
A014M36,703,experiment,24,↑,down,↓,0.9931038999998236,False,18
A014M36,704,experiment,168,↑,no_key,no_letter,-1.0,False,18
A014M36,705,experiment,108,←,left,←,0.8536755999998604,True,18
A014M36,706,experiment,144,←,right,→,0.994524900000215,False,18
A014M36,707,experiment,120,←,no_key,no_letter,-1.0,False,18
A014M36,708,experiment,84,←,left,←,0.691128800000115,True,18
A014M36,709,experiment,96,↓,left,←,0.9024673999997503,False,18
A014M36,710,experiment,24,↑,no_key,no_letter,-1.0,False,18
A014M36,711,experiment,96,↓,left,←,0.6516080000001239,False,18
A014M36,712,experiment,120,↓,down,↓,1.0375701999996636,True,18
A014M36,713,experiment,132,→,right,→,0.663875900000221,True,18
A014M36,714,experiment,132,←,right,→,0.6703885000001719,False,18
A014M36,715,experiment,108,→,right,→,0.7534830000004149,True,18
A014M36,716,experiment,60,↓,no_key,no_letter,-1.0,False,18
A014M36,717,experiment,156,↓,down,↓,0.9804681999999048,True,18
A014M36,718,experiment,156,↑,no_key,no_letter,-1.0,False,18
A014M36,719,experiment,48,←,left,←,0.7136660000001029,True,18
A014M36,720,experiment,180,↑,down,↓,0.9821416999998291,False,18
A014M36,721,experiment,84,←,left,←,0.6510721999998168,True,18
A014M36,722,experiment,144,←,right,→,0.8239315000000715,False,18
A014M36,723,experiment,96,←,no_key,no_letter,-1.0,False,18
A014M36,724,training,24,↓,left,←,0.5525149000000056,False,18
A014M36,725,training,168,↓,left,←,0.8141688999999133,False,18
A014M36,726,training,12,↓,no_key,no_letter,-1.0,False,18
A014M36,727,experiment,120,←,no_key,no_letter,-1.0,False,18
A014M36,728,experiment,60,↓,no_key,no_letter,-1.0,False,18
A014M36,729,experiment,144,→,right,→,0.8894086999998763,True,18
A014M36,730,experiment,108,←,left,←,0.8253390999998373,True,18
A014M36,731,experiment,96,→,left,←,0.7720466999999189,False,18
A014M36,732,experiment,96,→,right,→,0.7992443000002822,True,18
A014M36,733,experiment,132,→,right,→,0.6010191999998824,True,18
A014M36,734,experiment,72,↑,no_key,no_letter,-1.0,False,18
A014M36,735,experiment,36,↑,left,←,1.015071899999839,False,18
A014M36,736,experiment,36,↓,no_key,no_letter,-1.0,False,18
A014M36,737,experiment,36,→,right,→,0.5437155000004168,True,18
A014M36,738,experiment,156,←,left,←,0.694146400000136,True,18
A014M36,739,experiment,84,→,left,←,1.0379014000000097,False,18
A014M36,740,experiment,120,↓,left,←,1.0035115000000587,False,18
A014M36,741,experiment,60,↓,no_key,no_letter,-1.0,False,18
A014M36,742,experiment,84,↓,no_key,no_letter,-1.0,False,18
A014M36,743,experiment,144,↓,down,↓,1.0886136999997689,True,18
A014M36,744,experiment,12,→,right,→,0.8157335000000785,True,18
A014M36,745,experiment,48,←,left,←,0.5642484999998487,True,18
A014M36,746,experiment,108,→,right,→,0.9190197999996599,True,18
A014M36,747,experiment,108,→,no_key,no_letter,-1.0,False,18
A014M36,748,experiment,72,←,right,→,0.7034158000001298,False,18
A014M36,749,experiment,180,↓,right,→,0.845186399999875,False,18
A014M36,750,experiment,48,→,right,→,0.6120820000001004,True,18
A014M36,751,experiment,60,←,left,←,0.7499951999998302,True,18
A014M36,752,experiment,24,←,right,→,0.8825739999997495,False,18
A014M36,753,experiment,12,↑,no_key,no_letter,-1.0,False,18
A014M36,754,experiment,84,↑,no_key,no_letter,-1.0,False,18
A014M36,755,experiment,72,↑,no_key,no_letter,-1.0,False,18
A014M36,756,experiment,180,↓,left,←,0.8778259000000617,False,18
A014M36,757,experiment,144,→,right,→,0.6775889000000461,True,18
A014M36,758,experiment,108,↓,right,→,0.7769837999999254,False,18
A014M36,759,experiment,156,↑,no_key,no_letter,-1.0,False,18
A014M36,760,experiment,24,←,no_key,no_letter,-1.0,False,18
A014M36,761,experiment,144,↓,up,↑,1.3965072999999393,False,18
A014M36,762,experiment,72,↓,up,↑,0.8488403000001199,False,18
A014M36,763,experiment,36,↓,no_key,no_letter,-1.0,False,18
A014M36,764,experiment,96,↑,no_key,no_letter,-1.0,False,18
A014M36,765,experiment,24,↓,no_key,no_letter,-1.0,False,18
A014M36,766,experiment,132,→,left,←,0.7641039000000092,False,18
A014M36,767,experiment,180,←,left,←,0.9450812999998561,True,18
A014M36,768,experiment,132,←,left,←,0.8602166999999099,True,18
A014M36,769,experiment,156,→,right,→,0.7995289000000412,True,18
A014M36,770,experiment,132,←,left,←,0.8822869999999057,True,18
A014M36,771,experiment,156,↑,no_key,no_letter,-1.0,False,18
A014M36,772,experiment,168,↓,no_key,no_letter,-1.0,False,18
A014M36,773,experiment,48,→,no_key,no_letter,-1.0,False,18
A014M36,774,experiment,168,→,right,→,0.6138077999999041,True,18
A014M36,775,experiment,12,→,right,→,0.5509895000000142,True,18
A014M36,776,experiment,12,↑,left,←,0.996755199999825,False,18
A014M36,777,experiment,60,↓,no_key,no_letter,-1.0,False,18
A014M36,778,experiment,24,↓,down,↓,1.1234820999998192,True,18
A014M36,779,experiment,168,↑,up,↑,0.809574700000212,True,18
A014M36,780,experiment,96,←,left,←,0.8834921000002396,True,18
A014M36,781,experiment,48,←,left,←,0.7911140000001069,True,18
A014M36,782,experiment,180,→,left,←,0.8928219999997964,False,18
A014M36,783,experiment,120,→,right,→,0.7189343000000008,True,18
A014M36,784,experiment,84,←,right,→,0.7651182999998127,False,18
A014M36,785,experiment,168,←,right,→,0.7499345999999605,False,18
A014M36,786,experiment,120,→,left,←,0.8806030000000646,False,18
A014M36,787,training,96,→,right,→,0.7148555000003398,True,18
A014M36,788,training,60,↑,left,←,0.7629056000000674,False,18
A014M36,789,training,60,↓,down,↓,1.3358471999999892,True,18
A014M36,790,experiment,48,↑,up,↑,0.6887603999998646,True,18
A014M36,791,experiment,24,↓,up,↑,0.7488969999999426,False,18
A014M36,792,experiment,132,↓,no_key,no_letter,-1.0,False,18
A014M36,793,experiment,36,←,left,←,0.8273211000000629,True,18
A014M36,794,experiment,48,↓,down,↓,1.2786743999999999,True,18
A014M36,795,experiment,168,←,left,←,0.6960320000002866,True,18
A014M36,796,experiment,84,↓,up,↑,0.21697500000027503,False,18
A014M36,797,experiment,12,→,up,↑,0.879220499999974,False,18
A014M36,798,experiment,48,↓,no_key,no_letter,-1.0,False,18
A014M36,799,experiment,120,→,right,→,0.9173498999998628,True,18
A014M36,800,experiment,168,→,left,←,0.6350941000000603,False,18
A014M36,801,experiment,120,←,left,←,0.7267735999998877,True,18
A014M36,802,experiment,72,↑,right,→,0.856791599999724,False,18
A014M36,803,experiment,36,←,right,→,0.8687576000002082,False,18
A014M36,804,experiment,108,→,right,→,0.6225903999998081,True,18
A014M36,805,experiment,180,↑,down,↓,1.3042030999999952,False,18
A014M36,806,experiment,168,←,right,→,1.5620461999997133,False,18
A014M36,807,experiment,12,→,left,←,0.847967200000312,False,18
A014M36,808,experiment,36,↑,up,↑,0.9124675999996725,True,18
A014M36,809,experiment,72,↓,down,↓,1.205422500000168,True,18
A014M36,810,experiment,108,←,no_key,no_letter,-1.0,False,18
A014M36,811,experiment,132,↓,no_key,no_letter,-1.0,False,18
A014M36,812,experiment,144,↑,no_key,no_letter,-1.0,False,18
A014M36,813,experiment,36,→,up,↑,1.9422273999998652,False,18
A014M36,814,experiment,156,←,right,→,0.9317909999999756,False,18
A014M36,815,experiment,48,↓,down,↓,0.9953593999998702,True,18
A014M36,816,experiment,132,←,left,←,0.8531169000002592,True,18
A014M36,817,experiment,60,←,left,←,0.896704299999783,True,18
A014M36,818,experiment,120,←,right,→,0.9158032000000276,False,18
A014M36,819,experiment,144,↓,no_key,no_letter,-1.0,False,18
A014M36,820,experiment,84,↓,no_key,no_letter,-1.0,False,18
A014M36,821,experiment,156,→,right,→,0.5943148000001202,True,18
A014M36,822,experiment,96,↓,no_key,no_letter,-1.0,False,18
A014M36,823,experiment,84,↓,up,↑,1.132082999999966,False,18
A014M36,824,experiment,144,←,right,→,0.7872314000001097,False,18
A014M36,825,experiment,180,↓,down,↓,0.9450812999998561,True,18
A014M36,826,experiment,60,→,right,→,0.7949782999999115,True,18
A014M36,827,experiment,12,←,right,→,0.5442336000000978,False,18
A014M36,828,experiment,144,→,no_key,no_letter,-1.0,False,18
A014M36,829,experiment,24,→,right,→,0.6466994999996132,True,18
A014M36,830,experiment,72,←,right,→,1.2925442999999177,False,18
A014M36,831,experiment,108,←,right,→,0.5394533000003321,False,18
A014M36,832,experiment,156,→,right,→,0.4922209000001203,True,18
A014M36,833,experiment,168,↑,up,↑,0.9403277000001253,True,18
A014M36,834,experiment,96,↑,up,↑,0.8672472999996899,True,18
A014M36,835,experiment,180,↑,up,↑,0.7575498000001062,True,18
A014M36,836,experiment,60,←,no_key,no_letter,-1.0,False,18
A014M36,837,experiment,132,↑,up,↑,0.7476756999999452,True,18
A014M36,838,experiment,156,↑,up,↑,1.4190029000001232,True,18
A014M36,839,experiment,96,↓,up,↑,1.180170800000269,False,18
A014M36,840,experiment,24,→,right,→,0.8272511999998642,True,18
A014M36,841,experiment,12,↓,no_key,no_letter,-1.0,False,18
A014M36,842,experiment,72,↑,up,↑,0.11692050000010568,True,18
A014M36,843,experiment,96,←,no_key,no_letter,-1.0,False,18
A014M36,844,experiment,120,↓,down,↓,1.0805593999998564,True,18
A014M36,845,experiment,24,→,right,→,0.8885716999998294,True,18
A014M36,846,experiment,108,→,right,→,0.7341208000002553,True,18
A014M36,847,experiment,84,→,right,→,0.5374007000000347,True,18
A014M36,848,experiment,60,←,no_key,no_letter,-1.0,False,18
A014M36,849,experiment,180,→,no_key,no_letter,-1.0,False,18
