PART_ID,Trial_no,Trial_type,PDI,Stim_letter,Key_pressed,letter_choose,Rt,Corr,Stimulus Time
A015M23,1,training,10,↓,no_key,no_letter,-1.0,False,30
A015M23,2,training,10,←,no_key,no_letter,-1.0,False,30
A015M23,3,training,10,←,left,←,0.7771739000163507,True,30
A015M23,4,training,10,→,left,←,0.48384420000365935,False,30
A015M23,5,training,10,↓,left,←,1.2860414999886416,False,30
A015M23,6,training,10,←,left,←,0.6798946000053547,True,30
A015M23,7,training,10,←,left,←,0.6004109999921639,True,30
A015M23,8,training,10,←,left,←,0.6338082000147551,True,30
A015M23,9,training,10,↓,right,→,0.8814038000127766,False,30
A015M23,10,training,10,→,left,←,0.9190575999964494,False,30
A015M23,11,training,10,↑,no_key,no_letter,-1.0,False,30
A015M23,12,training,10,←,left,←,0.7175203000078909,True,30
A015M23,13,training,10,↓,down,↓,0.7987625999958254,True,30
A015M23,14,training,10,↑,down,↓,0.6338472999923397,False,30
A015M23,15,training,10,↓,no_key,no_letter,-1.0,False,30
A015M23,16,training,10,←,left,←,0.689535400015302,True,30
A015M23,17,training,10,↑,up,↑,0.7044626999995671,True,30
A015M23,18,training,10,←,left,←,0.6004638999875169,True,30
A015M23,19,training,10,→,right,→,0.6335696000023745,True,30
A015M23,20,training,10,↑,no_key,no_letter,-1.0,False,30
A015M23,21,training,10,↑,no_key,no_letter,-1.0,False,18
A015M23,22,training,10,↑,left,←,0.5685249000089243,False,18
A015M23,23,training,10,←,left,←,0.5793529000075068,True,18
A015M23,24,training,10,↑,no_key,no_letter,-1.0,False,18
A015M23,25,training,10,↑,no_key,no_letter,-1.0,False,18
A015M23,26,training,10,→,right,→,0.5727427999954671,True,18
A015M23,27,training,10,↓,up,↑,1.1998181999952067,False,18
A015M23,28,training,10,↓,right,→,0.9262081000197213,False,18
A015M23,29,training,10,↑,up,↑,0.5480824999976903,True,18
A015M23,30,training,10,↓,down,↓,0.6370122999942396,True,18
A015M23,31,training,48,↓,down,↓,0.5697223000170197,True,15
A015M23,32,training,96,↓,down,↓,0.5577634999935981,True,15
A015M23,33,training,84,→,down,↓,0.9851733999967109,False,15
A015M23,34,experiment,36,↓,down,↓,0.6458648999978323,True,15
A015M23,35,experiment,156,→,down,↓,0.8597789999912493,False,15
A015M23,36,experiment,60,←,right,→,0.8447182000090834,False,15
A015M23,37,experiment,24,↓,down,↓,0.5883848999801558,True,15
A015M23,38,experiment,156,→,right,→,0.7452885999809951,True,15
A015M23,39,experiment,60,←,left,←,0.5615858000237495,True,15
A015M23,40,experiment,168,←,left,←,0.6215044999844395,True,15
A015M23,41,experiment,144,↓,down,↓,0.5221427000069525,True,15
A015M23,42,experiment,132,←,left,←,0.5069825999962632,True,15
A015M23,43,experiment,48,↑,left,←,1.0134116999979597,False,15
A015M23,44,experiment,120,←,left,←,0.605433599994285,True,15
A015M23,45,experiment,180,↓,left,←,0.4439759000088088,False,15
A015M23,46,experiment,12,↓,left,←,0.7226113000069745,False,15
A015M23,47,experiment,84,↑,no_key,no_letter,-1.0,False,15
A015M23,48,experiment,60,→,down,↓,0.6042764000012539,False,15
A015M23,49,experiment,168,↑,down,↓,0.44814639998367056,False,15
A015M23,50,experiment,96,↑,down,↓,0.6650473000190686,False,15
A015M23,51,experiment,132,←,left,←,0.7352243999775965,True,15
A015M23,52,experiment,108,↓,down,↓,0.9013524000183679,True,15
A015M23,53,experiment,96,→,left,←,0.5409310999966692,False,15
A015M23,54,experiment,120,↑,down,↓,0.5771001999964938,False,15
A015M23,55,experiment,60,↓,right,→,0.5225258999853395,False,15
A015M23,56,experiment,12,↑,up,↑,0.7421946999966167,True,15
A015M23,57,experiment,12,←,no_key,no_letter,-1.0,False,15
A015M23,58,experiment,108,↓,up,↑,0.7963943000067957,False,15
A015M23,59,experiment,48,↓,down,↓,0.6121978999872226,True,15
A015M23,60,experiment,108,→,left,←,0.4926731000014115,False,15
A015M23,61,experiment,72,←,left,←,0.5446744000073522,True,15
A015M23,62,experiment,84,↑,right,→,0.594711699988693,False,15
A015M23,63,experiment,84,←,left,←,0.5195317000034265,True,15
A015M23,64,experiment,144,↑,left,←,0.7097433999879286,False,15
A015M23,65,experiment,12,↑,no_key,no_letter,-1.0,False,15
A015M23,66,experiment,156,→,left,←,0.5202957000001334,False,15
A015M23,67,experiment,156,↑,right,→,1.1330822999880183,False,15
A015M23,68,experiment,144,↓,left,←,0.45792590000201017,False,15
A015M23,69,experiment,72,←,left,←,0.5599631000077352,True,15
A015M23,70,experiment,180,→,right,→,0.6115151999983937,True,15
A015M23,71,experiment,168,→,right,→,0.639434299984714,True,15
A015M23,72,experiment,108,←,left,←,0.6851812999811955,True,15
A015M23,73,experiment,84,←,left,←,0.6099710000271443,True,15
A015M23,74,experiment,96,↑,right,→,0.697958499978995,False,15
A015M23,75,experiment,36,↓,left,←,0.7255055000132415,False,15
A015M23,76,experiment,48,→,left,←,0.6503654000116512,False,15
A015M23,77,experiment,120,↓,no_key,no_letter,-1.0,False,15
A015M23,78,experiment,36,←,left,←,0.5888854999793693,True,15
A015M23,79,experiment,180,←,left,←,0.5172092000138946,True,15
A015M23,80,experiment,168,↑,left,←,0.6694237999909092,False,15
A015M23,81,experiment,36,↑,down,↓,1.2625793000042904,False,15
A015M23,82,experiment,132,↑,no_key,no_letter,-1.0,False,15
A015M23,83,experiment,48,↓,up,↑,0.5064791000040714,False,15
A015M23,84,experiment,24,↑,up,↑,0.48658050000085495,True,15
A015M23,85,experiment,180,↑,up,↑,0.6146029999945313,True,15
A015M23,86,experiment,72,↓,up,↑,0.7444771000009496,False,15
A015M23,87,experiment,72,←,left,←,0.5737679000012577,True,15
A015M23,88,experiment,24,←,no_key,no_letter,-1.0,False,15
A015M23,89,experiment,144,←,left,←,0.8090237000142224,True,15
A015M23,90,experiment,96,↑,up,↑,0.7187988999939989,True,15
A015M23,91,experiment,132,↓,left,←,0.9505859999917448,False,15
A015M23,92,experiment,120,↑,left,←,0.6036312999785878,False,15
A015M23,93,experiment,24,←,left,←,0.88268509999034,True,15
A015M23,94,training,12,↓,no_key,no_letter,-1.0,False,16
A015M23,95,training,156,↑,right,→,0.7759580999845639,False,16
A015M23,96,training,180,→,left,←,0.9919517999805976,False,16
A015M23,97,experiment,72,→,right,→,0.639154900010908,True,16
A015M23,98,experiment,132,↓,left,←,0.7583265000139363,False,16
A015M23,99,experiment,168,←,left,←,0.6686642999993637,True,16
A015M23,100,experiment,36,↓,down,↓,0.5807623000000603,True,16
A015M23,101,experiment,168,↓,down,↓,0.6662152000062633,True,16
A015M23,102,experiment,108,→,right,→,0.59993750002468,True,16
A015M23,103,experiment,60,←,left,←,0.5006346000009216,True,16
A015M23,104,experiment,48,→,right,→,0.7276010999921709,True,16
A015M23,105,experiment,48,↓,down,↓,0.5935182000102941,True,16
A015M23,106,experiment,132,↓,down,↓,0.5278540000144858,True,16
A015M23,107,experiment,120,←,left,←,0.5708891999965999,True,16
A015M23,108,experiment,72,↓,down,↓,0.4953224000055343,True,16
A015M23,109,experiment,144,↓,down,↓,0.6097448000218719,True,16
A015M23,110,experiment,96,←,left,←,0.5656386000046041,True,16
A015M23,111,experiment,84,→,left,←,0.6975010999885853,False,16
A015M23,112,experiment,156,↓,down,↓,0.611261399986688,True,16
A015M23,113,experiment,156,←,left,←,0.595789999992121,True,16
A015M23,114,experiment,180,↑,up,↑,0.6214558999927249,True,16
A015M23,115,experiment,180,←,left,←,0.4613115999964066,True,16
A015M23,116,experiment,60,↓,down,↓,0.8370129000104498,True,16
A015M23,117,experiment,12,→,right,→,0.6481812999991234,True,16
A015M23,118,experiment,144,↑,up,↑,0.691846000001533,True,16
A015M23,119,experiment,72,↓,down,↓,0.5979858999780845,True,16
A015M23,120,experiment,96,←,left,←,0.5375181999988854,True,16
A015M23,121,experiment,168,↓,no_key,no_letter,-1.0,False,16
A015M23,122,experiment,108,↓,down,↓,0.6342580000055023,True,16
A015M23,123,experiment,12,↓,no_key,no_letter,-1.0,False,16
A015M23,124,experiment,120,↑,no_key,no_letter,-1.0,False,16
A015M23,125,experiment,156,↓,down,↓,0.804250300017884,True,16
A015M23,126,experiment,48,↓,left,←,0.7635302999988198,False,16
A015M23,127,experiment,24,→,right,→,0.736894100002246,True,16
A015M23,128,experiment,180,↑,up,↑,0.7216935000033118,True,16
A015M23,129,experiment,144,↓,down,↓,0.6002282999979798,True,16
A015M23,130,experiment,12,↓,no_key,no_letter,-1.0,False,16
A015M23,131,experiment,84,↓,down,↓,0.7271365000051446,True,16
A015M23,132,experiment,60,↓,down,↓,0.6070517000043765,True,16
A015M23,133,experiment,156,↓,up,↑,0.8236557000200264,False,16
A015M23,134,experiment,24,↓,down,↓,0.7493743000086397,True,16
A015M23,135,experiment,36,→,right,→,0.6546394000179134,True,16
A015M23,136,experiment,48,←,left,←,0.7588885000150185,True,16
A015M23,137,experiment,84,←,left,←,0.6282125000143424,True,16
A015M23,138,experiment,180,↑,no_key,no_letter,-1.0,False,16
A015M23,139,experiment,108,→,right,→,0.68762229999993,True,16
A015M23,140,experiment,36,→,left,←,0.7383139000157826,False,16
A015M23,141,experiment,120,→,right,→,0.6547062000026926,True,16
A015M23,142,experiment,168,↑,no_key,no_letter,-1.0,False,16
A015M23,143,experiment,72,←,no_key,no_letter,-1.0,False,16
A015M23,144,experiment,120,↓,no_key,no_letter,-1.0,False,16
A015M23,145,experiment,24,↑,right,→,0.9837665000231937,False,16
A015M23,146,experiment,132,←,right,→,0.5844933999760542,False,16
A015M23,147,experiment,24,←,left,←,0.6998491999984253,True,16
A015M23,148,experiment,144,↓,down,↓,0.7455902000074275,True,16
A015M23,149,experiment,12,↓,no_key,no_letter,-1.0,False,16
A015M23,150,experiment,132,←,left,←,0.6006117000069935,True,16
A015M23,151,experiment,36,↑,up,↑,0.7295931999979075,True,16
A015M23,152,experiment,96,←,left,←,0.5808047000027727,True,16
A015M23,153,experiment,108,→,right,→,0.7125471000035759,True,16
A015M23,154,experiment,96,→,right,→,0.6148061999992933,True,16
A015M23,155,experiment,60,↑,down,↓,1.031006500008516,False,16
A015M23,156,experiment,84,→,right,→,0.5911405999795534,True,16
A015M23,157,training,168,→,no_key,no_letter,-1.0,False,16
A015M23,158,training,60,←,left,←,0.6561210999789182,True,16
A015M23,159,training,60,↓,no_key,no_letter,-1.0,False,16
A015M23,160,experiment,60,←,right,→,0.6726102999818977,False,16
A015M23,161,experiment,84,↑,up,↑,0.6578562999784481,True,16
A015M23,162,experiment,180,→,right,→,0.5678607000154443,True,16
A015M23,163,experiment,132,←,left,←,0.6813048000039998,True,16
A015M23,164,experiment,36,↓,no_key,no_letter,-1.0,False,16
A015M23,165,experiment,108,↑,up,↑,0.6367021999903955,True,16
A015M23,166,experiment,168,↓,down,↓,0.702049600018654,True,16
A015M23,167,experiment,96,↑,up,↑,0.6229863000044134,True,16
A015M23,168,experiment,48,↑,left,←,0.8089241999841761,False,16
A015M23,169,experiment,144,→,right,→,0.6747078000043985,True,16
A015M23,170,experiment,72,↓,down,↓,0.7095644999935757,True,16
A015M23,171,experiment,132,←,no_key,no_letter,-1.0,False,16
A015M23,172,experiment,48,→,left,←,0.716435200010892,False,16
A015M23,173,experiment,48,→,right,→,0.5519319000013638,True,16
A015M23,174,experiment,132,↓,right,→,0.7568169000151101,False,16
A015M23,175,experiment,96,↓,no_key,no_letter,-1.0,False,16
A015M23,176,experiment,48,↑,up,↑,0.7236166000075173,True,16
A015M23,177,experiment,108,←,left,←,0.5675102999957744,True,16
A015M23,178,experiment,180,←,left,←,0.5828469999833032,True,16
A015M23,179,experiment,168,↓,no_key,no_letter,-1.0,False,16
A015M23,180,experiment,96,←,no_key,no_letter,-1.0,False,16
A015M23,181,experiment,96,←,left,←,0.4913161000004038,True,16
A015M23,182,experiment,12,↑,up,↑,0.6750618999940343,True,16
A015M23,183,experiment,168,↓,right,→,0.6945499000139534,False,16
A015M23,184,experiment,84,←,left,←,0.6153431000129785,True,16
A015M23,185,experiment,72,↓,down,↓,0.5293672000116203,True,16
A015M23,186,experiment,60,→,right,→,0.6673898999870289,True,16
A015M23,187,experiment,12,↓,no_key,no_letter,-1.0,False,16
A015M23,188,experiment,60,↑,up,↑,0.6535922999901231,True,16
A015M23,189,experiment,24,←,no_key,no_letter,-1.0,False,16
A015M23,190,experiment,120,↓,down,↓,0.635368399991421,True,16
A015M23,191,experiment,156,←,left,←,0.7691296999983024,True,16
A015M23,192,experiment,24,↓,down,↓,0.5683271000161767,True,16
A015M23,193,experiment,156,←,left,←,0.476824100012891,True,16
A015M23,194,experiment,108,←,left,←,0.4943519000080414,True,16
A015M23,195,experiment,120,←,right,→,0.5586523000092711,False,16
A015M23,196,experiment,108,←,right,→,0.6282707000209484,False,16
A015M23,197,experiment,60,↑,no_key,no_letter,-1.0,False,16
A015M23,198,experiment,72,↑,up,↑,0.6480818999989424,True,16
A015M23,199,experiment,24,→,left,←,0.5589743000164162,False,16
A015M23,200,experiment,144,↑,up,↑,0.6209809000138193,True,16
A015M23,201,experiment,36,←,no_key,no_letter,-1.0,False,16
A015M23,202,experiment,72,↓,down,↓,0.6043249000213109,True,16
A015M23,203,experiment,12,↑,no_key,no_letter,-1.0,False,16
A015M23,204,experiment,180,↓,down,↓,0.5889456000004429,True,16
A015M23,205,experiment,84,←,left,←,0.5520517000113614,True,16
A015M23,206,experiment,144,↓,no_key,no_letter,-1.0,False,16
A015M23,207,experiment,36,↓,down,↓,0.5672856000019237,True,16
A015M23,208,experiment,36,←,left,←,0.7257246999943163,True,16
A015M23,209,experiment,180,→,no_key,no_letter,-1.0,False,16
A015M23,210,experiment,132,↑,up,↑,0.6114720999903511,True,16
A015M23,211,experiment,24,→,left,←,0.48677459999453276,False,16
A015M23,212,experiment,168,↓,no_key,no_letter,-1.0,False,16
A015M23,213,experiment,120,↓,up,↑,0.6516601999755949,False,16
A015M23,214,experiment,84,→,no_key,no_letter,-1.0,False,16
A015M23,215,experiment,120,↑,up,↑,0.6712650000117719,True,16
A015M23,216,experiment,156,→,left,←,0.6514521999924909,False,16
A015M23,217,experiment,156,↓,down,↓,0.6994656999886502,True,16
A015M23,218,experiment,144,↑,up,↑,1.1216030000068713,True,16
A015M23,219,experiment,12,↑,no_key,no_letter,-1.0,False,16
A015M23,220,training,108,←,no_key,no_letter,-1.0,False,17
A015M23,221,training,48,→,left,←,0.46970430001965724,False,17
A015M23,222,training,48,↓,right,→,0.7509425999887753,False,17
A015M23,223,experiment,156,←,left,←,0.6652823000040371,True,17
A015M23,224,experiment,12,←,right,→,0.48134589998517185,False,17
A015M23,225,experiment,132,→,right,→,0.5169786999758799,True,17
A015M23,226,experiment,108,→,right,→,0.5327475999947637,True,17
A015M23,227,experiment,144,↑,right,→,1.0604690999898594,False,17
A015M23,228,experiment,144,↓,left,←,0.7047474000137299,False,17
A015M23,229,experiment,24,↓,down,↓,0.6542830999824218,True,17
A015M23,230,experiment,120,↓,down,↓,0.6071551999775693,True,17
A015M23,231,experiment,60,←,left,←,0.6327497999882326,True,17
A015M23,232,experiment,108,↑,up,↑,0.5575725999951828,True,17
A015M23,233,experiment,156,↓,down,↓,0.5890928999870084,True,17
A015M23,234,experiment,36,↑,up,↑,0.5367101000156254,True,17
A015M23,235,experiment,108,→,left,←,0.6931346000055782,False,17
A015M23,236,experiment,60,←,left,←,0.5699470000108704,True,17
A015M23,237,experiment,120,→,right,→,0.5098519000166561,True,17
A015M23,238,experiment,36,↓,down,↓,0.5908905000251252,True,17
A015M23,239,experiment,132,↓,down,↓,0.5308189000061247,True,17
A015M23,240,experiment,168,←,left,←,0.5737394000170752,True,17
A015M23,241,experiment,60,→,right,→,0.5665851999947336,True,17
A015M23,242,experiment,12,↑,no_key,no_letter,-1.0,False,17
A015M23,243,experiment,180,←,left,←,0.639542499993695,True,17
A015M23,244,experiment,60,←,right,→,0.6823854999965988,False,17
A015M23,245,experiment,180,↑,up,↑,0.6004950000206009,True,17
A015M23,246,experiment,48,←,left,←,0.7437576999946032,True,17
A015M23,247,experiment,24,←,right,→,0.8820570999814663,False,17
A015M23,248,experiment,24,←,left,←,0.5408142000087537,True,17
A015M23,249,experiment,84,→,left,←,0.5657231000077445,False,17
A015M23,250,experiment,144,←,left,←,0.5162337000074331,True,17
A015M23,251,experiment,96,→,right,→,0.7096694000065327,True,17
A015M23,252,experiment,156,→,right,→,0.5396877999883145,True,17
A015M23,253,experiment,12,←,left,←,0.6739969000045676,True,17
A015M23,254,experiment,108,→,right,→,0.6952111999853514,True,17
A015M23,255,experiment,180,↑,up,↑,0.6201725999999326,True,17
A015M23,256,experiment,48,↓,down,↓,0.6172216999984812,True,17
A015M23,257,experiment,156,↑,up,↑,0.6391846000042278,True,17
A015M23,258,experiment,48,↑,up,↑,0.6467774999910034,True,17
A015M23,259,experiment,132,↑,up,↑,0.6642292000178713,True,17
A015M23,260,experiment,180,←,left,←,0.8259002999984659,True,17
A015M23,261,experiment,168,↓,down,↓,0.5872915999789257,True,17
A015M23,262,experiment,36,↑,up,↑,0.7135488000058103,True,17
A015M23,263,experiment,168,↓,down,↓,0.6192846999911126,True,17
A015M23,264,experiment,96,↑,up,↑,0.6510135999997146,True,17
A015M23,265,experiment,72,↓,down,↓,0.5753639999893494,True,17
A015M23,266,experiment,96,←,left,←,0.5331956000009086,True,17
A015M23,267,experiment,12,↑,up,↑,0.5800154999888036,True,17
A015M23,268,experiment,144,→,right,→,0.47994789999211207,True,17
A015M23,269,experiment,72,←,left,←,0.5066437000059523,True,17
A015M23,270,experiment,72,↑,up,↑,0.568401199998334,True,17
A015M23,271,experiment,48,↓,down,↓,0.6105385999835562,True,17
A015M23,272,experiment,84,←,left,←,0.5322315999947023,True,17
A015M23,273,experiment,36,↑,up,↑,0.6546928000170738,True,17
A015M23,274,experiment,24,→,no_key,no_letter,-1.0,False,17
A015M23,275,experiment,120,←,left,←,0.5377363000006881,True,17
A015M23,276,experiment,96,↓,up,↑,0.5908875000022817,False,17
A015M23,277,experiment,168,→,right,→,0.673357899999246,True,17
A015M23,278,experiment,84,←,left,←,0.5499112000106834,True,17
A015M23,279,experiment,120,→,right,→,0.5553161999851,True,17
A015M23,280,experiment,132,↓,down,↓,0.6466503999836277,True,17
A015M23,281,experiment,84,→,right,→,0.6625395999872126,True,17
A015M23,282,experiment,72,↓,down,↓,0.5734795000171289,True,17
A015M23,283,training,156,↓,no_key,no_letter,-1.0,False,17
A015M23,284,training,132,↑,left,←,0.743123199994443,False,17
A015M23,285,training,180,↑,no_key,no_letter,-1.0,False,17
A015M23,286,experiment,156,←,right,→,0.6029187000240199,False,17
A015M23,287,experiment,12,→,left,←,0.7276940000010654,False,17
A015M23,288,experiment,24,→,left,←,0.6640081999939866,False,17
A015M23,289,experiment,60,↑,up,↑,0.6507555000134744,True,17
A015M23,290,experiment,72,↑,up,↑,0.5225296999851707,True,17
A015M23,291,experiment,144,→,right,→,0.622241999983089,True,17
A015M23,292,experiment,72,←,left,←,0.5105567999999039,True,17
A015M23,293,experiment,144,↓,down,↓,0.6157141999865416,True,17
A015M23,294,experiment,36,→,right,→,0.6356889000162482,True,17
A015M23,295,experiment,36,↑,up,↑,0.6645123999915086,True,17
A015M23,296,experiment,120,→,right,→,0.4971973999927286,True,17
A015M23,297,experiment,12,↑,up,↑,0.625757000001613,True,17
A015M23,298,experiment,96,↑,no_key,no_letter,-1.0,False,17
A015M23,299,experiment,84,→,left,←,0.48999829997774214,False,17
A015M23,300,experiment,12,→,right,→,0.6821966999850702,True,17
A015M23,301,experiment,36,→,right,→,0.4519882000167854,True,17
A015M23,302,experiment,12,↑,up,↑,0.6506053000048269,True,17
A015M23,303,experiment,132,↓,right,→,0.9271494999993593,False,17
A015M23,304,experiment,96,↑,up,↑,0.5246766000054777,True,17
A015M23,305,experiment,96,←,left,←,0.6014362999994773,True,17
A015M23,306,experiment,108,→,left,←,0.48253969999495894,False,17
A015M23,307,experiment,156,↓,down,↓,0.5650077000027522,True,17
A015M23,308,experiment,84,←,right,→,0.7623176999913994,False,17
A015M23,309,experiment,24,←,left,←,0.525134600000456,True,17
A015M23,310,experiment,144,←,right,→,0.6548707000038121,False,17
A015M23,311,experiment,36,↑,no_key,no_letter,-1.0,False,17
A015M23,312,experiment,108,←,left,←,0.5316729999904055,True,17
A015M23,313,experiment,120,↑,down,↓,0.6331104999990202,False,17
A015M23,314,experiment,156,↓,down,↓,0.7046928000054322,True,17
A015M23,315,experiment,108,↑,up,↑,0.6591059000056703,True,17
A015M23,316,experiment,168,←,right,→,0.6295862999977544,False,17
A015M23,317,experiment,108,↓,no_key,no_letter,-1.0,False,17
A015M23,318,experiment,168,←,left,←,0.629908200004138,True,17
A015M23,319,experiment,168,←,left,←,0.6633328000025358,True,17
A015M23,320,experiment,84,←,left,←,0.7627572999917902,True,17
A015M23,321,experiment,24,↓,no_key,no_letter,-1.0,False,17
A015M23,322,experiment,180,←,left,←,0.605849700019462,True,17
A015M23,323,experiment,180,↑,up,↑,0.6175168000045232,True,17
A015M23,324,experiment,60,→,right,→,0.6928980000084266,True,17
A015M23,325,experiment,180,↓,down,↓,0.6414528999885079,True,17
A015M23,326,experiment,96,↑,down,↓,0.5837227999872994,False,17
A015M23,327,experiment,132,→,right,→,0.5884832999727223,True,17
A015M23,328,experiment,24,←,left,←,0.7711632999998983,True,17
A015M23,329,experiment,48,←,no_key,no_letter,-1.0,False,17
A015M23,330,experiment,180,↓,down,↓,0.5819697999977507,True,17
A015M23,331,experiment,120,←,no_key,no_letter,-1.0,False,17
A015M23,332,experiment,48,←,left,←,0.6493844999931753,True,17
A015M23,333,experiment,156,↑,down,↓,0.749461000028532,False,17
A015M23,334,experiment,60,↑,up,↑,0.767056099983165,True,17
A015M23,335,experiment,132,↓,down,↓,0.674177700013388,True,17
A015M23,336,experiment,72,→,right,→,0.7662842999852728,True,17
A015M23,337,experiment,168,↑,up,↑,0.6459624999843072,True,17
A015M23,338,experiment,144,→,right,→,0.5882090000086464,True,17
A015M23,339,experiment,72,←,left,←,0.4789730999909807,True,17
A015M23,340,experiment,60,↑,up,↑,0.6977388999948744,True,17
A015M23,341,experiment,132,↓,down,↓,0.5607020000170451,True,17
A015M23,342,experiment,84,←,left,←,0.5781477999989875,True,17
A015M23,343,experiment,120,→,right,→,0.6280467000033241,True,17
A015M23,344,experiment,48,→,right,→,0.6806365999800619,True,17
A015M23,345,experiment,48,↑,up,↑,0.6310605999897234,True,17
A015M23,346,training,168,↓,down,↓,0.6461685000103898,True,17
A015M23,347,training,12,←,left,←,0.6554431000258774,True,17
A015M23,348,training,108,→,right,→,0.5304610999883153,True,17
A015M23,349,experiment,180,↓,down,↓,0.5572184000047855,True,17
A015M23,350,experiment,132,↓,down,↓,0.5326454999740236,True,17
A015M23,351,experiment,144,←,left,←,0.4588923999981489,True,17
A015M23,352,experiment,168,←,no_key,no_letter,-1.0,False,17
A015M23,353,experiment,132,↑,up,↑,0.6809730000095442,True,17
A015M23,354,experiment,48,↓,down,↓,0.5376164999906905,True,17
A015M23,355,experiment,108,←,left,←,0.5331721999973524,True,17
A015M23,356,experiment,180,↑,up,↑,0.6131561000074726,True,17
A015M23,357,experiment,72,↑,up,↑,0.6115177000174299,True,17
A015M23,358,experiment,108,↑,up,↑,0.7214232999831438,True,17
A015M23,359,experiment,168,↓,down,↓,0.46177590001025237,True,17
A015M23,360,experiment,12,↓,down,↓,0.8128414000093471,True,17
A015M23,361,experiment,36,→,right,→,0.7262183999991976,True,17
A015M23,362,experiment,84,↑,up,↑,0.7163539000030141,True,17
A015M23,363,experiment,72,→,right,→,0.5413448000035714,True,17
A015M23,364,experiment,168,↑,up,↑,0.64551709999796,True,17
A015M23,365,experiment,96,↓,down,↓,0.612598399980925,True,17
A015M23,366,experiment,180,←,left,←,0.6985406000167131,True,17
A015M23,367,experiment,84,↓,down,↓,0.4976689000031911,True,17
A015M23,368,experiment,36,↓,down,↓,0.5286140999814961,True,17
A015M23,369,experiment,156,→,right,→,0.4850486999785062,True,17
A015M23,370,experiment,72,←,left,←,0.504503999982262,True,17
A015M23,371,experiment,156,→,right,→,0.7045733000268228,True,17
A015M23,372,experiment,168,↓,down,↓,0.5709365000075195,True,17
A015M23,373,experiment,60,←,right,→,0.5504867999989074,False,17
A015M23,374,experiment,96,→,no_key,no_letter,-1.0,False,17
A015M23,375,experiment,12,→,right,→,0.577300099976128,True,17
A015M23,376,experiment,60,→,right,→,0.5454240000108257,True,17
A015M23,377,experiment,60,↓,down,↓,0.6006057000195142,True,17
A015M23,378,experiment,36,→,right,→,0.6425921999907587,True,17
A015M23,379,experiment,132,→,right,→,0.5735551999823656,True,17
A015M23,380,experiment,24,↑,right,→,0.5141874000255484,False,17
A015M23,381,experiment,48,↓,down,↓,0.7320943000086118,True,17
A015M23,382,experiment,84,↓,down,↓,0.5586834000132512,True,17
A015M23,383,experiment,144,↑,up,↑,0.8825632999942172,True,17
A015M23,384,experiment,12,↑,no_key,no_letter,-1.0,False,17
A015M23,385,experiment,156,→,left,←,0.6726777000003494,False,17
A015M23,386,experiment,48,→,right,→,0.546256599976914,True,17
A015M23,387,experiment,12,←,left,←,0.7175616000022274,True,17
A015M23,388,experiment,132,↑,down,↓,0.6762355999962892,False,17
A015M23,389,experiment,120,↑,no_key,no_letter,-1.0,False,17
A015M23,390,experiment,120,→,right,→,0.6252434000198264,True,17
A015M23,391,experiment,120,←,right,→,0.5801493999897502,False,17
A015M23,392,experiment,36,→,left,←,0.658115700003691,False,17
A015M23,393,experiment,24,↑,down,↓,0.6044814000197221,False,17
A015M23,394,experiment,96,↓,down,↓,0.581448700017063,True,17
A015M23,395,experiment,60,←,left,←,0.5652358999941498,True,17
A015M23,396,experiment,156,↑,up,↑,0.6829579999903217,True,17
A015M23,397,experiment,120,→,right,→,0.45526979997521266,True,17
A015M23,398,experiment,48,→,right,→,0.6520658999797888,True,17
A015M23,399,experiment,72,→,right,→,0.5431309999839868,True,17
A015M23,400,experiment,84,←,left,←,0.4683974999934435,True,17
A015M23,401,experiment,144,→,right,→,0.6369895999960136,True,17
A015M23,402,experiment,180,↑,up,↑,0.6427268999977969,True,17
A015M23,403,experiment,108,↑,up,↑,0.6059874999918975,True,17
A015M23,404,experiment,108,↓,down,↓,0.6066983999917284,True,17
A015M23,405,experiment,24,↑,no_key,no_letter,-1.0,False,17
A015M23,406,experiment,96,↓,down,↓,0.6292949999915436,True,17
A015M23,407,experiment,144,↓,down,↓,0.5311796999885701,True,17
A015M23,408,experiment,24,↓,no_key,no_letter,-1.0,False,17
A015M23,409,training,144,↑,no_key,no_letter,-1.0,False,17
A015M23,410,training,24,↓,no_key,no_letter,-1.0,False,17
A015M23,411,training,36,↑,up,↑,0.7026465000235476,True,17
A015M23,412,experiment,180,↑,up,↑,0.6115686999983154,True,17
A015M23,413,experiment,132,↑,up,↑,0.7799124000011943,True,17
A015M23,414,experiment,120,↑,up,↑,0.6169986999884713,True,17
A015M23,415,experiment,96,←,left,←,0.5396440999757033,True,17
A015M23,416,experiment,108,←,right,→,0.47713920002570376,False,17
A015M23,417,experiment,36,↑,up,↑,0.6699859999935143,True,17
A015M23,418,experiment,144,←,no_key,no_letter,-1.0,False,17
A015M23,419,experiment,180,↓,no_key,no_letter,-1.0,False,17
A015M23,420,experiment,48,←,right,→,0.529249199986225,False,17
A015M23,421,experiment,144,←,left,←,0.5215528999979142,True,17
A015M23,422,experiment,24,→,left,←,0.4942682999826502,False,17
A015M23,423,experiment,60,↑,up,↑,1.0177345999982208,True,17
A015M23,424,experiment,12,↓,down,↓,0.7120581999770366,True,17
A015M23,425,experiment,84,←,right,→,0.5429159000050277,False,17
A015M23,426,experiment,156,→,right,→,0.5155813000164926,True,17
A015M23,427,experiment,12,↓,no_key,no_letter,-1.0,False,17
A015M23,428,experiment,24,↑,up,↑,0.6677431000280194,True,17
A015M23,429,experiment,96,←,left,←,0.6744446999800857,True,17
A015M23,430,experiment,168,←,left,←,0.6418895999959204,True,17
A015M23,431,experiment,60,←,left,←,0.5624855999776628,True,17
A015M23,432,experiment,144,→,right,→,0.5940550999948755,True,17
A015M23,433,experiment,12,↓,no_key,no_letter,-1.0,False,17
A015M23,434,experiment,72,↓,up,↑,1.1521001000073738,False,17
A015M23,435,experiment,168,↑,no_key,no_letter,-1.0,False,17
A015M23,436,experiment,120,↑,no_key,no_letter,-1.0,False,17
A015M23,437,experiment,156,↓,down,↓,0.8354451000050176,True,17
A015M23,438,experiment,132,↓,down,↓,0.5530923999904189,True,17
A015M23,439,experiment,108,↑,no_key,no_letter,-1.0,False,17
A015M23,440,experiment,108,→,right,→,0.7304890000086743,True,17
A015M23,441,experiment,168,↓,down,↓,0.5677206999971531,True,17
A015M23,442,experiment,132,↓,down,↓,0.47144959997967817,True,17
A015M23,443,experiment,36,↓,down,↓,0.5870218999916688,True,17
A015M23,444,experiment,48,→,right,→,0.5782160999951884,True,17
A015M23,445,experiment,168,↑,up,↑,0.7095890000055078,True,17
A015M23,446,experiment,120,↓,down,↓,0.592890100000659,True,17
A015M23,447,experiment,144,←,left,←,0.6043652000080328,True,17
A015M23,448,experiment,96,→,right,→,0.5589815000130329,True,17
A015M23,449,experiment,60,←,left,←,0.6160502000129782,True,17
A015M23,450,experiment,12,↓,down,↓,0.6163922999985516,True,17
A015M23,451,experiment,24,↑,right,→,0.5866337000043131,False,17
A015M23,452,experiment,72,↓,down,↓,0.6307768000115175,True,17
A015M23,453,experiment,156,↓,down,↓,0.5229876000084914,True,17
A015M23,454,experiment,180,→,left,←,0.6062705999938771,False,17
A015M23,455,experiment,180,→,right,→,0.5830019000277389,True,17
A015M23,456,experiment,108,→,right,→,0.5111270999768749,True,17
A015M23,457,experiment,84,↓,down,↓,0.5916392000217456,True,17
A015M23,458,experiment,120,→,right,→,0.6098311999812722,True,17
A015M23,459,experiment,84,←,left,←,0.6969939999980852,True,17
A015M23,460,experiment,84,←,left,←,0.6040504999982659,True,17
A015M23,461,experiment,72,↓,down,↓,0.6053724999947008,True,17
A015M23,462,experiment,48,↑,up,↑,0.8077654999797232,True,17
A015M23,463,experiment,36,←,left,←,0.5829971999919508,True,17
A015M23,464,experiment,72,↓,up,↑,0.7111285999999382,False,17
A015M23,465,experiment,24,↑,up,↑,0.7122728999820538,True,17
A015M23,466,experiment,60,→,right,→,0.5187496999860741,True,17
A015M23,467,experiment,132,↓,down,↓,0.5547280000173487,True,17
A015M23,468,experiment,48,↓,down,↓,0.5836951000092085,True,17
A015M23,469,experiment,156,→,right,→,0.4832020000030752,True,17
A015M23,470,experiment,96,←,left,←,0.5046298000088427,True,17
A015M23,471,experiment,36,→,right,→,0.5275846000004094,True,17
A015M23,472,training,168,←,no_key,no_letter,-1.0,False,17
A015M23,473,training,24,↑,no_key,no_letter,-1.0,False,17
A015M23,474,training,24,→,left,←,0.635079899977427,False,17
A015M23,475,experiment,180,↑,up,↑,0.6991287999844644,True,17
A015M23,476,experiment,84,↑,up,↑,0.6596539000165649,True,17
A015M23,477,experiment,156,↑,up,↑,0.5810216999961995,True,17
A015M23,478,experiment,36,↑,up,↑,0.6394269000156783,True,17
A015M23,479,experiment,72,↓,up,↑,0.6540233000123408,False,17
A015M23,480,experiment,132,↑,up,↑,0.6027844000200275,True,17
A015M23,481,experiment,24,↑,up,↑,0.6548731999937445,True,17
A015M23,482,experiment,36,↓,down,↓,0.6494031000183895,True,17
A015M23,483,experiment,144,↓,down,↓,0.6776259999896865,True,17
A015M23,484,experiment,120,↓,down,↓,0.5410408999887295,True,17
A015M23,485,experiment,48,←,left,←,0.4994629999855533,True,17
A015M23,486,experiment,60,↑,up,↑,0.5725436999928206,True,17
A015M23,487,experiment,180,←,left,←,0.586962700006552,True,17
A015M23,488,experiment,108,↑,no_key,no_letter,-1.0,False,17
A015M23,489,experiment,132,↑,up,↑,0.7095789999875706,True,17
A015M23,490,experiment,132,←,left,←,0.49640630002249964,True,17
A015M23,491,experiment,108,←,left,←,0.47080239999922924,True,17
A015M23,492,experiment,24,→,no_key,no_letter,-1.0,False,17
A015M23,493,experiment,144,→,right,→,0.5596812999865506,True,17
A015M23,494,experiment,120,←,left,←,0.5220439999829978,True,17
A015M23,495,experiment,84,←,left,←,0.47282799999811687,True,17
A015M23,496,experiment,24,↓,down,↓,0.6503820999932941,True,17
A015M23,497,experiment,60,↑,up,↑,0.6954863000137266,True,17
A015M23,498,experiment,84,↓,down,↓,0.8108471000159625,True,17
A015M23,499,experiment,72,↓,down,↓,0.5305486999859568,True,17
A015M23,500,experiment,72,→,right,→,0.5709757000149693,True,17
A015M23,501,experiment,108,↑,up,↑,0.6197143000026699,True,17
A015M23,502,experiment,180,←,left,←,0.467428200005088,True,17
A015M23,503,experiment,48,↑,no_key,no_letter,-1.0,False,17
A015M23,504,experiment,60,↑,up,↑,0.5394382999802474,True,17
A015M23,505,experiment,96,→,right,→,0.5763051999965683,True,17
A015M23,506,experiment,132,←,left,←,0.5929213000054006,True,17
A015M23,507,experiment,48,→,right,→,0.5230681000102777,True,17
A015M23,508,experiment,120,←,left,←,0.7289494999859016,True,17
A015M23,509,experiment,156,←,left,←,0.5007122000097297,True,17
A015M23,510,experiment,60,↓,down,↓,0.6349981999956071,True,17
A015M23,511,experiment,96,←,left,←,0.46249609999358654,True,17
A015M23,512,experiment,36,↑,up,↑,0.6127670000132639,True,17
A015M23,513,experiment,168,←,left,←,0.4566493999736849,True,17
A015M23,514,experiment,48,→,right,→,0.5710439000104088,True,17
A015M23,515,experiment,84,↓,no_key,no_letter,-1.0,False,17
A015M23,516,experiment,120,↓,down,↓,0.7604476000124123,True,17
A015M23,517,experiment,12,→,right,→,0.5395093999977689,True,17
A015M23,518,experiment,96,→,right,→,0.5637104000197724,True,17
A015M23,519,experiment,168,→,right,→,0.5235510999918915,True,17
A015M23,520,experiment,96,↑,up,↑,0.5905995000211988,True,17
A015M23,521,experiment,168,→,right,→,0.5634715000051074,True,17
A015M23,522,experiment,24,→,left,←,0.6150622999994084,False,17
A015M23,523,experiment,156,→,right,→,0.4586340000096243,True,17
A015M23,524,experiment,12,↓,no_key,no_letter,-1.0,False,17
A015M23,525,experiment,144,↑,up,↑,0.6896030000061728,True,17
A015M23,526,experiment,12,↑,no_key,no_letter,-1.0,False,17
A015M23,527,experiment,108,←,left,←,0.527287900011288,True,17
A015M23,528,experiment,144,←,left,←,0.5943945000180975,True,17
A015M23,529,experiment,12,↑,up,↑,0.6980001000047196,True,17
A015M23,530,experiment,180,→,left,←,0.5229321999941021,False,17
A015M23,531,experiment,168,↓,down,↓,0.8570145000121556,True,17
A015M23,532,experiment,36,→,right,→,0.6592160000000149,True,17
A015M23,533,experiment,156,↓,down,↓,0.6747789999935776,True,17
A015M23,534,experiment,72,←,left,←,0.51927109999815,True,17
A015M23,535,training,156,→,left,←,0.7009140999871306,False,17
A015M23,536,training,144,←,left,←,0.4731222999980673,True,17
A015M23,537,training,108,←,no_key,no_letter,-1.0,False,17
A015M23,538,experiment,120,↑,up,↑,0.7137834000168368,True,17
A015M23,539,experiment,36,←,left,←,0.4776226000103634,True,17
A015M23,540,experiment,96,↑,up,↑,0.5417851000092924,True,17
A015M23,541,experiment,168,↓,down,↓,0.5940147999790497,True,17
A015M23,542,experiment,120,←,left,←,0.5210704000201076,True,17
A015M23,543,experiment,84,→,no_key,no_letter,-1.0,False,17
A015M23,544,experiment,24,→,left,←,0.49269730001105927,False,17
A015M23,545,experiment,132,↓,down,↓,0.5582331999903545,True,17
A015M23,546,experiment,72,←,left,←,0.5183407999866176,True,17
A015M23,547,experiment,96,→,right,→,0.5960253999801353,True,17
A015M23,548,experiment,48,→,right,→,0.4572661000129301,True,17
A015M23,549,experiment,96,↑,up,↑,0.6580029999895487,True,17
A015M23,550,experiment,144,↑,no_key,no_letter,-1.0,False,17
A015M23,551,experiment,36,↓,down,↓,0.540301900007762,True,17
A015M23,552,experiment,60,↓,down,↓,0.6575007999781519,True,17
A015M23,553,experiment,180,↓,down,↓,0.5652911000070162,True,17
A015M23,554,experiment,84,←,left,←,0.5548413999786135,True,17
A015M23,555,experiment,36,←,right,→,0.6528416000073776,False,17
A015M23,556,experiment,156,←,right,→,0.49963770000613295,False,17
A015M23,557,experiment,72,↓,left,←,0.6164166000089608,False,17
A015M23,558,experiment,108,↑,up,↑,0.7345381999912206,True,17
A015M23,559,experiment,108,↑,up,↑,0.6299280000093859,True,17
A015M23,560,experiment,60,↑,up,↑,0.6146516999870073,True,17
A015M23,561,experiment,48,←,left,←,0.6339281999971718,True,17
A015M23,562,experiment,144,↑,up,↑,0.64479140000185,True,17
A015M23,563,experiment,120,↓,down,↓,0.5391366000112612,True,17
A015M23,564,experiment,48,↑,up,↑,0.6977262000145856,True,17
A015M23,565,experiment,60,→,right,→,0.5754453999979887,True,17
A015M23,566,experiment,60,←,left,←,0.5103839999937918,True,17
A015M23,567,experiment,84,↓,no_key,no_letter,-1.0,False,17
A015M23,568,experiment,72,↑,up,↑,0.5375659999845084,True,17
A015M23,569,experiment,180,↑,up,↑,0.6648441999859642,True,17
A015M23,570,experiment,144,↓,up,↑,0.7772836000076495,False,17
A015M23,571,experiment,132,↓,down,↓,0.688472499983618,True,17
A015M23,572,experiment,156,→,right,→,0.6903905000071973,True,17
A015M23,573,experiment,180,↑,down,↓,0.7680328999995254,False,17
A015M23,574,experiment,72,↑,up,↑,0.8189730999874882,True,17
A015M23,575,experiment,168,↓,down,↓,0.49795390001963824,True,17
A015M23,576,experiment,24,←,left,←,0.6085677999944892,True,17
A015M23,577,experiment,132,←,left,←,0.5009891999943648,True,17
A015M23,578,experiment,168,→,no_key,no_letter,-1.0,False,17
A015M23,579,experiment,12,→,right,→,0.4671524000004865,True,17
A015M23,580,experiment,156,→,right,→,0.5846018000156619,True,17
A015M23,581,experiment,180,←,left,←,0.526679000002332,True,17
A015M23,582,experiment,108,↑,up,↑,0.5866518999973778,True,17
A015M23,583,experiment,84,↑,up,↑,0.5891582000185736,True,17
A015M23,584,experiment,168,→,no_key,no_letter,-1.0,False,17
A015M23,585,experiment,120,→,right,→,0.4568348999891896,True,17
A015M23,586,experiment,96,→,right,→,0.5659285000001546,True,17
A015M23,587,experiment,144,→,right,→,0.4750906999979634,True,17
A015M23,588,experiment,12,↓,down,↓,0.5809345000016037,True,17
A015M23,589,experiment,108,↑,up,↑,0.6519705000100657,True,17
A015M23,590,experiment,156,←,right,→,0.46684509998885915,False,17
A015M23,591,experiment,24,↓,no_key,no_letter,-1.0,False,17
A015M23,592,experiment,36,←,left,←,0.6159454000007827,True,17
A015M23,593,experiment,132,←,no_key,no_letter,-1.0,False,17
A015M23,594,experiment,12,↑,down,↓,0.5622506999934558,False,17
A015M23,595,experiment,24,←,left,←,0.5406270000094082,True,17
A015M23,596,experiment,12,→,right,→,0.6887028000201099,True,17
A015M23,597,experiment,48,→,right,→,0.8272999000037089,True,17
A015M23,598,training,132,←,no_key,no_letter,-1.0,False,17
A015M23,599,training,168,→,right,→,0.5413131000241265,True,17
A015M23,600,training,48,←,no_key,no_letter,-1.0,False,17
A015M23,601,experiment,84,↓,down,↓,0.5061994999996386,True,17
A015M23,602,experiment,36,↓,down,↓,0.7448811999929603,True,17
A015M23,603,experiment,36,→,right,→,0.5165828999888618,True,17
A015M23,604,experiment,132,↑,up,↑,0.6535696999926586,True,17
A015M23,605,experiment,156,→,no_key,no_letter,-1.0,False,17
A015M23,606,experiment,180,←,left,←,0.6557733000081498,True,17
A015M23,607,experiment,144,↓,down,↓,0.5700536999793258,True,17
A015M23,608,experiment,156,←,left,←,0.6768990000127815,True,17
A015M23,609,experiment,96,←,no_key,no_letter,-1.0,False,17
A015M23,610,experiment,132,→,right,→,0.5780060999968555,True,17
A015M23,611,experiment,36,↑,up,↑,0.7541974000050686,True,17
A015M23,612,experiment,96,↑,up,↑,0.9092900000105146,True,17
A015M23,613,experiment,120,←,left,←,0.7428707999933977,True,17
A015M23,614,experiment,24,→,right,→,0.5270669999881648,True,17
A015M23,615,experiment,180,↑,up,↑,0.6072047000052407,True,17
A015M23,616,experiment,84,↓,down,↓,0.5552893000131007,True,17
A015M23,617,experiment,180,↑,up,↑,0.6697442000149749,True,17
A015M23,618,experiment,48,↓,down,↓,0.5250472000043374,True,17
A015M23,619,experiment,72,→,right,→,0.5848447000025772,True,17
A015M23,620,experiment,168,↓,down,↓,0.5819872000138275,True,17
A015M23,621,experiment,12,↑,up,↑,0.569021100003738,True,17
A015M23,622,experiment,120,↓,down,↓,0.5526284999796189,True,17
A015M23,623,experiment,144,↑,down,↓,0.508838999987347,False,17
A015M23,624,experiment,168,↓,down,↓,0.5622743999992963,True,17
A015M23,625,experiment,96,↑,up,↑,0.5914485999965109,True,17
A015M23,626,experiment,168,↑,up,↑,0.6366479000134859,True,17
A015M23,627,experiment,60,↓,no_key,no_letter,-1.0,False,17
A015M23,628,experiment,60,→,right,→,0.4566542999818921,True,17
A015M23,629,experiment,120,↑,no_key,no_letter,-1.0,False,17
A015M23,630,experiment,24,↑,left,←,0.47001790002104826,False,17
A015M23,631,experiment,72,←,no_key,no_letter,-1.0,False,17
A015M23,632,experiment,108,→,right,→,0.5244318000040948,True,17
A015M23,633,experiment,36,←,left,←,0.6071525999868754,True,17
A015M23,634,experiment,96,↓,down,↓,0.6036411999957636,True,17
A015M23,635,experiment,12,↑,no_key,no_letter,-1.0,False,17
A015M23,636,experiment,132,↑,down,↓,0.6557396999851335,False,17
A015M23,637,experiment,72,↑,no_key,no_letter,-1.0,False,17
A015M23,638,experiment,48,→,right,→,0.4931695999985095,True,17
A015M23,639,experiment,120,←,no_key,no_letter,-1.0,False,17
A015M23,640,experiment,144,→,right,→,0.525865600007819,True,17
A015M23,641,experiment,156,↑,no_key,no_letter,-1.0,False,17
A015M23,642,experiment,72,→,right,→,0.5455963000131305,True,17
A015M23,643,experiment,108,↑,no_key,no_letter,-1.0,False,17
A015M23,644,experiment,12,←,left,←,0.710708099999465,True,17
A015M23,645,experiment,48,→,right,→,0.5794453999842517,True,17
A015M23,646,experiment,84,↓,down,↓,0.8078715000010561,True,17
A015M23,647,experiment,108,→,right,→,0.5307300999993458,True,17
A015M23,648,experiment,132,→,right,→,0.5508161999750882,True,17
A015M23,649,experiment,156,←,no_key,no_letter,-1.0,False,17
A015M23,650,experiment,48,→,right,→,0.5261782000015955,True,17
A015M23,651,experiment,24,→,no_key,no_letter,-1.0,False,17
A015M23,652,experiment,60,←,left,←,0.7931439000240061,True,17
A015M23,653,experiment,108,→,right,→,0.6104228000040166,True,17
A015M23,654,experiment,12,↑,up,↑,0.6664814000250772,True,17
A015M23,655,experiment,84,↑,no_key,no_letter,-1.0,False,17
A015M23,656,experiment,24,→,right,→,0.5375748999940697,True,17
A015M23,657,experiment,168,→,no_key,no_letter,-1.0,False,17
A015M23,658,experiment,144,↑,up,↑,0.7074531000107527,True,17
A015M23,659,experiment,180,↓,down,↓,0.6492559000034817,True,17
A015M23,660,experiment,60,→,no_key,no_letter,-1.0,False,17
A015M23,661,training,36,→,no_key,no_letter,-1.0,False,17
A015M23,662,training,48,→,no_key,no_letter,-1.0,False,17
A015M23,663,training,72,↓,no_key,no_letter,-1.0,False,17
A015M23,664,experiment,132,←,left,←,0.5510211999935564,True,17
A015M23,665,experiment,60,↑,down,↓,0.5884888999862596,False,17
A015M23,666,experiment,12,→,right,→,0.5550689999945462,True,17
A015M23,667,experiment,72,↓,down,↓,0.6221968999889214,True,17
A015M23,668,experiment,84,↓,down,↓,0.6512519999814685,True,17
A015M23,669,experiment,48,←,left,←,0.5650459000025876,True,17
A015M23,670,experiment,84,↑,up,↑,0.6253695999912452,True,17
A015M23,671,experiment,156,→,right,→,0.496885900007328,True,17
A015M23,672,experiment,180,↓,down,↓,0.618682300002547,True,17
A015M23,673,experiment,168,↑,up,↑,0.7401187000214122,True,17
A015M23,674,experiment,48,↓,down,↓,0.5252102999947965,True,17
A015M23,675,experiment,132,→,right,→,0.6503647000063211,True,17
A015M23,676,experiment,120,↑,up,↑,0.6048990999988746,True,17
A015M23,677,experiment,48,→,right,→,0.616376299993135,True,17
A015M23,678,experiment,144,←,no_key,no_letter,-1.0,False,17
A015M23,679,experiment,24,←,left,←,0.48767299999599345,True,17
A015M23,680,experiment,180,→,right,→,0.4606365000072401,True,17
A015M23,681,experiment,132,↓,no_key,no_letter,-1.0,False,17
A015M23,682,experiment,156,←,left,←,0.718713200010825,True,17
A015M23,683,experiment,108,↑,up,↑,0.9249362999980804,True,17
A015M23,684,experiment,12,↑,up,↑,0.9714923999854364,True,17
A015M23,685,experiment,132,←,left,←,0.5605438999773469,True,17
A015M23,686,experiment,24,→,right,→,0.6300925000105053,True,17
A015M23,687,experiment,168,↓,no_key,no_letter,-1.0,False,17
A015M23,688,experiment,156,↑,up,↑,0.7479732999927364,True,17
A015M23,689,experiment,24,↓,no_key,no_letter,-1.0,False,17
A015M23,690,experiment,168,←,left,←,0.6146606999973301,True,17
A015M23,691,experiment,120,↓,down,↓,0.5520793999894522,True,17
A015M23,692,experiment,96,→,right,→,0.5387473999871872,True,17
A015M23,693,experiment,72,→,no_key,no_letter,-1.0,False,17
A015M23,694,experiment,60,←,left,←,0.5133084999979474,True,17
A015M23,695,experiment,168,←,left,←,0.6764988000213634,True,17
A015M23,696,experiment,24,↓,down,↓,0.6365884999977425,True,17
A015M23,697,experiment,120,↑,up,↑,0.6844004000013229,True,17
A015M23,698,experiment,48,←,left,←,0.6197457000089344,True,17
A015M23,699,experiment,60,←,left,←,0.5015881999861449,True,17
A015M23,700,experiment,180,↓,down,↓,0.5448506999819074,True,17
A015M23,701,experiment,108,↑,no_key,no_letter,-1.0,False,17
A015M23,702,experiment,144,←,left,←,0.699752200016519,True,17
A015M23,703,experiment,36,↑,up,↑,0.6545923000085168,True,17
A015M23,704,experiment,84,↑,up,↑,0.69719229999464,True,17
A015M23,705,experiment,180,↓,up,↑,0.6702555000083521,False,17
A015M23,706,experiment,144,→,right,→,0.5329343999910634,True,17
A015M23,707,experiment,108,→,right,→,0.5132115999876987,True,17
A015M23,708,experiment,12,↓,down,↓,0.590834900009213,True,17
A015M23,709,experiment,36,↑,up,↑,0.6874814000038896,True,17
A015M23,710,experiment,36,←,left,←,0.512669999996433,True,17
A015M23,711,experiment,72,↑,up,↑,0.6222140000027139,True,17
A015M23,712,experiment,60,↓,no_key,no_letter,-1.0,False,17
A015M23,713,experiment,144,↑,up,↑,0.5438139000034425,True,17
A015M23,714,experiment,84,↓,down,↓,0.6089193999941926,True,17
A015M23,715,experiment,36,←,left,←,0.4796615999948699,True,17
A015M23,716,experiment,12,↓,down,↓,0.5719818000216037,True,17
A015M23,717,experiment,96,↓,no_key,no_letter,-1.0,False,17
A015M23,718,experiment,120,↓,down,↓,0.5767552999895997,True,17
A015M23,719,experiment,108,←,left,←,0.6181564000144135,True,17
A015M23,720,experiment,96,→,right,→,0.6245547999860719,True,17
A015M23,721,experiment,156,→,no_key,no_letter,-1.0,False,17
A015M23,722,experiment,72,←,left,←,0.5596454999758862,True,17
A015M23,723,experiment,96,↑,up,↑,0.6714910000155214,True,17
A015M23,724,training,156,←,right,→,0.6436473999929149,False,17
A015M23,725,training,48,↓,down,↓,0.5528815999859944,True,17
A015M23,726,training,12,↓,down,↓,0.49728609999874607,True,17
A015M23,727,experiment,72,→,right,→,0.5110944000189193,True,17
A015M23,728,experiment,120,←,no_key,no_letter,-1.0,False,17
A015M23,729,experiment,108,↓,down,↓,0.7557883999834303,True,17
A015M23,730,experiment,84,→,right,→,0.4858894000062719,True,17
A015M23,731,experiment,36,→,no_key,no_letter,-1.0,False,17
A015M23,732,experiment,180,↓,down,↓,0.6108874000201467,True,17
A015M23,733,experiment,120,←,no_key,no_letter,-1.0,False,17
A015M23,734,experiment,60,↓,down,↓,0.5307039000035729,True,17
A015M23,735,experiment,24,←,left,←,0.6434115000010934,True,17
A015M23,736,experiment,36,→,right,→,0.5934229999838863,True,17
A015M23,737,experiment,156,↓,down,↓,0.5140937000105623,True,17
A015M23,738,experiment,48,↓,no_key,no_letter,-1.0,False,17
A015M23,739,experiment,24,↑,up,↑,0.6267819999775384,True,17
A015M23,740,experiment,180,→,left,←,0.4531325999996625,False,17
A015M23,741,experiment,132,←,no_key,no_letter,-1.0,False,17
A015M23,742,experiment,12,↑,right,→,0.6439010000030976,False,17
A015M23,743,experiment,156,↓,down,↓,0.5682873000041582,True,17
A015M23,744,experiment,156,←,left,←,0.6281240000098478,True,17
A015M23,745,experiment,36,↓,down,↓,0.6663343999825884,True,17
A015M23,746,experiment,132,←,left,←,0.629130500019528,True,17
A015M23,747,experiment,84,→,right,→,0.5121527000155766,True,17
A015M23,748,experiment,12,→,right,→,0.7369365000049584,True,17
A015M23,749,experiment,180,←,left,←,0.5488975000043865,True,17
A015M23,750,experiment,168,→,right,→,0.5008717000018805,True,17
A015M23,751,experiment,120,→,right,→,0.5800195000192616,True,17
A015M23,752,experiment,168,→,left,←,0.5215757999976631,False,17
A015M23,753,experiment,48,←,left,←,0.5164682999893557,True,17
A015M23,754,experiment,132,→,right,→,0.5305864000110887,True,17
A015M23,755,experiment,72,→,right,→,0.500799300003564,True,17
A015M23,756,experiment,36,↓,down,↓,0.5726754999777768,True,17
A015M23,757,experiment,60,←,left,←,0.5831056000024546,True,17
A015M23,758,experiment,84,↓,down,↓,0.631775399990147,True,17
A015M23,759,experiment,156,↑,up,↑,0.788655700016534,True,17
A015M23,760,experiment,180,↑,up,↑,0.5991726999927778,True,17
A015M23,761,experiment,144,←,left,←,0.5913816999818664,True,17
A015M23,762,experiment,48,←,left,←,0.4712207999837119,True,17
A015M23,763,experiment,60,↓,down,↓,0.5845088000060059,True,17
A015M23,764,experiment,72,→,right,→,0.6257594000198878,True,17
A015M23,765,experiment,132,←,left,←,0.5356373999966308,True,17
A015M23,766,experiment,120,→,right,→,0.5020236000127625,True,17
A015M23,767,experiment,12,↓,down,↓,0.6137445999775082,True,17
A015M23,768,experiment,108,↑,up,↑,0.6899837999953888,True,17
A015M23,769,experiment,72,↓,down,↓,0.7121455000014976,True,17
A015M23,770,experiment,168,→,no_key,no_letter,-1.0,False,17
A015M23,771,experiment,96,→,right,→,0.6246623999904841,True,17
A015M23,772,experiment,60,↓,down,↓,0.5804321000177879,True,17
A015M23,773,experiment,108,→,right,→,0.6232923999777995,True,17
A015M23,774,experiment,48,↑,up,↑,0.676957699994091,True,17
A015M23,775,experiment,96,←,left,←,0.636706499994034,True,17
A015M23,776,experiment,108,←,left,←,0.6121149000246078,True,17
A015M23,777,experiment,96,↑,up,↑,0.7979934000177309,True,17
A015M23,778,experiment,24,↓,down,↓,0.6135429000132717,True,17
A015M23,779,experiment,84,←,left,←,0.5197020999912638,True,17
A015M23,780,experiment,144,→,no_key,no_letter,-1.0,False,17
A015M23,781,experiment,12,↑,no_key,no_letter,-1.0,False,17
A015M23,782,experiment,168,→,right,→,0.6044115000113379,True,17
A015M23,783,experiment,24,↓,down,↓,0.6811317999963649,True,17
A015M23,784,experiment,144,→,right,→,0.515330400026869,True,17
A015M23,785,experiment,96,←,left,←,0.5950882000033744,True,17
A015M23,786,experiment,144,←,left,←,0.5463673000049312,True,17
A015M23,787,training,48,↑,no_key,no_letter,-1.0,False,17
A015M23,788,training,48,→,no_key,no_letter,-1.0,False,17
A015M23,789,training,36,↓,down,↓,0.7379734000132885,True,17
A015M23,790,experiment,120,↑,no_key,no_letter,-1.0,False,17
A015M23,791,experiment,12,→,right,→,0.4833488999865949,True,17
A015M23,792,experiment,144,→,right,→,0.5129665000131354,True,17
A015M23,793,experiment,60,←,left,←,0.5073269999993499,True,17
A015M23,794,experiment,48,→,right,→,0.5432226000120863,True,17
A015M23,795,experiment,144,↑,left,←,0.8122962999914307,False,17
A015M23,796,experiment,168,←,right,→,0.5767483999952674,False,17
A015M23,797,experiment,108,←,right,→,0.5368769000051543,False,17
A015M23,798,experiment,36,←,no_key,no_letter,-1.0,False,17
A015M23,799,experiment,36,→,right,→,0.5423961000051349,True,17
A015M23,800,experiment,180,↓,down,↓,0.6084010000049602,True,17
A015M23,801,experiment,36,↑,up,↑,0.6467173999990337,True,17
A015M23,802,experiment,24,→,right,→,0.5341533999890089,True,17
A015M23,803,experiment,156,→,left,←,0.5036038999969605,False,17
A015M23,804,experiment,36,↑,right,→,0.6909799000131898,False,17
A015M23,805,experiment,132,↓,down,↓,0.5467390999838244,True,17
A015M23,806,experiment,120,→,right,→,0.6269846000068355,True,17
A015M23,807,experiment,96,↓,down,↓,0.553177499998128,True,17
A015M23,808,experiment,96,←,no_key,no_letter,-1.0,False,17
A015M23,809,experiment,24,→,no_key,no_letter,-1.0,False,17
A015M23,810,experiment,132,→,right,→,0.6115076999994926,True,17
A015M23,811,experiment,120,→,no_key,no_letter,-1.0,False,17
A015M23,812,experiment,84,←,no_key,no_letter,-1.0,False,17
A015M23,813,experiment,96,→,right,→,0.6243681999912951,True,17
A015M23,814,experiment,84,↓,no_key,no_letter,-1.0,False,17
A015M23,815,experiment,84,←,right,→,0.5625936000142246,False,17
A015M23,816,experiment,48,→,right,→,0.616070399992168,True,17
A015M23,817,experiment,72,←,left,←,0.5229119000141509,True,17
A015M23,818,experiment,168,↑,up,↑,0.695424900011858,True,17
A015M23,819,experiment,168,→,right,→,0.6046948000148404,True,17
A015M23,820,experiment,24,↑,down,↓,0.5519063000101596,False,17
A015M23,821,experiment,144,←,left,←,0.5135392000083812,True,17
A015M23,822,experiment,180,←,left,←,0.6447928999841679,True,17
A015M23,823,experiment,108,→,right,→,0.5300994999997783,True,17
A015M23,824,experiment,132,↓,down,↓,0.536608399997931,True,17
A015M23,825,experiment,156,←,no_key,no_letter,-1.0,False,17
A015M23,826,experiment,84,→,right,→,0.5618956000253092,True,17
A015M23,827,experiment,60,↑,no_key,no_letter,-1.0,False,17
A015M23,828,experiment,72,↑,up,↑,0.7197536999883596,True,17
A015M23,829,experiment,60,↓,down,↓,0.5580174000060651,True,17
A015M23,830,experiment,12,↓,no_key,no_letter,-1.0,False,17
A015M23,831,experiment,108,↓,no_key,no_letter,-1.0,False,17
A015M23,832,experiment,48,←,right,→,0.5961537000257522,False,17
A015M23,833,experiment,180,→,right,→,0.5293906999868341,True,17
A015M23,834,experiment,60,↑,no_key,no_letter,-1.0,False,17
A015M23,835,experiment,24,←,right,→,0.6486275999923237,False,17
A015M23,836,experiment,180,→,right,→,0.6974533000029624,True,17
A015M23,837,experiment,120,←,left,←,0.5760810000065248,True,17
A015M23,838,experiment,108,↓,down,↓,0.6407863000058569,True,17
A015M23,839,experiment,72,↓,down,↓,0.5262841999938246,True,17
A015M23,840,experiment,156,←,right,→,0.6791124999872409,False,17
A015M23,841,experiment,96,←,left,←,0.9504195000045002,True,17
A015M23,842,experiment,72,→,right,→,0.6299565999943297,True,17
A015M23,843,experiment,48,↑,up,↑,0.6663733999885153,True,17
A015M23,844,experiment,12,←,no_key,no_letter,-1.0,False,17
A015M23,845,experiment,144,↓,down,↓,0.6643894000153523,True,17
A015M23,846,experiment,156,→,right,→,0.6281712000200059,True,17
A015M23,847,experiment,12,↑,no_key,no_letter,-1.0,False,17
A015M23,848,experiment,132,↓,down,↓,0.6103171999857295,True,17
A015M23,849,experiment,168,←,left,←,0.5246292000229005,True,17
