PART_ID,Trial_no,Trial_type,PDI,Stim_letter,Key_pressed,letter_choose,Rt,Corr,Stimulus Time
A016K29,1,training,10,←,no_key,no_letter,-1.0,False,30
A016K29,2,training,10,↑,no_key,no_letter,-1.0,False,30
A016K29,3,training,10,↓,up,↑,0.7169372999996995,False,30
A016K29,4,training,10,↓,down,↓,0.40034299999933864,True,30
A016K29,5,training,10,→,right,→,0.8261115000004793,True,30
A016K29,6,training,10,↓,down,↓,2.1469866999996157,True,30
A016K29,7,training,10,↑,up,↑,0.6915458999992552,True,30
A016K29,8,training,10,←,left,←,1.5950614000003043,True,30
A016K29,9,training,10,↑,up,↑,1.0109260999997787,True,30
A016K29,10,training,10,←,left,←,1.1284138999999413,True,30
A016K29,11,training,10,↓,down,↓,0.8453807999994751,True,30
A016K29,12,training,10,↓,down,↓,1.6166287000005468,True,30
A016K29,13,training,10,↓,down,↓,0.516822300000058,True,30
A016K29,14,training,10,←,left,←,1.5019779999993261,True,30
A016K29,15,training,10,↓,down,↓,0.7481968000001871,True,30
A016K29,16,training,10,↓,down,↓,0.5671873999999661,True,30
A016K29,17,training,10,↓,down,↓,0.771198600000389,True,30
A016K29,18,training,10,↓,down,↓,0.7204686000004585,True,30
A016K29,19,training,10,←,left,←,0.995398699999896,True,30
A016K29,20,training,10,→,right,→,0.736142299999301,True,30
A016K29,21,training,10,↑,up,↑,0.5342986000005112,True,18
A016K29,22,training,10,←,left,←,0.6875977999998213,True,18
A016K29,23,training,10,↓,down,↓,0.6735974000002898,True,18
A016K29,24,training,10,↓,down,↓,0.4337262000008195,True,18
A016K29,25,training,10,←,left,←,0.7216439000003447,True,18
A016K29,26,training,10,→,right,→,0.679479800000081,True,18
A016K29,27,training,10,↑,down,↓,0.6875686999992467,False,18
A016K29,28,training,10,↑,up,↑,0.7005834999999934,True,18
A016K29,29,training,10,→,right,→,0.5996543999999631,True,18
A016K29,30,training,10,←,left,←,0.6491460999995979,True,18
A016K29,31,training,132,←,right,→,0.41811890000008134,False,15
A016K29,32,training,96,↑,down,↓,0.8625078000004578,False,15
A016K29,33,training,36,↓,down,↓,0.6377128000003722,True,15
A016K29,34,experiment,12,←,left,←,0.7804812999993374,True,15
A016K29,35,experiment,144,→,right,→,0.48129509999944275,True,15
A016K29,36,experiment,12,↓,down,↓,0.7435065999998187,True,15
A016K29,37,experiment,132,↑,right,→,0.6635129000005691,False,15
A016K29,38,experiment,144,←,left,←,1.0944165999999313,True,15
A016K29,39,experiment,132,↑,up,↑,1.2533011999994415,True,15
A016K29,40,experiment,180,→,right,→,0.4770615000006728,True,15
A016K29,41,experiment,120,→,left,←,0.7247858999999153,False,15
A016K29,42,experiment,132,↑,up,↑,1.348897500000021,True,15
A016K29,43,experiment,72,→,right,→,0.8010910000002696,True,15
A016K29,44,experiment,36,↓,left,←,1.295336099999986,False,15
A016K29,45,experiment,84,↑,left,←,1.4088474000000133,False,15
A016K29,46,experiment,132,↑,up,↑,0.9523405999998431,True,15
A016K29,47,experiment,108,↑,up,↑,0.5912660999993022,True,15
A016K29,48,experiment,108,↓,down,↓,0.913504300000568,True,15
A016K29,49,experiment,96,←,left,←,1.053211200000078,True,15
A016K29,50,experiment,24,↓,down,↓,0.6788960000003499,True,15
A016K29,51,experiment,84,↓,up,↑,0.9496140000001105,False,15
A016K29,52,experiment,60,→,left,←,0.8714116999999533,False,15
A016K29,53,experiment,108,↓,left,←,0.7205601000005117,False,15
A016K29,54,experiment,180,↓,down,↓,0.7360689999995884,True,15
A016K29,55,experiment,48,→,right,→,0.6019700000006196,True,15
A016K29,56,experiment,48,↓,down,↓,0.7625982999998087,True,15
A016K29,57,experiment,108,→,left,←,0.8681742999997368,False,15
A016K29,58,experiment,180,↑,right,→,0.5088651000005484,False,15
A016K29,59,experiment,36,←,left,←,0.9744461000000229,True,15
A016K29,60,experiment,168,→,right,→,0.6987818999996307,True,15
A016K29,61,experiment,96,→,left,←,0.7509397000003446,False,15
A016K29,62,experiment,24,↓,down,↓,1.2936996999997064,True,15
A016K29,63,experiment,48,↓,left,←,0.6818347000007634,False,15
A016K29,64,experiment,120,↑,up,↑,1.8667389000002004,True,15
A016K29,65,experiment,12,↓,down,↓,0.7040538999999626,True,15
A016K29,66,experiment,60,↓,down,↓,0.6612058000000616,True,15
A016K29,67,experiment,156,↓,down,↓,0.6878169000001435,True,15
A016K29,68,experiment,48,↑,left,←,1.3019721000000573,False,15
A016K29,69,experiment,120,↓,left,←,0.8941053999997166,False,15
A016K29,70,experiment,168,↑,up,↑,1.0329102999994575,True,15
A016K29,71,experiment,156,↑,up,↑,0.8041448000003584,True,15
A016K29,72,experiment,168,↑,up,↑,0.7423195000001215,True,15
A016K29,73,experiment,156,↓,left,←,1.6166572000001906,False,15
A016K29,74,experiment,72,→,up,↑,1.1830771999993885,False,15
A016K29,75,experiment,168,→,right,→,1.0257764999996652,True,15
A016K29,76,experiment,24,←,right,→,1.092660700000124,False,15
A016K29,77,experiment,12,→,left,←,0.9059439000002385,False,15
A016K29,78,experiment,84,↑,up,↑,1.0987701000003653,True,15
A016K29,79,experiment,120,←,left,←,0.7297901999991154,True,15
A016K29,80,experiment,60,↑,up,↑,1.3156152999999904,True,15
A016K29,81,experiment,96,←,right,→,0.7062432000002445,False,15
A016K29,82,experiment,72,↑,left,←,0.7466357000002972,False,15
A016K29,83,experiment,84,↓,right,→,0.6937995999996929,False,15
A016K29,84,experiment,72,→,left,←,0.7859867999995913,False,15
A016K29,85,experiment,36,→,left,←,0.6645115000001169,False,15
A016K29,86,experiment,144,←,left,←,0.9617465000001175,True,15
A016K29,87,experiment,36,←,left,←,1.4310782000002291,True,15
A016K29,88,experiment,24,←,left,←,0.8091584000003422,True,15
A016K29,89,experiment,180,←,right,→,0.6188083999995797,False,15
A016K29,90,experiment,156,→,right,→,0.5902042000006986,True,15
A016K29,91,experiment,96,←,left,←,0.6519490000000587,True,15
A016K29,92,experiment,144,→,right,→,0.6083630000002813,True,15
A016K29,93,experiment,60,→,left,←,0.519738299999517,False,15
A016K29,94,training,168,→,right,→,0.7288563000001886,True,15
A016K29,95,training,60,←,left,←,0.7353184000003239,True,15
A016K29,96,training,168,→,left,←,1.6614792000000307,False,15
A016K29,97,experiment,180,↓,down,↓,0.9205275000003894,True,15
A016K29,98,experiment,132,←,left,←,0.8063178000002154,True,15
A016K29,99,experiment,96,↑,down,↓,0.8975210999997216,False,15
A016K29,100,experiment,156,←,left,←,0.535388199999943,True,15
A016K29,101,experiment,12,↓,down,↓,1.2206138000001374,True,15
A016K29,102,experiment,12,↓,down,↓,0.8034471999999369,True,15
A016K29,103,experiment,72,↑,no_key,no_letter,-1.0,False,15
A016K29,104,experiment,96,←,right,→,0.7602557000000161,False,15
A016K29,105,experiment,144,↑,up,↑,1.2239801999994597,True,15
A016K29,106,experiment,84,→,right,→,0.8907115000001795,True,15
A016K29,107,experiment,60,↓,no_key,no_letter,-1.0,False,15
A016K29,108,experiment,120,←,left,←,1.366121199999725,True,15
A016K29,109,experiment,108,↑,no_key,no_letter,-1.0,False,15
A016K29,110,experiment,144,↑,up,↑,1.0655916999994588,True,15
A016K29,111,experiment,24,→,right,→,0.7490087999995012,True,15
A016K29,112,experiment,144,↑,no_key,no_letter,-1.0,False,15
A016K29,113,experiment,168,↓,down,↓,0.9084603000001152,True,15
A016K29,114,experiment,108,↑,up,↑,1.0874198000001343,True,15
A016K29,115,experiment,48,←,left,←,1.001473299999816,True,15
A016K29,116,experiment,168,↓,down,↓,0.7964474999998856,True,15
A016K29,117,experiment,84,←,right,→,0.9810926000000109,False,15
A016K29,118,experiment,60,←,left,←,0.9233291000000463,True,15
A016K29,119,experiment,84,→,no_key,no_letter,-1.0,False,15
A016K29,120,experiment,156,→,right,→,0.709615799999483,True,15
A016K29,121,experiment,60,→,left,←,0.8845750000000407,False,15
A016K29,122,experiment,168,↑,up,↑,1.1398618000002898,True,15
A016K29,123,experiment,36,→,right,→,0.7436364000004687,True,15
A016K29,124,experiment,72,↓,down,↓,0.8838329999998678,True,15
A016K29,125,experiment,120,↑,up,↑,0.912350300000071,True,15
A016K29,126,experiment,180,↓,left,←,0.9134175999997751,False,15
A016K29,127,experiment,144,↑,up,↑,1.0701583000000028,True,15
A016K29,128,experiment,72,↑,no_key,no_letter,-1.0,False,15
A016K29,129,experiment,156,↑,no_key,no_letter,-1.0,False,15
A016K29,130,experiment,108,↑,up,↑,0.6863471999995454,True,15
A016K29,131,experiment,24,↑,up,↑,0.6625584000003073,True,15
A016K29,132,experiment,132,→,right,→,0.6934732999998232,True,15
A016K29,133,experiment,48,←,left,←,1.0882497999991756,True,15
A016K29,134,experiment,180,←,left,←,0.7613545000003796,True,15
A016K29,135,experiment,168,↑,no_key,no_letter,-1.0,False,15
A016K29,136,experiment,120,←,left,←,0.8456615000004604,True,15
A016K29,137,experiment,24,→,left,←,0.748635099999774,False,15
A016K29,138,experiment,96,←,left,←,0.7404106000003594,True,15
A016K29,139,experiment,12,←,left,←,0.7433578999998645,True,15
A016K29,140,experiment,60,←,left,←,0.9471528000003673,True,15
A016K29,141,experiment,96,↑,up,↑,1.0717110999994475,True,15
A016K29,142,experiment,120,↑,up,↑,0.6974039999995512,True,15
A016K29,143,experiment,24,←,left,←,0.758969900000011,True,15
A016K29,144,experiment,36,↑,up,↑,0.514788800000133,True,15
A016K29,145,experiment,108,↑,up,↑,0.6938438999995924,True,15
A016K29,146,experiment,132,↓,down,↓,0.8137057000003551,True,15
A016K29,147,experiment,180,↑,up,↑,0.833621800000401,True,15
A016K29,148,experiment,36,→,left,←,0.8742808000006335,False,15
A016K29,149,experiment,48,↓,down,↓,0.901596900000186,True,15
A016K29,150,experiment,36,↓,down,↓,0.8910980999999083,True,15
A016K29,151,experiment,72,↑,up,↑,0.7066583000005267,True,15
A016K29,152,experiment,84,→,right,→,1.2025104999993346,True,15
A016K29,153,experiment,132,↓,left,←,0.774506100000508,False,15
A016K29,154,experiment,156,←,left,←,0.7556665000001885,True,15
A016K29,155,experiment,48,→,right,→,0.7691056999992725,True,15
A016K29,156,experiment,12,↑,up,↑,1.0598604999995587,True,15
A016K29,157,training,72,↓,down,↓,0.904253300000164,True,15
A016K29,158,training,168,↓,down,↓,0.9192714000000706,True,15
A016K29,159,training,132,←,left,←,1.1543313000001945,True,15
A016K29,160,experiment,84,↓,down,↓,0.892272199999752,True,15
A016K29,161,experiment,168,↓,down,↓,0.8622519000000466,True,15
A016K29,162,experiment,120,↑,down,↓,0.8212641999998596,False,15
A016K29,163,experiment,168,↑,up,↑,0.8790006999997786,True,15
A016K29,164,experiment,12,↑,down,↓,0.7527996999997413,False,15
A016K29,165,experiment,120,↑,up,↑,0.938517700000375,True,15
A016K29,166,experiment,180,↓,down,↓,0.7267806999998356,True,15
A016K29,167,experiment,48,→,down,↓,0.7677280999996583,False,15
A016K29,168,experiment,24,→,left,←,0.8038577000006626,False,15
A016K29,169,experiment,120,↓,down,↓,0.6883203999996113,True,15
A016K29,170,experiment,72,→,right,→,0.9062980999997308,True,15
A016K29,171,experiment,12,→,no_key,no_letter,-1.0,False,15
A016K29,172,experiment,60,→,right,→,0.624393100000816,True,15
A016K29,173,experiment,24,←,left,←,0.8353848999995535,True,15
A016K29,174,experiment,84,←,left,←,0.7817446999997628,True,15
A016K29,175,experiment,36,→,right,→,1.1635204000003796,True,15
A016K29,176,experiment,108,←,left,←,0.6773093000001609,True,15
A016K29,177,experiment,168,↓,no_key,no_letter,-1.0,False,15
A016K29,178,experiment,144,↓,down,↓,0.610803699999451,True,15
A016K29,179,experiment,156,↑,up,↑,1.298584999999548,True,15
A016K29,180,experiment,168,↑,down,↓,0.8011874000003445,False,15
A016K29,181,experiment,36,→,right,→,0.9460110999998506,True,15
A016K29,182,experiment,60,←,left,←,1.774165499999981,True,15
A016K29,183,experiment,96,↑,no_key,no_letter,-1.0,False,15
A016K29,184,experiment,24,→,right,→,0.6530176000005667,True,15
A016K29,185,experiment,48,↑,up,↑,0.7672257999993235,True,15
A016K29,186,experiment,180,↓,down,↓,0.7106265000002168,True,15
A016K29,187,experiment,60,↑,up,↑,1.0932603999999628,True,15
A016K29,188,experiment,96,↑,up,↑,0.7281657000003179,True,15
A016K29,189,experiment,180,←,left,←,0.6839401999995971,True,15
A016K29,190,experiment,132,→,no_key,no_letter,-1.0,False,15
A016K29,191,experiment,72,→,right,→,0.8273095000004105,True,15
A016K29,192,experiment,144,←,right,→,1.9155338000000484,False,15
A016K29,193,experiment,36,↓,down,↓,1.0815349999993487,True,15
A016K29,194,experiment,108,↑,up,↑,0.8097146999998586,True,15
A016K29,195,experiment,180,←,left,←,0.7386116999996375,True,15
A016K29,196,experiment,132,→,right,→,0.6048585999997158,True,15
A016K29,197,experiment,72,→,no_key,no_letter,-1.0,False,15
A016K29,198,experiment,108,↓,down,↓,0.7144088000004558,True,15
A016K29,199,experiment,36,↑,up,↑,1.6707334000002447,True,15
A016K29,200,experiment,144,↓,down,↓,0.7472419000005175,True,15
A016K29,201,experiment,156,↑,down,↓,1.1662857000001168,False,15
A016K29,202,experiment,84,↓,down,↓,0.7845428999999058,True,15
A016K29,203,experiment,144,→,right,→,0.7323650999996971,True,15
A016K29,204,experiment,12,→,right,→,0.8480144999994081,True,15
A016K29,205,experiment,96,←,left,←,0.9969262000004164,True,15
A016K29,206,experiment,60,←,left,←,1.8238201000003755,True,15
A016K29,207,experiment,132,↑,down,↓,0.7256722000001901,False,15
A016K29,208,experiment,48,↑,up,↑,1.5623313999994934,True,15
A016K29,209,experiment,84,→,right,→,0.7728723999998692,True,15
A016K29,210,experiment,156,↑,up,↑,1.0228619999998045,True,15
A016K29,211,experiment,96,←,left,←,0.6847382000005382,True,15
A016K29,212,experiment,108,↓,down,↓,0.7720128000000841,True,15
A016K29,213,experiment,12,←,left,←,0.7397648999994999,True,15
A016K29,214,experiment,156,↓,down,↓,0.786335699999654,True,15
A016K29,215,experiment,48,←,right,→,0.9635527999998885,False,15
A016K29,216,experiment,24,↑,up,↑,1.2100057000006927,True,15
A016K29,217,experiment,132,←,left,←,0.844893200000115,True,15
A016K29,218,experiment,120,↓,up,↑,1.163117400000374,False,15
A016K29,219,experiment,72,→,left,←,0.8500454999993963,False,15
A016K29,220,training,132,→,right,→,1.1570295000001352,True,15
A016K29,221,training,60,↓,down,↓,0.7631239000002097,True,15
A016K29,222,training,180,←,left,←,0.8381265999996685,True,15
A016K29,223,experiment,168,←,left,←,0.8266960000000836,True,15
A016K29,224,experiment,48,←,left,←,0.6975804000003336,True,15
A016K29,225,experiment,168,←,left,←,0.6484214000001884,True,15
A016K29,226,experiment,168,↑,up,↑,0.9835332000002381,True,15
A016K29,227,experiment,36,→,left,←,0.8869684999999663,False,15
A016K29,228,experiment,108,←,left,←,0.7403125000000728,True,15
A016K29,229,experiment,144,→,left,←,0.7126023999999234,False,15
A016K29,230,experiment,132,←,left,←,0.6698473999995258,True,15
A016K29,231,experiment,84,↓,down,↓,0.9301967999999761,True,15
A016K29,232,experiment,24,→,left,←,0.7926901999999245,False,15
A016K29,233,experiment,48,↑,up,↑,0.9054803000008178,True,15
A016K29,234,experiment,180,→,left,←,1.1507364999997662,False,15
A016K29,235,experiment,36,↓,down,↓,0.714211499999692,True,15
A016K29,236,experiment,144,←,left,←,0.9485251999994944,True,15
A016K29,237,experiment,84,←,left,←,0.6781896000002234,True,15
A016K29,238,experiment,48,↑,up,↑,0.9210859999993772,True,15
A016K29,239,experiment,120,←,left,←,0.6657214999995631,True,15
A016K29,240,experiment,12,→,left,←,0.758469100000184,False,15
A016K29,241,experiment,132,↓,down,↓,0.7695648999997502,True,15
A016K29,242,experiment,24,↓,down,↓,0.7956734999997934,True,15
A016K29,243,experiment,84,↓,right,→,1.6148371999997835,False,15
A016K29,244,experiment,12,←,no_key,no_letter,-1.0,False,15
A016K29,245,experiment,12,←,left,←,0.7887485999999626,True,15
A016K29,246,experiment,60,←,left,←,0.6799707999998645,True,15
A016K29,247,experiment,96,↓,down,↓,0.7962549000003492,True,15
A016K29,248,experiment,144,→,right,→,0.6579031999999643,True,15
A016K29,249,experiment,60,↑,up,↑,0.973178199999893,True,15
A016K29,250,experiment,72,←,left,←,0.7489484999996421,True,15
A016K29,251,experiment,96,↑,up,↑,0.623057400000107,True,15
A016K29,252,experiment,96,→,left,←,1.1901998000003005,False,15
A016K29,253,experiment,132,←,left,←,0.6969540000000052,True,15
A016K29,254,experiment,180,←,left,←,0.708460699999705,True,15
A016K29,255,experiment,120,←,left,←,0.6526219000006677,True,15
A016K29,256,experiment,132,→,right,→,0.6362116000000242,True,15
A016K29,257,experiment,156,→,right,→,0.6104938999997103,True,15
A016K29,258,experiment,60,←,left,←,0.5860032000000501,True,15
A016K29,259,experiment,120,↑,up,↑,0.9324579000003723,True,15
A016K29,260,experiment,24,←,right,→,0.8713957999998456,False,15
A016K29,261,experiment,156,↑,up,↑,0.8739690000002156,True,15
A016K29,262,experiment,108,→,right,→,0.7058934000006047,True,15
A016K29,263,experiment,36,↑,up,↑,0.9088984999998502,True,15
A016K29,264,experiment,168,↑,up,↑,0.9750121999995827,True,15
A016K29,265,experiment,48,←,left,←,0.6185548000003109,True,15
A016K29,266,experiment,24,→,left,←,0.7092671000000337,False,15
A016K29,267,experiment,96,↑,right,→,0.9245789999995395,False,15
A016K29,268,experiment,108,←,left,←,0.5835237000001143,True,15
A016K29,269,experiment,156,↑,up,↑,0.8123906000000716,True,15
A016K29,270,experiment,144,↑,left,←,0.9956534000002648,False,15
A016K29,271,experiment,60,→,right,→,0.5767761999995855,True,15
A016K29,272,experiment,108,←,left,←,0.7525730999996085,True,15
A016K29,273,experiment,12,↑,up,↑,0.8531273999997211,True,15
A016K29,274,experiment,72,←,left,←,0.6891023000007408,True,15
A016K29,275,experiment,180,↑,down,↓,1.4343390000003637,False,15
A016K29,276,experiment,72,→,right,→,0.6575921000003291,True,15
A016K29,277,experiment,156,↓,left,←,1.2999644999999873,False,15
A016K29,278,experiment,36,↓,down,↓,0.7385334999999031,True,15
A016K29,279,experiment,120,↓,no_key,no_letter,-1.0,False,15
A016K29,280,experiment,84,↓,down,↓,0.8848369999996066,True,15
A016K29,281,experiment,180,→,right,→,0.4818588999996791,True,15
A016K29,282,experiment,72,↑,down,↓,0.8756882000006954,False,15
A016K29,283,training,168,←,left,←,0.6313514000003124,True,15
A016K29,284,training,168,↓,down,↓,0.7607631000000765,True,15
A016K29,285,training,12,←,left,←,1.0005068000000392,True,15
A016K29,286,experiment,120,↑,up,↑,1.0006570999994437,True,15
A016K29,287,experiment,72,←,left,←,0.7858527999997023,True,15
A016K29,288,experiment,168,↓,no_key,no_letter,-1.0,False,15
A016K29,289,experiment,84,→,right,→,0.7382381000006717,True,15
A016K29,290,experiment,84,→,right,→,1.0381287000000157,True,15
A016K29,291,experiment,24,→,left,←,0.8096310000000813,False,15
A016K29,292,experiment,84,↓,down,↓,0.7355341000002227,True,15
A016K29,293,experiment,132,↑,left,←,1.581913799999711,False,15
A016K29,294,experiment,12,↑,up,↑,0.947377399999823,True,15
A016K29,295,experiment,156,↓,down,↓,0.7936003000004348,True,15
A016K29,296,experiment,12,→,left,←,0.7502273000000059,False,15
A016K29,297,experiment,108,←,left,←,0.7959299000003739,True,15
A016K29,298,experiment,168,↓,down,↓,0.7742926999999327,True,15
A016K29,299,experiment,180,↑,no_key,no_letter,-1.0,False,15
A016K29,300,experiment,96,↓,down,↓,0.6446255999999266,True,15
A016K29,301,experiment,72,←,right,→,0.776933199999803,False,15
A016K29,302,experiment,36,↑,up,↑,1.0431336999999985,True,15
A016K29,303,experiment,108,↓,down,↓,0.6729786000005333,True,15
A016K29,304,experiment,48,↓,down,↓,1.0131423000002542,True,15
A016K29,305,experiment,144,↑,up,↑,0.8956952000007732,True,15
A016K29,306,experiment,156,←,right,→,0.510838799999874,False,15
A016K29,307,experiment,144,→,left,←,0.8232064999992872,False,15
A016K29,308,experiment,84,↓,no_key,no_letter,-1.0,False,15
A016K29,309,experiment,156,→,right,→,0.9407386000002589,True,15
A016K29,310,experiment,36,→,right,→,0.7459313999997903,True,15
A016K29,311,experiment,36,←,left,←,1.3090954999997848,True,15
A016K29,312,experiment,60,→,right,→,0.7219032999992123,True,15
A016K29,313,experiment,120,←,right,→,1.868677800000114,False,15
A016K29,314,experiment,24,↓,down,↓,0.8984124999997221,True,15
A016K29,315,experiment,108,↑,up,↑,1.0932645000002594,True,15
A016K29,316,experiment,60,↓,no_key,no_letter,-1.0,False,15
A016K29,317,experiment,156,←,left,←,0.8528195999997479,True,15
A016K29,318,experiment,60,↑,up,↑,0.7534344000005149,True,15
A016K29,319,experiment,60,↓,down,↓,0.733191799999986,True,15
A016K29,320,experiment,96,↓,down,↓,0.7011048000003939,True,15
A016K29,321,experiment,180,↓,down,↓,0.7529420000000755,True,15
A016K29,322,experiment,24,↓,down,↓,0.9324526999998852,True,15
A016K29,323,experiment,144,↓,no_key,no_letter,-1.0,False,15
A016K29,324,experiment,96,↓,down,↓,0.6694497999997111,True,15
A016K29,325,experiment,108,←,left,←,0.8437170999995942,True,15
A016K29,326,experiment,36,↓,down,↓,0.7212729000002582,True,15
A016K29,327,experiment,24,↓,left,←,0.8888977999995404,False,15
A016K29,328,experiment,12,←,left,←,0.7447763000000123,True,15
A016K29,329,experiment,120,←,left,←,0.7723573000002943,True,15
A016K29,330,experiment,72,↑,up,↑,0.9930087000002459,True,15
A016K29,331,experiment,180,↑,right,→,1.093659999999545,False,15
A016K29,332,experiment,132,→,right,→,0.6404947999999422,True,15
A016K29,333,experiment,168,↓,down,↓,0.7886080000007496,True,15
A016K29,334,experiment,132,←,left,←,0.9302954999993744,True,15
A016K29,335,experiment,144,↑,up,↑,1.134929099999681,True,15
A016K29,336,experiment,120,↓,no_key,no_letter,-1.0,False,15
A016K29,337,experiment,48,←,no_key,no_letter,-1.0,False,15
A016K29,338,experiment,48,←,left,←,0.6530034999996133,True,15
A016K29,339,experiment,180,↑,up,↑,0.9309842999991815,True,15
A016K29,340,experiment,168,↑,left,←,0.8127369000003455,False,15
A016K29,341,experiment,72,↓,down,↓,0.7639945999999327,True,15
A016K29,342,experiment,12,↑,up,↑,0.9735052000005453,True,15
A016K29,343,experiment,96,←,left,←,0.8489809000002424,True,15
A016K29,344,experiment,48,→,right,→,0.5934367999998358,True,15
A016K29,345,experiment,132,↓,down,↓,1.0485195999999632,True,15
A016K29,346,training,72,→,right,→,0.6968123999995441,True,15
A016K29,347,training,180,↑,up,↑,0.8674748000003092,True,15
A016K29,348,training,48,←,right,→,0.8642841999999291,False,15
A016K29,349,experiment,96,↑,down,↓,0.9927592000003642,False,15
A016K29,350,experiment,72,←,left,←,0.9858011999995142,True,15
A016K29,351,experiment,24,←,left,←,0.5978165000005902,True,15
A016K29,352,experiment,156,↓,down,↓,0.627253099999507,True,15
A016K29,353,experiment,108,↓,down,↓,0.6432062000003498,True,15
A016K29,354,experiment,36,←,left,←,1.3152402000005168,True,15
A016K29,355,experiment,108,↑,up,↑,1.0074805000003835,True,15
A016K29,356,experiment,168,↑,up,↑,0.8103406000000177,True,15
A016K29,357,experiment,12,↑,no_key,no_letter,-1.0,False,15
A016K29,358,experiment,180,→,right,→,0.6639097999996011,True,15
A016K29,359,experiment,60,→,left,←,0.816092099999878,False,15
A016K29,360,experiment,84,↑,up,↑,0.6891279999999824,True,15
A016K29,361,experiment,132,←,no_key,no_letter,-1.0,False,15
A016K29,362,experiment,120,→,no_key,no_letter,-1.0,False,15
A016K29,363,experiment,84,↑,up,↑,0.8834638999996969,True,15
A016K29,364,experiment,48,↓,down,↓,0.7194331999999122,True,15
A016K29,365,experiment,72,↓,down,↓,0.639404900000045,True,15
A016K29,366,experiment,132,→,right,→,0.6331091000001834,True,15
A016K29,367,experiment,120,↓,down,↓,0.7820457000007082,True,15
A016K29,368,experiment,180,←,left,←,0.8189012000002549,True,15
A016K29,369,experiment,48,↓,down,↓,0.8925067000000126,True,15
A016K29,370,experiment,156,↓,up,↑,1.4804735000006986,False,15
A016K29,371,experiment,24,↓,down,↓,0.7530710999999428,True,15
A016K29,372,experiment,12,←,no_key,no_letter,-1.0,False,15
A016K29,373,experiment,108,←,right,→,0.6803480999997191,False,15
A016K29,374,experiment,72,↑,no_key,no_letter,-1.0,False,15
A016K29,375,experiment,12,→,right,→,0.6158147000005556,True,15
A016K29,376,experiment,60,←,no_key,no_letter,-1.0,False,15
A016K29,377,experiment,168,→,left,←,0.8528662999997323,False,15
A016K29,378,experiment,168,→,right,→,0.6370520999998917,True,15
A016K29,379,experiment,72,←,left,←,1.4924707000000126,True,15
A016K29,380,experiment,48,←,no_key,no_letter,-1.0,False,15
A016K29,381,experiment,96,↓,no_key,no_letter,-1.0,False,15
A016K29,382,experiment,144,↑,up,↑,1.3060395000002245,True,15
A016K29,383,experiment,96,→,left,←,1.4708071000004566,False,15
A016K29,384,experiment,144,←,left,←,0.8431532000004154,True,15
A016K29,385,experiment,156,↓,no_key,no_letter,-1.0,False,15
A016K29,386,experiment,168,↓,no_key,no_letter,-1.0,False,15
A016K29,387,experiment,36,↓,down,↓,0.8745237999992241,True,15
A016K29,388,experiment,120,↓,no_key,no_letter,-1.0,False,15
A016K29,389,experiment,180,↓,down,↓,0.8472049999991214,True,15
A016K29,390,experiment,36,→,right,→,0.9895250000008673,True,15
A016K29,391,experiment,60,←,left,←,0.7780692000005729,True,15
A016K29,392,experiment,84,↑,up,↑,0.762289399999645,True,15
A016K29,393,experiment,96,→,no_key,no_letter,-1.0,False,15
A016K29,394,experiment,84,←,left,←,0.7865879000000859,True,15
A016K29,395,experiment,120,←,left,←,0.7472101000003022,True,15
A016K29,396,experiment,144,→,right,→,0.5723383000004105,True,15
A016K29,397,experiment,60,←,left,←,1.0842084000005343,True,15
A016K29,398,experiment,156,↑,up,↑,1.0275418999999602,True,15
A016K29,399,experiment,108,↑,up,↑,0.7579193000001396,True,15
A016K29,400,experiment,24,↓,down,↓,0.945032400000855,True,15
A016K29,401,experiment,132,→,right,→,0.6429356999997253,True,15
A016K29,402,experiment,24,↓,left,←,0.7754236000000674,False,15
A016K29,403,experiment,12,→,left,←,0.873606999999538,False,15
A016K29,404,experiment,48,↓,down,↓,0.9476307000004454,True,15
A016K29,405,experiment,144,↑,up,↑,0.9857379000004585,True,15
A016K29,406,experiment,132,↑,no_key,no_letter,-1.0,False,15
A016K29,407,experiment,180,→,no_key,no_letter,-1.0,False,15
A016K29,408,experiment,36,→,left,←,0.8408269999999902,False,15
A016K29,409,training,60,→,no_key,no_letter,-1.0,False,15
A016K29,410,training,180,←,left,←,0.7717296000000715,True,15
A016K29,411,training,180,→,right,→,0.7217627999998513,True,15
A016K29,412,experiment,144,←,left,←,0.8074426000002859,True,15
A016K29,413,experiment,24,→,right,→,0.7182117000002108,True,15
A016K29,414,experiment,60,→,right,→,0.6491047999998045,True,15
A016K29,415,experiment,168,↑,left,←,0.7318107999999484,False,15
A016K29,416,experiment,72,→,left,←,0.7919605999995838,False,15
A016K29,417,experiment,132,→,left,←,0.7532414000006611,False,15
A016K29,418,experiment,12,↓,down,↓,1.4353415000005043,True,15
A016K29,419,experiment,180,→,right,→,1.6040877999994336,True,15
A016K29,420,experiment,24,↓,down,↓,0.7580027999993035,True,15
A016K29,421,experiment,120,←,left,←,0.7308791999994355,True,15
A016K29,422,experiment,36,↓,down,↓,0.8005881999997655,True,15
A016K29,423,experiment,36,↑,up,↑,0.7476190999996106,True,15
A016K29,424,experiment,84,↑,up,↑,0.904003399999965,True,15
A016K29,425,experiment,12,→,right,→,0.8488554000005024,True,15
A016K29,426,experiment,156,→,right,→,0.7439334000000599,True,15
A016K29,427,experiment,24,↑,up,↑,0.9122522999996363,True,15
A016K29,428,experiment,24,→,left,←,0.8335682999995697,False,15
A016K29,429,experiment,96,↑,up,↑,0.813658299999588,True,15
A016K29,430,experiment,60,↑,up,↑,0.7623884999993606,True,15
A016K29,431,experiment,144,→,no_key,no_letter,-1.0,False,15
A016K29,432,experiment,144,→,no_key,no_letter,-1.0,False,15
A016K29,433,experiment,120,↑,up,↑,0.7657683000006728,True,15
A016K29,434,experiment,156,→,right,→,1.1070614000000205,True,15
A016K29,435,experiment,180,→,right,→,0.6535915000004024,True,15
A016K29,436,experiment,48,↓,down,↓,0.7881840999998531,True,15
A016K29,437,experiment,48,↑,up,↑,1.3909750000002532,True,15
A016K29,438,experiment,12,↑,up,↑,1.2447102999994968,True,15
A016K29,439,experiment,12,↓,down,↓,0.9381493999999293,True,15
A016K29,440,experiment,36,↑,up,↑,0.8908115999993242,True,15
A016K29,441,experiment,60,←,left,←,0.8154397999996945,True,15
A016K29,442,experiment,168,→,right,→,0.7115111999992223,True,15
A016K29,443,experiment,180,↑,up,↑,0.9713070999996489,True,15
A016K29,444,experiment,72,←,left,←,0.7515878000003795,True,15
A016K29,445,experiment,48,↓,down,↓,1.115690600000562,True,15
A016K29,446,experiment,108,→,left,←,0.8377224000005299,False,15
A016K29,447,experiment,132,←,left,←,0.824976400000196,True,15
A016K29,448,experiment,84,↑,no_key,no_letter,-1.0,False,15
A016K29,449,experiment,72,↑,up,↑,1.0074377999999342,True,15
A016K29,450,experiment,84,←,left,←,0.7432297000004837,True,15
A016K29,451,experiment,60,↓,no_key,no_letter,-1.0,False,15
A016K29,452,experiment,96,→,left,←,0.8934853000000658,False,15
A016K29,453,experiment,156,←,no_key,no_letter,-1.0,False,15
A016K29,454,experiment,108,→,right,→,0.6662617000001774,True,15
A016K29,455,experiment,84,←,left,←,0.7491674000002604,True,15
A016K29,456,experiment,168,↓,down,↓,0.7549458000003142,True,15
A016K29,457,experiment,144,←,left,←,0.7877683999995497,True,15
A016K29,458,experiment,108,→,right,→,1.0914904999999635,True,15
A016K29,459,experiment,96,↓,down,↓,0.865769399999408,True,15
A016K29,460,experiment,120,↓,no_key,no_letter,-1.0,False,15
A016K29,461,experiment,96,↑,up,↑,0.7922302000006312,True,15
A016K29,462,experiment,108,↑,up,↑,0.7539630999999645,True,15
A016K29,463,experiment,132,↓,down,↓,0.8836570999992546,True,15
A016K29,464,experiment,180,↑,no_key,no_letter,-1.0,False,15
A016K29,465,experiment,156,↓,down,↓,0.84816310000042,True,15
A016K29,466,experiment,36,↑,down,↓,0.7916548000002877,False,15
A016K29,467,experiment,48,←,left,←,0.8029348999998547,True,15
A016K29,468,experiment,72,↓,no_key,no_letter,-1.0,False,15
A016K29,469,experiment,168,←,no_key,no_letter,-1.0,False,15
A016K29,470,experiment,120,←,left,←,0.7199479999999312,True,15
A016K29,471,experiment,132,→,no_key,no_letter,-1.0,False,15
A016K29,472,training,132,↑,up,↑,0.6807260999994469,True,15
A016K29,473,training,36,↓,no_key,no_letter,-1.0,False,15
A016K29,474,training,132,↓,down,↓,0.7852376999999251,True,15
A016K29,475,experiment,36,↓,no_key,no_letter,-1.0,False,15
A016K29,476,experiment,168,←,left,←,1.0075923000003968,True,15
A016K29,477,experiment,60,←,no_key,no_letter,-1.0,False,15
A016K29,478,experiment,24,→,right,→,0.6523926999998366,True,15
A016K29,479,experiment,36,→,right,→,0.8641360999999961,True,15
A016K29,480,experiment,108,↓,up,↑,0.8511760999999751,False,15
A016K29,481,experiment,48,↓,up,↑,0.8925865999999587,False,15
A016K29,482,experiment,84,←,left,←,0.8085069999997359,True,15
A016K29,483,experiment,72,→,right,→,0.7406722999994599,True,15
A016K29,484,experiment,48,↑,up,↑,1.827585399999407,True,15
A016K29,485,experiment,12,←,no_key,no_letter,-1.0,False,15
A016K29,486,experiment,120,←,left,←,0.7145539000002827,True,15
A016K29,487,experiment,84,←,right,→,0.8895460000003368,False,15
A016K29,488,experiment,144,→,no_key,no_letter,-1.0,False,15
A016K29,489,experiment,48,←,left,←,0.8595384000000195,True,15
A016K29,490,experiment,156,←,no_key,no_letter,-1.0,False,15
A016K29,491,experiment,96,→,right,→,0.7251040999999532,True,15
A016K29,492,experiment,156,→,right,→,0.8328199999996286,True,15
A016K29,493,experiment,24,↓,down,↓,1.4670438000002832,True,15
A016K29,494,experiment,108,←,no_key,no_letter,-1.0,False,15
A016K29,495,experiment,144,↓,down,↓,0.8425734000002194,True,15
A016K29,496,experiment,60,→,left,←,1.5163634000000457,False,15
A016K29,497,experiment,180,↓,down,↓,1.1818191000002116,True,15
A016K29,498,experiment,156,↑,down,↓,1.1372057999997196,False,15
A016K29,499,experiment,72,↑,no_key,no_letter,-1.0,False,15
A016K29,500,experiment,24,→,left,←,0.8731566999995266,False,15
A016K29,501,experiment,132,→,right,→,1.045708999999988,True,15
A016K29,502,experiment,120,→,no_key,no_letter,-1.0,False,15
A016K29,503,experiment,96,↓,down,↓,0.7105506000007153,True,15
A016K29,504,experiment,48,←,no_key,no_letter,-1.0,False,15
A016K29,505,experiment,156,→,right,→,0.8151980000002368,True,15
A016K29,506,experiment,120,→,no_key,no_letter,-1.0,False,15
A016K29,507,experiment,120,↓,no_key,no_letter,-1.0,False,15
A016K29,508,experiment,84,↓,down,↓,1.0556058999991365,True,15
A016K29,509,experiment,180,→,left,←,1.0402162999998836,False,15
A016K29,510,experiment,180,→,right,→,0.9633482999997796,True,15
A016K29,511,experiment,144,←,left,←,1.113238400001137,True,15
A016K29,512,experiment,60,→,right,→,1.236864800001058,True,15
A016K29,513,experiment,72,↑,up,↑,1.535388399999647,True,15
A016K29,514,experiment,72,→,right,→,1.6676779000008537,True,15
A016K29,515,experiment,108,←,left,←,0.8284085999985109,True,15
A016K29,516,experiment,168,↓,down,↓,0.8091182000007393,True,15
A016K29,517,experiment,144,↑,down,↓,1.0058922999996867,False,15
A016K29,518,experiment,132,←,left,←,0.8166287000003649,True,15
A016K29,519,experiment,96,↓,down,↓,0.9703410000001895,True,15
A016K29,520,experiment,12,←,no_key,no_letter,-1.0,False,15
A016K29,521,experiment,132,→,right,→,0.8872267999995529,True,15
A016K29,522,experiment,180,←,left,←,0.7096901000004436,True,15
A016K29,523,experiment,96,←,left,←,0.6841244999995979,True,15
A016K29,524,experiment,12,↓,no_key,no_letter,-1.0,False,15
A016K29,525,experiment,36,↓,down,↓,0.7650198000010278,True,15
A016K29,526,experiment,132,→,right,→,1.0420594000006531,True,15
A016K29,527,experiment,60,→,right,→,0.8714753999993263,True,15
A016K29,528,experiment,12,↑,no_key,no_letter,-1.0,False,15
A016K29,529,experiment,24,↑,up,↑,1.1562501000007614,True,15
A016K29,530,experiment,84,→,no_key,no_letter,-1.0,False,15
A016K29,531,experiment,168,↑,left,←,0.74437780000153,False,15
A016K29,532,experiment,108,→,right,→,0.7765808999993169,True,15
A016K29,533,experiment,36,→,left,←,0.8494678000006388,False,15
A016K29,534,experiment,168,↑,down,↓,0.8722060000000056,False,15
A016K29,535,training,84,←,left,←,0.7865107000015996,True,16
A016K29,536,training,48,←,left,←,0.784570599998915,True,16
A016K29,537,training,132,←,left,←,0.7265802000001713,True,16
A016K29,538,experiment,24,↓,down,↓,0.8300952000008692,True,16
A016K29,539,experiment,24,←,left,←,0.7811710000005405,True,16
A016K29,540,experiment,168,↑,up,↑,1.0952514999989944,True,16
A016K29,541,experiment,180,→,right,→,0.7671916999988753,True,16
A016K29,542,experiment,12,→,right,→,0.9348349000010785,True,16
A016K29,543,experiment,144,←,left,←,0.799423399999796,True,16
A016K29,544,experiment,108,→,left,←,0.842823099999805,False,16
A016K29,545,experiment,108,←,left,←,0.8258476999999402,True,16
A016K29,546,experiment,108,↑,up,↑,1.081184900000153,True,16
A016K29,547,experiment,156,→,right,→,1.020600399999239,True,16
A016K29,548,experiment,60,↑,up,↑,1.1364047999995819,True,16
A016K29,549,experiment,156,↓,down,↓,1.1215523000009853,True,16
A016K29,550,experiment,144,→,right,→,0.7428096999992704,True,16
A016K29,551,experiment,180,←,left,←,0.7733905999994022,True,16
A016K29,552,experiment,36,↓,down,↓,1.8427575000005163,True,16
A016K29,553,experiment,96,↓,no_key,no_letter,-1.0,False,16
A016K29,554,experiment,168,←,left,←,0.9541637000002083,True,16
A016K29,555,experiment,132,←,left,←,0.8119767000007414,True,16
A016K29,556,experiment,180,↓,down,↓,0.8987119999983406,True,16
A016K29,557,experiment,132,↓,down,↓,1.0827536999986478,True,16
A016K29,558,experiment,108,←,no_key,no_letter,-1.0,False,16
A016K29,559,experiment,96,↓,down,↓,1.0246827999999368,True,16
A016K29,560,experiment,12,←,no_key,no_letter,-1.0,False,16
A016K29,561,experiment,48,←,left,←,0.9437115999990056,True,16
A016K29,562,experiment,72,↑,down,↓,0.7808400000012625,False,16
A016K29,563,experiment,156,↓,down,↓,0.9343015000013111,True,16
A016K29,564,experiment,36,→,left,←,0.9489833000006911,False,16
A016K29,565,experiment,168,←,left,←,0.9298858000001928,True,16
A016K29,566,experiment,96,→,right,→,0.9186869999994087,True,16
A016K29,567,experiment,60,↑,down,↓,0.7892882000014652,False,16
A016K29,568,experiment,60,↓,down,↓,0.7787024999997811,True,16
A016K29,569,experiment,156,←,left,←,0.7394893999990018,True,16
A016K29,570,experiment,48,←,left,←,1.0928033999989566,True,16
A016K29,571,experiment,96,←,left,←,0.8533771000002162,True,16
A016K29,572,experiment,12,←,left,←,0.8569449999995413,True,16
A016K29,573,experiment,84,↑,up,↑,1.1911012999989907,True,16
A016K29,574,experiment,24,↑,up,↑,0.8849625999991986,True,16
A016K29,575,experiment,84,←,left,←,0.8329974999996921,True,16
A016K29,576,experiment,132,→,right,→,0.7912166000005527,True,16
A016K29,577,experiment,48,↓,down,↓,0.9419743000016751,True,16
A016K29,578,experiment,36,↓,no_key,no_letter,-1.0,False,16
A016K29,579,experiment,120,←,no_key,no_letter,-1.0,False,16
A016K29,580,experiment,120,↓,no_key,no_letter,-1.0,False,16
A016K29,581,experiment,168,↓,down,↓,1.8307820999998512,True,16
A016K29,582,experiment,144,↓,down,↓,0.7703056000009383,True,16
A016K29,583,experiment,180,↓,down,↓,1.4530909000004613,True,16
A016K29,584,experiment,132,→,right,→,0.8989505999998073,True,16
A016K29,585,experiment,144,←,left,←,0.875655399999232,True,16
A016K29,586,experiment,12,←,left,←,1.091828099999475,True,16
A016K29,587,experiment,72,←,right,→,1.4038633000000118,False,16
A016K29,588,experiment,120,→,no_key,no_letter,-1.0,False,16
A016K29,589,experiment,24,↓,no_key,no_letter,-1.0,False,16
A016K29,590,experiment,84,→,right,→,0.7783605999993597,True,16
A016K29,591,experiment,84,→,left,←,0.9008926000005886,False,16
A016K29,592,experiment,48,←,left,←,1.0782487999986188,True,16
A016K29,593,experiment,36,→,left,←,0.8671221000004152,False,16
A016K29,594,experiment,72,↓,down,↓,0.8316517000002932,True,16
A016K29,595,experiment,72,←,left,←,0.8558165000013105,True,16
A016K29,596,experiment,120,←,left,←,0.5992863999999827,True,16
A016K29,597,experiment,60,←,left,←,1.1382912999997643,True,16
A016K29,598,training,180,↓,down,↓,0.8780415000001085,True,16
A016K29,599,training,120,←,left,←,0.728540799998882,True,16
A016K29,600,training,84,↑,up,↑,0.9677833000005194,True,16
A016K29,601,experiment,12,↓,down,↓,0.803723799999716,True,16
A016K29,602,experiment,24,→,right,→,0.7062308000004123,True,16
A016K29,603,experiment,132,←,left,←,0.6676748999998381,True,16
A016K29,604,experiment,132,→,right,→,0.7152685000000929,True,16
A016K29,605,experiment,36,↑,up,↑,0.9535436000005575,True,16
A016K29,606,experiment,84,→,right,→,0.6765742999996291,True,16
A016K29,607,experiment,180,↓,down,↓,1.453410399999484,True,16
A016K29,608,experiment,180,↑,right,→,0.8124704000001657,False,16
A016K29,609,experiment,156,↓,down,↓,0.7541216000008717,True,16
A016K29,610,experiment,180,↑,up,↑,0.797541399999318,True,16
A016K29,611,experiment,24,←,right,→,1.422638800000641,False,16
A016K29,612,experiment,156,↓,down,↓,0.8594640999999683,True,16
A016K29,613,experiment,84,↓,down,↓,0.7837381999997888,True,16
A016K29,614,experiment,72,→,right,→,0.7318959000003815,True,16
A016K29,615,experiment,84,↓,down,↓,0.8008827000012388,True,16
A016K29,616,experiment,180,↓,down,↓,0.8575598999996146,True,16
A016K29,617,experiment,168,→,no_key,no_letter,-1.0,False,16
A016K29,618,experiment,120,↑,up,↑,0.8122428000006039,True,16
A016K29,619,experiment,156,↑,no_key,no_letter,-1.0,False,16
A016K29,620,experiment,108,→,right,→,0.8926098000010825,True,16
A016K29,621,experiment,24,↑,no_key,no_letter,-1.0,False,16
A016K29,622,experiment,168,↓,down,↓,0.8068201999994926,True,16
A016K29,623,experiment,108,↓,left,←,0.8847241999992548,False,16
A016K29,624,experiment,132,→,right,→,1.1738423999995575,True,16
A016K29,625,experiment,144,↓,down,↓,1.0360433000005287,True,16
A016K29,626,experiment,96,↑,up,↑,1.1595837999993819,True,16
A016K29,627,experiment,108,↓,down,↓,0.7732030999995914,True,16
A016K29,628,experiment,120,→,left,←,0.9880794000000606,False,16
A016K29,629,experiment,120,←,left,←,0.9955100999995921,True,16
A016K29,630,experiment,60,←,left,←,1.2707513999994262,True,16
A016K29,631,experiment,48,←,left,←,0.8021449999996548,True,16
A016K29,632,experiment,108,↓,down,↓,1.3056225999989692,True,16
A016K29,633,experiment,156,↓,no_key,no_letter,-1.0,False,16
A016K29,634,experiment,60,←,left,←,0.8753181000010954,True,16
A016K29,635,experiment,60,↑,no_key,no_letter,-1.0,False,16
A016K29,636,experiment,48,→,right,→,1.051702300001125,True,16
A016K29,637,experiment,36,↑,no_key,no_letter,-1.0,False,16
A016K29,638,experiment,72,↓,down,↓,0.9921545999986847,True,16
A016K29,639,experiment,84,↓,left,←,0.9612333000004583,False,16
A016K29,640,experiment,144,←,left,←,0.8609288000006927,True,16
A016K29,641,experiment,72,↑,no_key,no_letter,-1.0,False,16
A016K29,642,experiment,96,↓,left,←,0.909688499999902,False,16
A016K29,643,experiment,144,↑,no_key,no_letter,-1.0,False,16
A016K29,644,experiment,48,←,left,←,0.8883832999999868,True,16
A016K29,645,experiment,12,→,no_key,no_letter,-1.0,False,16
A016K29,646,experiment,72,↑,up,↑,1.0347482999986823,True,16
A016K29,647,experiment,144,→,left,←,0.9251495000007708,False,16
A016K29,648,experiment,12,→,right,→,1.4275553000006767,True,16
A016K29,649,experiment,36,→,no_key,no_letter,-1.0,False,16
A016K29,650,experiment,48,→,right,→,0.7892243000005692,True,16
A016K29,651,experiment,168,↓,left,←,1.0104632000002312,False,16
A016K29,652,experiment,24,←,no_key,no_letter,-1.0,False,16
A016K29,653,experiment,120,↓,left,←,0.85959449999973,False,16
A016K29,654,experiment,96,↓,no_key,no_letter,-1.0,False,16
A016K29,655,experiment,12,↓,down,↓,0.9456023999991885,True,16
A016K29,656,experiment,60,↑,up,↑,1.5614676999994117,True,16
A016K29,657,experiment,168,↑,up,↑,0.7010740999994596,True,16
A016K29,658,experiment,96,↓,down,↓,0.8829205000001821,True,16
A016K29,659,experiment,36,→,right,→,1.3185447000014392,True,16
A016K29,660,experiment,132,←,left,←,1.0359183000000485,True,16
A016K29,661,training,96,←,no_key,no_letter,-1.0,False,16
A016K29,662,training,156,↑,up,↑,1.0428814999995666,True,16
A016K29,663,training,168,↓,no_key,no_letter,-1.0,False,16
A016K29,664,experiment,168,↓,no_key,no_letter,-1.0,False,16
A016K29,665,experiment,84,→,no_key,no_letter,-1.0,False,16
A016K29,666,experiment,60,↓,down,↓,0.815345700000762,True,16
A016K29,667,experiment,120,↑,up,↑,1.0122946000010415,True,16
A016K29,668,experiment,132,↑,up,↑,0.5725660000007338,True,16
A016K29,669,experiment,36,←,no_key,no_letter,-1.0,False,16
A016K29,670,experiment,72,→,right,→,1.055865399999675,True,16
A016K29,671,experiment,108,→,right,→,0.927056900000025,True,16
A016K29,672,experiment,168,↓,down,↓,0.8919724999996106,True,16
A016K29,673,experiment,12,→,right,→,0.9268450999989,True,16
A016K29,674,experiment,144,↑,up,↑,1.6639076999999816,True,16
A016K29,675,experiment,132,←,left,←,0.8737966999997298,True,16
A016K29,676,experiment,144,→,right,→,0.864788500000941,True,16
A016K29,677,experiment,24,→,no_key,no_letter,-1.0,False,16
A016K29,678,experiment,120,↑,up,↑,0.9757979000005435,True,16
A016K29,679,experiment,24,↑,no_key,no_letter,-1.0,False,16
A016K29,680,experiment,96,↑,up,↑,0.8719000999990385,True,16
A016K29,681,experiment,156,←,left,←,0.9392370999994455,True,16
A016K29,682,experiment,72,→,no_key,no_letter,-1.0,False,16
A016K29,683,experiment,12,↓,no_key,no_letter,-1.0,False,16
A016K29,684,experiment,120,↓,no_key,no_letter,-1.0,False,16
A016K29,685,experiment,84,→,right,→,0.6465367999990121,True,16
A016K29,686,experiment,72,↓,down,↓,1.0618493999991188,True,16
A016K29,687,experiment,24,←,no_key,no_letter,-1.0,False,16
A016K29,688,experiment,108,↓,down,↓,0.8944518999996944,True,16
A016K29,689,experiment,144,→,right,→,1.0460022999996,True,16
A016K29,690,experiment,144,↑,up,↑,1.08731330000046,True,16
A016K29,691,experiment,12,↓,down,↓,0.7937232999993284,True,16
A016K29,692,experiment,12,→,right,→,0.7974349000014627,True,16
A016K29,693,experiment,180,↓,no_key,no_letter,-1.0,False,16
A016K29,694,experiment,96,↑,up,↑,0.9517323000000033,True,16
A016K29,695,experiment,24,↑,no_key,no_letter,-1.0,False,16
A016K29,696,experiment,132,↓,down,↓,0.7553152999989834,True,16
A016K29,697,experiment,96,→,right,→,0.960782800000743,True,16
A016K29,698,experiment,168,↓,no_key,no_letter,-1.0,False,16
A016K29,699,experiment,84,↑,up,↑,1.0019472999993013,True,16
A016K29,700,experiment,156,↑,up,↑,0.7854427999991458,True,16
A016K29,701,experiment,108,↓,no_key,no_letter,-1.0,False,16
A016K29,702,experiment,48,→,right,→,1.0113617999995768,True,16
A016K29,703,experiment,48,→,right,→,0.7147514999996929,True,16
A016K29,704,experiment,48,←,no_key,no_letter,-1.0,False,16
A016K29,705,experiment,108,↓,no_key,no_letter,-1.0,False,16
A016K29,706,experiment,72,→,right,→,0.7453907999988587,True,16
A016K29,707,experiment,180,↑,no_key,no_letter,-1.0,False,16
A016K29,708,experiment,180,↑,no_key,no_letter,-1.0,False,16
A016K29,709,experiment,156,↑,up,↑,0.6451021000011679,True,16
A016K29,710,experiment,120,↑,up,↑,0.7913373999999749,True,16
A016K29,711,experiment,156,→,no_key,no_letter,-1.0,False,16
A016K29,712,experiment,60,←,left,←,1.1248498000004474,True,16
A016K29,713,experiment,36,↑,no_key,no_letter,-1.0,False,16
A016K29,714,experiment,84,↑,no_key,no_letter,-1.0,False,16
A016K29,715,experiment,48,←,left,←,0.9956082000007882,True,16
A016K29,716,experiment,132,→,right,→,0.8179766000012023,True,16
A016K29,717,experiment,168,↑,up,↑,0.9849011999995128,True,16
A016K29,718,experiment,60,→,right,→,0.8880969000001642,True,16
A016K29,719,experiment,60,→,no_key,no_letter,-1.0,False,16
A016K29,720,experiment,36,←,left,←,1.1737685999996756,True,16
A016K29,721,experiment,180,→,no_key,no_letter,-1.0,False,16
A016K29,722,experiment,36,↓,down,↓,1.0726649000007455,True,16
A016K29,723,experiment,96,←,left,←,1.277761699999246,True,16
A016K29,724,training,120,→,no_key,no_letter,-1.0,False,16
A016K29,725,training,84,↑,up,↑,0.8867123999989417,True,16
A016K29,726,training,96,←,left,←,1.092673699999068,True,16
A016K29,727,experiment,72,→,right,→,0.7861348000005819,True,16
A016K29,728,experiment,72,↓,down,↓,0.9488521000002947,True,16
A016K29,729,experiment,48,→,right,→,0.7556273000009242,True,16
A016K29,730,experiment,144,↑,up,↑,0.844349200000579,True,16
A016K29,731,experiment,60,↓,down,↓,0.805533299999297,True,16
A016K29,732,experiment,108,←,left,←,0.9674534000005224,True,16
A016K29,733,experiment,156,→,right,→,1.0816235000002052,True,16
A016K29,734,experiment,12,↑,up,↑,0.8992535999987012,True,16
A016K29,735,experiment,120,→,right,→,0.7146185000001424,True,16
A016K29,736,experiment,96,↓,down,↓,0.7521387000015238,True,16
A016K29,737,experiment,24,←,left,←,0.8659330999998929,True,16
A016K29,738,experiment,12,↑,up,↑,0.8829124999992928,True,16
A016K29,739,experiment,84,→,right,→,0.7054282000008243,True,16
A016K29,740,experiment,96,↑,no_key,no_letter,-1.0,False,16
A016K29,741,experiment,180,↓,down,↓,0.8533890999988216,True,16
A016K29,742,experiment,144,↓,down,↓,0.7088938999986567,True,16
A016K29,743,experiment,156,→,right,→,1.105554800000391,True,16
A016K29,744,experiment,60,↑,up,↑,0.8245580000002519,True,16
A016K29,745,experiment,24,→,right,→,0.704190299999027,True,16
A016K29,746,experiment,132,←,left,←,1.0886128999991342,True,16
A016K29,747,experiment,144,→,right,→,0.704884900000252,True,16
A016K29,748,experiment,108,↓,down,↓,0.728321100001267,True,16
A016K29,749,experiment,180,↑,left,←,0.8002200000009907,False,16
A016K29,750,experiment,60,→,no_key,no_letter,-1.0,False,16
A016K29,751,experiment,168,↑,up,↑,1.6313541999988956,True,16
A016K29,752,experiment,156,↓,down,↓,1.0884986000000936,True,16
A016K29,753,experiment,108,↓,down,↓,0.8976359000007506,True,16
A016K29,754,experiment,120,↓,down,↓,0.8203233999993245,True,16
A016K29,755,experiment,24,→,left,←,1.1316272000003664,False,16
A016K29,756,experiment,12,↓,down,↓,0.9195294000001013,True,16
A016K29,757,experiment,120,←,right,→,0.6707084999998187,False,16
A016K29,758,experiment,84,↓,down,↓,0.9720269000008557,True,16
A016K29,759,experiment,24,↓,up,↑,0.9884098999991693,False,16
A016K29,760,experiment,60,↑,no_key,no_letter,-1.0,False,16
A016K29,761,experiment,36,←,left,←,1.1113695000003645,True,16
A016K29,762,experiment,132,↓,down,↓,0.8424424000004365,True,16
A016K29,763,experiment,108,↓,no_key,no_letter,-1.0,False,16
A016K29,764,experiment,36,↑,up,↑,1.017154200000732,True,16
A016K29,765,experiment,72,↓,down,↓,0.860964999999851,True,16
A016K29,766,experiment,72,←,left,←,0.9693064000002778,True,16
A016K29,767,experiment,120,↑,down,↓,0.8772271999987424,False,16
A016K29,768,experiment,168,→,right,→,0.9359384999988833,True,16
A016K29,769,experiment,12,←,no_key,no_letter,-1.0,False,16
A016K29,770,experiment,132,←,no_key,no_letter,-1.0,False,16
A016K29,771,experiment,36,→,right,→,0.6666263000006438,True,16
A016K29,772,experiment,180,→,right,→,0.8179599000013695,True,16
A016K29,773,experiment,156,↑,no_key,no_letter,-1.0,False,16
A016K29,774,experiment,168,←,left,←,1.0054321999996318,True,16
A016K29,775,experiment,48,↓,down,↓,0.7937840000013239,True,16
A016K29,776,experiment,168,↑,up,↑,0.9783717000009347,True,16
A016K29,777,experiment,132,↓,down,↓,0.7784611999995832,True,16
A016K29,778,experiment,48,→,no_key,no_letter,-1.0,False,16
A016K29,779,experiment,96,→,left,←,0.9842631999999867,False,16
A016K29,780,experiment,84,→,right,→,0.7942481000009138,True,16
A016K29,781,experiment,48,→,left,←,1.1478699000017514,False,16
A016K29,782,experiment,36,←,right,→,0.998447899999519,False,16
A016K29,783,experiment,180,↑,up,↑,1.0496698999995715,True,16
A016K29,784,experiment,96,↑,up,↑,1.3739922000004299,True,16
A016K29,785,experiment,144,←,left,←,1.0174403000000893,True,16
A016K29,786,experiment,84,↑,no_key,no_letter,-1.0,False,16
A016K29,787,training,96,→,right,→,0.6992522000000463,True,16
A016K29,788,training,168,→,right,→,0.7801174000014726,True,16
A016K29,789,training,120,→,no_key,no_letter,-1.0,False,16
A016K29,790,experiment,108,↓,down,↓,0.7550017000012303,True,16
A016K29,791,experiment,48,↑,left,←,1.1230711999996856,False,16
A016K29,792,experiment,180,←,left,←,0.7348741000005248,True,16
A016K29,793,experiment,84,←,left,←,0.6026301000001695,True,16
A016K29,794,experiment,144,←,left,←,0.6374826999999641,True,16
A016K29,795,experiment,60,↓,down,↓,0.8708540000006906,True,16
A016K29,796,experiment,132,←,no_key,no_letter,-1.0,False,16
A016K29,797,experiment,168,↓,down,↓,0.7480224999999336,True,16
A016K29,798,experiment,168,↑,up,↑,0.9046791000000667,True,16
A016K29,799,experiment,84,↑,no_key,no_letter,-1.0,False,16
A016K29,800,experiment,132,↑,down,↓,0.8717089000001579,False,16
A016K29,801,experiment,120,←,left,←,0.9846016999999847,True,16
A016K29,802,experiment,72,↓,down,↓,0.7205771999997523,True,16
A016K29,803,experiment,168,↑,up,↑,1.0473172000001796,True,16
A016K29,804,experiment,12,←,right,→,0.8713284000004933,False,16
A016K29,805,experiment,180,↓,down,↓,0.8960267999991629,True,16
A016K29,806,experiment,24,↑,no_key,no_letter,-1.0,False,16
A016K29,807,experiment,48,←,left,←,0.9577503999989858,True,16
A016K29,808,experiment,120,↑,no_key,no_letter,-1.0,False,16
A016K29,809,experiment,48,↓,down,↓,0.7820006999991165,True,16
A016K29,810,experiment,132,→,no_key,no_letter,-1.0,False,16
A016K29,811,experiment,36,←,left,←,0.8583847000008973,True,16
A016K29,812,experiment,72,←,left,←,0.8330459000007977,True,16
A016K29,813,experiment,36,↓,down,↓,1.0170298000011826,True,16
A016K29,814,experiment,72,←,no_key,no_letter,-1.0,False,16
A016K29,815,experiment,24,↑,up,↑,0.863603099998727,True,16
A016K29,816,experiment,120,←,left,←,0.690151099999639,True,16
A016K29,817,experiment,84,←,no_key,no_letter,-1.0,False,16
A016K29,818,experiment,156,↑,up,↑,0.9101352999987284,True,16
A016K29,819,experiment,84,↑,down,↓,0.8226039999990462,False,16
A016K29,820,experiment,72,↓,down,↓,0.6700462000007974,True,16
A016K29,821,experiment,48,→,right,→,0.7124837999999727,True,16
A016K29,822,experiment,156,↑,up,↑,0.8827354000004561,True,16
A016K29,823,experiment,144,←,left,←,0.8409011000003375,True,16
A016K29,824,experiment,12,↑,up,↑,0.9160284999998112,True,16
A016K29,825,experiment,120,↓,down,↓,0.8029681999996683,True,16
A016K29,826,experiment,60,←,left,←,0.7153928000006999,True,16
A016K29,827,experiment,36,→,right,→,0.9170993000007002,True,16
A016K29,828,experiment,168,↑,up,↑,1.0589030000010098,True,16
A016K29,829,experiment,96,←,left,←,0.6222608000007313,True,16
A016K29,830,experiment,96,→,right,→,0.5845009999993636,True,16
A016K29,831,experiment,144,↑,no_key,no_letter,-1.0,False,16
A016K29,832,experiment,156,→,right,→,0.6552147999991575,True,16
A016K29,833,experiment,156,↑,up,↑,0.746163500001785,True,16
A016K29,834,experiment,24,←,left,←,0.8099017999993521,True,16
A016K29,835,experiment,132,←,no_key,no_letter,-1.0,False,16
A016K29,836,experiment,60,→,right,→,0.6710456000000704,True,16
A016K29,837,experiment,36,↓,down,↓,0.8352694999994128,True,16
A016K29,838,experiment,144,→,no_key,no_letter,-1.0,False,16
A016K29,839,experiment,108,↓,down,↓,0.6386185999999725,True,16
A016K29,840,experiment,12,←,no_key,no_letter,-1.0,False,16
A016K29,841,experiment,108,→,no_key,no_letter,-1.0,False,16
A016K29,842,experiment,12,←,down,↓,0.8791058999995585,False,16
A016K29,843,experiment,60,↓,no_key,no_letter,-1.0,False,16
A016K29,844,experiment,96,←,left,←,0.9421194000005926,True,16
A016K29,845,experiment,180,←,no_key,no_letter,-1.0,False,16
A016K29,846,experiment,108,↓,down,↓,0.7644105999988824,True,16
A016K29,847,experiment,180,↓,down,↓,0.6626278999992792,True,16
A016K29,848,experiment,96,↑,up,↑,0.7607604000004358,True,16
A016K29,849,experiment,24,↑,up,↑,0.7832184999988385,True,16
