PART_ID,Trial_no,Trial_type,PDI,Stim_letter,Key_pressed,letter_choose,Rt,Corr,Stimulus Time
A017M23,1,training,10,←,no_key,no_letter,-1.0,False,30
A017M23,2,training,10,↑,left,←,1.2260854999767616,False,30
A017M23,3,training,10,→,right,→,0.533907699980773,True,30
A017M23,4,training,10,→,left,←,2.039761499967426,False,30
A017M23,5,training,10,→,left,←,0.7066862999927253,False,30
A017M23,6,training,10,→,right,→,0.6007389000151306,True,30
A017M23,7,training,10,←,left,←,0.7394961999962106,True,30
A017M23,8,training,10,←,right,→,0.5837618999648839,False,30
A017M23,9,training,10,↓,down,↓,0.6338092000223696,True,30
A017M23,10,training,10,←,down,↓,1.5469615999609232,False,30
A017M23,11,training,10,↑,up,↑,1.8004512999905273,True,30
A017M23,12,training,10,←,left,←,1.5031642001122236,True,30
A017M23,13,training,10,↓,right,→,1.6137877999572083,False,30
A017M23,14,training,10,↓,left,←,1.3716548000229523,False,30
A017M23,15,training,10,→,down,↓,1.6586548999184743,False,30
A017M23,16,training,10,↑,no_key,no_letter,-1.0,False,30
A017M23,17,training,10,←,left,←,0.9795095999725163,True,30
A017M23,18,training,10,↓,left,←,1.5120494000148028,False,30
A017M23,19,training,10,↑,up,↑,1.4843923000153154,True,30
A017M23,20,training,10,←,left,←,1.3890942999860272,True,30
A017M23,21,training,10,←,right,→,0.4920263000531122,False,18
A017M23,22,training,10,↓,left,←,1.1188592999242246,False,18
A017M23,23,training,10,←,left,←,1.022709000040777,True,18
A017M23,24,training,10,→,left,←,0.5518747000023723,False,18
A017M23,25,training,10,→,right,→,0.3837727999780327,True,18
A017M23,26,training,10,→,right,→,0.9874065000331029,True,18
A017M23,27,training,10,→,left,←,0.7355450000613928,False,18
A017M23,28,training,10,←,left,←,0.7918573999777436,True,18
A017M23,29,training,10,→,left,←,0.729075999930501,False,18
A017M23,30,training,10,←,right,→,0.7227253000019118,False,18
A017M23,31,training,156,↓,up,↑,1.2385881000664085,False,15
A017M23,32,training,12,↓,left,←,0.8396664999891073,False,15
A017M23,33,training,36,↑,right,→,0.5807486999547109,False,15
A017M23,34,experiment,36,↓,left,←,0.7981538000749424,False,15
A017M23,35,experiment,84,→,left,←,1.121552300057374,False,15
A017M23,36,experiment,120,←,left,←,1.1393051999621093,True,15
A017M23,37,experiment,24,→,right,→,0.7892969999229535,True,15
A017M23,38,experiment,144,↓,left,←,0.8409190000966191,False,15
A017M23,39,experiment,24,↓,left,←,1.028718899935484,False,15
A017M23,40,experiment,180,↑,no_key,no_letter,-1.0,False,15
A017M23,41,experiment,156,↓,left,←,0.8220621000509709,False,15
A017M23,42,experiment,144,↓,right,→,0.918394000036642,False,15
A017M23,43,experiment,12,→,right,→,0.9780185999115929,True,15
A017M23,44,experiment,36,↓,down,↓,0.5860237999586388,True,15
A017M23,45,experiment,180,→,right,→,0.6675834999186918,True,15
A017M23,46,experiment,120,→,right,→,0.6112069999799132,True,15
A017M23,47,experiment,156,↓,down,↓,0.5882712000748143,True,15
A017M23,48,experiment,96,→,left,←,0.7164160000393167,False,15
A017M23,49,experiment,144,→,right,→,0.629904399975203,True,15
A017M23,50,experiment,72,↓,down,↓,0.5158591999206692,True,15
A017M23,51,experiment,168,↓,left,←,0.8145649000070989,False,15
A017M23,52,experiment,60,→,right,→,0.5915556000545621,True,15
A017M23,53,experiment,72,→,right,→,0.46106240001972765,True,15
A017M23,54,experiment,108,←,left,←,0.5286463999655098,True,15
A017M23,55,experiment,48,↓,right,→,0.9868951999815181,False,15
A017M23,56,experiment,108,↑,left,←,0.5955965999746695,False,15
A017M23,57,experiment,12,→,left,←,1.0145641999552026,False,15
A017M23,58,experiment,168,↑,up,↑,1.5369466999545693,True,15
A017M23,59,experiment,72,→,right,→,0.6353909999597818,True,15
A017M23,60,experiment,36,→,left,←,0.7099118999904022,False,15
A017M23,61,experiment,60,←,right,→,0.6655093999579549,False,15
A017M23,62,experiment,60,↑,left,←,0.7778551999945194,False,15
A017M23,63,experiment,84,→,right,→,0.6239899999927729,True,15
A017M23,64,experiment,60,↓,left,←,1.1453564000548795,False,15
A017M23,65,experiment,132,→,right,→,1.0349652000004426,True,15
A017M23,66,experiment,36,↑,left,←,0.9173247000435367,False,15
A017M23,67,experiment,120,↑,up,↑,1.3340791000518948,True,15
A017M23,68,experiment,12,↑,up,↑,0.7528180999215692,True,15
A017M23,69,experiment,48,↑,up,↑,1.2386574000120163,True,15
A017M23,70,experiment,96,←,left,←,0.6112001999281347,True,15
A017M23,71,experiment,72,↑,right,→,0.9979006999637932,False,15
A017M23,72,experiment,12,↑,left,←,0.8230949999997392,False,15
A017M23,73,experiment,84,←,left,←,0.5706772999837995,True,15
A017M23,74,experiment,144,→,right,→,0.6965775999706239,True,15
A017M23,75,experiment,48,←,left,←,0.6565368000883609,True,15
A017M23,76,experiment,96,→,right,→,0.5372417999897152,True,15
A017M23,77,experiment,120,↑,no_key,no_letter,-1.0,False,15
A017M23,78,experiment,24,↓,down,↓,0.9614358999533579,True,15
A017M23,79,experiment,180,↑,up,↑,1.0386103999335319,True,15
A017M23,80,experiment,180,→,right,→,0.6257664000149816,True,15
A017M23,81,experiment,96,↓,down,↓,0.5445730000501499,True,15
A017M23,82,experiment,108,→,left,←,0.5794857000000775,False,15
A017M23,83,experiment,168,↑,up,↑,0.8521680000703782,True,15
A017M23,84,experiment,84,↓,right,→,0.8681155999656767,False,15
A017M23,85,experiment,156,↓,left,←,0.7199274000013247,False,15
A017M23,86,experiment,132,↓,down,↓,0.5930440999800339,True,15
A017M23,87,experiment,108,↑,left,←,0.9204562000231817,False,15
A017M23,88,experiment,156,↓,down,↓,0.9182530000107363,True,15
A017M23,89,experiment,168,↓,left,←,0.8993566000135615,False,15
A017M23,90,experiment,48,↓,up,↑,0.9937639998970553,False,15
A017M23,91,experiment,132,→,up,↑,1.2623727000318468,False,15
A017M23,92,experiment,24,↑,left,←,0.9950657000299543,False,15
A017M23,93,experiment,132,→,right,→,1.19078109995462,True,15
A017M23,94,training,36,←,left,←,0.6707908998942003,True,16
A017M23,95,training,84,→,left,←,1.033820900018327,False,16
A017M23,96,training,84,↑,up,↑,0.7739239000948146,True,16
A017M23,97,experiment,180,↑,up,↑,0.684624700108543,True,16
A017M23,98,experiment,168,←,left,←,0.8862519999966025,True,16
A017M23,99,experiment,72,↑,up,↑,0.7732399000087753,True,16
A017M23,100,experiment,72,↓,right,→,1.270289900014177,False,16
A017M23,101,experiment,168,↓,down,↓,0.6482876999070868,True,16
A017M23,102,experiment,108,↓,up,↑,0.8701181999640539,False,16
A017M23,103,experiment,108,←,left,←,0.9760408999864012,True,16
A017M23,104,experiment,24,↑,no_key,no_letter,-1.0,False,16
A017M23,105,experiment,12,↓,up,↑,0.9626985999057069,False,16
A017M23,106,experiment,120,→,left,←,0.7451669999863952,False,16
A017M23,107,experiment,36,↑,up,↑,0.8577691999962553,True,16
A017M23,108,experiment,36,→,left,←,0.7726396999787539,False,16
A017M23,109,experiment,36,←,left,←,0.8351804999401793,True,16
A017M23,110,experiment,60,←,right,→,0.873222199967131,False,16
A017M23,111,experiment,12,←,left,←,0.8514473000541329,True,16
A017M23,112,experiment,120,←,up,↑,1.7424273999640718,False,16
A017M23,113,experiment,96,↓,right,→,0.7874872999964282,False,16
A017M23,114,experiment,48,↑,down,↓,0.9577229000860825,False,16
A017M23,115,experiment,60,→,right,→,0.5900503000011668,True,16
A017M23,116,experiment,12,←,left,←,0.7543441000161693,True,16
A017M23,117,experiment,132,←,right,→,0.5825315000256523,False,16
A017M23,118,experiment,96,↑,up,↑,0.6896896000253037,True,16
A017M23,119,experiment,72,→,left,←,0.656265199999325,False,16
A017M23,120,experiment,168,↑,right,→,1.0832510000327602,False,16
A017M23,121,experiment,180,↑,up,↑,0.6523277999367565,True,16
A017M23,122,experiment,180,→,left,←,0.5497566999401897,False,16
A017M23,123,experiment,156,→,right,→,0.47492419998161495,True,16
A017M23,124,experiment,108,→,right,→,0.6587963999481872,True,16
A017M23,125,experiment,144,↓,left,←,0.7536577000282705,False,16
A017M23,126,experiment,144,↓,left,←,1.021539599983953,False,16
A017M23,127,experiment,48,→,down,↓,1.051876200013794,False,16
A017M23,128,experiment,84,←,up,↑,0.928507799981162,False,16
A017M23,129,experiment,84,←,left,←,0.6369754000334069,True,16
A017M23,130,experiment,96,↓,down,↓,0.8238070999504998,True,16
A017M23,131,experiment,24,↓,up,↑,0.8633262999355793,False,16
A017M23,132,experiment,132,↓,down,↓,0.6704157999483868,True,16
A017M23,133,experiment,168,←,left,←,0.5057620999868959,True,16
A017M23,134,experiment,72,↑,up,↑,0.6343520999653265,True,16
A017M23,135,experiment,48,↑,down,↓,0.8381888000294566,False,16
A017M23,136,experiment,36,←,left,←,0.5509937000460923,True,16
A017M23,137,experiment,12,→,right,→,0.6794388999696821,True,16
A017M23,138,experiment,24,←,left,←,0.5187580999918282,True,16
A017M23,139,experiment,156,↓,down,↓,0.526244799955748,True,16
A017M23,140,experiment,108,↑,down,↓,1.085631599999033,False,16
A017M23,141,experiment,120,↓,left,←,0.5513289999216795,False,16
A017M23,142,experiment,48,↑,right,→,0.683400799985975,False,16
A017M23,143,experiment,156,→,left,←,0.7446559000527486,False,16
A017M23,144,experiment,60,↑,down,↓,1.0658785999985412,False,16
A017M23,145,experiment,84,←,right,→,0.6279012000886723,False,16
A017M23,146,experiment,24,←,up,↑,0.8437860000412911,False,16
A017M23,147,experiment,120,↑,up,↑,1.0970654000993818,True,16
A017M23,148,experiment,144,←,left,←,0.5781617999309674,True,16
A017M23,149,experiment,180,←,down,↓,1.1323848000029102,False,16
A017M23,150,experiment,144,←,right,→,0.6063371000345796,False,16
A017M23,151,experiment,96,←,right,→,1.0019119000062346,False,16
A017M23,152,experiment,84,↓,up,↑,0.82328749995213,False,16
A017M23,153,experiment,132,↓,down,↓,1.0050637999083847,True,16
A017M23,154,experiment,60,→,left,←,0.8475564999971539,False,16
A017M23,155,experiment,132,←,right,→,0.4485772999469191,False,16
A017M23,156,experiment,156,←,right,→,0.7736237000208348,False,16
A017M23,157,training,72,→,left,←,0.49329140002373606,False,17
A017M23,158,training,72,←,left,←,0.4634909000014886,True,17
A017M23,159,training,144,↓,up,↑,0.864054900011979,False,17
A017M23,160,experiment,84,→,left,←,0.7892234000610188,False,17
A017M23,161,experiment,48,↓,down,↓,0.8643639000365511,True,17
A017M23,162,experiment,36,↑,up,↑,0.6288910999428481,True,17
A017M23,163,experiment,132,←,right,→,0.6026789000025019,False,17
A017M23,164,experiment,180,↑,left,←,0.8390884000109509,False,17
A017M23,165,experiment,48,↓,right,→,0.7254611999960616,False,17
A017M23,166,experiment,144,↑,up,↑,0.6302025999175385,True,17
A017M23,167,experiment,180,→,right,→,0.6535935999127105,True,17
A017M23,168,experiment,72,→,right,→,0.6870794000569731,True,17
A017M23,169,experiment,36,←,right,→,0.7720703999511898,False,17
A017M23,170,experiment,24,↑,up,↑,0.5413156000431627,True,17
A017M23,171,experiment,132,←,left,←,0.6140999000053853,True,17
A017M23,172,experiment,180,↓,up,↑,0.8551896999124438,False,17
A017M23,173,experiment,48,→,right,→,0.5706279999576509,True,17
A017M23,174,experiment,120,→,left,←,0.5928185998927802,False,17
A017M23,175,experiment,108,↑,up,↑,1.3883333000121638,True,17
A017M23,176,experiment,120,↑,right,→,0.8105923999100924,False,17
A017M23,177,experiment,108,↑,left,←,0.7578491999302059,False,17
A017M23,178,experiment,12,↓,down,↓,0.5776960999937728,True,17
A017M23,179,experiment,132,↑,up,↑,0.7901967000216246,True,17
A017M23,180,experiment,156,←,left,←,0.504891199991107,True,17
A017M23,181,experiment,60,↓,down,↓,0.8393778000026941,True,17
A017M23,182,experiment,72,←,right,→,0.8419441999867558,False,17
A017M23,183,experiment,108,←,right,→,0.6489469999214634,False,17
A017M23,184,experiment,120,→,no_key,no_letter,-1.0,False,17
A017M23,185,experiment,156,←,down,↓,0.825363100040704,False,17
A017M23,186,experiment,48,←,left,←,0.5746720999013633,True,17
A017M23,187,experiment,72,↑,up,↑,0.5417358999839053,True,17
A017M23,188,experiment,84,←,left,←,0.6547259000362828,True,17
A017M23,189,experiment,96,↓,down,↓,0.7211818000068888,True,17
A017M23,190,experiment,24,←,down,↓,0.9201306999893859,False,17
A017M23,191,experiment,132,↑,up,↑,0.6347668999806046,True,17
A017M23,192,experiment,156,←,left,←,0.869395500048995,True,17
A017M23,193,experiment,144,↑,up,↑,0.56768610002473,True,17
A017M23,194,experiment,168,→,left,←,0.5887275000568479,False,17
A017M23,195,experiment,156,↓,up,↑,1.486949299927801,False,17
A017M23,196,experiment,60,↑,down,↓,0.8751414000289515,False,17
A017M23,197,experiment,12,→,right,→,0.7123404999729246,True,17
A017M23,198,experiment,12,↑,left,←,0.8331846999935806,False,17
A017M23,199,experiment,168,↑,up,↑,0.6130148000083864,True,17
A017M23,200,experiment,36,→,left,←,0.7369925000239164,False,17
A017M23,201,experiment,180,↑,right,→,1.0922156000742689,False,17
A017M23,202,experiment,24,→,right,→,0.5730013999855146,True,17
A017M23,203,experiment,144,←,left,←,0.5688513000495732,True,17
A017M23,204,experiment,168,←,no_key,no_letter,-1.0,False,17
A017M23,205,experiment,72,↑,up,↑,1.0706363000208512,True,17
A017M23,206,experiment,96,↓,up,↑,0.7721014000708237,False,17
A017M23,207,experiment,36,↓,down,↓,0.6787257000105456,True,17
A017M23,208,experiment,108,↓,down,↓,0.6663988999789581,True,17
A017M23,209,experiment,120,↓,up,↑,0.7584784999489784,False,17
A017M23,210,experiment,96,←,left,←,0.47861140000168234,True,17
A017M23,211,experiment,144,↑,up,↑,0.5473437000764534,True,17
A017M23,212,experiment,60,←,left,←,0.5095796000678092,True,17
A017M23,213,experiment,60,←,right,→,0.6341122000012547,False,17
A017M23,214,experiment,84,↑,up,↑,1.2283838000148535,True,17
A017M23,215,experiment,84,←,no_key,no_letter,-1.0,False,17
A017M23,216,experiment,96,→,right,→,0.4643154999939725,True,17
A017M23,217,experiment,24,↑,left,←,0.7153571000089869,False,17
A017M23,218,experiment,12,↓,up,↑,1.013464399962686,False,17
A017M23,219,experiment,168,↑,up,↑,0.7996062999591231,True,17
A017M23,220,training,120,↓,down,↓,0.6651637000031769,True,18
A017M23,221,training,108,→,left,←,0.6695105000399053,False,18
A017M23,222,training,144,→,left,←,0.572965000057593,False,18
A017M23,223,experiment,48,←,right,→,0.6794004000257701,False,18
A017M23,224,experiment,84,↓,left,←,0.9897996999789029,False,18
A017M23,225,experiment,108,↓,down,↓,0.9011713000945747,True,18
A017M23,226,experiment,48,←,left,←,1.0501990000484511,True,18
A017M23,227,experiment,12,↓,down,↓,0.6837148000486195,True,18
A017M23,228,experiment,180,↑,left,←,0.7402778000105172,False,18
A017M23,229,experiment,84,→,right,→,0.6120157999685034,True,18
A017M23,230,experiment,168,←,left,←,0.752419599913992,True,18
A017M23,231,experiment,48,←,right,→,0.7135661999927834,False,18
A017M23,232,experiment,108,→,right,→,0.5763700000243261,True,18
A017M23,233,experiment,168,→,right,→,0.6514139999635518,True,18
A017M23,234,experiment,96,→,left,←,0.6870946999406442,False,18
A017M23,235,experiment,36,→,down,↓,0.7571310000494123,False,18
A017M23,236,experiment,156,↓,down,↓,1.3113001000601798,True,18
A017M23,237,experiment,132,↓,down,↓,0.659385799895972,True,18
A017M23,238,experiment,144,←,left,←,0.859091900056228,True,18
A017M23,239,experiment,168,→,no_key,no_letter,-1.0,False,18
A017M23,240,experiment,60,↓,up,↑,1.1588702999288216,False,18
A017M23,241,experiment,120,↓,down,↓,0.924937600037083,True,18
A017M23,242,experiment,132,↑,left,←,1.2134968999307603,False,18
A017M23,243,experiment,168,←,right,→,0.47804269997868687,False,18
A017M23,244,experiment,156,↓,down,↓,0.8349357999395579,True,18
A017M23,245,experiment,72,←,down,↓,1.239219899987802,False,18
A017M23,246,experiment,132,↓,down,↓,0.8006205999990925,True,18
A017M23,247,experiment,96,↓,right,→,0.7819689000025392,False,18
A017M23,248,experiment,120,↓,left,←,0.8237806999823079,False,18
A017M23,249,experiment,12,←,right,→,0.9914893000386655,False,18
A017M23,250,experiment,72,↓,down,↓,1.0736809999216348,True,18
A017M23,251,experiment,144,↑,up,↑,0.8105563999852166,True,18
A017M23,252,experiment,24,↑,up,↑,0.7391134999925271,True,18
A017M23,253,experiment,60,↓,left,←,0.9350905000464991,False,18
A017M23,254,experiment,12,←,no_key,no_letter,-1.0,False,18
A017M23,255,experiment,84,→,right,→,0.6803283999906853,True,18
A017M23,256,experiment,84,↑,left,←,0.8212200000416487,False,18
A017M23,257,experiment,156,↓,down,↓,0.8101744999876246,True,18
A017M23,258,experiment,144,←,left,←,0.7662531000096351,True,18
A017M23,259,experiment,144,↓,right,→,1.0220447999890894,False,18
A017M23,260,experiment,120,↓,down,↓,0.6462095999158919,True,18
A017M23,261,experiment,60,←,left,←,0.5756821999093518,True,18
A017M23,262,experiment,180,←,left,←,1.1408913999330252,True,18
A017M23,263,experiment,24,↑,right,→,0.9328787999693304,False,18
A017M23,264,experiment,180,↑,up,↑,0.6710209000157192,True,18
A017M23,265,experiment,108,←,left,←,0.6931470999261364,True,18
A017M23,266,experiment,180,↓,down,↓,0.6034486000426114,True,18
A017M23,267,experiment,60,↑,left,←,0.8452223999192938,False,18
A017M23,268,experiment,36,→,right,→,0.6459155000047758,True,18
A017M23,269,experiment,72,→,left,←,0.8357877999078482,False,18
A017M23,270,experiment,120,→,left,←,1.294933999888599,False,18
A017M23,271,experiment,72,←,left,←,0.7041444999631494,True,18
A017M23,272,experiment,24,→,right,→,1.4290272999787703,True,18
A017M23,273,experiment,132,↓,down,↓,0.611503400024958,True,18
A017M23,274,experiment,108,←,left,←,0.4758861999725923,True,18
A017M23,275,experiment,12,↑,up,↑,0.8251119999913499,True,18
A017M23,276,experiment,24,↓,right,→,0.7422192000085488,False,18
A017M23,277,experiment,156,↑,up,↑,0.6597076000180095,True,18
A017M23,278,experiment,36,→,left,←,0.8286674000555649,False,18
A017M23,279,experiment,96,↓,down,↓,1.0835375000024214,True,18
A017M23,280,experiment,48,←,left,←,0.7554240999743342,True,18
A017M23,281,experiment,36,←,right,→,0.8498880999395624,False,18
A017M23,282,experiment,96,→,left,←,0.7589368999470025,False,18
A017M23,283,training,108,↑,up,↑,1.4118652999168262,True,18
A017M23,284,training,72,↑,up,↑,0.5305433000903577,True,18
A017M23,285,training,24,↑,left,←,0.7619937000563368,False,18
A017M23,286,experiment,156,→,left,←,0.8435349999926984,False,18
A017M23,287,experiment,132,↑,up,↑,0.8280681999167427,True,18
A017M23,288,experiment,36,←,right,→,0.577718099928461,False,18
A017M23,289,experiment,120,↓,left,←,1.0861625999677926,False,18
A017M23,290,experiment,120,→,down,↓,0.6600882000057027,False,18
A017M23,291,experiment,132,←,left,←,0.6914111999794841,True,18
A017M23,292,experiment,96,↓,up,↑,0.6352771999081597,False,18
A017M23,293,experiment,36,↑,right,→,0.8451750000240281,False,18
A017M23,294,experiment,156,←,left,←,0.5919370000483468,True,18
A017M23,295,experiment,108,←,no_key,no_letter,-1.0,False,18
A017M23,296,experiment,12,←,right,→,0.6999447999987751,False,18
A017M23,297,experiment,168,↓,left,←,0.5308537000091746,False,18
A017M23,298,experiment,120,→,right,→,0.5121635999530554,True,18
A017M23,299,experiment,156,←,no_key,no_letter,-1.0,False,18
A017M23,300,experiment,168,↑,up,↑,0.569153800024651,True,18
A017M23,301,experiment,132,↑,up,↑,0.5635059999767691,True,18
A017M23,302,experiment,180,←,left,←,0.4845864000963047,True,18
A017M23,303,experiment,168,←,left,←,0.862164800055325,True,18
A017M23,304,experiment,144,→,right,→,0.5521498000016436,True,18
A017M23,305,experiment,72,↑,left,←,0.5302029000595212,False,18
A017M23,306,experiment,108,↓,down,↓,0.641143299988471,True,18
A017M23,307,experiment,12,↑,no_key,no_letter,-1.0,False,18
A017M23,308,experiment,180,↑,up,↑,0.9137212999630719,True,18
A017M23,309,experiment,96,↑,right,→,0.5486865000566468,False,18
A017M23,310,experiment,84,→,up,↑,0.998092700028792,False,18
A017M23,311,experiment,144,←,down,↓,1.1891480999765918,False,18
A017M23,312,experiment,120,→,left,←,0.7122714000288397,False,18
A017M23,313,experiment,24,→,right,→,0.8230493000010028,True,18
A017M23,314,experiment,96,↓,down,↓,0.8842552999267355,True,18
A017M23,315,experiment,180,←,right,→,0.5905553000047803,False,18
A017M23,316,experiment,24,←,left,←,0.8349947000388056,True,18
A017M23,317,experiment,60,→,right,→,0.7765238999854773,True,18
A017M23,318,experiment,168,→,right,→,0.5650862999027595,True,18
A017M23,319,experiment,84,↑,up,↑,0.6603719000704587,True,18
A017M23,320,experiment,48,↑,up,↑,0.72022489993833,True,18
A017M23,321,experiment,108,↓,left,←,1.0300504000624642,False,18
A017M23,322,experiment,156,↑,up,↑,0.6029971999814734,True,18
A017M23,323,experiment,144,↓,down,↓,0.7646537999389693,True,18
A017M23,324,experiment,60,↓,left,←,1.0090546000283211,False,18
A017M23,325,experiment,36,↑,right,→,0.7352640000171959,False,18
A017M23,326,experiment,132,→,left,←,0.6354184999363497,False,18
A017M23,327,experiment,84,←,left,←,1.2138149999082088,True,18
A017M23,328,experiment,72,←,left,←,0.7064689999679103,True,18
A017M23,329,experiment,180,→,right,→,0.8780278000049293,True,18
A017M23,330,experiment,12,↑,left,←,0.9231264999834821,False,18
A017M23,331,experiment,60,←,left,←,0.5328935000579804,True,18
A017M23,332,experiment,48,↓,up,↑,0.6918403999879956,False,18
A017M23,333,experiment,48,↑,up,↑,0.6230571999913082,True,18
A017M23,334,experiment,144,←,left,←,0.7024000999517739,True,18
A017M23,335,experiment,72,→,right,→,0.5941731999628246,True,18
A017M23,336,experiment,24,→,right,→,0.43369780003558844,True,18
A017M23,337,experiment,12,↑,left,←,0.8717692999634892,False,18
A017M23,338,experiment,48,←,left,←,0.6653188000200316,True,18
A017M23,339,experiment,72,↑,up,↑,0.7508406999986619,True,18
A017M23,340,experiment,84,←,left,←,0.6154695000732318,True,18
A017M23,341,experiment,108,↓,down,↓,0.7359167999820784,True,18
A017M23,342,experiment,24,↓,up,↑,0.7514948000898585,False,18
A017M23,343,experiment,36,→,left,←,0.5413857999956235,False,18
A017M23,344,experiment,60,↓,down,↓,0.6388446999480948,True,18
A017M23,345,experiment,96,↓,down,↓,0.663797500077635,True,18
A017M23,346,training,144,→,right,→,0.7150016999803483,True,18
A017M23,347,training,60,←,left,←,0.5420850999653339,True,18
A017M23,348,training,48,←,right,→,0.6780285000568256,False,18
A017M23,349,experiment,168,↑,up,↑,0.905742899980396,True,18
A017M23,350,experiment,60,↓,down,↓,1.0457334999227896,True,18
A017M23,351,experiment,180,←,left,←,0.8743552999803796,True,18
A017M23,352,experiment,144,→,right,→,0.48658679996151477,True,18
A017M23,353,experiment,48,↑,left,←,0.6037245999323204,False,18
A017M23,354,experiment,96,↑,down,↓,0.7770018000155687,False,18
A017M23,355,experiment,60,→,left,←,0.755426499992609,False,18
A017M23,356,experiment,120,←,up,↑,0.7963773000519723,False,18
A017M23,357,experiment,108,→,right,→,0.7259508999995887,True,18
A017M23,358,experiment,156,←,no_key,no_letter,-1.0,False,18
A017M23,359,experiment,24,←,left,←,0.546999100013636,True,18
A017M23,360,experiment,48,↑,up,↑,0.6153437999309972,True,18
A017M23,361,experiment,12,↑,up,↑,0.5756740999640897,True,18
A017M23,362,experiment,120,→,right,→,0.7075723999878392,True,18
A017M23,363,experiment,96,↑,up,↑,0.47075090010184795,True,18
A017M23,364,experiment,36,↓,left,←,0.5751098000910133,False,18
A017M23,365,experiment,24,←,right,→,0.8583354000002146,False,18
A017M23,366,experiment,132,←,left,←,0.687881899997592,True,18
A017M23,367,experiment,156,→,right,→,0.9481458000373095,True,18
A017M23,368,experiment,12,↑,left,←,0.6686838999157771,False,18
A017M23,369,experiment,84,→,right,→,0.6489255999913439,True,18
A017M23,370,experiment,120,←,left,←,0.6771336999954656,True,18
A017M23,371,experiment,36,↑,up,↑,0.622859499999322,True,18
A017M23,372,experiment,144,←,left,←,0.6906259999377653,True,18
A017M23,373,experiment,96,→,right,→,0.4818640999728814,True,18
A017M23,374,experiment,60,↑,left,←,0.46957539999857545,False,18
A017M23,375,experiment,144,↑,right,→,0.5086402000160888,False,18
A017M23,376,experiment,168,→,right,→,0.7459507000166923,True,18
A017M23,377,experiment,132,←,no_key,no_letter,-1.0,False,18
A017M23,378,experiment,108,↓,right,→,1.0892263000132516,False,18
A017M23,379,experiment,180,←,left,←,0.8248337000841275,True,18
A017M23,380,experiment,180,↑,up,↑,0.8114506000420079,True,18
A017M23,381,experiment,72,←,left,←,0.5429681000532582,True,18
A017M23,382,experiment,24,→,right,→,0.983826500014402,True,18
A017M23,383,experiment,84,↓,down,↓,0.7386059999698773,True,18
A017M23,384,experiment,156,→,right,→,0.5758166000014171,True,18
A017M23,385,experiment,84,→,left,←,0.5091645000502467,False,18
A017M23,386,experiment,132,↑,up,↑,0.6781988999573514,True,18
A017M23,387,experiment,168,→,right,→,0.5323723000474274,True,18
A017M23,388,experiment,108,←,left,←,0.7857418999774382,True,18
A017M23,389,experiment,84,↓,right,→,0.8930185999488458,False,18
A017M23,390,experiment,180,→,right,→,0.5987858000444248,True,18
A017M23,391,experiment,144,↑,up,↑,0.6758886000607163,True,18
A017M23,392,experiment,60,↑,up,↑,1.6996193999657407,True,18
A017M23,393,experiment,156,↑,no_key,no_letter,-1.0,False,18
A017M23,394,experiment,48,←,right,→,0.6821147999726236,False,18
A017M23,395,experiment,36,↑,left,←,0.6658995000179857,False,18
A017M23,396,experiment,72,↑,up,↑,0.6538927999790758,True,18
A017M23,397,experiment,36,←,right,→,1.032268200069666,False,18
A017M23,398,experiment,72,↓,up,↑,0.6894746000180021,False,18
A017M23,399,experiment,72,←,left,←,1.1356178000569344,True,18
A017M23,400,experiment,120,↓,down,↓,0.6460826999973506,True,18
A017M23,401,experiment,12,↓,up,↑,0.6667129000416026,False,18
A017M23,402,experiment,48,←,right,→,0.6097588998964056,False,18
A017M23,403,experiment,108,→,right,→,0.5272970000514761,True,18
A017M23,404,experiment,132,→,right,→,0.5696401000022888,True,18
A017M23,405,experiment,168,←,no_key,no_letter,-1.0,False,18
A017M23,406,experiment,24,↓,right,→,1.1051521000918,False,18
A017M23,407,experiment,96,→,right,→,0.9114520000293851,True,18
A017M23,408,experiment,12,↑,left,←,0.6760816000169143,False,18
A017M23,409,training,180,←,left,←,0.4853271000320092,True,18
A017M23,410,training,120,←,right,→,0.5299102999269962,False,18
A017M23,411,training,72,↓,right,→,0.8128837000112981,False,18
A017M23,412,experiment,48,→,left,←,0.5489526999881491,False,18
A017M23,413,experiment,144,↑,up,↑,1.4918679000111297,True,18
A017M23,414,experiment,24,←,right,→,0.8024768999312073,False,18
A017M23,415,experiment,144,←,left,←,0.7488179999636486,True,18
A017M23,416,experiment,168,↑,up,↑,0.908909699996002,True,18
A017M23,417,experiment,144,←,left,←,0.5975886000087485,True,18
A017M23,418,experiment,168,←,left,←,0.6461180000333115,True,18
A017M23,419,experiment,48,→,right,→,1.0682415999472141,True,18
A017M23,420,experiment,96,↓,down,↓,0.6860525000374764,True,18
A017M23,421,experiment,96,←,left,←,0.8301122999982908,True,18
A017M23,422,experiment,120,↓,down,↓,0.7424740999704227,True,18
A017M23,423,experiment,72,←,right,→,0.669116499950178,False,18
A017M23,424,experiment,84,↓,down,↓,0.6802292999345809,True,18
A017M23,425,experiment,180,↓,down,↓,0.5515968000981957,True,18
A017M23,426,experiment,84,↑,down,↓,0.6727771000005305,False,18
A017M23,427,experiment,168,↑,right,→,1.1230876999907196,False,18
A017M23,428,experiment,156,←,left,←,0.5954618999967352,True,18
A017M23,429,experiment,60,↓,up,↑,0.7178768999874592,False,18
A017M23,430,experiment,156,←,left,←,0.6168450000695884,True,18
A017M23,431,experiment,132,→,right,→,0.5033088999334723,True,18
A017M23,432,experiment,48,↓,down,↓,0.9267141999443993,True,18
A017M23,433,experiment,60,←,left,←,0.5189236999722198,True,18
A017M23,434,experiment,132,↓,left,←,1.262441600090824,False,18
A017M23,435,experiment,12,↓,up,↑,0.8430565999587998,False,18
A017M23,436,experiment,120,←,right,→,0.6432907999260351,False,18
A017M23,437,experiment,72,←,right,→,0.8409282000502571,False,18
A017M23,438,experiment,12,↑,down,↓,0.601782500045374,False,18
A017M23,439,experiment,180,↑,left,←,1.081097900052555,False,18
A017M23,440,experiment,108,↓,up,↑,0.9466573999961838,False,18
A017M23,441,experiment,84,←,left,←,0.47040299989748746,True,18
A017M23,442,experiment,12,→,right,→,0.6959976999787614,True,18
A017M23,443,experiment,132,↓,left,←,0.5518941000336781,False,18
A017M23,444,experiment,156,→,right,→,0.7359105000505224,True,18
A017M23,445,experiment,36,→,right,→,0.9752353000221774,True,18
A017M23,446,experiment,24,↓,up,↑,1.078808700083755,False,18
A017M23,447,experiment,96,←,left,←,0.5802069999044761,True,18
A017M23,448,experiment,108,←,up,↑,1.12182220001705,False,18
A017M23,449,experiment,84,←,left,←,0.7182268000906333,True,18
A017M23,450,experiment,168,↓,down,↓,0.7006889000767842,True,18
A017M23,451,experiment,36,←,left,←,0.5289209999609739,True,18
A017M23,452,experiment,72,→,right,→,0.9536013000179082,True,18
A017M23,453,experiment,48,↑,up,↑,0.6839308000635356,True,18
A017M23,454,experiment,144,←,no_key,no_letter,-1.0,False,18
A017M23,455,experiment,24,→,right,→,0.7031254000030458,True,18
A017M23,456,experiment,132,→,right,→,0.6206324000377208,True,18
A017M23,457,experiment,180,←,no_key,no_letter,-1.0,False,18
A017M23,458,experiment,12,↑,up,↑,0.8404612999875098,True,18
A017M23,459,experiment,36,↑,right,→,1.0171045999741182,False,18
A017M23,460,experiment,96,↓,up,↑,0.8087794999592006,False,18
A017M23,461,experiment,24,↓,down,↓,1.3780018999241292,True,18
A017M23,462,experiment,108,↓,down,↓,1.1173455000389367,True,18
A017M23,463,experiment,120,→,right,→,0.5823189000366256,True,18
A017M23,464,experiment,120,→,no_key,no_letter,-1.0,False,18
A017M23,465,experiment,60,↑,right,→,1.0188552000327036,False,18
A017M23,466,experiment,60,→,right,→,0.5915053999051452,True,18
A017M23,467,experiment,156,↑,up,↑,0.7195330000249669,True,18
A017M23,468,experiment,108,↑,up,↑,0.668112900108099,True,18
A017M23,469,experiment,36,→,right,→,0.7327718999003991,True,18
A017M23,470,experiment,72,↑,up,↑,0.6468310999916866,True,18
A017M23,471,experiment,180,↓,down,↓,0.7687328000320122,True,18
A017M23,472,training,84,←,left,←,0.6142278000479564,True,18
A017M23,473,training,168,←,right,→,0.5158975999802351,False,18
A017M23,474,training,36,→,right,→,0.6283583999611437,True,18
A017M23,475,experiment,180,←,left,←,0.43401089997496456,True,18
A017M23,476,experiment,180,←,right,→,0.6075841999845579,False,18
A017M23,477,experiment,120,←,left,←,0.7708331999601796,True,18
A017M23,478,experiment,108,←,left,←,0.5872393000172451,True,18
A017M23,479,experiment,96,↑,up,↑,0.657374499947764,True,18
A017M23,480,experiment,120,→,left,←,0.5172714999644086,False,18
A017M23,481,experiment,60,↑,down,↓,1.2282436999958009,False,18
A017M23,482,experiment,96,←,left,←,0.5465783000690863,True,18
A017M23,483,experiment,24,→,left,←,0.5724830999970436,False,18
A017M23,484,experiment,36,↑,up,↑,0.5318957000272349,True,18
A017M23,485,experiment,36,↑,right,→,0.5785635999636725,False,18
A017M23,486,experiment,36,↑,up,↑,0.7786533000180498,True,18
A017M23,487,experiment,132,↓,up,↑,0.8680504000512883,False,18
A017M23,488,experiment,96,↓,up,↑,0.6596111999824643,False,18
A017M23,489,experiment,72,↓,down,↓,0.9199824999086559,True,18
A017M23,490,experiment,12,↓,down,↓,1.033669300028123,True,18
A017M23,491,experiment,144,→,right,→,0.6814446999924257,True,18
A017M23,492,experiment,108,←,no_key,no_letter,-1.0,False,18
A017M23,493,experiment,72,←,right,→,0.7226500000106171,False,18
A017M23,494,experiment,120,↓,up,↑,0.7472224000375718,False,18
A017M23,495,experiment,12,→,left,←,0.975954599911347,False,18
A017M23,496,experiment,60,←,left,←,0.47324860002845526,True,18
A017M23,497,experiment,48,←,right,→,0.5666957000503317,False,18
A017M23,498,experiment,180,↓,down,↓,0.6454683999763802,True,18
A017M23,499,experiment,48,↓,up,↑,0.5693618999794126,False,18
A017M23,500,experiment,144,←,right,→,0.6370670000324026,False,18
A017M23,501,experiment,60,↓,right,→,1.4052021000534296,False,18
A017M23,502,experiment,132,→,right,→,0.601841300027445,True,18
A017M23,503,experiment,180,→,left,←,0.40031709999311715,False,18
A017M23,504,experiment,24,↑,down,↓,1.5552254000212997,False,18
A017M23,505,experiment,156,→,right,→,0.6469475999474525,True,18
A017M23,506,experiment,24,←,right,→,0.540193900000304,False,18
A017M23,507,experiment,132,↑,up,↑,0.601338200038299,True,18
A017M23,508,experiment,84,↑,up,↑,0.8659070999128744,True,18
A017M23,509,experiment,168,←,left,←,0.5377096000593156,True,18
A017M23,510,experiment,12,↓,down,↓,0.7496242000488564,True,18
A017M23,511,experiment,156,→,left,←,0.4338083000620827,False,18
A017M23,512,experiment,168,↓,right,→,0.7661839999491349,False,18
A017M23,513,experiment,168,→,right,→,1.0303083000471815,True,18
A017M23,514,experiment,168,↓,down,↓,0.7145232000621036,True,18
A017M23,515,experiment,72,←,left,←,0.6454407999990508,True,18
A017M23,516,experiment,144,↓,down,↓,0.8925132999429479,True,18
A017M23,517,experiment,132,→,left,←,0.9700209000147879,False,18
A017M23,518,experiment,60,←,right,→,0.9237359999679029,False,18
A017M23,519,experiment,72,←,left,←,0.5029662000015378,True,18
A017M23,520,experiment,12,↓,right,→,0.98970069992356,False,18
A017M23,521,experiment,144,→,right,→,0.5733188999583945,True,18
A017M23,522,experiment,120,↓,down,↓,0.6901712000835687,True,18
A017M23,523,experiment,156,↑,right,→,0.8041174999671057,False,18
A017M23,524,experiment,48,↓,up,↑,0.6664656999055296,False,18
A017M23,525,experiment,48,→,left,←,0.4736497999401763,False,18
A017M23,526,experiment,156,→,right,→,0.5584161999868229,True,18
A017M23,527,experiment,84,↑,up,↑,0.5548790999455377,True,18
A017M23,528,experiment,84,→,right,→,0.5863374000182375,True,18
A017M23,529,experiment,108,↓,right,→,1.1139091999502853,False,18
A017M23,530,experiment,96,↑,up,↑,0.749616099987179,True,18
A017M23,531,experiment,36,↑,up,↑,0.7820239000720903,True,18
A017M23,532,experiment,24,↑,up,↑,0.6031405000248924,True,18
A017M23,533,experiment,108,↑,up,↑,0.4964580999221653,True,18
A017M23,534,experiment,84,↑,right,→,0.8135915000457317,False,18
A017M23,535,training,156,→,right,→,0.6133957999991253,True,18
A017M23,536,training,180,↓,down,↓,0.9003798000048846,True,18
A017M23,537,training,108,←,right,→,0.5447599999606609,False,18
A017M23,538,experiment,168,↓,down,↓,0.8939176000421867,True,18
A017M23,539,experiment,72,→,right,→,0.5111397999571636,True,18
A017M23,540,experiment,132,→,right,→,0.5008674999698997,True,18
A017M23,541,experiment,72,→,left,←,0.5690672000637278,False,18
A017M23,542,experiment,120,↑,up,↑,0.6732701000291854,True,18
A017M23,543,experiment,180,↑,up,↑,0.5646464000456035,True,18
A017M23,544,experiment,36,↓,right,→,0.8272743999259546,False,18
A017M23,545,experiment,180,↓,up,↑,0.4994305999716744,False,18
A017M23,546,experiment,108,↓,down,↓,0.6609345999313518,True,18
A017M23,547,experiment,24,↓,down,↓,0.5158720000181347,True,18
A017M23,548,experiment,132,↑,up,↑,0.5792656999547035,True,18
A017M23,549,experiment,120,↑,right,→,0.7761693999636918,False,18
A017M23,550,experiment,36,↑,up,↑,0.8089214999927208,True,18
A017M23,551,experiment,96,→,right,→,0.5701401999685913,True,18
A017M23,552,experiment,24,←,no_key,no_letter,-1.0,False,18
A017M23,553,experiment,12,←,right,→,0.7222676000092179,False,18
A017M23,554,experiment,36,→,right,→,0.5143269000109285,True,18
A017M23,555,experiment,156,→,no_key,no_letter,-1.0,False,18
A017M23,556,experiment,48,→,right,→,0.5177951999939978,True,18
A017M23,557,experiment,132,↓,down,↓,0.7570088000502437,True,18
A017M23,558,experiment,96,→,left,←,0.6632735000457615,False,18
A017M23,559,experiment,96,↓,down,↓,0.5643862999277189,True,18
A017M23,560,experiment,108,↓,right,→,0.5911897999467328,False,18
A017M23,561,experiment,168,←,right,→,0.5245171000715345,False,18
A017M23,562,experiment,48,↓,no_key,no_letter,-1.0,False,18
A017M23,563,experiment,180,→,right,→,0.5410430000629276,True,18
A017M23,564,experiment,144,↓,down,↓,0.59529950004071,True,18
A017M23,565,experiment,144,↑,up,↑,0.5590910000028089,True,18
A017M23,566,experiment,168,→,down,↓,0.7400547999422997,False,18
A017M23,567,experiment,12,↑,right,→,1.0914880000054836,False,18
A017M23,568,experiment,156,↓,up,↑,0.7953017998952419,False,18
A017M23,569,experiment,48,↑,up,↑,1.1700966999633238,True,18
A017M23,570,experiment,60,→,left,←,1.697147099999711,False,18
A017M23,571,experiment,144,→,right,→,0.8021172999870032,True,18
A017M23,572,experiment,144,←,left,←,0.7223798000486568,True,18
A017M23,573,experiment,132,↑,up,↑,0.5162419000407681,True,18
A017M23,574,experiment,72,↓,down,↓,0.6181289999512956,True,18
A017M23,575,experiment,156,↓,right,→,0.6459259999683127,False,18
A017M23,576,experiment,60,←,right,→,0.6204494000412524,False,18
A017M23,577,experiment,84,←,left,←,0.4858158000279218,True,18
A017M23,578,experiment,180,→,right,→,0.49254069989547133,True,18
A017M23,579,experiment,24,←,no_key,no_letter,-1.0,False,18
A017M23,580,experiment,12,←,left,←,0.5782788000069559,True,18
A017M23,581,experiment,96,←,left,←,0.5562191000208259,True,18
A017M23,582,experiment,36,↑,right,→,0.9370073000900447,False,18
A017M23,583,experiment,120,←,left,←,0.4705925000598654,True,18
A017M23,584,experiment,84,↑,right,→,0.8512013000436127,False,18
A017M23,585,experiment,60,←,left,←,0.6696925999131054,True,18
A017M23,586,experiment,108,←,left,←,0.4933163000969216,True,18
A017M23,587,experiment,72,→,left,←,0.8499490999383852,False,18
A017M23,588,experiment,156,→,no_key,no_letter,-1.0,False,18
A017M23,589,experiment,168,→,left,←,0.8585230999160558,False,18
A017M23,590,experiment,60,→,right,→,0.9248213999671862,True,18
A017M23,591,experiment,84,←,no_key,no_letter,-1.0,False,18
A017M23,592,experiment,108,↑,up,↑,0.8286466000135988,True,18
A017M23,593,experiment,48,→,right,→,1.1198123000795022,True,18
A017M23,594,experiment,120,→,right,→,0.7663714999798685,True,18
A017M23,595,experiment,24,↑,up,↑,0.9700279999524355,True,18
A017M23,596,experiment,84,→,right,→,0.6799574999604374,True,18
A017M23,597,experiment,12,↓,right,→,0.8611679000314325,False,18
A017M23,598,training,108,↑,no_key,no_letter,-1.0,False,18
A017M23,599,training,48,→,right,→,1.0233790999045596,True,18
A017M23,600,training,36,↑,down,↓,1.318640899960883,False,18
A017M23,601,experiment,96,←,left,←,0.848706099903211,True,18
A017M23,602,experiment,12,←,left,←,0.47880899999290705,True,18
A017M23,603,experiment,156,↑,right,→,0.5584955000085756,False,18
A017M23,604,experiment,144,→,right,→,0.711287600104697,True,18
A017M23,605,experiment,24,↑,up,↑,0.5733437000308186,True,18
A017M23,606,experiment,180,←,left,←,0.9555040000705048,True,18
A017M23,607,experiment,12,←,left,←,0.6659874999895692,True,18
A017M23,608,experiment,72,←,left,←,0.782019600039348,True,18
A017M23,609,experiment,168,←,right,→,0.9278294000541791,False,18
A017M23,610,experiment,60,→,right,→,0.8364939999300987,True,18
A017M23,611,experiment,36,→,right,→,1.0508620999753475,True,18
A017M23,612,experiment,84,↑,up,↑,0.592102300026454,True,18
A017M23,613,experiment,108,←,left,←,1.3116518999449909,True,18
A017M23,614,experiment,96,←,left,←,0.6414432000601664,True,18
A017M23,615,experiment,96,↓,down,↓,0.8116992999566719,True,18
A017M23,616,experiment,48,→,right,→,0.6775022000074387,True,18
A017M23,617,experiment,156,↓,up,↑,0.7253268000204116,False,18
A017M23,618,experiment,132,→,right,→,0.7173624000279233,True,18
A017M23,619,experiment,48,↓,up,↑,0.7247909000143409,False,18
A017M23,620,experiment,96,↓,down,↓,0.6133437999524176,True,18
A017M23,621,experiment,120,↑,up,↑,1.2397032000590116,True,18
A017M23,622,experiment,12,→,right,→,1.1773827999131754,True,18
A017M23,623,experiment,144,→,right,→,0.6372991000534967,True,18
A017M23,624,experiment,60,↑,down,↓,0.8051162000047043,False,18
A017M23,625,experiment,84,←,right,→,0.5372578999958932,False,18
A017M23,626,experiment,180,↑,up,↑,0.6239287999924272,True,18
A017M23,627,experiment,60,↑,up,↑,0.851699799997732,True,18
A017M23,628,experiment,84,↑,left,←,1.1151829999871552,False,18
A017M23,629,experiment,36,→,left,←,0.947934600058943,False,18
A017M23,630,experiment,168,→,right,→,0.5863122999435291,True,18
A017M23,631,experiment,12,↑,right,→,0.9748623000923544,False,18
A017M23,632,experiment,72,↓,down,↓,0.8980633000610396,True,18
A017M23,633,experiment,84,←,left,←,0.5509270000038669,True,18
A017M23,634,experiment,36,↑,up,↑,0.5707804999547079,True,18
A017M23,635,experiment,48,→,right,→,0.8027581999776885,True,18
A017M23,636,experiment,168,↑,up,↑,0.69571740005631,True,18
A017M23,637,experiment,24,↓,left,←,0.6250949000241235,False,18
A017M23,638,experiment,60,↑,up,↑,0.6754336999729276,True,18
A017M23,639,experiment,120,←,right,→,0.511320500052534,False,18
A017M23,640,experiment,144,↓,down,↓,0.8531758999451995,True,18
A017M23,641,experiment,36,↑,up,↑,1.0563473000656813,True,18
A017M23,642,experiment,24,→,right,→,0.9533967999741435,True,18
A017M23,643,experiment,180,←,left,←,0.9040020999964327,True,18
A017M23,644,experiment,168,→,right,→,0.6406798999523744,True,18
A017M23,645,experiment,108,←,left,←,0.6990046999417245,True,18
A017M23,646,experiment,108,↓,down,↓,0.9484653000254184,True,18
A017M23,647,experiment,180,↑,up,↑,0.7823466000845656,True,18
A017M23,648,experiment,132,←,left,←,0.7641619999194518,True,18
A017M23,649,experiment,132,←,left,←,0.82622689998243,True,18
A017M23,650,experiment,120,→,left,←,0.737708400003612,False,18
A017M23,651,experiment,24,→,left,←,0.9286162999924272,False,18
A017M23,652,experiment,156,←,left,←,0.5810700999572873,True,18
A017M23,653,experiment,132,↓,down,↓,0.936453300062567,True,18
A017M23,654,experiment,120,↑,up,↑,0.8277616000268608,True,18
A017M23,655,experiment,72,←,left,←,0.8114457000046968,True,18
A017M23,656,experiment,156,←,left,←,0.7506015000399202,True,18
A017M23,657,experiment,108,↓,right,→,0.9026238999795169,False,18
A017M23,658,experiment,48,↑,up,↑,1.1983492999570444,True,18
A017M23,659,experiment,72,↑,up,↑,0.6488746999530122,True,18
A017M23,660,experiment,144,↓,down,↓,0.6721927999751642,True,18
A017M23,661,training,132,↑,up,↑,0.5694312000414357,True,18
A017M23,662,training,84,←,right,→,0.5403842000523582,False,18
A017M23,663,training,120,→,left,←,0.43369440000969917,False,18
A017M23,664,experiment,48,→,left,←,1.0496607000241056,False,18
A017M23,665,experiment,180,↑,up,↑,0.7880731999175623,True,18
A017M23,666,experiment,120,→,right,→,0.944594300002791,True,18
A017M23,667,experiment,180,→,right,→,1.4744671999942511,True,18
A017M23,668,experiment,96,→,left,←,1.4744376000016928,False,18
A017M23,669,experiment,72,↓,up,↑,0.9177410000702366,False,18
A017M23,670,experiment,60,↓,up,↑,0.8831394000444561,False,18
A017M23,671,experiment,120,↑,up,↑,0.650236599962227,True,18
A017M23,672,experiment,48,←,left,←,0.6058145000133663,True,18
A017M23,673,experiment,96,←,left,←,0.5478721000254154,True,18
A017M23,674,experiment,72,↓,right,→,0.6486091999104246,False,18
A017M23,675,experiment,84,↓,up,↑,0.799659900018014,False,18
A017M23,676,experiment,144,←,left,←,0.5271029999712482,True,18
A017M23,677,experiment,60,←,left,←,1.1674015000462532,True,18
A017M23,678,experiment,156,←,left,←,1.0876138999592513,True,18
A017M23,679,experiment,24,↓,right,→,0.8783596999710426,False,18
A017M23,680,experiment,36,↑,up,↑,0.5214642999926582,True,18
A017M23,681,experiment,156,←,right,→,0.616252199979499,False,18
A017M23,682,experiment,60,↓,down,↓,0.7262915000319481,True,18
A017M23,683,experiment,108,↓,down,↓,0.5353952000150457,True,18
A017M23,684,experiment,24,→,down,↓,1.2120247000129893,False,18
A017M23,685,experiment,144,→,left,←,0.5884775000158697,False,18
A017M23,686,experiment,60,↑,right,→,0.6890295000048354,False,18
A017M23,687,experiment,108,↑,up,↑,0.7415804999182001,True,18
A017M23,688,experiment,72,→,right,→,0.9667991000460461,True,18
A017M23,689,experiment,84,←,left,←,0.5125648000976071,True,18
A017M23,690,experiment,132,←,left,←,1.0564337999094278,True,18
A017M23,691,experiment,144,←,left,←,1.035847199964337,True,18
A017M23,692,experiment,48,→,left,←,0.4709376000100747,False,18
A017M23,693,experiment,96,→,right,→,0.7198112000478432,True,18
A017M23,694,experiment,108,←,right,→,0.6052944998955354,False,18
A017M23,695,experiment,48,↓,up,↑,0.6994230999844149,False,18
A017M23,696,experiment,156,←,right,→,0.6554410000098869,False,18
A017M23,697,experiment,36,←,left,←,0.6472976000513881,True,18
A017M23,698,experiment,180,←,left,←,0.5480257000308484,True,18
A017M23,699,experiment,132,↓,down,↓,0.8287612000713125,True,18
A017M23,700,experiment,24,↑,down,↓,0.8660039999522269,False,18
A017M23,701,experiment,120,↑,down,↓,0.6473662999924272,False,18
A017M23,702,experiment,144,↑,down,↓,0.7090739000122994,False,18
A017M23,703,experiment,12,←,left,←,0.7890181000111625,True,18
A017M23,704,experiment,12,→,right,→,0.6313402000814676,True,18
A017M23,705,experiment,12,→,right,→,1.3827006000792608,True,18
A017M23,706,experiment,156,←,right,→,0.5842976000858471,False,18
A017M23,707,experiment,132,→,right,→,0.614114600000903,True,18
A017M23,708,experiment,36,↑,left,←,0.7304680000524968,False,18
A017M23,709,experiment,12,←,left,←,0.626876899972558,True,18
A017M23,710,experiment,180,→,right,→,0.5860369000583887,True,18
A017M23,711,experiment,168,↑,down,↓,0.7562076000031084,False,18
A017M23,712,experiment,168,→,right,→,0.8122064999770373,True,18
A017M23,713,experiment,84,←,left,←,0.5808326000114903,True,18
A017M23,714,experiment,84,→,right,→,0.6701279999688268,True,18
A017M23,715,experiment,24,↑,up,↑,0.5589215999934822,True,18
A017M23,716,experiment,96,→,right,→,0.5064272000454366,True,18
A017M23,717,experiment,108,←,right,→,1.0420267999870703,False,18
A017M23,718,experiment,132,←,up,↑,0.855499199940823,False,18
A017M23,719,experiment,120,→,right,→,0.6432868000119925,True,18
A017M23,720,experiment,168,↑,up,↑,0.5088581000454724,True,18
A017M23,721,experiment,36,↑,up,↑,1.2887174999341369,True,18
A017M23,722,experiment,72,←,right,→,0.829951100051403,False,18
A017M23,723,experiment,168,←,left,←,0.7645535999909043,True,18
A017M23,724,training,24,→,right,→,1.0579833999508992,True,18
A017M23,725,training,144,←,left,←,0.758036799961701,True,18
A017M23,726,training,24,↓,left,←,1.0369529000017792,False,18
A017M23,727,experiment,132,←,right,→,0.5322890999959782,False,18
A017M23,728,experiment,108,↑,up,↑,1.3028969999868423,True,18
A017M23,729,experiment,144,↓,left,←,0.8228683000197634,False,18
A017M23,730,experiment,60,←,right,→,0.6259441999718547,False,18
A017M23,731,experiment,180,→,right,→,0.6287611000007018,True,18
A017M23,732,experiment,156,↓,down,↓,0.8796967000234872,True,18
A017M23,733,experiment,108,←,left,←,0.712041600025259,True,18
A017M23,734,experiment,72,↑,up,↑,0.67330220004078,True,18
A017M23,735,experiment,120,↑,up,↑,0.5600439999252558,True,18
A017M23,736,experiment,36,→,right,→,0.9506402999395505,True,18
A017M23,737,experiment,168,←,left,←,0.5974611000856385,True,18
A017M23,738,experiment,24,↓,left,←,1.168455500039272,False,18
A017M23,739,experiment,180,↓,up,↑,0.710453600040637,False,18
A017M23,740,experiment,60,↓,down,↓,0.6886399999493733,True,18
A017M23,741,experiment,96,↓,down,↓,0.8356692000525072,True,18
A017M23,742,experiment,48,←,left,←,0.6132372999563813,True,18
A017M23,743,experiment,132,→,left,←,0.6919089999282733,False,18
A017M23,744,experiment,180,↑,up,↑,0.6288021999644116,True,18
A017M23,745,experiment,48,→,right,→,1.7484423000132665,True,18
A017M23,746,experiment,48,↓,down,↓,0.9018169000046328,True,18
A017M23,747,experiment,24,→,left,←,0.619469599914737,False,18
A017M23,748,experiment,72,↑,up,↑,0.5290119999554008,True,18
A017M23,749,experiment,36,→,right,→,0.5321755000622943,True,18
A017M23,750,experiment,24,←,left,←,1.1492300999816507,True,18
A017M23,751,experiment,168,←,right,→,0.5727262999862432,False,18
A017M23,752,experiment,96,←,right,→,0.7524251999566332,False,18
A017M23,753,experiment,180,↓,up,↑,0.8946042000316083,False,18
A017M23,754,experiment,120,↓,down,↓,0.8996908999979496,True,18
A017M23,755,experiment,60,↓,up,↑,0.7224895999534056,False,18
A017M23,756,experiment,12,←,right,→,0.9004309000447392,False,18
A017M23,757,experiment,96,→,right,→,0.6908915999811143,True,18
A017M23,758,experiment,120,↑,up,↑,0.5842563000041991,True,18
A017M23,759,experiment,84,↑,up,↑,0.6027106000110507,True,18
A017M23,760,experiment,12,←,down,↓,0.653774100006558,False,18
A017M23,761,experiment,168,↑,up,↑,0.6110693999798968,True,18
A017M23,762,experiment,84,↑,up,↑,1.07599540008232,True,18
A017M23,763,experiment,24,↑,up,↑,0.5281893000937998,True,18
A017M23,764,experiment,84,→,right,→,0.523217499954626,True,18
A017M23,765,experiment,156,→,right,→,0.8262091999640688,True,18
A017M23,766,experiment,144,←,right,→,0.5120883999625221,False,18
A017M23,767,experiment,156,→,right,→,0.8078915999503806,True,18
A017M23,768,experiment,36,↑,up,↑,0.8999235000228509,True,18
A017M23,769,experiment,36,↑,up,↑,0.6006521999370307,True,18
A017M23,770,experiment,108,↑,up,↑,0.9905096999136731,True,18
A017M23,771,experiment,168,↓,up,↑,0.8054511999944225,False,18
A017M23,772,experiment,120,↓,down,↓,0.7726284000091255,True,18
A017M23,773,experiment,48,↑,down,↓,0.7126854999223724,False,18
A017M23,774,experiment,12,↑,up,↑,0.8070222999667749,True,18
A017M23,775,experiment,84,↓,left,←,0.8557224000105634,False,18
A017M23,776,experiment,156,→,right,→,0.5715995999053121,True,18
A017M23,777,experiment,12,↑,up,↑,0.6100428000790998,True,18
A017M23,778,experiment,144,→,right,→,0.7630248999921605,True,18
A017M23,779,experiment,108,←,left,←,0.6733766000252217,True,18
A017M23,780,experiment,72,↑,right,→,0.7193737999768928,False,18
A017M23,781,experiment,96,↓,down,↓,0.9792740000411868,True,18
A017M23,782,experiment,132,→,right,→,0.5395551999099553,True,18
A017M23,783,experiment,144,↑,up,↑,0.48030269995797426,True,18
A017M23,784,experiment,132,→,right,→,0.5277535000350326,True,18
A017M23,785,experiment,72,↓,down,↓,0.7063834000146016,True,18
A017M23,786,experiment,60,↓,down,↓,0.6692824999336153,True,18
A017M23,787,training,36,↓,right,→,0.8583985000150278,False,18
A017M23,788,training,60,←,right,→,0.5380354999797419,False,18
A017M23,789,training,72,↑,right,→,0.40041570004541427,False,18
A017M23,790,experiment,120,→,right,→,0.8312168000265956,True,18
A017M23,791,experiment,72,↑,up,↑,0.5269925999455154,True,18
A017M23,792,experiment,24,→,right,→,0.6020735999336466,True,18
A017M23,793,experiment,72,←,left,←,1.8800194999203086,True,18
A017M23,794,experiment,180,↓,down,↓,1.0887439000653103,True,18
A017M23,795,experiment,144,←,left,←,1.2226832000305876,True,18
A017M23,796,experiment,12,↓,right,→,1.2333300999598578,False,18
A017M23,797,experiment,144,←,up,↑,0.9329850000794977,False,18
A017M23,798,experiment,144,→,right,→,0.5432707000290975,True,18
A017M23,799,experiment,120,←,left,←,1.0582349000032991,True,18
A017M23,800,experiment,48,←,right,→,0.9168571999762207,False,18
A017M23,801,experiment,96,→,left,←,0.762228999985382,False,18
A017M23,802,experiment,48,→,right,→,0.9058528000023216,True,18
A017M23,803,experiment,132,←,left,←,0.49044590000994503,True,18
A017M23,804,experiment,132,↑,up,↑,0.7739651000592858,True,18
A017M23,805,experiment,156,↓,down,↓,0.595227999961935,True,18
A017M23,806,experiment,84,→,up,↑,0.8266324000433087,False,18
A017M23,807,experiment,24,↑,up,↑,0.9298765000421554,True,18
A017M23,808,experiment,36,↓,right,→,1.128695199964568,False,18
A017M23,809,experiment,48,←,left,←,0.9064124999567866,True,18
A017M23,810,experiment,108,→,right,→,0.5081380000337958,True,18
A017M23,811,experiment,12,↓,no_key,no_letter,-1.0,False,18
A017M23,812,experiment,108,↑,right,→,0.5874241999117658,False,18
A017M23,813,experiment,96,←,right,→,0.6497066000010818,False,18
A017M23,814,experiment,60,←,left,←,0.9089313000440598,True,18
A017M23,815,experiment,156,→,left,←,0.6553213000297546,False,18
A017M23,816,experiment,108,↓,down,↓,0.6128249999601394,True,18
A017M23,817,experiment,168,←,left,←,1.1106859999708831,True,18
A017M23,818,experiment,60,↑,right,→,0.9065930000506341,False,18
A017M23,819,experiment,84,←,left,←,0.7666836000280455,True,18
A017M23,820,experiment,120,↑,up,↑,0.7968333000317216,True,18
A017M23,821,experiment,24,←,left,←,0.7760054999962449,True,18
A017M23,822,experiment,36,→,right,→,1.0678240000270307,True,18
A017M23,823,experiment,36,←,left,←,0.8691069999476895,True,18
A017M23,824,experiment,48,→,right,→,0.6946553000016138,True,18
A017M23,825,experiment,96,→,right,→,0.6454491999465972,True,18
A017M23,826,experiment,180,↓,left,←,0.7403159999521449,False,18
A017M23,827,experiment,180,→,right,→,0.5944233000045642,True,18
A017M23,828,experiment,108,↓,down,↓,0.5745040000183508,True,18
A017M23,829,experiment,120,←,left,←,1.1492368000326678,True,18
A017M23,830,experiment,24,↑,right,→,1.0596311000408605,False,18
A017M23,831,experiment,12,←,left,←,0.6969281999627128,True,18
A017M23,832,experiment,84,↓,up,↑,0.7861039000563323,False,18
A017M23,833,experiment,60,←,left,←,0.4973302000435069,True,18
A017M23,834,experiment,60,→,right,→,0.558862799894996,True,18
A017M23,835,experiment,96,↓,down,↓,0.6123379999771714,True,18
A017M23,836,experiment,168,←,right,→,0.6101149000460282,False,18
A017M23,837,experiment,12,←,right,→,0.8765598000027239,False,18
A017M23,838,experiment,84,↓,right,→,1.4920488999923691,False,18
A017M23,839,experiment,132,↓,up,↑,0.81298990000505,False,18
A017M23,840,experiment,36,↑,left,←,0.6242506999988109,False,18
A017M23,841,experiment,72,←,left,←,0.9319239999167621,True,18
A017M23,842,experiment,156,↓,down,↓,0.8382803000276908,True,18
A017M23,843,experiment,180,↓,down,↓,0.6026860999409109,True,18
A017M23,844,experiment,168,←,right,→,0.49855929997283965,False,18
A017M23,845,experiment,156,→,right,→,0.8433240000158548,True,18
A017M23,846,experiment,72,↑,up,↑,0.9280135000590235,True,18
A017M23,847,experiment,168,↑,left,←,0.7272651999955997,False,18
A017M23,848,experiment,144,↑,right,→,1.041560300043784,False,18
A017M23,849,experiment,132,↓,down,↓,0.6849320998881012,True,18
