PART_ID,Trial_no,Trial_type,PDI,Stim_letter,Key_pressed,letter_choose,Rt,Corr,Stimulus Time
A018K23,1,training,10,→,right,→,1.8749208999797702,True,30
A018K23,2,training,10,↓,down,↓,1.1421398000093177,True,30
A018K23,3,training,10,↓,down,↓,0.9891046000411734,True,30
A018K23,4,training,10,←,left,←,0.7335938999895006,True,30
A018K23,5,training,10,↑,up,↑,0.550468000001274,True,30
A018K23,6,training,10,↑,up,↑,0.7116854999912903,True,30
A018K23,7,training,10,←,left,←,0.5838213000679389,True,30
A018K23,8,training,10,→,right,→,0.5504500000970438,True,30
A018K23,9,training,10,←,left,←,0.61709559999872,True,30
A018K23,10,training,10,↑,no_key,no_letter,-1.0,False,30
A018K23,11,training,10,↑,up,↑,0.6001460999250412,True,30
A018K23,12,training,10,←,left,←,0.5839583999477327,True,30
A018K23,13,training,10,←,right,→,0.4847475999267772,False,30
A018K23,14,training,10,→,right,→,0.5671438000863418,True,30
A018K23,15,training,10,↑,up,↑,0.38388119998853654,True,30
A018K23,16,training,10,↑,up,↑,1.0731543999863788,True,30
A018K23,17,training,10,↑,up,↑,0.5337172000436112,True,30
A018K23,18,training,10,→,right,→,1.5758185000158846,True,30
A018K23,19,training,10,→,right,→,0.6339369000634179,True,30
A018K23,20,training,10,↓,down,↓,0.7081976000918075,True,30
A018K23,21,training,10,←,left,←,0.6032226000679657,True,18
A018K23,22,training,10,↓,down,↓,0.5465691999997944,True,18
A018K23,23,training,10,→,right,→,0.7629933999851346,True,18
A018K23,24,training,10,↑,up,↑,0.7930506000993773,True,18
A018K23,25,training,10,↓,down,↓,0.5313983999658376,True,18
A018K23,26,training,10,↑,up,↑,0.5102506000548601,True,18
A018K23,27,training,10,↓,down,↓,0.6466488000005484,True,18
A018K23,28,training,10,→,right,→,0.4339990000007674,True,18
A018K23,29,training,10,→,right,→,0.41728509997483343,True,18
A018K23,30,training,10,→,right,→,0.7078316000988707,True,18
A018K23,31,training,84,↓,down,↓,0.6486182000953704,True,15
A018K23,32,training,36,←,left,←,0.49607650004327297,True,15
A018K23,33,training,24,↑,up,↑,0.4874466999899596,True,15
A018K23,34,experiment,120,←,left,←,0.8480541999451816,True,15
A018K23,35,experiment,120,←,up,↑,0.8266857999842614,False,15
A018K23,36,experiment,168,↓,down,↓,0.6969844000414014,True,15
A018K23,37,experiment,84,↑,up,↑,0.4789577000774443,True,15
A018K23,38,experiment,84,←,no_key,no_letter,-1.0,False,15
A018K23,39,experiment,168,→,right,→,0.46039469994138926,True,15
A018K23,40,experiment,48,→,right,→,0.764214999973774,True,15
A018K23,41,experiment,180,↑,up,↑,0.6162119000218809,True,15
A018K23,42,experiment,120,↑,up,↑,0.9183134000049904,True,15
A018K23,43,experiment,180,↓,down,↓,1.0954436999745667,True,15
A018K23,44,experiment,144,→,right,→,0.5997997999656945,True,15
A018K23,45,experiment,132,↓,right,→,0.8397867999738082,False,15
A018K23,46,experiment,132,→,right,→,0.754905000096187,True,15
A018K23,47,experiment,180,→,right,→,0.4771077000768855,True,15
A018K23,48,experiment,144,↓,down,↓,0.5801400999771431,True,15
A018K23,49,experiment,144,↑,down,↓,0.7945816999999806,False,15
A018K23,50,experiment,108,→,left,←,0.7044223999837413,False,15
A018K23,51,experiment,72,←,left,←,0.9365717999171466,True,15
A018K23,52,experiment,12,↑,right,→,0.7665644000517204,False,15
A018K23,53,experiment,180,←,left,←,0.5027053999947384,True,15
A018K23,54,experiment,120,↓,down,↓,0.614824500051327,True,15
A018K23,55,experiment,24,↓,down,↓,0.5227126999525353,True,15
A018K23,56,experiment,72,→,left,←,1.0291194999590516,False,15
A018K23,57,experiment,156,←,left,←,0.5287127000046894,True,15
A018K23,58,experiment,72,↓,left,←,0.8985297000035644,False,15
A018K23,59,experiment,72,←,left,←,0.42084670008625835,True,15
A018K23,60,experiment,144,↑,up,↑,0.5776620999677107,True,15
A018K23,61,experiment,96,↓,up,↑,0.6843893000623211,False,15
A018K23,62,experiment,12,↑,up,↑,0.5586987999267876,True,15
A018K23,63,experiment,132,→,right,→,0.46591010002885014,True,15
A018K23,64,experiment,60,→,right,→,1.7506009999196976,True,15
A018K23,65,experiment,84,↓,down,↓,0.8634369000792503,True,15
A018K23,66,experiment,168,←,right,→,0.8619903000071645,False,15
A018K23,67,experiment,60,→,right,→,0.6388412000378594,True,15
A018K23,68,experiment,36,→,right,→,0.4720710999099538,True,15
A018K23,69,experiment,24,←,left,←,0.682780500035733,True,15
A018K23,70,experiment,12,←,left,←,0.682823000010103,True,15
A018K23,71,experiment,48,→,right,→,1.1926342999795452,True,15
A018K23,72,experiment,36,↑,up,↑,0.5622760000405833,True,15
A018K23,73,experiment,108,↓,down,↓,0.5337994999717921,True,15
A018K23,74,experiment,48,↑,up,↑,0.5412468999857083,True,15
A018K23,75,experiment,24,↓,down,↓,0.5388970000203699,True,15
A018K23,76,experiment,96,←,left,←,0.43593060004059225,True,15
A018K23,77,experiment,96,↓,left,←,0.9336358000291511,False,15
A018K23,78,experiment,96,→,left,←,0.7563942999113351,False,15
A018K23,79,experiment,168,→,right,→,0.5296756000025198,True,15
A018K23,80,experiment,132,←,left,←,0.5616076000733301,True,15
A018K23,81,experiment,84,↓,down,↓,0.47548180003650486,True,15
A018K23,82,experiment,108,→,right,→,0.597800400108099,True,15
A018K23,83,experiment,60,←,left,←,0.6699060999089852,True,15
A018K23,84,experiment,156,←,left,←,0.6076328998897225,True,15
A018K23,85,experiment,156,→,right,→,0.5036631999537349,True,15
A018K23,86,experiment,12,←,left,←,0.9483655000803992,True,15
A018K23,87,experiment,60,←,left,←,0.710406000027433,True,15
A018K23,88,experiment,108,←,left,←,0.46376980002969503,True,15
A018K23,89,experiment,156,←,left,←,0.5396361000603065,True,15
A018K23,90,experiment,48,↑,left,←,0.7821337999776006,False,15
A018K23,91,experiment,24,→,left,←,0.7300950000062585,False,15
A018K23,92,experiment,36,↑,up,↑,0.8074435000307858,True,15
A018K23,93,experiment,36,→,right,→,0.7648069999413565,True,15
A018K23,94,training,144,←,left,←,0.5200912000145763,True,15
A018K23,95,training,48,↓,right,→,0.4881295000668615,False,15
A018K23,96,training,96,↓,down,↓,0.6358834999846295,True,15
A018K23,97,experiment,48,→,right,→,0.738184200017713,True,15
A018K23,98,experiment,60,→,right,→,0.6579696000553668,True,15
A018K23,99,experiment,24,→,right,→,0.6221806999528781,True,15
A018K23,100,experiment,36,←,left,←,0.5770717000123113,True,15
A018K23,101,experiment,36,→,right,→,0.6537853999761865,True,15
A018K23,102,experiment,24,↓,down,↓,0.522819499950856,True,15
A018K23,103,experiment,72,↑,up,↑,0.516040200018324,True,15
A018K23,104,experiment,84,→,right,→,0.48460009996779263,True,15
A018K23,105,experiment,60,↓,down,↓,0.9439959999872372,True,15
A018K23,106,experiment,72,→,left,←,1.0043728000018746,False,15
A018K23,107,experiment,108,↑,right,→,0.8188173999078572,False,15
A018K23,108,experiment,180,→,right,→,0.4279982000589371,True,15
A018K23,109,experiment,84,↓,left,←,0.8129962000530213,False,15
A018K23,110,experiment,12,↑,right,→,1.1808718000538647,False,15
A018K23,111,experiment,96,→,right,→,0.6389779000310227,True,15
A018K23,112,experiment,48,↑,up,↑,0.6402217000722885,True,15
A018K23,113,experiment,24,↓,up,↑,0.8117723000468686,False,15
A018K23,114,experiment,168,↑,up,↑,0.6702435999177396,True,15
A018K23,115,experiment,144,↓,down,↓,0.515811900026165,True,15
A018K23,116,experiment,156,↓,down,↓,0.4295413999352604,True,15
A018K23,117,experiment,96,↓,down,↓,0.671610000077635,True,15
A018K23,118,experiment,12,↑,down,↓,0.7684560000197962,False,15
A018K23,119,experiment,84,←,down,↓,0.7081530001014471,False,15
A018K23,120,experiment,36,←,left,←,0.4624475999735296,True,15
A018K23,121,experiment,48,↓,down,↓,1.7059216999914497,True,15
A018K23,122,experiment,72,↑,down,↓,0.6210344999562949,False,15
A018K23,123,experiment,108,→,right,→,0.44990110001526773,True,15
A018K23,124,experiment,168,↓,down,↓,0.4918875000439584,True,15
A018K23,125,experiment,144,←,right,→,0.5005712999263778,False,15
A018K23,126,experiment,48,↓,down,↓,0.45373700000345707,True,15
A018K23,127,experiment,132,↓,down,↓,0.862840999965556,True,15
A018K23,128,experiment,96,←,left,←,0.5450111000100151,True,15
A018K23,129,experiment,120,↓,down,↓,0.7548749999841675,True,15
A018K23,130,experiment,156,↑,down,↓,0.572975100018084,False,15
A018K23,131,experiment,168,↓,down,↓,0.6646168000297621,True,15
A018K23,132,experiment,156,→,right,→,0.6205031001009047,True,15
A018K23,133,experiment,72,←,no_key,no_letter,-1.0,False,15
A018K23,134,experiment,120,↓,down,↓,0.4221347999991849,True,15
A018K23,135,experiment,180,↓,down,↓,0.4735686999047175,True,15
A018K23,136,experiment,108,→,right,→,0.4447324000066146,True,15
A018K23,137,experiment,108,→,left,←,0.7708135000430048,False,15
A018K23,138,experiment,180,→,right,→,0.6345130000263453,True,15
A018K23,139,experiment,132,↓,right,→,0.6841738999355584,False,15
A018K23,140,experiment,12,↑,right,→,0.9167865999042988,False,15
A018K23,141,experiment,36,↓,down,↓,0.6064452999271452,True,15
A018K23,142,experiment,156,→,left,←,0.7749406999209896,False,15
A018K23,143,experiment,120,↑,up,↑,0.6522586999926716,True,15
A018K23,144,experiment,24,↑,up,↑,0.8685001999838278,True,15
A018K23,145,experiment,180,←,left,←,0.577419700101018,True,15
A018K23,146,experiment,132,→,left,←,0.7091193000087515,False,15
A018K23,147,experiment,132,↓,left,←,0.7170240000123158,False,15
A018K23,148,experiment,120,↓,down,↓,0.5316838000435382,True,15
A018K23,149,experiment,168,→,right,→,0.44033619994297624,True,15
A018K23,150,experiment,12,→,right,→,1.0157809000229463,True,15
A018K23,151,experiment,84,↑,up,↑,0.5720924000488594,True,15
A018K23,152,experiment,60,→,left,←,0.7652263999916613,False,15
A018K23,153,experiment,144,→,right,→,0.6592769999988377,True,15
A018K23,154,experiment,60,←,left,←,1.3345320000080392,True,15
A018K23,155,experiment,144,↓,no_key,no_letter,-1.0,False,15
A018K23,156,experiment,96,↑,up,↑,0.5739619999658316,True,15
A018K23,157,training,36,↑,up,↑,1.0347439999459311,True,15
A018K23,158,training,12,↓,up,↑,0.693556199898012,False,15
A018K23,159,training,60,↑,right,→,0.9725201999535784,False,15
A018K23,160,experiment,72,↑,up,↑,1.0134137000422925,True,15
A018K23,161,experiment,96,→,right,→,0.5101265000412241,True,15
A018K23,162,experiment,72,→,right,→,0.49758989992551506,True,15
A018K23,163,experiment,168,→,right,→,0.5280552000040188,True,15
A018K23,164,experiment,36,→,right,→,0.7318156999535859,True,15
A018K23,165,experiment,144,←,left,←,0.8748041999060661,True,15
A018K23,166,experiment,144,↑,up,↑,0.6830929000861943,True,15
A018K23,167,experiment,72,↓,up,↑,0.8330930999945849,False,15
A018K23,168,experiment,108,↑,up,↑,0.7369292000075802,True,15
A018K23,169,experiment,24,↓,down,↓,1.029047799995169,True,15
A018K23,170,experiment,60,↓,down,↓,0.5717769000912085,True,15
A018K23,171,experiment,132,↓,down,↓,0.46465310000348836,True,15
A018K23,172,experiment,168,←,left,←,0.5783793000737205,True,15
A018K23,173,experiment,144,↓,down,↓,0.6491736000170931,True,15
A018K23,174,experiment,132,↑,up,↑,0.6121454000240192,True,15
A018K23,175,experiment,156,→,left,←,0.7265241999411955,False,15
A018K23,176,experiment,84,↑,up,↑,0.6862944000167772,True,15
A018K23,177,experiment,96,↓,down,↓,0.45966769999358803,True,15
A018K23,178,experiment,48,↓,down,↓,0.5685168999480084,True,15
A018K23,179,experiment,180,↑,up,↑,0.4909993000328541,True,15
A018K23,180,experiment,60,↓,left,←,1.0474962000735104,False,15
A018K23,181,experiment,180,→,right,→,0.607803100021556,True,15
A018K23,182,experiment,12,↓,down,↓,0.9542520999675617,True,15
A018K23,183,experiment,12,←,up,↑,0.8797020999481902,False,15
A018K23,184,experiment,180,←,left,←,0.5245199999772012,True,15
A018K23,185,experiment,36,↑,up,↑,0.5800136999459937,True,15
A018K23,186,experiment,24,↑,up,↑,0.7228235999355093,True,15
A018K23,187,experiment,72,↓,up,↑,0.9477227999595925,False,15
A018K23,188,experiment,60,↓,up,↑,0.8133748000254855,False,15
A018K23,189,experiment,108,↑,up,↑,0.5202712999889627,True,15
A018K23,190,experiment,12,→,right,→,0.5566061999415979,True,15
A018K23,191,experiment,156,↑,up,↑,0.7266104998998344,True,15
A018K23,192,experiment,36,←,left,←,0.5017883999971673,True,15
A018K23,193,experiment,24,↑,left,←,0.8738127000397071,False,15
A018K23,194,experiment,180,↑,up,↑,0.8114597999956459,True,15
A018K23,195,experiment,48,→,right,→,0.5351145000895485,True,15
A018K23,196,experiment,84,→,left,←,0.8121205000206828,False,15
A018K23,197,experiment,120,←,left,←,0.748466599965468,True,15
A018K23,198,experiment,156,→,left,←,0.46068250003736466,False,15
A018K23,199,experiment,156,↑,up,↑,0.6591779000591487,True,15
A018K23,200,experiment,108,↓,up,↑,0.6796516999602318,False,15
A018K23,201,experiment,48,↑,up,↑,0.5287075999658555,True,15
A018K23,202,experiment,24,↓,right,→,0.7856840000022203,False,15
A018K23,203,experiment,132,↓,down,↓,0.930312899989076,True,15
A018K23,204,experiment,36,↑,up,↑,0.9246351000620052,True,15
A018K23,205,experiment,48,↓,right,→,0.9364762000041083,False,15
A018K23,206,experiment,168,→,up,↑,0.8827256000367925,False,15
A018K23,207,experiment,84,↑,right,→,0.849680699990131,False,15
A018K23,208,experiment,144,↑,left,←,0.7882820999948308,False,15
A018K23,209,experiment,168,→,right,→,0.47455569996964186,True,15
A018K23,210,experiment,96,↓,up,↑,0.7419427999993786,False,15
A018K23,211,experiment,120,→,right,→,0.5035894999746233,True,15
A018K23,212,experiment,84,→,left,←,0.6602474999381229,False,15
A018K23,213,experiment,108,↑,up,↑,0.6154046999290586,True,15
A018K23,214,experiment,60,←,left,←,0.460772099904716,True,15
A018K23,215,experiment,12,→,right,→,1.8728681000648066,True,15
A018K23,216,experiment,132,↓,down,↓,0.8746697000460699,True,15
A018K23,217,experiment,120,↓,down,↓,1.0772407000185922,True,15
A018K23,218,experiment,96,←,left,←,0.6479951000073925,True,15
A018K23,219,experiment,120,→,right,→,0.6543115000240505,True,15
A018K23,220,training,96,←,left,←,0.7101167999207973,True,15
A018K23,221,training,144,→,right,→,0.588431500014849,True,15
A018K23,222,training,60,←,right,→,0.8471022000303492,False,15
A018K23,223,experiment,180,←,left,←,0.6942792000481859,True,15
A018K23,224,experiment,96,↑,left,←,0.7876917000394315,False,15
A018K23,225,experiment,108,↑,right,→,0.504744500038214,False,15
A018K23,226,experiment,84,↓,left,←,0.7051305000204593,False,15
A018K23,227,experiment,24,→,left,←,0.9788050000788644,False,15
A018K23,228,experiment,84,↑,up,↑,0.5583992999745533,True,15
A018K23,229,experiment,156,→,left,←,0.9185189999407157,False,15
A018K23,230,experiment,48,↓,down,↓,0.7952937000663951,True,15
A018K23,231,experiment,72,→,right,→,0.5554032000945881,True,15
A018K23,232,experiment,12,→,right,→,0.6198514000279829,True,15
A018K23,233,experiment,180,←,left,←,0.5584678999148309,True,15
A018K23,234,experiment,48,→,right,→,0.8135778000578284,True,15
A018K23,235,experiment,108,←,left,←,1.2309442999539897,True,15
A018K23,236,experiment,96,↑,up,↑,0.6554655999643728,True,15
A018K23,237,experiment,24,←,up,↑,0.7719872000161558,False,15
A018K23,238,experiment,132,→,right,→,0.5144507000222802,True,15
A018K23,239,experiment,48,↑,up,↑,0.4998139999806881,True,15
A018K23,240,experiment,120,←,right,→,1.1268771000904962,False,15
A018K23,241,experiment,12,←,left,←,0.7226308999815956,True,15
A018K23,242,experiment,108,↑,left,←,1.3673041000729427,False,15
A018K23,243,experiment,132,↓,down,↓,0.6792265000985935,True,15
A018K23,244,experiment,72,←,left,←,0.9341507999924943,True,15
A018K23,245,experiment,24,↓,left,←,0.9847480999305844,False,15
A018K23,246,experiment,48,←,left,←,0.7380928000202402,True,15
A018K23,247,experiment,156,←,left,←,0.6894520999630913,True,15
A018K23,248,experiment,96,↑,down,↓,0.9367295000702143,False,15
A018K23,249,experiment,108,→,up,↑,1.0820469000609592,False,15
A018K23,250,experiment,168,→,right,→,0.50177580001764,True,15
A018K23,251,experiment,60,→,right,→,0.6238084000069648,True,15
A018K23,252,experiment,144,←,right,→,0.7499354999745265,False,15
A018K23,253,experiment,24,→,right,→,0.6025924000423402,True,15
A018K23,254,experiment,168,←,left,←,0.6329211000120267,True,15
A018K23,255,experiment,180,←,left,←,0.6111298999749124,True,15
A018K23,256,experiment,132,←,left,←,0.7226831000298262,True,15
A018K23,257,experiment,36,↓,left,←,0.6910980999236926,False,15
A018K23,258,experiment,60,→,left,←,0.6452500999439508,False,15
A018K23,259,experiment,156,↓,left,←,0.530497599975206,False,15
A018K23,260,experiment,144,→,right,→,0.674471199978143,True,15
A018K23,261,experiment,36,↓,down,↓,0.7492276999400929,True,15
A018K23,262,experiment,60,↑,down,↓,0.7871747000608593,False,15
A018K23,263,experiment,72,↓,down,↓,1.0400740000186488,True,15
A018K23,264,experiment,144,→,right,→,0.8496532998979092,True,15
A018K23,265,experiment,96,→,right,→,0.7340908000478521,True,15
A018K23,266,experiment,72,↓,down,↓,0.5356293999357149,True,15
A018K23,267,experiment,132,↑,down,↓,0.6379721000557765,False,15
A018K23,268,experiment,156,←,left,←,0.6213498000288382,True,15
A018K23,269,experiment,12,→,no_key,no_letter,-1.0,False,15
A018K23,270,experiment,168,→,left,←,0.8868098000530154,False,15
A018K23,271,experiment,120,↑,right,→,1.0200582999968901,False,15
A018K23,272,experiment,36,←,down,↓,0.7965786999557167,False,15
A018K23,273,experiment,60,↑,left,←,0.8310133999912068,False,15
A018K23,274,experiment,180,←,left,←,0.4928225999465212,True,15
A018K23,275,experiment,144,↓,down,↓,1.2507892999565229,True,15
A018K23,276,experiment,36,→,right,→,0.7176397000439465,True,15
A018K23,277,experiment,120,→,right,→,0.7628706999821588,True,15
A018K23,278,experiment,12,↑,left,←,0.7146793999709189,False,15
A018K23,279,experiment,84,↑,down,↓,0.6099656999576837,False,15
A018K23,280,experiment,84,←,left,←,0.6835908000357449,True,15
A018K23,281,experiment,168,←,left,←,0.6671306999633089,True,15
A018K23,282,experiment,120,↑,right,→,0.5167868999997154,False,15
A018K23,283,training,48,←,right,→,0.9246129000093788,False,16
A018K23,284,training,180,←,left,←,0.8740114000393078,True,16
A018K23,285,training,108,←,left,←,0.5222040999215096,True,16
A018K23,286,experiment,120,↑,up,↑,0.6249109999043867,True,16
A018K23,287,experiment,24,←,left,←,1.0894419000251219,True,16
A018K23,288,experiment,108,→,left,←,0.8054968999931589,False,16
A018K23,289,experiment,108,←,left,←,0.4827780000632629,True,16
A018K23,290,experiment,168,↑,up,↑,0.851757200085558,True,16
A018K23,291,experiment,180,↓,down,↓,0.6453749999636784,True,16
A018K23,292,experiment,168,↓,down,↓,0.6831793999299407,True,16
A018K23,293,experiment,120,→,down,↓,1.0003934999695048,False,16
A018K23,294,experiment,24,↓,down,↓,0.6532087000086904,True,16
A018K23,295,experiment,12,→,right,→,0.5729827999603003,True,16
A018K23,296,experiment,84,↑,down,↓,0.7524579999735579,False,16
A018K23,297,experiment,60,↓,down,↓,0.5819011999992654,True,16
A018K23,298,experiment,48,←,left,←,0.630881299963221,True,16
A018K23,299,experiment,36,→,right,→,0.6471751999342814,True,16
A018K23,300,experiment,144,↓,down,↓,1.0213794999290258,True,16
A018K23,301,experiment,132,↓,down,↓,0.674751800019294,True,16
A018K23,302,experiment,144,←,left,←,1.0080149000277743,True,16
A018K23,303,experiment,12,↑,up,↑,0.8099304999923334,True,16
A018K23,304,experiment,96,↓,up,↑,0.8358360000420362,False,16
A018K23,305,experiment,144,←,up,↑,0.8165126000531018,False,16
A018K23,306,experiment,24,↓,down,↓,0.6849272000836208,True,16
A018K23,307,experiment,156,↑,down,↓,0.9242769000120461,False,16
A018K23,308,experiment,180,↓,down,↓,0.7332845000782982,True,16
A018K23,309,experiment,36,→,right,→,0.5975062999641523,True,16
A018K23,310,experiment,60,↓,down,↓,0.5981987999984995,True,16
A018K23,311,experiment,156,↑,right,→,1.133493300061673,False,16
A018K23,312,experiment,24,←,left,←,0.6205922999652103,True,16
A018K23,313,experiment,84,↓,down,↓,0.7698327000252903,True,16
A018K23,314,experiment,132,↑,up,↑,0.9907006999710575,True,16
A018K23,315,experiment,60,↓,down,↓,0.9611794999800622,True,16
A018K23,316,experiment,72,←,left,←,0.517164200078696,True,16
A018K23,317,experiment,156,↓,down,↓,0.9679726000176743,True,16
A018K23,318,experiment,96,→,right,→,0.7888094000518322,True,16
A018K23,319,experiment,108,↑,up,↑,0.5851363999536261,True,16
A018K23,320,experiment,72,↓,down,↓,1.222073300043121,True,16
A018K23,321,experiment,60,←,left,←,0.8173653999110684,True,16
A018K23,322,experiment,132,↑,up,↑,0.5467013999586925,True,16
A018K23,323,experiment,12,←,left,←,0.9703566000098363,True,16
A018K23,324,experiment,120,→,right,→,0.5031539999181405,True,16
A018K23,325,experiment,48,↑,up,↑,1.0565459999488667,True,16
A018K23,326,experiment,132,↓,down,↓,0.6531118000857532,True,16
A018K23,327,experiment,108,←,left,←,0.6876205999869853,True,16
A018K23,328,experiment,72,←,left,←,0.6271538999862969,True,16
A018K23,329,experiment,36,↓,up,↑,0.8689182000234723,False,16
A018K23,330,experiment,168,→,right,→,0.4754034000216052,True,16
A018K23,331,experiment,96,↓,down,↓,1.0523763000965118,True,16
A018K23,332,experiment,72,↑,up,↑,0.8215563999256119,True,16
A018K23,333,experiment,12,→,right,→,0.7636236000107601,True,16
A018K23,334,experiment,96,←,left,←,0.7068918000441045,True,16
A018K23,335,experiment,156,↓,left,←,0.7070308999391273,False,16
A018K23,336,experiment,168,↓,down,↓,0.75868139998056,True,16
A018K23,337,experiment,48,↓,down,↓,0.8353215999668464,True,16
A018K23,338,experiment,36,←,left,←,0.5346464000176638,True,16
A018K23,339,experiment,84,↑,left,←,0.8090408999705687,False,16
A018K23,340,experiment,180,↓,down,↓,0.833249699906446,True,16
A018K23,341,experiment,144,→,right,→,0.523143699974753,True,16
A018K23,342,experiment,180,↓,down,↓,0.6255190999945626,True,16
A018K23,343,experiment,120,↓,down,↓,0.6875844999449328,True,16
A018K23,344,experiment,84,↑,right,→,0.9258442999562249,False,16
A018K23,345,experiment,48,↑,left,←,0.8769886000081897,False,16
A018K23,346,training,72,↑,up,↑,0.701103699975647,True,16
A018K23,347,training,72,↓,up,↑,0.6628669999772683,False,16
A018K23,348,training,48,←,up,↑,0.960449899896048,False,16
A018K23,349,experiment,180,↑,up,↑,0.5021378999808803,True,16
A018K23,350,experiment,108,→,left,←,0.6669959999853745,False,16
A018K23,351,experiment,180,→,left,←,0.8106481999857351,False,16
A018K23,352,experiment,60,↓,down,↓,0.8489043000154197,True,16
A018K23,353,experiment,72,←,left,←,0.44280379998963326,True,16
A018K23,354,experiment,168,↓,down,↓,0.5286751999519765,True,16
A018K23,355,experiment,12,↓,down,↓,1.091202100040391,True,16
A018K23,356,experiment,60,←,no_key,no_letter,-1.0,False,16
A018K23,357,experiment,108,↓,up,↑,0.5879023999441415,False,16
A018K23,358,experiment,12,↑,down,↓,0.8412740000057966,False,16
A018K23,359,experiment,12,←,left,←,0.44644890003837645,True,16
A018K23,360,experiment,156,←,left,←,0.6880067000165582,True,16
A018K23,361,experiment,36,↓,down,↓,0.7330784000223503,True,16
A018K23,362,experiment,12,←,right,→,0.9260752000845969,False,16
A018K23,363,experiment,84,→,right,→,0.5644137000199407,True,16
A018K23,364,experiment,96,↑,right,→,0.6164885000325739,False,16
A018K23,365,experiment,144,↓,down,↓,0.7759751999983564,True,16
A018K23,366,experiment,24,←,left,←,0.5781239999923855,True,16
A018K23,367,experiment,72,↓,left,←,0.8978378000902012,False,16
A018K23,368,experiment,156,↑,right,→,0.778403399977833,False,16
A018K23,369,experiment,120,→,left,←,0.4786561999935657,False,16
A018K23,370,experiment,36,↓,left,←,0.6993563000578433,False,16
A018K23,371,experiment,180,↓,down,↓,0.6328787999227643,True,16
A018K23,372,experiment,108,↑,down,↓,0.8193979000207037,False,16
A018K23,373,experiment,84,↑,down,↓,0.8871383999940008,False,16
A018K23,374,experiment,48,→,right,→,0.842564299935475,True,16
A018K23,375,experiment,48,→,no_key,no_letter,-1.0,False,16
A018K23,376,experiment,132,←,left,←,0.6950781000778079,True,16
A018K23,377,experiment,96,→,left,←,0.8626083000563085,False,16
A018K23,378,experiment,120,→,right,→,0.4665383000392467,True,16
A018K23,379,experiment,84,↑,right,→,1.000543100060895,False,16
A018K23,380,experiment,108,↓,down,↓,0.5893107999581844,True,16
A018K23,381,experiment,96,→,right,→,0.4994891999522224,True,16
A018K23,382,experiment,168,↓,up,↑,0.932814999949187,False,16
A018K23,383,experiment,24,→,right,→,0.7568926999811083,True,16
A018K23,384,experiment,132,↑,up,↑,0.6630392000079155,True,16
A018K23,385,experiment,132,↑,up,↑,0.5841942999977618,True,16
A018K23,386,experiment,48,→,right,→,0.4730659999186173,True,16
A018K23,387,experiment,180,←,up,↑,0.8516926999436691,False,16
A018K23,388,experiment,156,←,left,←,0.651682399911806,True,16
A018K23,389,experiment,36,↑,up,↑,0.6747582000680268,True,16
A018K23,390,experiment,120,↓,down,↓,0.7159978999989107,True,16
A018K23,391,experiment,72,↓,down,↓,1.0238597000716254,True,16
A018K23,392,experiment,144,→,up,↑,1.1280021999264136,False,16
A018K23,393,experiment,144,→,up,↑,0.7112471000291407,False,16
A018K23,394,experiment,24,↑,up,↑,0.7966671999311075,True,16
A018K23,395,experiment,156,←,up,↑,0.8534254999831319,False,16
A018K23,396,experiment,60,→,right,→,1.3978634000523016,True,16
A018K23,397,experiment,96,←,left,←,0.648921100073494,True,16
A018K23,398,experiment,72,←,left,←,0.4464247999712825,True,16
A018K23,399,experiment,168,↓,up,↑,0.6724274000152946,False,16
A018K23,400,experiment,144,←,left,←,0.5472474999260157,True,16
A018K23,401,experiment,24,↑,up,↑,0.9102074999827892,True,16
A018K23,402,experiment,132,↑,up,↑,1.5080225999699906,True,16
A018K23,403,experiment,168,←,left,←,0.5123296999372542,True,16
A018K23,404,experiment,48,↑,left,←,0.923934500082396,False,16
A018K23,405,experiment,120,↑,up,↑,0.6525531000224873,True,16
A018K23,406,experiment,60,↑,up,↑,0.4700699000386521,True,16
A018K23,407,experiment,36,↓,up,↑,1.2496808000141755,False,16
A018K23,408,experiment,84,↓,up,↑,0.6757268999936059,False,16
A018K23,409,training,60,←,left,←,0.6603172000031918,True,17
A018K23,410,training,24,←,left,←,0.5680846000323072,True,17
A018K23,411,training,180,←,left,←,0.5305556999519467,True,17
A018K23,412,experiment,120,→,left,←,0.8388404999859631,False,17
A018K23,413,experiment,84,←,left,←,0.45304159994702786,True,17
A018K23,414,experiment,168,↑,left,←,0.45811509992927313,False,17
A018K23,415,experiment,132,→,right,→,0.5572135000256822,True,17
A018K23,416,experiment,36,→,right,→,0.7472281999653205,True,17
A018K23,417,experiment,84,↓,down,↓,0.7894581999862567,True,17
A018K23,418,experiment,156,→,right,→,0.5264784999890253,True,17
A018K23,419,experiment,12,←,left,←,0.5247830000007525,True,17
A018K23,420,experiment,60,↑,right,→,0.6311000999994576,False,17
A018K23,421,experiment,24,→,right,→,0.6842395000858232,True,17
A018K23,422,experiment,96,←,no_key,no_letter,-1.0,False,17
A018K23,423,experiment,48,→,right,→,0.38378729997202754,True,17
A018K23,424,experiment,12,←,left,←,0.4709112000418827,True,17
A018K23,425,experiment,120,↑,left,←,0.7277457999298349,False,17
A018K23,426,experiment,180,↓,up,↑,0.7870628000237048,False,17
A018K23,427,experiment,144,↓,up,↑,0.6030513000441715,False,17
A018K23,428,experiment,144,↓,up,↑,1.9148065000772476,False,17
A018K23,429,experiment,108,↓,down,↓,0.7473171999445185,True,17
A018K23,430,experiment,156,←,left,←,0.5660284999758005,True,17
A018K23,431,experiment,156,→,left,←,0.8618806001031771,False,17
A018K23,432,experiment,132,↑,down,↓,0.8717954999301583,False,17
A018K23,433,experiment,180,↓,left,←,0.8601878000190482,False,17
A018K23,434,experiment,60,↓,no_key,no_letter,-1.0,False,17
A018K23,435,experiment,48,→,right,→,0.6299111000262201,True,17
A018K23,436,experiment,24,↑,no_key,no_letter,-1.0,False,17
A018K23,437,experiment,36,↑,up,↑,0.4978249999694526,True,17
A018K23,438,experiment,108,→,right,→,0.4771271999925375,True,17
A018K23,439,experiment,12,↑,up,↑,1.2835624000290409,True,17
A018K23,440,experiment,84,←,left,←,0.5013950999127701,True,17
A018K23,441,experiment,72,↑,up,↑,0.8692977000027895,True,17
A018K23,442,experiment,96,←,left,←,0.6952709999168292,True,17
A018K23,443,experiment,24,↓,down,↓,0.7549916999414563,True,17
A018K23,444,experiment,60,↓,down,↓,0.6249565999023616,True,17
A018K23,445,experiment,180,↓,down,↓,0.4862211000872776,True,17
A018K23,446,experiment,96,↓,down,↓,0.5684340000152588,True,17
A018K23,447,experiment,168,→,left,←,0.8983405999606475,False,17
A018K23,448,experiment,132,→,right,→,0.839825400034897,True,17
A018K23,449,experiment,72,←,left,←,0.670734699931927,True,17
A018K23,450,experiment,36,↑,up,↑,0.5978350000223145,True,17
A018K23,451,experiment,156,→,right,→,0.6398767000064254,True,17
A018K23,452,experiment,24,→,left,←,0.8055941000347957,False,17
A018K23,453,experiment,108,→,right,→,0.5074634000193328,True,17
A018K23,454,experiment,96,←,left,←,0.7121841999469325,True,17
A018K23,455,experiment,60,↑,right,→,0.9573812999296933,False,17
A018K23,456,experiment,72,↓,right,→,0.7599940000800416,False,17
A018K23,457,experiment,84,←,left,←,0.41712510003708303,True,17
A018K23,458,experiment,168,↑,up,↑,0.8364487000508234,True,17
A018K23,459,experiment,144,↓,right,→,0.6109105999348685,False,17
A018K23,460,experiment,48,↑,up,↑,0.6349175999639556,True,17
A018K23,461,experiment,72,→,left,←,0.7084256999660283,False,17
A018K23,462,experiment,120,↑,up,↑,0.38379810005426407,True,17
A018K23,463,experiment,132,↑,up,↑,0.5592521000653505,True,17
A018K23,464,experiment,120,←,up,↑,0.6999474000185728,False,17
A018K23,465,experiment,48,→,right,→,0.4757648999802768,True,17
A018K23,466,experiment,12,←,left,←,0.6549679999006912,True,17
A018K23,467,experiment,168,↑,up,↑,0.4744060999946669,True,17
A018K23,468,experiment,144,←,left,←,0.4886877000099048,True,17
A018K23,469,experiment,36,↓,up,↑,1.278946900041774,False,17
A018K23,470,experiment,180,→,right,→,0.6099563000025228,True,17
A018K23,471,experiment,108,↓,down,↓,0.7699478000868112,True,17
A018K23,472,training,108,↓,down,↓,0.8372859000228345,True,17
A018K23,473,training,144,↓,down,↓,0.8906621999340132,True,17
A018K23,474,training,24,←,down,↓,0.9922181000001729,False,17
A018K23,475,experiment,156,↑,up,↑,0.7103469999274239,True,17
A018K23,476,experiment,144,↓,down,↓,0.6022665000054985,True,17
A018K23,477,experiment,36,↓,down,↓,0.5166388000361621,True,17
A018K23,478,experiment,60,↑,up,↑,0.5832963000284508,True,17
A018K23,479,experiment,96,↑,no_key,no_letter,-1.0,False,17
A018K23,480,experiment,72,←,left,←,0.7399291000328958,True,17
A018K23,481,experiment,36,↓,down,↓,0.759044700069353,True,17
A018K23,482,experiment,144,↓,down,↓,0.6459065999370068,True,17
A018K23,483,experiment,48,→,right,→,0.9902412000810727,True,17
A018K23,484,experiment,180,↓,down,↓,0.6100144000956789,True,17
A018K23,485,experiment,96,←,left,←,0.678761399933137,True,17
A018K23,486,experiment,108,←,left,←,0.5111926000099629,True,17
A018K23,487,experiment,108,←,left,←,0.512720900005661,True,17
A018K23,488,experiment,120,→,right,→,0.7691919999197125,True,17
A018K23,489,experiment,120,→,left,←,0.8630602000048384,False,17
A018K23,490,experiment,132,↑,up,↑,0.7137291999533772,True,17
A018K23,491,experiment,12,↓,down,↓,0.651862800004892,True,17
A018K23,492,experiment,132,→,right,→,0.7125059000682086,True,17
A018K23,493,experiment,72,↓,down,↓,0.7016816000686958,True,17
A018K23,494,experiment,96,↓,down,↓,0.8165501999901608,True,17
A018K23,495,experiment,180,←,left,←,0.5573829999193549,True,17
A018K23,496,experiment,12,←,left,←,0.7317602999974042,True,17
A018K23,497,experiment,60,←,left,←,0.8764617999549955,True,17
A018K23,498,experiment,168,→,left,←,0.8664554000133649,False,17
A018K23,499,experiment,120,→,right,→,0.7555756000801921,True,17
A018K23,500,experiment,12,↑,up,↑,0.7414944000774994,True,17
A018K23,501,experiment,108,←,left,←,0.6341158000286669,True,17
A018K23,502,experiment,156,↑,right,→,0.9911947000073269,False,17
A018K23,503,experiment,48,↑,up,↑,0.49745589995291084,True,17
A018K23,504,experiment,156,↑,up,↑,0.5338375000283122,True,17
A018K23,505,experiment,144,←,left,←,1.3250014999648556,True,17
A018K23,506,experiment,24,←,right,→,0.8448324000928551,False,17
A018K23,507,experiment,24,↑,up,↑,0.7651913000736386,True,17
A018K23,508,experiment,48,↓,down,↓,0.7530438000103459,True,17
A018K23,509,experiment,36,↓,down,↓,0.9386920999968424,True,17
A018K23,510,experiment,84,→,right,→,0.6674125000135973,True,17
A018K23,511,experiment,36,←,left,←,0.6615496000740677,True,17
A018K23,512,experiment,60,→,right,→,0.6688440999714658,True,17
A018K23,513,experiment,144,→,right,→,0.6410689000040293,True,17
A018K23,514,experiment,132,↑,up,↑,1.0077512999996543,True,17
A018K23,515,experiment,96,↑,up,↑,0.7204567999579012,True,17
A018K23,516,experiment,132,↓,up,↑,0.7579678000183776,False,17
A018K23,517,experiment,24,↓,up,↑,0.7564480999717489,False,17
A018K23,518,experiment,168,↓,down,↓,0.6172131999628618,True,17
A018K23,519,experiment,72,↓,down,↓,1.2523183000739664,True,17
A018K23,520,experiment,168,↓,down,↓,0.6417190000647679,True,17
A018K23,521,experiment,72,↓,down,↓,0.6537062999559566,True,17
A018K23,522,experiment,180,→,down,↓,0.5930657000280917,False,17
A018K23,523,experiment,48,→,right,→,0.6424123999895528,True,17
A018K23,524,experiment,12,→,right,→,0.40036409988533705,True,17
A018K23,525,experiment,168,←,left,←,0.6225254000164568,True,17
A018K23,526,experiment,24,→,left,←,0.6965517000062391,False,17
A018K23,527,experiment,120,↑,right,→,0.793388899997808,False,17
A018K23,528,experiment,60,↑,up,↑,0.9130095000145957,True,17
A018K23,529,experiment,84,↑,up,↑,0.6712269999552518,True,17
A018K23,530,experiment,180,↓,no_key,no_letter,-1.0,False,17
A018K23,531,experiment,108,←,left,←,0.6410034999717027,True,17
A018K23,532,experiment,84,↓,down,↓,0.8810491999611259,True,17
A018K23,533,experiment,84,→,right,→,0.5951376999728382,True,17
A018K23,534,experiment,156,←,no_key,no_letter,-1.0,False,17
A018K23,535,training,120,→,right,→,0.9250068999826908,True,17
A018K23,536,training,72,↓,down,↓,0.8933269999688491,True,17
A018K23,537,training,48,↓,down,↓,0.4905285000568256,True,17
A018K23,538,experiment,180,→,right,→,0.7689108999911696,True,17
A018K23,539,experiment,108,←,left,←,0.4720784000819549,True,17
A018K23,540,experiment,168,→,right,→,0.4757015999639407,True,17
A018K23,541,experiment,132,→,right,→,0.820744700031355,True,17
A018K23,542,experiment,180,↓,left,←,0.8077506000408903,False,17
A018K23,543,experiment,168,↑,up,↑,0.8063153000548482,True,17
A018K23,544,experiment,24,←,left,←,0.9468892998993397,True,17
A018K23,545,experiment,156,↑,up,↑,0.9678812000202015,True,17
A018K23,546,experiment,180,↑,up,↑,0.911281600012444,True,17
A018K23,547,experiment,72,↓,right,→,1.0313726000022143,False,17
A018K23,548,experiment,84,↑,up,↑,0.461400100030005,True,17
A018K23,549,experiment,24,↑,up,↑,0.7162533999653533,True,17
A018K23,550,experiment,108,↓,up,↑,0.6698815999552608,False,17
A018K23,551,experiment,144,↑,up,↑,0.514472100068815,True,17
A018K23,552,experiment,156,→,up,↑,0.1505339000141248,False,17
A018K23,553,experiment,12,→,right,→,0.8467099999543279,True,17
A018K23,554,experiment,12,↓,down,↓,1.0992365999845788,True,17
A018K23,555,experiment,156,→,right,→,0.6585994000779465,True,17
A018K23,556,experiment,144,←,left,←,0.6477024999912828,True,17
A018K23,557,experiment,132,↑,up,↑,0.546921500004828,True,17
A018K23,558,experiment,36,↓,down,↓,0.5787198999896646,True,17
A018K23,559,experiment,48,↑,up,↑,0.9444258000003174,True,17
A018K23,560,experiment,12,↓,down,↓,0.8197220999281853,True,17
A018K23,561,experiment,72,→,right,→,0.6188789999578148,True,17
A018K23,562,experiment,48,↑,up,↑,1.5063904999988154,True,17
A018K23,563,experiment,36,→,left,←,1.0758566999575123,False,17
A018K23,564,experiment,132,↑,up,↑,0.6691245000110939,True,17
A018K23,565,experiment,60,↑,up,↑,0.5921808000421152,True,17
A018K23,566,experiment,132,←,left,←,0.6816102999728173,True,17
A018K23,567,experiment,120,↑,up,↑,0.5093098999932408,True,17
A018K23,568,experiment,144,←,left,←,0.6126243000617251,True,17
A018K23,569,experiment,60,←,no_key,no_letter,-1.0,False,17
A018K23,570,experiment,24,→,no_key,no_letter,-1.0,False,17
A018K23,571,experiment,156,→,right,→,0.5160739000421017,True,17
A018K23,572,experiment,96,↓,down,↓,0.7121184999123216,True,17
A018K23,573,experiment,24,→,right,→,0.6026329000014812,True,17
A018K23,574,experiment,96,→,right,→,0.8696566999424249,True,17
A018K23,575,experiment,72,↑,left,←,1.0927161000436172,False,17
A018K23,576,experiment,60,↑,up,↑,0.5163668000604957,True,17
A018K23,577,experiment,120,→,right,→,0.5728457999648526,True,17
A018K23,578,experiment,60,↑,up,↑,0.6162239999976009,True,17
A018K23,579,experiment,168,→,left,←,0.864650100003928,False,17
A018K23,580,experiment,120,↓,down,↓,0.7806017000693828,True,17
A018K23,581,experiment,12,↓,down,↓,0.6630527999950573,True,17
A018K23,582,experiment,108,←,left,←,0.9272591000190005,True,17
A018K23,583,experiment,48,↓,down,↓,0.5148748999927193,True,17
A018K23,584,experiment,120,→,right,→,0.5402088999981061,True,17
A018K23,585,experiment,84,↑,up,↑,0.7681693999329582,True,17
A018K23,586,experiment,96,↑,up,↑,0.7370511000044644,True,17
A018K23,587,experiment,168,↓,down,↓,0.6375765000702813,True,17
A018K23,588,experiment,36,↓,up,↑,0.7341807000339031,False,17
A018K23,589,experiment,36,↑,up,↑,0.7475407000165433,True,17
A018K23,590,experiment,84,↓,down,↓,0.6556291999295354,True,17
A018K23,591,experiment,72,↓,down,↓,0.5714410999789834,True,17
A018K23,592,experiment,84,→,no_key,no_letter,-1.0,False,17
A018K23,593,experiment,180,→,right,→,0.642730199964717,True,17
A018K23,594,experiment,48,↑,up,↑,0.8517929000081494,True,17
A018K23,595,experiment,144,↑,up,↑,0.6179449999472126,True,17
A018K23,596,experiment,96,↓,down,↓,0.702786400099285,True,17
A018K23,597,experiment,108,→,right,→,0.4648498999886215,True,17
A018K23,598,training,156,←,left,←,0.960719299968332,True,17
A018K23,599,training,156,↓,down,↓,0.6790607000002638,True,17
A018K23,600,training,48,→,right,→,0.487285100040026,True,17
A018K23,601,experiment,156,↑,up,↑,0.9160526000196114,True,17
A018K23,602,experiment,96,↓,down,↓,0.693028400070034,True,17
A018K23,603,experiment,84,↓,down,↓,0.6316501999972388,True,17
A018K23,604,experiment,156,←,left,←,0.5537801999598742,True,17
A018K23,605,experiment,120,↑,left,←,1.1967656000051647,False,17
A018K23,606,experiment,84,←,left,←,0.7069506999105215,True,17
A018K23,607,experiment,12,→,left,←,1.8536121000070125,False,17
A018K23,608,experiment,180,→,right,→,0.8866744000697508,True,17
A018K23,609,experiment,96,←,left,←,0.5294616000028327,True,17
A018K23,610,experiment,24,→,right,→,0.6075123000191525,True,17
A018K23,611,experiment,180,↑,up,↑,1.2999718999490142,True,17
A018K23,612,experiment,48,→,right,→,0.7934402999235317,True,17
A018K23,613,experiment,120,→,right,→,1.013000400038436,True,17
A018K23,614,experiment,60,←,no_key,no_letter,-1.0,False,17
A018K23,615,experiment,108,↓,down,↓,0.7467101999791339,True,17
A018K23,616,experiment,144,↑,up,↑,0.6287188000278547,True,17
A018K23,617,experiment,60,→,left,←,0.6531571999657899,False,17
A018K23,618,experiment,60,←,left,←,0.844058100017719,True,17
A018K23,619,experiment,180,↑,up,↑,1.9091649000765756,True,17
A018K23,620,experiment,168,↓,down,↓,0.8181087999837473,True,17
A018K23,621,experiment,132,→,left,←,1.1679089000681415,False,17
A018K23,622,experiment,168,→,right,→,0.5380604000529274,True,17
A018K23,623,experiment,120,↑,no_key,no_letter,-1.0,False,17
A018K23,624,experiment,144,↓,down,↓,0.5496623000362888,True,17
A018K23,625,experiment,144,↑,up,↑,0.7309171000961214,True,17
A018K23,626,experiment,156,↑,up,↑,0.6357769999885932,True,17
A018K23,627,experiment,108,←,left,←,0.5394976999377832,True,17
A018K23,628,experiment,120,↑,up,↑,0.6611798000521958,True,17
A018K23,629,experiment,84,→,right,→,0.7447184999473393,True,17
A018K23,630,experiment,36,←,up,↑,0.9318630999187008,False,17
A018K23,631,experiment,72,←,left,←,0.6978465999709442,True,17
A018K23,632,experiment,96,→,right,→,0.5155803000088781,True,17
A018K23,633,experiment,72,→,left,←,0.9967530999565497,False,17
A018K23,634,experiment,48,←,right,→,1.7352203999180347,False,17
A018K23,635,experiment,168,↓,down,↓,0.9540765000274405,True,17
A018K23,636,experiment,96,↓,left,←,0.9468435000162572,False,17
A018K23,637,experiment,24,↓,left,←,1.097487600054592,False,17
A018K23,638,experiment,36,↓,no_key,no_letter,-1.0,False,17
A018K23,639,experiment,36,↓,up,↑,1.554781400016509,False,17
A018K23,640,experiment,84,↓,up,↑,0.9429794999305159,False,17
A018K23,641,experiment,48,←,left,←,1.4908438000129536,True,17
A018K23,642,experiment,36,←,left,←,0.6756492999847978,True,17
A018K23,643,experiment,132,↓,down,↓,0.747601900016889,True,17
A018K23,644,experiment,180,↑,up,↑,0.6389272999949753,True,17
A018K23,645,experiment,12,↑,down,↓,1.0227514000143856,False,17
A018K23,646,experiment,24,←,left,←,0.7563380000647157,True,17
A018K23,647,experiment,12,←,left,←,0.6816913000075147,True,17
A018K23,648,experiment,168,↑,up,↑,0.5396002000197768,True,17
A018K23,649,experiment,12,↑,up,↑,0.5311091999756172,True,17
A018K23,650,experiment,72,↓,down,↓,0.7416541000129655,True,17
A018K23,651,experiment,24,←,left,←,1.0460914999712259,True,17
A018K23,652,experiment,132,←,left,←,0.7235250999219716,True,17
A018K23,653,experiment,60,←,left,←,1.5344213999342173,True,17
A018K23,654,experiment,144,↓,down,↓,0.4851065000984818,True,17
A018K23,655,experiment,132,←,left,←,0.9202210999792442,True,17
A018K23,656,experiment,48,↑,left,←,1.1470377000514418,False,17
A018K23,657,experiment,72,↑,left,←,1.0395999000174925,False,17
A018K23,658,experiment,108,↓,down,↓,0.518984799971804,True,17
A018K23,659,experiment,108,←,left,←,1.0656140999635682,True,17
A018K23,660,experiment,156,↑,left,←,0.8239729999331757,False,17
A018K23,661,training,108,↓,down,↓,0.8253043000586331,True,17
A018K23,662,training,60,↑,left,←,0.9525651000440121,False,17
A018K23,663,training,180,→,right,→,0.5168139999732375,True,17
A018K23,664,experiment,168,←,left,←,1.0477135999826714,True,17
A018K23,665,experiment,156,→,right,→,0.47702349990140647,True,17
A018K23,666,experiment,60,↓,down,↓,0.7995792999863625,True,17
A018K23,667,experiment,60,←,left,←,0.9651217999635264,True,17
A018K23,668,experiment,48,↑,left,←,1.1421547000063583,False,17
A018K23,669,experiment,24,→,right,→,0.5444978000596166,True,17
A018K23,670,experiment,144,↓,down,↓,0.6663003000430763,True,17
A018K23,671,experiment,72,↓,left,←,1.0808430999750271,False,17
A018K23,672,experiment,96,↑,no_key,no_letter,-1.0,False,17
A018K23,673,experiment,72,↓,left,←,1.3675908000441268,False,17
A018K23,674,experiment,12,→,left,←,1.2477057999931276,False,17
A018K23,675,experiment,132,↓,down,↓,0.6526297000236809,True,17
A018K23,676,experiment,36,←,left,←,0.9551646000472829,True,17
A018K23,677,experiment,120,↓,down,↓,0.5956669999286532,True,17
A018K23,678,experiment,156,→,left,←,0.9212877000682056,False,17
A018K23,679,experiment,108,↑,up,↑,0.48545529996044934,True,17
A018K23,680,experiment,168,↑,left,←,0.8724343000212684,False,17
A018K23,681,experiment,24,←,left,←,0.6608812999911606,True,17
A018K23,682,experiment,12,←,left,←,0.4716432000277564,True,17
A018K23,683,experiment,36,↑,up,↑,0.7481814000057057,True,17
A018K23,684,experiment,36,↑,up,↑,0.46473439992405474,True,17
A018K23,685,experiment,180,←,right,→,0.5868476999457926,False,17
A018K23,686,experiment,180,↓,down,↓,0.8551361000863835,True,17
A018K23,687,experiment,84,←,left,←,0.6914086000761017,True,17
A018K23,688,experiment,120,←,left,←,0.6834972000215203,True,17
A018K23,689,experiment,96,←,left,←,0.4590688000898808,True,17
A018K23,690,experiment,180,↓,up,↑,0.8473365999525413,False,17
A018K23,691,experiment,12,←,right,→,0.9118858999572694,False,17
A018K23,692,experiment,108,←,no_key,no_letter,-1.0,False,17
A018K23,693,experiment,180,↑,up,↑,0.8149303999962285,True,17
A018K23,694,experiment,48,→,right,→,1.8352744000731036,True,17
A018K23,695,experiment,120,→,right,→,1.1334977999795228,True,17
A018K23,696,experiment,84,←,right,→,1.4181844000704587,False,17
A018K23,697,experiment,84,←,left,←,0.5953775000525638,True,17
A018K23,698,experiment,168,→,right,→,0.5573133000871167,True,17
A018K23,699,experiment,24,→,right,→,0.906646899995394,True,17
A018K23,700,experiment,36,↓,down,↓,0.7772163000190631,True,17
A018K23,701,experiment,168,←,left,←,0.9511539000086486,True,17
A018K23,702,experiment,60,↑,no_key,no_letter,-1.0,False,17
A018K23,703,experiment,108,↓,left,←,0.9251991000492126,False,17
A018K23,704,experiment,72,↑,left,←,1.5805958999553695,False,17
A018K23,705,experiment,144,→,right,→,0.6870054999599233,True,17
A018K23,706,experiment,96,↑,left,←,0.9707129000453278,False,17
A018K23,707,experiment,84,↑,up,↑,0.9992101000389084,True,17
A018K23,708,experiment,48,←,left,←,0.6057127999374643,True,17
A018K23,709,experiment,156,↓,down,↓,0.5829836999764666,True,17
A018K23,710,experiment,60,→,right,→,0.5937461999710649,True,17
A018K23,711,experiment,120,→,right,→,0.6654335999628529,True,17
A018K23,712,experiment,156,↓,up,↑,0.9458444999763742,False,17
A018K23,713,experiment,144,↓,down,↓,0.6622061999514699,True,17
A018K23,714,experiment,72,↑,down,↓,0.845981499995105,False,17
A018K23,715,experiment,108,↑,up,↑,1.1629559999564663,True,17
A018K23,716,experiment,48,→,right,→,0.6185018999967724,True,17
A018K23,717,experiment,132,→,left,←,0.7708075999980792,False,17
A018K23,718,experiment,96,↓,down,↓,0.9443705999292433,True,17
A018K23,719,experiment,132,↑,down,↓,0.9660740999970585,False,17
A018K23,720,experiment,144,←,left,←,0.5961749999551103,True,17
A018K23,721,experiment,12,→,right,→,0.6415460000280291,True,17
A018K23,722,experiment,132,↓,down,↓,0.7370126000605524,True,17
A018K23,723,experiment,24,↓,down,↓,0.9401198000414297,True,17
A018K23,724,training,120,→,right,→,0.6641269000247121,True,17
A018K23,725,training,84,←,right,→,0.7360493000596762,False,17
A018K23,726,training,180,↑,left,←,0.7070080999983475,False,17
A018K23,727,experiment,120,↓,down,↓,0.7954139999346808,True,17
A018K23,728,experiment,132,↓,down,↓,0.7320945999817923,True,17
A018K23,729,experiment,72,↑,up,↑,0.7361082000425085,True,17
A018K23,730,experiment,132,→,up,↑,0.6978820000076666,False,17
A018K23,731,experiment,36,↑,left,←,0.9828525999328122,False,17
A018K23,732,experiment,156,↑,up,↑,0.5802544999169186,True,17
A018K23,733,experiment,144,→,right,→,0.5790309999138117,True,17
A018K23,734,experiment,108,→,right,→,0.5655138000147417,True,17
A018K23,735,experiment,48,→,right,→,0.9888278999133036,True,17
A018K23,736,experiment,144,→,right,→,0.8111985001014546,True,17
A018K23,737,experiment,120,↑,up,↑,0.6007002000696957,True,17
A018K23,738,experiment,156,→,right,→,0.6765797999687493,True,17
A018K23,739,experiment,180,←,left,←,0.6096162999747321,True,17
A018K23,740,experiment,168,←,left,←,0.5767797000007704,True,17
A018K23,741,experiment,120,→,right,→,0.6203472999623045,True,17
A018K23,742,experiment,48,↓,down,↓,0.7754107000073418,True,17
A018K23,743,experiment,48,↑,right,→,0.9287868000101298,False,17
A018K23,744,experiment,60,↓,down,↓,0.8670577999437228,True,17
A018K23,745,experiment,24,↓,down,↓,0.5480769000714645,True,17
A018K23,746,experiment,168,←,left,←,0.5217305000405759,True,17
A018K23,747,experiment,156,←,left,←,0.513749499921687,True,17
A018K23,748,experiment,36,↑,left,←,0.962245799950324,False,17
A018K23,749,experiment,132,→,right,→,0.939682099968195,True,17
A018K23,750,experiment,12,↑,up,↑,0.876884099910967,True,17
A018K23,751,experiment,36,↓,down,↓,0.7442308000754565,True,17
A018K23,752,experiment,36,→,left,←,1.85475169995334,False,17
A018K23,753,experiment,24,→,right,→,0.813645499991253,True,17
A018K23,754,experiment,108,↓,no_key,no_letter,-1.0,False,17
A018K23,755,experiment,180,↓,down,↓,0.6808324999874458,True,17
A018K23,756,experiment,180,→,left,←,0.722774300025776,False,17
A018K23,757,experiment,144,↑,up,↑,0.8250560000305995,True,17
A018K23,758,experiment,60,↑,up,↑,0.6058347000507638,True,17
A018K23,759,experiment,84,←,left,←,0.7035306999459863,True,17
A018K23,760,experiment,12,→,no_key,no_letter,-1.0,False,17
A018K23,761,experiment,96,←,right,→,1.0051140999421477,False,17
A018K23,762,experiment,132,↓,down,↓,1.036267300019972,True,17
A018K23,763,experiment,72,←,right,→,1.4582698999438435,False,17
A018K23,764,experiment,60,←,left,←,0.5269515999825671,True,17
A018K23,765,experiment,24,↑,left,←,1.113113300059922,False,17
A018K23,766,experiment,72,↓,down,↓,0.9160259000491351,True,17
A018K23,767,experiment,108,↓,down,↓,0.7242951000807807,True,17
A018K23,768,experiment,84,↑,up,↑,1.3809652000200003,True,17
A018K23,769,experiment,180,↑,up,↑,0.6251507999841124,True,17
A018K23,770,experiment,96,←,left,←,1.1133292999584228,True,17
A018K23,771,experiment,12,→,right,→,1.1308791999472305,True,17
A018K23,772,experiment,168,↓,up,↑,0.93888470006641,False,17
A018K23,773,experiment,168,→,right,→,0.7843254000181332,True,17
A018K23,774,experiment,96,←,left,←,1.281124599976465,True,17
A018K23,775,experiment,108,↑,down,↓,0.7289462999906391,False,17
A018K23,776,experiment,12,↓,down,↓,0.7180965000297874,True,17
A018K23,777,experiment,24,↑,up,↑,0.7654962999513373,True,17
A018K23,778,experiment,144,→,right,→,0.6104549000738189,True,17
A018K23,779,experiment,72,←,left,←,0.5608834000304341,True,17
A018K23,780,experiment,84,↑,right,→,0.6719881999306381,False,17
A018K23,781,experiment,48,←,left,←,0.6656800999771804,True,17
A018K23,782,experiment,156,←,left,←,0.5028756998945028,True,17
A018K23,783,experiment,60,←,left,←,0.7974077999824658,True,17
A018K23,784,experiment,84,→,right,→,0.5935900000622496,True,17
A018K23,785,experiment,120,↑,up,↑,0.5146488000173122,True,17
A018K23,786,experiment,96,←,up,↑,0.833379799965769,False,17
A018K23,787,training,36,→,right,→,0.7690848000347614,True,17
A018K23,788,training,72,→,left,←,0.5468641000334173,False,17
A018K23,789,training,168,↑,right,→,0.8399895000038669,False,17
A018K23,790,experiment,156,←,left,←,0.35058830003254116,True,17
A018K23,791,experiment,108,↑,left,←,0.8105939000379294,False,17
A018K23,792,experiment,144,←,left,←,0.5965571000706404,True,17
A018K23,793,experiment,72,↓,left,←,0.7981017999118194,False,17
A018K23,794,experiment,108,→,right,→,0.5077645999845117,True,17
A018K23,795,experiment,108,→,right,→,0.6578031000681221,True,17
A018K23,796,experiment,48,↑,up,↑,0.6574955000542104,True,17
A018K23,797,experiment,48,↓,down,↓,0.85990220005624,True,17
A018K23,798,experiment,168,↓,down,↓,0.5386240999214351,True,17
A018K23,799,experiment,144,→,down,↓,1.0849414999829605,False,17
A018K23,800,experiment,24,→,down,↓,0.9712365000741556,False,17
A018K23,801,experiment,60,↑,up,↑,0.6062419000081718,True,17
A018K23,802,experiment,48,↑,up,↑,0.5405784000176936,True,17
A018K23,803,experiment,132,↓,down,↓,0.6016323999501765,True,17
A018K23,804,experiment,84,↓,down,↓,0.6195307000307366,True,17
A018K23,805,experiment,168,↓,down,↓,0.7247463999083266,True,17
A018K23,806,experiment,36,←,left,←,0.862290499964729,True,17
A018K23,807,experiment,36,→,no_key,no_letter,-1.0,False,17
A018K23,808,experiment,120,↓,left,←,1.0453847999451682,False,17
A018K23,809,experiment,180,→,left,←,0.8722608000971377,False,17
A018K23,810,experiment,36,↑,left,←,0.9910421000095084,False,17
A018K23,811,experiment,120,↑,up,↑,0.5086837999988347,True,17
A018K23,812,experiment,12,↑,up,↑,0.7028657000046223,True,17
A018K23,813,experiment,96,↑,up,↑,0.7123800999252126,True,17
A018K23,814,experiment,132,↑,up,↑,0.6292551999213174,True,17
A018K23,815,experiment,132,→,right,→,0.5530783000867814,True,17
A018K23,816,experiment,108,←,down,↓,0.9439584000501782,False,17
A018K23,817,experiment,84,←,right,→,0.7853139999788254,False,17
A018K23,818,experiment,72,←,left,←,0.6079320999560878,True,17
A018K23,819,experiment,156,→,right,→,0.6066084000049159,True,17
A018K23,820,experiment,144,↓,down,↓,0.6450279999990016,True,17
A018K23,821,experiment,60,↑,up,↑,0.4538958000484854,True,17
A018K23,822,experiment,72,→,right,→,1.8910174999618903,True,17
A018K23,823,experiment,96,←,up,↑,0.6831622000318021,False,17
A018K23,824,experiment,84,←,left,←,0.7330761000048369,True,17
A018K23,825,experiment,156,←,left,←,0.7873971000080928,True,17
A018K23,826,experiment,48,→,left,←,0.8735353999072686,False,17
A018K23,827,experiment,12,↑,up,↑,0.9469085999298841,True,17
A018K23,828,experiment,24,↓,down,↓,0.8228549999184906,True,17
A018K23,829,experiment,144,←,left,←,0.6774950000690296,True,17
A018K23,830,experiment,96,→,right,→,0.7991035999730229,True,17
A018K23,831,experiment,72,↓,down,↓,0.8041874000336975,True,17
A018K23,832,experiment,84,↓,down,↓,0.8229719999944791,True,17
A018K23,833,experiment,180,→,right,→,0.6432214999804273,True,17
A018K23,834,experiment,12,←,left,←,0.5079972000094131,True,17
A018K23,835,experiment,120,←,left,←,0.6548275999957696,True,17
A018K23,836,experiment,180,←,left,←,0.5901532999705523,True,17
A018K23,837,experiment,36,↑,left,←,0.7078240999253467,False,17
A018K23,838,experiment,132,↓,right,→,0.9956486999290064,False,17
A018K23,839,experiment,12,←,left,←,0.6239528000587597,True,17
A018K23,840,experiment,96,↑,up,↑,0.6124061000300571,True,17
A018K23,841,experiment,180,←,left,←,1.6847911999793723,True,17
A018K23,842,experiment,120,→,right,→,0.5364454999798909,True,17
A018K23,843,experiment,168,↓,down,↓,0.7052065000170842,True,17
A018K23,844,experiment,24,↓,down,↓,0.9496815999737009,True,17
A018K23,845,experiment,24,←,left,←,0.4955967999994755,True,17
A018K23,846,experiment,156,←,left,←,0.9883102000458166,True,17
A018K23,847,experiment,168,↓,down,↓,0.8747661999659613,True,17
A018K23,848,experiment,60,↓,down,↓,0.4735670000081882,True,17
A018K23,849,experiment,60,←,down,↓,0.7188647999428213,False,17
