PART_ID,Trial_no,Trial_type,PDI,Stim_letter,Key_pressed,letter_choose,Rt,Corr,Stimulus Time
A019M44,1,training,10,↑,no_key,no_letter,-1.0,False,30
A019M44,2,training,10,→,right,→,1.3850310000125319,True,30
A019M44,3,training,10,↑,up,↑,1.5962770999758504,True,30
A019M44,4,training,10,↑,left,←,1.514917200023774,False,30
A019M44,5,training,10,→,right,→,1.365461899957154,True,30
A019M44,6,training,10,↓,no_key,no_letter,-1.0,False,30
A019M44,7,training,10,→,right,→,1.2844200999825262,True,30
A019M44,8,training,10,→,right,→,0.9340135999955237,True,30
A019M44,9,training,10,←,right,→,1.3925379000138491,False,30
A019M44,10,training,10,←,left,←,1.2564388000173494,True,30
A019M44,11,training,10,←,left,←,1.1347346000256948,True,30
A019M44,12,training,10,→,right,→,0.9820290000061505,True,30
A019M44,13,training,10,↑,up,↑,1.2866717000142671,True,30
A019M44,14,training,10,←,left,←,1.321828500018455,True,30
A019M44,15,training,10,↑,up,↑,1.2750925000291318,True,30
A019M44,16,training,10,↓,up,↑,1.626013899978716,False,30
A019M44,17,training,10,→,right,→,1.2352123000309803,True,30
A019M44,18,training,10,↑,no_key,no_letter,-1.0,False,30
A019M44,19,training,10,↑,up,↑,1.278851000010036,True,30
A019M44,20,training,10,↓,up,↑,1.2835405999794602,False,30
A019M44,21,training,10,→,right,→,1.0699309000046924,True,18
A019M44,22,training,10,↓,left,←,1.6245171999908052,False,18
A019M44,23,training,10,←,left,←,1.02884039998753,True,18
A019M44,24,training,10,←,left,←,0.9750695999828167,True,18
A019M44,25,training,10,→,right,→,1.3043132000020705,True,18
A019M44,26,training,10,←,left,←,1.1790407000225969,True,18
A019M44,27,training,10,↑,up,↑,1.0637712000170723,True,18
A019M44,28,training,10,→,right,→,1.333241000014823,True,18
A019M44,29,training,10,→,right,→,0.7964434000314213,True,18
A019M44,30,training,10,↓,down,↓,1.0893263000180013,True,18
A019M44,31,training,108,↑,up,↑,1.0550872999592684,True,15
A019M44,32,training,48,←,right,→,0.9390809999895282,False,15
A019M44,33,training,144,↑,up,↑,1.1816844000131823,True,15
A019M44,34,experiment,60,↓,left,←,1.3275691999588162,False,15
A019M44,35,experiment,156,←,left,←,1.0288969000102952,True,15
A019M44,36,experiment,84,←,left,←,0.9518692999845371,True,15
A019M44,37,experiment,156,←,left,←,0.8003271000343375,True,15
A019M44,38,experiment,72,↓,right,→,1.6199084999971092,False,15
A019M44,39,experiment,144,↓,right,→,1.0471306999679655,False,15
A019M44,40,experiment,108,↓,down,↓,1.1542838999885134,True,15
A019M44,41,experiment,168,↑,right,→,1.1108828999567777,False,15
A019M44,42,experiment,168,↑,left,←,1.2696366000454873,False,15
A019M44,43,experiment,180,←,left,←,0.8723653000197373,True,15
A019M44,44,experiment,60,←,left,←,0.7918226000037976,True,15
A019M44,45,experiment,24,↑,right,→,0.8747386999893934,False,15
A019M44,46,experiment,156,↓,right,→,0.9872115000034682,False,15
A019M44,47,experiment,24,←,left,←,0.8002748999861069,True,15
A019M44,48,experiment,168,↓,right,→,0.91365240002051,False,15
A019M44,49,experiment,84,←,left,←,0.7628018999821506,True,15
A019M44,50,experiment,72,↓,down,↓,1.223063099954743,True,15
A019M44,51,experiment,60,↓,left,←,0.8727310000103898,False,15
A019M44,52,experiment,12,→,right,→,1.3464195999549702,True,15
A019M44,53,experiment,84,↑,up,↑,1.0628565999795683,True,15
A019M44,54,experiment,36,→,right,→,0.7592123000067659,True,15
A019M44,55,experiment,132,→,left,←,1.0856071999878623,False,15
A019M44,56,experiment,120,←,left,←,1.0366161999991164,True,15
A019M44,57,experiment,72,↓,right,→,0.698620299983304,False,15
A019M44,58,experiment,12,↓,no_key,no_letter,-1.0,False,15
A019M44,59,experiment,84,↓,down,↓,1.1717405000235885,True,15
A019M44,60,experiment,108,↑,up,↑,1.326267900003586,True,15
A019M44,61,experiment,48,↓,down,↓,0.7068179000052623,True,15
A019M44,62,experiment,120,↓,down,↓,0.9140802000183612,True,15
A019M44,63,experiment,120,↓,down,↓,0.7485982999787666,True,15
A019M44,64,experiment,108,←,left,←,0.9991981000057422,True,15
A019M44,65,experiment,144,↓,left,←,1.418833099945914,False,15
A019M44,66,experiment,132,→,left,←,0.8730152000207454,False,15
A019M44,67,experiment,96,→,right,→,0.8605939000262879,True,15
A019M44,68,experiment,48,→,right,→,0.5752782999770716,True,15
A019M44,69,experiment,144,←,left,←,0.6745381000218913,True,15
A019M44,70,experiment,12,↓,down,↓,0.9092130999779329,True,15
A019M44,71,experiment,96,↑,up,↑,0.9758192000444978,True,15
A019M44,72,experiment,24,→,right,→,0.9297758999746293,True,15
A019M44,73,experiment,48,→,left,←,0.9790738999727182,False,15
A019M44,74,experiment,96,→,right,→,0.5859745999914594,True,15
A019M44,75,experiment,132,↑,up,↑,1.1968898000195622,True,15
A019M44,76,experiment,180,→,right,→,0.5481117999879643,True,15
A019M44,77,experiment,96,↑,up,↑,0.8614127000328153,True,15
A019M44,78,experiment,120,↓,down,↓,0.660843100049533,True,15
A019M44,79,experiment,180,↑,up,↑,0.8551331000053324,True,15
A019M44,80,experiment,108,→,right,→,0.9663770999759436,True,15
A019M44,81,experiment,156,→,left,←,1.191821800020989,False,15
A019M44,82,experiment,72,→,right,→,1.334623400005512,True,15
A019M44,83,experiment,36,↓,down,↓,0.7092596999718808,True,15
A019M44,84,experiment,132,→,right,→,0.8913517999462783,True,15
A019M44,85,experiment,36,←,up,↑,1.158095000020694,False,15
A019M44,86,experiment,48,→,left,←,1.0730084999813698,False,15
A019M44,87,experiment,144,→,right,→,0.5340054000262171,True,15
A019M44,88,experiment,180,→,right,→,0.583865099994,True,15
A019M44,89,experiment,24,↓,no_key,no_letter,-1.0,False,15
A019M44,90,experiment,60,←,right,→,0.8891546000377275,False,15
A019M44,91,experiment,36,↓,left,←,1.2390046000364237,False,15
A019M44,92,experiment,168,→,right,→,0.6755896999966353,True,15
A019M44,93,experiment,12,↓,down,↓,0.8945108000189066,True,15
A019M44,94,training,48,→,right,→,1.3622850999818183,True,15
A019M44,95,training,12,↓,up,↑,0.805418899981305,False,15
A019M44,96,training,84,↑,left,←,1.1813882000278682,False,15
A019M44,97,experiment,72,→,right,→,0.9052936999942176,True,15
A019M44,98,experiment,120,←,left,←,0.5687379000009969,True,15
A019M44,99,experiment,84,↑,right,→,0.9534274999750778,False,15
A019M44,100,experiment,84,↑,up,↑,0.8896841999958269,True,15
A019M44,101,experiment,120,↓,down,↓,0.9347008999902755,True,15
A019M44,102,experiment,108,→,right,→,0.6569160000071861,True,15
A019M44,103,experiment,168,↑,up,↑,0.892513400001917,True,15
A019M44,104,experiment,48,→,right,→,1.5131377999787219,True,15
A019M44,105,experiment,24,→,right,→,1.6215441999956965,True,15
A019M44,106,experiment,36,↑,up,↑,0.7284836000180803,True,15
A019M44,107,experiment,120,↓,right,→,1.0777196999988519,False,15
A019M44,108,experiment,156,↓,down,↓,0.9955557999783196,True,15
A019M44,109,experiment,24,←,up,↑,0.9071542000165209,False,15
A019M44,110,experiment,144,↑,up,↑,0.639305799966678,True,15
A019M44,111,experiment,12,→,left,←,1.22049799998058,False,15
A019M44,112,experiment,144,↓,up,↑,0.6709432000061497,False,15
A019M44,113,experiment,36,←,down,↓,1.0185209999908693,False,15
A019M44,114,experiment,132,↑,up,↑,0.8393031999585219,True,15
A019M44,115,experiment,156,↓,down,↓,0.9564612999674864,True,15
A019M44,116,experiment,60,↓,up,↑,0.6747851999825798,False,15
A019M44,117,experiment,168,↓,down,↓,0.8995902000460774,True,15
A019M44,118,experiment,72,←,up,↑,0.7589394000242464,False,15
A019M44,119,experiment,108,←,left,←,0.8287613000138663,True,15
A019M44,120,experiment,96,↓,up,↑,0.9006586000323296,False,15
A019M44,121,experiment,84,↓,down,↓,0.95295329997316,True,15
A019M44,122,experiment,24,↓,up,↑,1.0094011000473984,False,15
A019M44,123,experiment,48,↑,left,←,0.7428747999947518,False,15
A019M44,124,experiment,48,↓,down,↓,0.9854249999625608,True,15
A019M44,125,experiment,96,↓,up,↑,0.7258234000182711,False,15
A019M44,126,experiment,60,→,right,→,1.3225890999892727,True,15
A019M44,127,experiment,132,←,left,←,1.1140985999954864,True,15
A019M44,128,experiment,108,↓,up,↑,1.0773136999923736,False,15
A019M44,129,experiment,180,→,right,→,1.0980648000258952,True,15
A019M44,130,experiment,48,↑,no_key,no_letter,-1.0,False,15
A019M44,131,experiment,180,→,right,→,0.8923240999574773,True,15
A019M44,132,experiment,180,←,right,→,0.6964952999842353,False,15
A019M44,133,experiment,144,←,right,→,1.0188733999966644,False,15
A019M44,134,experiment,84,→,left,←,1.071472400042694,False,15
A019M44,135,experiment,108,←,left,←,0.8839119000476785,True,15
A019M44,136,experiment,60,↓,right,→,1.0397443000110798,False,15
A019M44,137,experiment,168,←,left,←,0.8100798999657854,True,15
A019M44,138,experiment,12,←,right,→,0.9349257000139914,False,15
A019M44,139,experiment,132,↑,up,↑,0.7479511999990791,True,15
A019M44,140,experiment,156,↓,left,←,1.147672999999486,False,15
A019M44,141,experiment,60,←,left,←,0.7150851999758743,True,15
A019M44,142,experiment,72,↓,down,↓,1.1560080000199378,True,15
A019M44,143,experiment,36,←,left,←,0.7380335000343621,True,15
A019M44,144,experiment,156,↑,up,↑,1.150721899990458,True,15
A019M44,145,experiment,96,↑,up,↑,1.036910499969963,True,15
A019M44,146,experiment,120,↑,up,↑,0.6526640999945812,True,15
A019M44,147,experiment,36,↑,up,↑,0.7299290999653749,True,15
A019M44,148,experiment,24,↑,no_key,no_letter,-1.0,False,15
A019M44,149,experiment,96,↑,up,↑,0.6395315999980085,True,15
A019M44,150,experiment,132,↓,right,→,0.9310444999719039,False,15
A019M44,151,experiment,180,→,up,↑,0.74249360000249,False,15
A019M44,152,experiment,144,←,right,→,0.6767394000198692,False,15
A019M44,153,experiment,72,↑,up,↑,0.60887819994241,True,15
A019M44,154,experiment,12,→,right,→,0.6458800999680534,True,15
A019M44,155,experiment,12,→,up,↑,0.7107461999985389,False,15
A019M44,156,experiment,168,→,right,→,0.6079986999975517,True,15
A019M44,157,training,132,↑,up,↑,0.7532865999964997,True,16
A019M44,158,training,108,→,right,→,0.5704487000475638,True,16
A019M44,159,training,156,↓,left,←,0.45683309994637966,False,16
A019M44,160,experiment,60,←,up,↑,0.5656593999592587,False,16
A019M44,161,experiment,60,←,left,←,0.5228733000112697,True,16
A019M44,162,experiment,36,↓,up,↑,0.7501285000471398,False,16
A019M44,163,experiment,132,←,left,←,0.6021992999594659,True,16
A019M44,164,experiment,168,↓,down,↓,1.2103441000217572,True,16
A019M44,165,experiment,144,↓,down,↓,1.0269834999926388,True,16
A019M44,166,experiment,108,→,down,↓,0.9572960000368766,False,16
A019M44,167,experiment,84,↑,up,↑,0.7149644999881275,True,16
A019M44,168,experiment,36,←,left,←,0.9380354000022635,True,16
A019M44,169,experiment,48,←,left,←,0.5149286999949254,True,16
A019M44,170,experiment,48,→,up,↑,1.3671072000288405,False,16
A019M44,171,experiment,24,↑,up,↑,0.925476600008551,True,16
A019M44,172,experiment,180,↑,right,→,0.9929616000154056,False,16
A019M44,173,experiment,108,→,right,→,0.5865511000156403,True,16
A019M44,174,experiment,96,→,up,↑,0.9942830000072718,False,16
A019M44,175,experiment,132,→,left,←,0.9403199999942444,False,16
A019M44,176,experiment,156,↓,down,↓,1.111272200010717,True,16
A019M44,177,experiment,12,↓,no_key,no_letter,-1.0,False,16
A019M44,178,experiment,36,↑,up,↑,0.662122699955944,True,16
A019M44,179,experiment,84,↓,down,↓,0.9488388999598101,True,16
A019M44,180,experiment,12,↑,up,↑,1.0906954999663867,True,16
A019M44,181,experiment,120,→,right,→,0.5994555999641307,True,16
A019M44,182,experiment,180,↑,left,←,0.8061047999653965,False,16
A019M44,183,experiment,120,↑,up,↑,0.5049639000208117,True,16
A019M44,184,experiment,132,←,right,→,0.6270839999779128,False,16
A019M44,185,experiment,180,←,left,←,0.4726426999550313,True,16
A019M44,186,experiment,96,↑,right,→,0.48507410002639517,False,16
A019M44,187,experiment,120,←,left,←,0.6280499999993481,True,16
A019M44,188,experiment,156,↑,up,↑,0.9706066999933682,True,16
A019M44,189,experiment,72,←,left,←,0.5160839000018314,True,16
A019M44,190,experiment,48,↑,up,↑,0.8940264999982901,True,16
A019M44,191,experiment,168,↓,up,↑,0.9983922999817878,False,16
A019M44,192,experiment,48,↑,up,↑,0.7045443000388332,True,16
A019M44,193,experiment,144,→,up,↑,1.1176925000036135,False,16
A019M44,194,experiment,180,→,up,↑,0.7444130000076257,False,16
A019M44,195,experiment,108,→,right,→,1.1503571000066586,True,16
A019M44,196,experiment,24,↑,up,↑,0.8398260999820195,True,16
A019M44,197,experiment,60,↑,up,↑,0.5845204999786802,True,16
A019M44,198,experiment,36,↑,left,←,1.6345292000332847,False,16
A019M44,199,experiment,132,↑,right,→,0.6484280999866314,False,16
A019M44,200,experiment,168,↓,up,↑,0.5928364000283182,False,16
A019M44,201,experiment,72,←,left,←,0.9788837999803945,True,16
A019M44,202,experiment,12,→,right,→,0.6688579999608919,True,16
A019M44,203,experiment,60,→,right,→,1.1786689999862574,True,16
A019M44,204,experiment,84,↓,up,↑,1.0457378000137396,False,16
A019M44,205,experiment,84,←,right,→,0.5785410999669693,False,16
A019M44,206,experiment,156,→,left,←,0.9921625999850221,False,16
A019M44,207,experiment,72,↓,left,←,0.9215339999645948,False,16
A019M44,208,experiment,72,↓,up,↑,1.0257661999785341,False,16
A019M44,209,experiment,24,←,right,→,0.7864921999862418,False,16
A019M44,210,experiment,12,↑,right,→,0.9289104000199586,False,16
A019M44,211,experiment,96,←,left,←,0.9555384999839589,True,16
A019M44,212,experiment,168,↓,down,↓,1.1906973000150174,True,16
A019M44,213,experiment,24,↓,left,←,1.6806553000351414,False,16
A019M44,214,experiment,120,↓,down,↓,1.020432699995581,True,16
A019M44,215,experiment,144,↑,left,←,1.3412985000177287,False,16
A019M44,216,experiment,108,→,down,↓,0.9103155999910086,False,16
A019M44,217,experiment,144,↓,down,↓,0.801480799971614,True,16
A019M44,218,experiment,96,→,no_key,no_letter,-1.0,False,16
A019M44,219,experiment,156,→,right,→,0.6340009000268765,True,16
A019M44,220,training,132,→,right,→,0.5286765999626368,True,17
A019M44,221,training,60,←,up,↑,0.7766911999788135,False,17
A019M44,222,training,120,→,down,↓,1.1222183000063524,False,17
A019M44,223,experiment,24,→,up,↑,0.5395152999553829,False,17
A019M44,224,experiment,72,↓,down,↓,0.9287109000142664,True,17
A019M44,225,experiment,120,↓,down,↓,0.9592700999928638,True,17
A019M44,226,experiment,48,←,no_key,no_letter,-1.0,False,17
A019M44,227,experiment,72,↑,up,↑,0.6903941000346094,True,17
A019M44,228,experiment,36,→,right,→,0.7771510999882594,True,17
A019M44,229,experiment,84,↑,up,↑,0.5259275999851525,True,17
A019M44,230,experiment,180,→,right,→,0.885065299924463,True,17
A019M44,231,experiment,180,↑,right,→,0.57818130007945,False,17
A019M44,232,experiment,144,→,right,→,0.646112099988386,True,17
A019M44,233,experiment,60,→,right,→,0.7259021999780089,True,17
A019M44,234,experiment,84,←,up,↑,0.9962829999858513,False,17
A019M44,235,experiment,48,→,no_key,no_letter,-1.0,False,17
A019M44,236,experiment,120,→,right,→,0.6092776999576017,True,17
A019M44,237,experiment,132,←,left,←,0.9819513000547886,True,17
A019M44,238,experiment,168,↑,right,→,1.1464562999317423,False,17
A019M44,239,experiment,144,↓,down,↓,0.9398376999888569,True,17
A019M44,240,experiment,48,→,right,→,0.6857183000538498,True,17
A019M44,241,experiment,180,→,up,↑,1.318898900062777,False,17
A019M44,242,experiment,60,←,right,→,0.6604655999690294,False,17
A019M44,243,experiment,12,↓,left,←,1.096021099947393,False,17
A019M44,244,experiment,168,↓,down,↓,0.9132237000158057,True,17
A019M44,245,experiment,144,→,right,→,0.6394603999797255,True,17
A019M44,246,experiment,132,↑,up,↑,0.8336264999816194,True,17
A019M44,247,experiment,168,↓,right,→,0.6004142999881878,False,17
A019M44,248,experiment,60,→,no_key,no_letter,-1.0,False,17
A019M44,249,experiment,36,←,no_key,no_letter,-1.0,False,17
A019M44,250,experiment,96,↑,up,↑,0.7545349999563769,True,17
A019M44,251,experiment,24,→,up,↑,0.9217628999613225,False,17
A019M44,252,experiment,108,→,up,↑,0.11821310000959784,False,17
A019M44,253,experiment,180,↓,right,→,0.6175400000065565,False,17
A019M44,254,experiment,108,→,left,←,0.5661394000053406,False,17
A019M44,255,experiment,24,←,up,↑,0.6529822999145836,False,17
A019M44,256,experiment,12,↑,left,←,1.783183400053531,False,17
A019M44,257,experiment,72,↓,left,←,0.5407785000279546,False,17
A019M44,258,experiment,156,↓,left,←,0.36717279988806695,False,17
A019M44,259,experiment,108,←,right,→,0.5020269999513403,False,17
A019M44,260,experiment,12,→,up,↑,1.3271029000170529,False,17
A019M44,261,experiment,24,←,left,←,0.6108778000343591,True,17
A019M44,262,experiment,72,←,left,←,0.5731659000739455,True,17
A019M44,263,experiment,36,→,right,→,0.6760092000477016,True,17
A019M44,264,experiment,120,↑,left,←,0.747549399966374,False,17
A019M44,265,experiment,60,←,left,←,0.8606642000377178,True,17
A019M44,266,experiment,156,↓,no_key,no_letter,-1.0,False,17
A019M44,267,experiment,156,↑,no_key,no_letter,-1.0,False,17
A019M44,268,experiment,108,↓,left,←,0.9749601999064907,False,17
A019M44,269,experiment,132,↑,right,→,0.8579363999888301,False,17
A019M44,270,experiment,96,←,left,←,0.13384820008650422,True,17
A019M44,271,experiment,48,→,right,→,1.863568599917926,True,17
A019M44,272,experiment,144,→,right,→,0.5809216999914497,True,17
A019M44,273,experiment,120,→,right,→,0.4863251999486238,True,17
A019M44,274,experiment,12,←,left,←,1.1301535000093281,True,17
A019M44,275,experiment,132,↓,down,↓,1.2896561999805272,True,17
A019M44,276,experiment,84,↑,right,→,0.5105354000115767,False,17
A019M44,277,experiment,168,←,right,→,0.7894546000752598,False,17
A019M44,278,experiment,156,↑,up,↑,0.3340139000210911,True,17
A019M44,279,experiment,96,↓,left,←,0.9845020000357181,False,17
A019M44,280,experiment,96,→,right,→,0.5502491999650374,True,17
A019M44,281,experiment,84,↓,down,↓,1.0450748999137431,True,17
A019M44,282,experiment,36,↑,up,↑,0.898661500075832,True,17
A019M44,283,training,12,←,no_key,no_letter,-1.0,False,18
A019M44,284,training,180,→,right,→,0.8567809000378475,True,18
A019M44,285,training,168,↑,no_key,no_letter,-1.0,False,18
A019M44,286,experiment,132,↑,up,↑,0.7527762000681832,True,18
A019M44,287,experiment,48,←,left,←,1.0595542999217287,True,18
A019M44,288,experiment,48,←,right,→,1.0219117000233382,False,18
A019M44,289,experiment,120,↑,right,→,0.6125956999603659,False,18
A019M44,290,experiment,60,←,left,←,0.8270994999911636,True,18
A019M44,291,experiment,180,↓,right,→,0.5569758000783622,False,18
A019M44,292,experiment,144,←,left,←,0.8519419999793172,True,18
A019M44,293,experiment,168,↑,left,←,0.6020149999530986,False,18
A019M44,294,experiment,72,↓,left,←,0.7411640000063926,False,18
A019M44,295,experiment,168,←,left,←,0.8309942999621853,True,18
A019M44,296,experiment,36,→,right,→,0.7316818999825045,True,18
A019M44,297,experiment,120,↑,up,↑,1.033232899964787,True,18
A019M44,298,experiment,108,→,right,→,0.7038507999386638,True,18
A019M44,299,experiment,144,←,right,→,0.5615548000205308,False,18
A019M44,300,experiment,144,←,right,→,0.4890509999822825,False,18
A019M44,301,experiment,36,→,left,←,0.5758211000356823,False,18
A019M44,302,experiment,72,←,left,←,1.0461224999744445,True,18
A019M44,303,experiment,156,→,right,→,0.6678621000610292,True,18
A019M44,304,experiment,180,↑,up,↑,0.9511359999887645,True,18
A019M44,305,experiment,144,←,left,←,0.8197544000577182,True,18
A019M44,306,experiment,84,↓,down,↓,0.9734276999952272,True,18
A019M44,307,experiment,96,←,left,←,0.7471349000697955,True,18
A019M44,308,experiment,84,→,left,←,0.6097705001011491,False,18
A019M44,309,experiment,24,→,right,→,0.8293013999937102,True,18
A019M44,310,experiment,180,→,right,→,0.7861699999775738,True,18
A019M44,311,experiment,24,→,left,←,1.4207914000144228,False,18
A019M44,312,experiment,60,→,right,→,0.5992463000584394,True,18
A019M44,313,experiment,120,↑,left,←,0.566172800026834,False,18
A019M44,314,experiment,108,↓,right,→,0.6462367000058293,False,18
A019M44,315,experiment,108,↑,up,↑,0.7385838000336662,True,18
A019M44,316,experiment,60,←,left,←,0.6351049999939278,True,18
A019M44,317,experiment,24,↓,right,→,1.1171596000203863,False,18
A019M44,318,experiment,12,↓,right,→,1.0035852999426425,False,18
A019M44,319,experiment,48,←,left,←,0.8617392999585718,True,18
A019M44,320,experiment,120,←,left,←,0.6553501000162214,True,18
A019M44,321,experiment,48,↓,down,↓,1.0255264999577776,True,18
A019M44,322,experiment,96,←,left,←,0.6936714999610558,True,18
A019M44,323,experiment,108,↑,up,↑,0.6554713000077754,True,18
A019M44,324,experiment,72,→,right,→,0.5698369999881834,True,18
A019M44,325,experiment,36,↓,left,←,0.7123026000335813,False,18
A019M44,326,experiment,180,↓,no_key,no_letter,-1.0,False,18
A019M44,327,experiment,12,→,right,→,0.748588899965398,True,18
A019M44,328,experiment,132,←,left,←,0.9437088000122458,True,18
A019M44,329,experiment,24,↑,up,↑,1.002310200012289,True,18
A019M44,330,experiment,96,→,right,→,0.6207717000506818,True,18
A019M44,331,experiment,12,↓,left,←,1.0236519000027329,False,18
A019M44,332,experiment,156,→,left,←,0.16724980005528778,False,18
A019M44,333,experiment,156,←,no_key,no_letter,-1.0,False,18
A019M44,334,experiment,84,↑,up,↑,0.7198633999796584,True,18
A019M44,335,experiment,84,↓,down,↓,0.9822043000021949,True,18
A019M44,336,experiment,168,←,right,→,0.4692120000254363,False,18
A019M44,337,experiment,36,→,right,→,0.7200127999531105,True,18
A019M44,338,experiment,132,↓,down,↓,0.9651698999805376,True,18
A019M44,339,experiment,12,↑,up,↑,0.6987946999724954,True,18
A019M44,340,experiment,156,↑,no_key,no_letter,-1.0,False,18
A019M44,341,experiment,168,↓,down,↓,0.9313843999989331,True,18
A019M44,342,experiment,60,←,left,←,0.7528743000002578,True,18
A019M44,343,experiment,72,↑,up,↑,0.6177989999996498,True,18
A019M44,344,experiment,132,→,up,↑,0.7018994999816641,False,18
A019M44,345,experiment,96,↓,right,→,0.3840055000036955,False,18
A019M44,346,training,108,↓,down,↓,0.8470256000291556,True,18
A019M44,347,training,48,←,left,←,0.519272500067018,True,18
A019M44,348,training,36,↑,up,↑,1.2474660000298172,True,18
A019M44,349,experiment,84,↑,right,→,0.5190834000241011,False,18
A019M44,350,experiment,108,↑,no_key,no_letter,-1.0,False,18
A019M44,351,experiment,72,←,right,→,0.6058013000292704,False,18
A019M44,352,experiment,120,↑,up,↑,0.48630440002307296,True,18
A019M44,353,experiment,72,→,no_key,no_letter,-1.0,False,18
A019M44,354,experiment,48,→,right,→,0.5468572999816388,True,18
A019M44,355,experiment,48,→,left,←,1.0391724000219256,False,18
A019M44,356,experiment,72,←,left,←,0.5891507999040186,True,18
A019M44,357,experiment,144,→,right,→,0.6327574000461027,True,18
A019M44,358,experiment,12,←,right,→,0.8573851000983268,False,18
A019M44,359,experiment,96,↓,down,↓,1.018032900057733,True,18
A019M44,360,experiment,36,↑,right,→,0.6822261000052094,False,18
A019M44,361,experiment,108,→,right,→,0.528073100023903,True,18
A019M44,362,experiment,36,↑,up,↑,0.6090635999571532,True,18
A019M44,363,experiment,96,↓,up,↑,0.4171217998955399,False,18
A019M44,364,experiment,120,←,right,→,0.6151516999816522,False,18
A019M44,365,experiment,132,↓,down,↓,0.6857943999348208,True,18
A019M44,366,experiment,48,↑,right,→,1.3272670999867842,False,18
A019M44,367,experiment,144,↑,right,→,1.629620200023055,False,18
A019M44,368,experiment,180,↓,down,↓,0.981284899986349,True,18
A019M44,369,experiment,36,→,right,→,0.6515210999641567,True,18
A019M44,370,experiment,180,↓,right,→,0.36717800004407763,False,18
A019M44,371,experiment,168,←,no_key,no_letter,-1.0,False,18
A019M44,372,experiment,168,→,no_key,no_letter,-1.0,False,18
A019M44,373,experiment,180,→,right,→,0.4337586999172345,True,18
A019M44,374,experiment,24,↑,right,→,0.6384528999915347,False,18
A019M44,375,experiment,132,←,right,→,0.25041129998862743,False,18
A019M44,376,experiment,168,→,right,→,0.7594296999741346,True,18
A019M44,377,experiment,24,↑,up,↑,0.5489099000114948,True,18
A019M44,378,experiment,60,↓,down,↓,0.7616098000435159,True,18
A019M44,379,experiment,12,←,left,←,0.8921768000582233,True,18
A019M44,380,experiment,48,←,right,→,0.5336434000637382,False,18
A019M44,381,experiment,12,→,right,→,1.6313928999006748,True,18
A019M44,382,experiment,108,→,right,→,0.607913599931635,True,18
A019M44,383,experiment,108,↓,right,→,0.5480467000743374,False,18
A019M44,384,experiment,168,↓,left,←,1.0966157000511885,False,18
A019M44,385,experiment,60,→,down,↓,0.034897000063210726,False,18
A019M44,386,experiment,96,↑,up,↑,0.7344552000286058,True,18
A019M44,387,experiment,84,↑,right,→,0.7855963999172673,False,18
A019M44,388,experiment,60,←,left,←,0.9925730000250041,True,18
A019M44,389,experiment,120,←,left,←,0.7550520000513643,True,18
A019M44,390,experiment,132,←,left,←,0.8218705999897793,True,18
A019M44,391,experiment,156,←,no_key,no_letter,-1.0,False,18
A019M44,392,experiment,96,↑,left,←,0.5972685000160709,False,18
A019M44,393,experiment,132,←,left,←,0.38368990004528314,True,18
A019M44,394,experiment,36,←,no_key,no_letter,-1.0,False,18
A019M44,395,experiment,24,↑,no_key,no_letter,-1.0,False,18
A019M44,396,experiment,84,←,right,→,0.6756636999780312,False,18
A019M44,397,experiment,72,←,left,←,0.7995584000600502,True,18
A019M44,398,experiment,144,→,right,→,1.6618288999889046,True,18
A019M44,399,experiment,24,↓,left,←,0.6908339998917654,False,18
A019M44,400,experiment,156,↑,no_key,no_letter,-1.0,False,18
A019M44,401,experiment,144,→,right,→,0.41711929999291897,True,18
A019M44,402,experiment,180,↑,up,↑,0.9975069999927655,True,18
A019M44,403,experiment,12,↓,right,→,1.5829739000182599,False,18
A019M44,404,experiment,156,→,right,→,0.6029995999997482,True,18
A019M44,405,experiment,156,→,right,→,0.5393455000594258,True,18
A019M44,406,experiment,60,←,left,←,0.9194157000165433,True,18
A019M44,407,experiment,84,→,right,→,0.5539342999691144,True,18
A019M44,408,experiment,120,↓,left,←,0.8298886000411585,False,18
A019M44,409,training,48,←,right,→,0.7692836999194697,False,18
A019M44,410,training,132,↓,down,↓,0.9264009000035003,True,18
A019M44,411,training,72,←,up,↑,0.794593199971132,False,18
A019M44,412,experiment,168,←,right,→,0.47035720001440495,False,18
A019M44,413,experiment,180,↓,left,←,0.5041107001015916,False,18
A019M44,414,experiment,108,↑,right,→,0.38391309999860823,False,18
A019M44,415,experiment,72,←,left,←,0.7325916999252513,True,18
A019M44,416,experiment,24,←,left,←,0.5766326000448316,True,18
A019M44,417,experiment,48,→,left,←,0.7579731999430805,False,18
A019M44,418,experiment,180,←,right,→,0.2179923999356106,False,18
A019M44,419,experiment,84,↓,no_key,no_letter,-1.0,False,18
A019M44,420,experiment,12,←,no_key,no_letter,-1.0,False,18
A019M44,421,experiment,156,↓,down,↓,0.8681010999716818,True,18
A019M44,422,experiment,132,→,down,↓,1.197289100033231,False,18
A019M44,423,experiment,120,↓,right,→,0.9967809999361634,False,18
A019M44,424,experiment,12,→,left,←,0.916060300078243,False,18
A019M44,425,experiment,24,←,left,←,0.7592439000727609,True,18
A019M44,426,experiment,144,←,left,←,0.6634158999659121,True,18
A019M44,427,experiment,36,↓,right,→,0.7931755000026897,False,18
A019M44,428,experiment,108,↓,no_key,no_letter,-1.0,False,18
A019M44,429,experiment,180,↓,no_key,no_letter,-1.0,False,18
A019M44,430,experiment,168,↑,left,←,1.2418767999624833,False,18
A019M44,431,experiment,156,↓,down,↓,1.270133399986662,True,18
A019M44,432,experiment,120,↓,right,→,0.5645590999629349,False,18
A019M44,433,experiment,48,↓,down,↓,0.897992999991402,True,18
A019M44,434,experiment,24,↑,down,↓,0.997421000036411,False,18
A019M44,435,experiment,72,→,right,→,0.6238730999175459,True,18
A019M44,436,experiment,48,←,left,←,1.3153315000236034,True,18
A019M44,437,experiment,36,↓,down,↓,0.8350952999899164,True,18
A019M44,438,experiment,108,↓,right,→,0.47840020002331585,False,18
A019M44,439,experiment,48,→,up,↑,0.6974082000087947,False,18
A019M44,440,experiment,108,↑,up,↑,0.7406214999500662,True,18
A019M44,441,experiment,180,↓,right,→,0.5017506999429315,False,18
A019M44,442,experiment,96,↓,left,←,0.5359651999315247,False,18
A019M44,443,experiment,12,↓,down,↓,0.7192062999820337,True,18
A019M44,444,experiment,60,↑,up,↑,0.49206419999245554,True,18
A019M44,445,experiment,36,↑,down,↓,0.8499033999396488,False,18
A019M44,446,experiment,96,↑,left,←,0.5168599999742582,False,18
A019M44,447,experiment,12,→,right,→,0.5387739000143483,True,18
A019M44,448,experiment,60,↓,down,↓,0.8673988999798894,True,18
A019M44,449,experiment,84,↓,up,↑,0.4335663999663666,False,18
A019M44,450,experiment,36,→,up,↑,0.23318229999858886,False,18
A019M44,451,experiment,60,↑,right,→,0.5398729000007734,False,18
A019M44,452,experiment,144,↑,up,↑,0.6772261000005528,True,18
A019M44,453,experiment,60,→,left,←,0.06705029995646328,False,18
A019M44,454,experiment,96,→,no_key,no_letter,-1.0,False,18
A019M44,455,experiment,72,↓,right,→,0.3837394999573007,False,18
A019M44,456,experiment,120,←,right,→,0.8385720000369474,False,18
A019M44,457,experiment,132,←,up,↑,0.9163206999655813,False,18
A019M44,458,experiment,120,←,left,←,0.18392410001251847,True,18
A019M44,459,experiment,132,↑,right,→,0.5201672000112012,False,18
A019M44,460,experiment,84,↑,up,↑,0.15044250001665205,True,18
A019M44,461,experiment,24,↓,down,↓,0.8792609999654815,True,18
A019M44,462,experiment,156,←,right,→,1.5308598999399692,False,18
A019M44,463,experiment,96,↓,down,↓,0.8702165000140667,True,18
A019M44,464,experiment,72,→,right,→,0.4337445000419393,True,18
A019M44,465,experiment,84,↓,down,↓,0.7437951000174507,True,18
A019M44,466,experiment,132,←,left,←,0.8074315999401733,True,18
A019M44,467,experiment,144,↑,right,→,0.417254300089553,False,18
A019M44,468,experiment,144,←,left,←,1.11032370000612,True,18
A019M44,469,experiment,156,←,right,→,0.4003956000087783,False,18
A019M44,470,experiment,168,→,no_key,no_letter,-1.0,False,18
A019M44,471,experiment,168,→,left,←,1.4378518000012264,False,18
A019M44,472,training,96,←,left,←,1.063508199993521,True,18
A019M44,473,training,96,↑,right,→,0.4939677999354899,False,18
A019M44,474,training,84,↓,left,←,0.6398797000292689,False,18
A019M44,475,experiment,24,↓,down,↓,1.7052880000555888,True,18
A019M44,476,experiment,48,←,left,←,0.6574205000652,True,18
A019M44,477,experiment,120,→,right,→,0.6033290999475867,True,18
A019M44,478,experiment,132,↑,up,↑,0.9696449000621215,True,18
A019M44,479,experiment,48,↓,down,↓,0.7249605999095365,True,18
A019M44,480,experiment,72,←,left,←,0.6102483000140637,True,18
A019M44,481,experiment,132,→,no_key,no_letter,-1.0,False,18
A019M44,482,experiment,144,→,right,→,0.5975329000502825,True,18
A019M44,483,experiment,120,→,left,←,0.6842727999901399,False,18
A019M44,484,experiment,156,↓,right,→,0.4337535999948159,False,18
A019M44,485,experiment,36,→,no_key,no_letter,-1.0,False,18
A019M44,486,experiment,156,↑,right,→,1.151860999991186,False,18
A019M44,487,experiment,96,→,right,→,0.4994929999811575,True,18
A019M44,488,experiment,144,←,up,↑,0.6375428999308497,False,18
A019M44,489,experiment,84,←,left,←,0.999372599995695,True,18
A019M44,490,experiment,120,←,left,←,0.7709048000397161,True,18
A019M44,491,experiment,84,→,right,→,0.47514879994560033,True,18
A019M44,492,experiment,180,↓,no_key,no_letter,-1.0,False,18
A019M44,493,experiment,12,←,no_key,no_letter,-1.0,False,18
A019M44,494,experiment,180,↑,left,←,1.5658688999246806,False,18
A019M44,495,experiment,144,↓,down,↓,1.0371900000609457,True,18
A019M44,496,experiment,156,↓,right,→,0.33369529992341995,False,18
A019M44,497,experiment,12,↓,left,←,1.1697684999089688,False,18
A019M44,498,experiment,72,↑,right,→,0.4892814999911934,False,18
A019M44,499,experiment,60,→,right,→,0.49996920011471957,True,18
A019M44,500,experiment,48,→,left,←,1.2431093000341207,False,18
A019M44,501,experiment,72,→,right,→,0.4981166999787092,True,18
A019M44,502,experiment,72,→,right,→,0.5120241000549868,True,18
A019M44,503,experiment,168,←,left,←,0.5065168000292033,True,18
A019M44,504,experiment,60,→,right,→,0.9304341999813914,True,18
A019M44,505,experiment,84,→,left,←,0.5609631000552326,False,18
A019M44,506,experiment,180,←,left,←,0.6003186000743881,True,18
A019M44,507,experiment,12,↓,right,→,1.0032461999217048,False,18
A019M44,508,experiment,108,↓,down,↓,1.0606572000542656,True,18
A019M44,509,experiment,12,↓,down,↓,1.0461065999697894,True,18
A019M44,510,experiment,120,→,right,→,0.906994599965401,True,18
A019M44,511,experiment,180,←,left,←,1.1723491000011563,True,18
A019M44,512,experiment,60,↓,down,↓,0.8508144000079483,True,18
A019M44,513,experiment,84,↓,right,→,0.4336676000384614,False,18
A019M44,514,experiment,168,↑,left,←,0.47905949992127717,False,18
A019M44,515,experiment,168,↑,up,↑,0.8427524000871927,True,18
A019M44,516,experiment,36,↑,left,←,0.6358130000298843,False,18
A019M44,517,experiment,36,→,right,→,0.6702616000548005,True,18
A019M44,518,experiment,96,←,no_key,no_letter,-1.0,False,18
A019M44,519,experiment,24,→,left,←,0.6765491999685764,False,18
A019M44,520,experiment,168,↓,down,↓,0.8344901000382379,True,18
A019M44,521,experiment,60,←,left,←,0.73720350000076,True,18
A019M44,522,experiment,24,←,no_key,no_letter,-1.0,False,18
A019M44,523,experiment,48,←,right,→,0.3838664999930188,False,18
A019M44,524,experiment,36,↓,left,←,0.5786082999547943,False,18
A019M44,525,experiment,144,↑,up,↑,0.5289288000203669,True,18
A019M44,526,experiment,108,↓,down,↓,0.7818260000785813,True,18
A019M44,527,experiment,108,→,right,→,0.46827420010231435,True,18
A019M44,528,experiment,96,↓,down,↓,0.9251689000520855,True,18
A019M44,529,experiment,96,←,left,←,0.728813299909234,True,18
A019M44,530,experiment,132,↓,down,↓,0.9639478999888524,True,18
A019M44,531,experiment,156,→,left,←,0.690183800063096,False,18
A019M44,532,experiment,24,←,left,←,0.8057094000978395,True,18
A019M44,533,experiment,108,↑,right,→,0.47765380004420877,False,18
A019M44,534,experiment,132,←,left,←,0.5511555999983102,True,18
A019M44,535,training,60,←,left,←,0.5651623000157997,True,18
A019M44,536,training,132,↑,up,↑,0.7346634001005441,True,18
A019M44,537,training,156,→,right,→,0.3672937999945134,True,18
A019M44,538,experiment,36,→,right,→,0.676814500009641,True,18
A019M44,539,experiment,144,↑,left,←,0.474549200036563,False,18
A019M44,540,experiment,108,→,right,→,0.508959099999629,True,18
A019M44,541,experiment,168,↓,up,↑,0.5073312000604346,False,18
A019M44,542,experiment,48,→,right,→,0.4170348000479862,True,18
A019M44,543,experiment,180,→,no_key,no_letter,-1.0,False,18
A019M44,544,experiment,96,→,right,→,0.6316299000754952,True,18
A019M44,545,experiment,156,↓,down,↓,1.1313835999462754,True,18
A019M44,546,experiment,24,↓,right,→,0.5866496000671759,False,18
A019M44,547,experiment,132,→,right,→,0.5115718999877572,True,18
A019M44,548,experiment,168,←,right,→,0.5849865999771282,False,18
A019M44,549,experiment,132,↓,up,↑,0.7158326000208035,False,18
A019M44,550,experiment,12,↓,down,↓,0.8466636000666767,True,18
A019M44,551,experiment,120,←,no_key,no_letter,-1.0,False,18
A019M44,552,experiment,168,→,no_key,no_letter,-1.0,False,18
A019M44,553,experiment,48,↑,left,←,0.582575700012967,False,18
A019M44,554,experiment,72,←,right,→,0.6257246999302879,False,18
A019M44,555,experiment,48,↑,left,←,0.5375862000510097,False,18
A019M44,556,experiment,120,↑,no_key,no_letter,-1.0,False,18
A019M44,557,experiment,48,↓,down,↓,1.1048782999860123,True,18
A019M44,558,experiment,60,→,right,→,0.4336546000558883,True,18
A019M44,559,experiment,144,→,right,→,0.49967220006510615,True,18
A019M44,560,experiment,84,←,left,←,0.9101012999890372,True,18
A019M44,561,experiment,84,→,right,→,1.1874785999534652,True,18
A019M44,562,experiment,36,↑,up,↑,0.8706676999572664,True,18
A019M44,563,experiment,72,←,left,←,0.9970713999355212,True,18
A019M44,564,experiment,12,→,no_key,no_letter,-1.0,False,18
A019M44,565,experiment,84,↑,up,↑,0.6204943999182433,True,18
A019M44,566,experiment,180,←,right,→,0.563268700032495,False,18
A019M44,567,experiment,12,↓,left,←,1.0258423000341281,False,18
A019M44,568,experiment,60,↓,down,↓,0.968269000062719,True,18
A019M44,569,experiment,120,↓,right,→,0.4338088999502361,False,18
A019M44,570,experiment,96,→,no_key,no_letter,-1.0,False,18
A019M44,571,experiment,84,↑,up,↑,0.5572041999548674,True,18
A019M44,572,experiment,96,↑,right,→,0.43388080003205687,False,18
A019M44,573,experiment,180,→,right,→,0.5765255000442266,True,18
A019M44,574,experiment,132,←,left,←,1.2425881000235677,True,18
A019M44,575,experiment,12,↓,down,↓,0.6504376999801025,True,18
A019M44,576,experiment,108,↓,right,→,0.4005810000235215,False,18
A019M44,577,experiment,156,↓,down,↓,0.7689953000517562,True,18
A019M44,578,experiment,156,←,right,→,0.6383223999291658,False,18
A019M44,579,experiment,180,←,no_key,no_letter,-1.0,False,18
A019M44,580,experiment,36,↑,right,→,0.5853763000341132,False,18
A019M44,581,experiment,72,←,left,←,0.852875699987635,True,18
A019M44,582,experiment,36,←,right,→,0.4735686000203714,False,18
A019M44,583,experiment,72,→,right,→,0.4172691000858322,True,18
A019M44,584,experiment,60,→,left,←,0.6195397000992671,False,18
A019M44,585,experiment,156,↓,up,↑,0.9389159000711516,False,18
A019M44,586,experiment,144,←,left,←,0.9213858000002801,True,18
A019M44,587,experiment,108,↑,up,↑,1.1591294000390917,True,18
A019M44,588,experiment,144,←,left,←,0.8555990000022575,True,18
A019M44,589,experiment,132,←,right,→,0.5694113000063226,False,18
A019M44,590,experiment,24,←,left,←,1.2906168999616057,True,18
A019M44,591,experiment,168,↑,right,→,0.6074543999275193,False,18
A019M44,592,experiment,60,→,right,→,0.5235147000057623,True,18
A019M44,593,experiment,24,→,no_key,no_letter,-1.0,False,18
A019M44,594,experiment,24,←,right,→,1.1483651000307873,False,18
A019M44,595,experiment,108,↑,left,←,0.7319665999384597,False,18
A019M44,596,experiment,120,↓,right,→,0.4339388000080362,False,18
A019M44,597,experiment,96,↑,left,←,0.857255500042811,False,18
A019M44,598,training,60,↑,up,↑,1.2442224000114948,True,18
A019M44,599,training,120,←,right,→,0.4837050000205636,False,18
A019M44,600,training,24,←,right,→,0.5571832000277936,False,18
A019M44,601,experiment,180,←,left,←,0.3671305999159813,True,18
A019M44,602,experiment,180,↓,up,↑,0.3007111999904737,False,18
A019M44,603,experiment,132,←,left,←,0.542732400004752,True,18
A019M44,604,experiment,12,←,left,←,0.5145713000092655,True,18
A019M44,605,experiment,12,↓,left,←,1.3559583999449387,False,18
A019M44,606,experiment,36,→,no_key,no_letter,-1.0,False,18
A019M44,607,experiment,108,↓,left,←,0.3839727999875322,False,18
A019M44,608,experiment,144,↑,up,↑,0.8844603000907227,True,18
A019M44,609,experiment,96,↑,right,→,0.2502843999536708,False,18
A019M44,610,experiment,168,←,left,←,0.000560999964363873,True,18
A019M44,611,experiment,12,↓,left,←,1.4954270999878645,False,18
A019M44,612,experiment,84,↑,up,↑,1.02084220002871,True,18
A019M44,613,experiment,108,↓,down,↓,1.110054799937643,True,18
A019M44,614,experiment,132,↓,down,↓,0.926009300048463,True,18
A019M44,615,experiment,24,↑,down,↓,1.2215905000921339,False,18
A019M44,616,experiment,12,↓,down,↓,0.6972716000163928,True,18
A019M44,617,experiment,48,↓,down,↓,0.6766712999669835,True,18
A019M44,618,experiment,156,↑,up,↑,0.6082135000033304,True,18
A019M44,619,experiment,168,→,right,→,0.9407183000585064,True,18
A019M44,620,experiment,48,↑,up,↑,0.528544700006023,True,18
A019M44,621,experiment,156,→,right,→,0.6603042000206187,True,18
A019M44,622,experiment,48,→,right,→,0.5444742999970913,True,18
A019M44,623,experiment,48,←,left,←,0.9222360000712797,True,18
A019M44,624,experiment,60,→,right,→,0.6315387999638915,True,18
A019M44,625,experiment,36,↓,down,↓,0.9421878999564797,True,18
A019M44,626,experiment,84,↑,right,→,0.5409870999865234,False,18
A019M44,627,experiment,156,↓,right,→,0.5077818999998271,False,18
A019M44,628,experiment,72,↑,up,↑,0.7021511000348255,True,18
A019M44,629,experiment,120,↑,left,←,1.141779899946414,False,18
A019M44,630,experiment,180,↓,up,↑,0.7492978000082076,False,18
A019M44,631,experiment,72,←,left,←,0.7273992999689654,True,18
A019M44,632,experiment,168,↓,down,↓,1.1046883000526577,True,18
A019M44,633,experiment,24,→,right,→,1.22785359993577,True,18
A019M44,634,experiment,108,↓,down,↓,0.8399512000614777,True,18
A019M44,635,experiment,84,↑,right,→,0.5291508000809699,False,18
A019M44,636,experiment,132,←,right,→,0.572204599971883,False,18
A019M44,637,experiment,96,←,right,→,0.4777799000730738,False,18
A019M44,638,experiment,120,↓,left,←,0.35056429996620864,False,18
A019M44,639,experiment,156,↓,down,↓,0.9767178000183776,True,18
A019M44,640,experiment,144,↓,right,→,0.3003747999900952,False,18
A019M44,641,experiment,60,↓,down,↓,1.0056378999724984,True,18
A019M44,642,experiment,36,→,no_key,no_letter,-1.0,False,18
A019M44,643,experiment,60,→,right,→,0.517996700014919,True,18
A019M44,644,experiment,132,←,left,←,0.8983636000193655,True,18
A019M44,645,experiment,120,←,right,→,0.4003070999169722,False,18
A019M44,646,experiment,72,↓,left,←,0.6552358000772074,False,18
A019M44,647,experiment,96,↑,up,↑,0.7345620000269264,True,18
A019M44,648,experiment,108,→,right,→,0.539172799908556,True,18
A019M44,649,experiment,24,↑,up,↑,0.8585860000457615,True,18
A019M44,650,experiment,24,→,no_key,no_letter,-1.0,False,18
A019M44,651,experiment,144,↓,left,←,0.31721450004260987,False,18
A019M44,652,experiment,84,←,right,→,0.4170347999315709,False,18
A019M44,653,experiment,120,→,right,→,0.26728060003370047,True,18
A019M44,654,experiment,96,←,right,→,0.2671790999593213,False,18
A019M44,655,experiment,36,↓,down,↓,0.9465486999833956,True,18
A019M44,656,experiment,180,→,right,→,0.41730079997796565,True,18
A019M44,657,experiment,144,↓,down,↓,0.9870664000045508,True,18
A019M44,658,experiment,168,←,left,←,1.0076849999604747,True,18
A019M44,659,experiment,72,→,right,→,0.5488686000462621,True,18
A019M44,660,experiment,60,→,right,→,0.5302419000072405,True,18
A019M44,661,training,108,↑,up,↑,0.8768632999854162,True,18
A019M44,662,training,132,↑,up,↑,0.6122048998950049,True,18
A019M44,663,training,168,←,left,←,1.0746326999505982,True,18
A019M44,664,experiment,132,↑,right,→,0.4004723000107333,False,18
A019M44,665,experiment,72,↑,up,↑,0.4929491999791935,True,18
A019M44,666,experiment,156,↑,up,↑,0.6166327999671921,True,18
A019M44,667,experiment,144,→,right,→,0.4774821000173688,True,18
A019M44,668,experiment,144,←,left,←,0.523519300040789,True,18
A019M44,669,experiment,24,←,left,←,1.0163589000003412,True,18
A019M44,670,experiment,96,↑,up,↑,0.7416838000062853,True,18
A019M44,671,experiment,24,↓,up,↑,1.6753816000418738,False,18
A019M44,672,experiment,108,↓,down,↓,1.1281088999239728,True,18
A019M44,673,experiment,60,←,left,←,0.7990473000099882,True,18
A019M44,674,experiment,108,↓,down,↓,1.0445912000723183,True,18
A019M44,675,experiment,132,↑,up,↑,0.4974643000168726,True,18
A019M44,676,experiment,156,↓,down,↓,0.750449699931778,True,18
A019M44,677,experiment,180,↑,right,→,0.4945538000902161,False,18
A019M44,678,experiment,36,→,left,←,1.425749000045471,False,18
A019M44,679,experiment,12,←,left,←,0.5662064000498503,True,18
A019M44,680,experiment,60,↓,left,←,0.923722300096415,False,18
A019M44,681,experiment,120,↓,right,→,0.4878186999121681,False,18
A019M44,682,experiment,144,↑,up,↑,0.5654578000539914,True,18
A019M44,683,experiment,168,↓,left,←,0.5071870000101626,False,18
A019M44,684,experiment,36,↓,right,→,0.6115748999873176,False,18
A019M44,685,experiment,84,↑,up,↑,0.6089067000430077,True,18
A019M44,686,experiment,168,↑,no_key,no_letter,-1.0,False,18
A019M44,687,experiment,156,↑,left,←,0.6635587000055239,False,18
A019M44,688,experiment,72,←,left,←,0.6155064000049606,True,18
A019M44,689,experiment,144,→,no_key,no_letter,-1.0,False,18
A019M44,690,experiment,12,↓,down,↓,0.9226594999199733,True,18
A019M44,691,experiment,132,↑,right,→,0.43380840006284416,False,18
A019M44,692,experiment,84,↑,no_key,no_letter,-1.0,False,18
A019M44,693,experiment,48,↑,right,→,0.5144647000124678,False,18
A019M44,694,experiment,60,↓,down,↓,0.9041013999376446,True,18
A019M44,695,experiment,48,→,right,→,0.6118328999727964,True,18
A019M44,696,experiment,120,←,no_key,no_letter,-1.0,False,18
A019M44,697,experiment,108,←,left,←,0.8020892000058666,True,18
A019M44,698,experiment,96,↑,right,→,0.739929800038226,False,18
A019M44,699,experiment,156,↓,left,←,0.708593099960126,False,18
A019M44,700,experiment,180,↓,no_key,no_letter,-1.0,False,18
A019M44,701,experiment,120,↑,left,←,0.30049649998545647,False,18
A019M44,702,experiment,168,→,right,→,0.3504030000185594,True,18
A019M44,703,experiment,36,↓,left,←,0.651757700019516,False,18
A019M44,704,experiment,108,→,left,←,0.30037710000760853,False,18
A019M44,705,experiment,168,↓,down,↓,1.1277029999764636,True,18
A019M44,706,experiment,180,↓,no_key,no_letter,-1.0,False,18
A019M44,707,experiment,72,→,right,→,0.28383329999633133,True,18
A019M44,708,experiment,72,→,up,↑,0.36711180000565946,False,18
A019M44,709,experiment,84,↓,down,↓,1.0622177000623196,True,18
A019M44,710,experiment,12,↓,left,←,0.6649570999434218,False,18
A019M44,711,experiment,12,→,right,→,0.6284799999557436,True,18
A019M44,712,experiment,96,←,right,→,0.36705979995895177,False,18
A019M44,713,experiment,24,↓,down,↓,0.982804200029932,True,18
A019M44,714,experiment,60,↑,up,↑,0.7896293000085279,True,18
A019M44,715,experiment,48,←,left,←,0.844431099947542,True,18
A019M44,716,experiment,120,↑,right,→,0.6264241000171751,False,18
A019M44,717,experiment,84,→,left,←,0.30040319997351617,False,18
A019M44,718,experiment,24,↓,down,↓,0.8901187999872491,True,18
A019M44,719,experiment,132,↓,down,↓,0.7496762999799103,True,18
A019M44,720,experiment,96,←,right,→,0.43367099994793534,False,18
A019M44,721,experiment,180,↑,left,←,1.0724333000835031,False,18
A019M44,722,experiment,36,→,no_key,no_letter,-1.0,False,18
A019M44,723,experiment,48,←,right,→,0.33382920001167804,False,18
A019M44,724,training,120,←,up,↑,0.26708159991540015,False,18
A019M44,725,training,156,↑,right,→,0.3004597999388352,False,18
A019M44,726,training,132,↓,right,→,0.5024574999697506,False,18
A019M44,727,experiment,144,↓,down,↓,0.5507020000368357,True,18
A019M44,728,experiment,156,←,right,→,0.5153215000173077,False,18
A019M44,729,experiment,144,←,left,←,0.7782450000522658,True,18
A019M44,730,experiment,108,→,right,→,0.5750567999202758,True,18
A019M44,731,experiment,12,↓,no_key,no_letter,-1.0,False,18
A019M44,732,experiment,180,←,left,←,0.6466268999502063,True,18
A019M44,733,experiment,84,↓,down,↓,1.1088979999767616,True,18
A019M44,734,experiment,168,→,right,→,0.6818367000669241,True,18
A019M44,735,experiment,156,→,no_key,no_letter,-1.0,False,18
A019M44,736,experiment,168,↑,right,→,0.7551188999786973,False,18
A019M44,737,experiment,48,↑,right,→,0.8575522999744862,False,18
A019M44,738,experiment,156,→,left,←,0.7413188999053091,False,18
A019M44,739,experiment,72,↑,up,↑,0.7853192000184208,True,18
A019M44,740,experiment,60,←,left,←,0.553956100018695,True,18
A019M44,741,experiment,120,↓,down,↓,0.9118551999563351,True,18
A019M44,742,experiment,60,↓,right,→,0.584935300052166,False,18
A019M44,743,experiment,108,↓,left,←,1.4412945000221953,False,18
A019M44,744,experiment,84,←,left,←,0.5367788999574259,True,18
A019M44,745,experiment,48,↑,right,→,0.6598265999928117,False,18
A019M44,746,experiment,96,←,left,←,0.6105076000094414,True,18
A019M44,747,experiment,48,→,right,→,0.5390292000956833,True,18
A019M44,748,experiment,144,↑,up,↑,0.7078560000518337,True,18
A019M44,749,experiment,120,↓,up,↑,1.4299303999869153,False,18
A019M44,750,experiment,72,↑,no_key,no_letter,-1.0,False,18
A019M44,751,experiment,60,←,left,←,0.57702980004251,True,18
A019M44,752,experiment,72,←,right,→,0.7768155999947339,False,18
A019M44,753,experiment,24,↓,right,→,0.737087200046517,False,18
A019M44,754,experiment,24,→,up,↑,1.3466581999091431,False,18
A019M44,755,experiment,36,↓,down,↓,0.8743982999585569,True,18
A019M44,756,experiment,96,↑,right,→,0.5179416999453679,False,18
A019M44,757,experiment,60,←,left,←,0.9529489999404177,True,18
A019M44,758,experiment,24,←,right,→,0.4999097000109032,False,18
A019M44,759,experiment,180,→,right,→,0.4338951000245288,True,18
A019M44,760,experiment,36,↓,down,↓,1.0139704999746755,True,18
A019M44,761,experiment,120,←,right,→,0.41709609993267804,False,18
A019M44,762,experiment,144,←,right,→,0.7028082000324503,False,18
A019M44,763,experiment,132,→,right,→,0.502231499995105,True,18
A019M44,764,experiment,156,→,right,→,0.8659374000271782,True,18
A019M44,765,experiment,96,↓,right,→,1.0329058000352234,False,18
A019M44,766,experiment,132,←,right,→,0.38390340004116297,False,18
A019M44,767,experiment,96,→,right,→,0.7501797000877559,True,18
A019M44,768,experiment,24,←,right,→,1.3951114999363199,False,18
A019M44,769,experiment,108,↓,right,→,0.7002148000756279,False,18
A019M44,770,experiment,132,↑,up,↑,0.2837426000041887,True,18
A019M44,771,experiment,180,→,left,←,0.06708730000536889,False,18
A019M44,772,experiment,12,←,right,→,0.8232309999875724,False,18
A019M44,773,experiment,132,↑,right,→,0.43384720000904053,False,18
A019M44,774,experiment,168,↓,up,↑,0.3840224000159651,False,18
A019M44,775,experiment,120,→,right,→,0.5862420999910682,True,18
A019M44,776,experiment,108,→,right,→,0.5202804000582546,True,18
A019M44,777,experiment,84,↓,right,→,0.38396969996392727,False,18
A019M44,778,experiment,84,→,no_key,no_letter,-1.0,False,18
A019M44,779,experiment,180,←,right,→,0.4338876000838354,False,18
A019M44,780,experiment,12,↓,up,↑,0.8318186999531463,False,18
A019M44,781,experiment,36,↓,down,↓,0.9346788000548258,True,18
A019M44,782,experiment,168,→,right,→,1.0713275999296457,True,18
A019M44,783,experiment,48,↓,down,↓,0.8803387999068946,True,18
A019M44,784,experiment,12,↓,right,→,0.833276699995622,False,18
A019M44,785,experiment,36,→,right,→,0.4686176999239251,True,18
A019M44,786,experiment,72,↑,no_key,no_letter,-1.0,False,18
A019M44,787,training,72,→,right,→,0.6530406000092626,True,18
A019M44,788,training,72,→,right,→,0.4171053000027314,True,18
A019M44,789,training,36,←,left,←,0.7012240000767633,True,18
A019M44,790,experiment,180,↓,left,←,0.6207550000399351,False,18
A019M44,791,experiment,12,→,up,↑,0.48883839999325573,False,18
A019M44,792,experiment,48,↑,up,↑,0.506219599978067,True,18
A019M44,793,experiment,72,↑,up,↑,0.4004988999804482,True,18
A019M44,794,experiment,156,↓,left,←,0.7949097000528127,False,18
A019M44,795,experiment,48,↑,up,↑,0.5851353999460116,True,18
A019M44,796,experiment,156,←,right,→,0.43502669990994036,False,18
A019M44,797,experiment,96,↓,up,↑,0.43358519999310374,False,18
A019M44,798,experiment,180,↓,right,→,1.1604030999587849,False,18
A019M44,799,experiment,60,↑,up,↑,0.7323288000188768,True,18
A019M44,800,experiment,144,→,right,→,1.863142800051719,True,18
A019M44,801,experiment,60,↓,down,↓,0.6991978000150993,True,18
A019M44,802,experiment,12,↓,down,↓,0.6650310999248177,True,18
A019M44,803,experiment,36,→,right,→,0.5402747000334784,True,18
A019M44,804,experiment,180,→,right,→,0.4338197000324726,True,18
A019M44,805,experiment,60,↓,down,↓,0.8100921999430284,True,18
A019M44,806,experiment,132,↑,right,→,0.4336908000987023,False,18
A019M44,807,experiment,168,→,right,→,0.4338438000995666,True,18
A019M44,808,experiment,156,←,no_key,no_letter,-1.0,False,18
A019M44,809,experiment,48,←,right,→,0.4339149999432266,False,18
A019M44,810,experiment,108,↑,right,→,0.417035200051032,False,18
A019M44,811,experiment,24,↓,down,↓,0.7862862000474706,True,18
A019M44,812,experiment,168,↑,right,→,0.36708390002604574,False,18
A019M44,813,experiment,96,←,left,←,0.7309516000095755,True,18
A019M44,814,experiment,96,→,right,→,0.4003446999704465,True,18
A019M44,815,experiment,144,↓,down,↓,0.6994918000418693,True,18
A019M44,816,experiment,84,↑,up,↑,0.4711585999466479,True,18
A019M44,817,experiment,108,↓,down,↓,0.6242588000604883,True,18
A019M44,818,experiment,108,→,right,→,0.4754522000439465,True,18
A019M44,819,experiment,120,↓,right,→,0.55732770008035,False,18
A019M44,820,experiment,84,←,right,→,0.5552812999812886,False,18
A019M44,821,experiment,156,←,right,→,0.2172126000514254,False,18
A019M44,822,experiment,120,↑,right,→,0.350551399984397,False,18
A019M44,823,experiment,72,↓,down,↓,0.8220817000837997,True,18
A019M44,824,experiment,24,←,left,←,0.8664317999500781,True,18
A019M44,825,experiment,24,↑,up,↑,0.5400459999218583,True,18
A019M44,826,experiment,48,↑,up,↑,0.4005155999911949,True,18
A019M44,827,experiment,72,↑,right,→,0.8801392000168562,False,18
A019M44,828,experiment,72,↓,right,→,0.4171481999801472,False,18
A019M44,829,experiment,96,→,up,↑,0.4677923999261111,False,18
A019M44,830,experiment,120,↓,up,↑,0.8978937999345362,False,18
A019M44,831,experiment,132,↓,left,←,0.31709470006171614,False,18
A019M44,832,experiment,132,↓,right,→,0.3006959999911487,False,18
A019M44,833,experiment,36,←,left,←,0.6774360999697819,True,18
A019M44,834,experiment,84,→,no_key,no_letter,-1.0,False,18
A019M44,835,experiment,168,↓,down,↓,0.8818355000112206,True,18
A019M44,836,experiment,84,↑,right,→,0.5553035999182612,False,18
A019M44,837,experiment,144,↓,up,↑,0.4744929999578744,False,18
A019M44,838,experiment,12,←,left,←,0.7114128000102937,True,18
A019M44,839,experiment,144,↑,up,↑,0.5020797000033781,True,18
A019M44,840,experiment,24,↓,up,↑,0.41696800000499934,False,18
A019M44,841,experiment,12,→,right,→,0.8355011000530794,True,18
A019M44,842,experiment,120,↑,up,↑,0.5091750000137836,True,18
A019M44,843,experiment,168,↑,up,↑,0.41724330000579357,True,18
A019M44,844,experiment,108,←,up,↑,0.4337743000360206,False,18
A019M44,845,experiment,60,↓,right,→,0.26713890000246465,False,18
A019M44,846,experiment,36,↓,down,↓,0.8100971999811009,True,18
A019M44,847,experiment,180,↑,up,↑,0.41725540009792894,True,18
A019M44,848,experiment,132,↑,right,→,0.3336974000558257,False,18
A019M44,849,experiment,36,→,up,↑,0.5200206999434158,False,18
