PART_ID,Trial_no,Trial_type,PDI,Stim_letter,Key_pressed,letter_choose,Rt,Corr,Stimulus Time
A022K25,1,training,10,↑,down,↓,1.964095199946314,False,30
A022K25,2,training,10,↓,left,←,1.6403749999590218,False,30
A022K25,3,training,10,↑,left,←,1.3122348999604583,False,30
A022K25,4,training,10,↑,no_key,no_letter,-1.0,False,30
A022K25,5,training,10,↓,down,↓,2.13425800006371,True,30
A022K25,6,training,10,↑,no_key,no_letter,-1.0,False,30
A022K25,7,training,10,←,left,←,1.5046720000682399,True,30
A022K25,8,training,10,←,left,←,1.1839303999440745,True,30
A022K25,9,training,10,↑,up,↑,1.4577449000207707,True,30
A022K25,10,training,10,←,left,←,0.9340401999652386,True,30
A022K25,11,training,10,→,right,→,0.9368560001021251,True,30
A022K25,12,training,10,↑,up,↑,1.0497623999835923,True,30
A022K25,13,training,10,→,right,→,0.8837997999507934,True,30
A022K25,14,training,10,↑,up,↑,1.0685742000350729,True,30
A022K25,15,training,10,↓,down,↓,1.0032031000591815,True,30
A022K25,16,training,10,↓,down,↓,2.1104761000024155,True,30
A022K25,17,training,10,→,right,→,0.8584994999691844,True,30
A022K25,18,training,10,↓,down,↓,0.4508089000592008,True,30
A022K25,19,training,10,↓,right,→,1.509178000036627,False,30
A022K25,20,training,10,↓,down,↓,0.7545908000320196,True,30
A022K25,21,training,10,←,right,→,1.1504282000241801,False,18
A022K25,22,training,10,↑,up,↑,0.8238316000206396,True,18
A022K25,23,training,10,←,left,←,1.2938632000004873,True,18
A022K25,24,training,10,↓,right,→,1.0044057000195608,False,18
A022K25,25,training,10,↑,up,↑,0.6861280000302941,True,18
A022K25,26,training,10,↓,down,↓,1.1476505000609905,True,18
A022K25,27,training,10,↑,up,↑,0.7637949999189004,True,18
A022K25,28,training,10,←,down,↓,0.9903090000152588,False,18
A022K25,29,training,10,→,up,↑,1.1560901999473572,False,18
A022K25,30,training,10,↓,down,↓,0.8359423999208957,True,18
A022K25,31,training,132,→,right,→,0.6310193999670446,True,15
A022K25,32,training,144,↓,down,↓,0.6432139000389725,True,15
A022K25,33,training,84,←,down,↓,0.9330376000143588,False,15
A022K25,34,experiment,12,↓,right,→,0.8993605999276042,False,15
A022K25,35,experiment,132,←,right,→,0.8486923000309616,False,15
A022K25,36,experiment,84,↓,up,↑,1.1731612998992205,False,15
A022K25,37,experiment,72,↑,down,↓,1.2902293000370264,False,15
A022K25,38,experiment,84,→,down,↓,1.091746799997054,False,15
A022K25,39,experiment,24,↓,right,→,1.54964270000346,False,15
A022K25,40,experiment,60,↓,down,↓,0.7815242999931797,True,15
A022K25,41,experiment,132,↓,down,↓,0.6868836000794545,True,15
A022K25,42,experiment,120,↓,down,↓,0.8956577000208199,True,15
A022K25,43,experiment,12,→,right,→,0.8013362999772653,True,15
A022K25,44,experiment,12,→,right,→,0.6076583999674767,True,15
A022K25,45,experiment,72,↓,down,↓,1.0534836000297219,True,15
A022K25,46,experiment,144,←,left,←,1.1012158000376076,True,15
A022K25,47,experiment,156,←,down,↓,1.509838999947533,False,15
A022K25,48,experiment,156,↑,right,→,1.0411371999653056,False,15
A022K25,49,experiment,108,↓,down,↓,1.0154589000158012,True,15
A022K25,50,experiment,180,→,right,→,0.8458466000156477,True,15
A022K25,51,experiment,48,↑,right,→,1.0270834000548348,False,15
A022K25,52,experiment,60,↓,down,↓,1.2017547000432387,True,15
A022K25,53,experiment,48,↓,down,↓,1.0741493999958038,True,15
A022K25,54,experiment,84,←,left,←,1.1794439000077546,True,15
A022K25,55,experiment,24,←,right,→,1.0020735000725836,False,15
A022K25,56,experiment,132,←,left,←,0.674375000060536,True,15
A022K25,57,experiment,24,↓,right,→,0.8772189000155777,False,15
A022K25,58,experiment,168,↓,left,←,0.7860316999722272,False,15
A022K25,59,experiment,36,↓,down,↓,1.1994389001047239,True,15
A022K25,60,experiment,108,←,left,←,0.8278268999420106,True,15
A022K25,61,experiment,48,↑,up,↑,1.1154437999939546,True,15
A022K25,62,experiment,120,→,right,→,1.0930048000300303,True,15
A022K25,63,experiment,84,←,right,→,1.42517439997755,False,15
A022K25,64,experiment,144,↓,down,↓,0.9481342000653967,True,15
A022K25,65,experiment,132,↑,up,↑,0.8368129000300542,True,15
A022K25,66,experiment,60,→,left,←,1.1297004000516608,False,15
A022K25,67,experiment,96,↑,right,→,1.452573300106451,False,15
A022K25,68,experiment,120,←,left,←,1.1055439000483602,True,15
A022K25,69,experiment,36,↓,right,→,1.1788177998969331,False,15
A022K25,70,experiment,180,←,up,↑,1.1247126000234857,False,15
A022K25,71,experiment,96,↑,up,↑,1.0158742000348866,True,15
A022K25,72,experiment,168,↓,up,↑,0.8416619000490755,False,15
A022K25,73,experiment,168,↓,up,↑,1.220896599930711,False,15
A022K25,74,experiment,72,↑,up,↑,0.7581051000161096,True,15
A022K25,75,experiment,36,↓,right,→,1.7568414999404922,False,15
A022K25,76,experiment,48,←,left,←,0.7014119999948889,True,15
A022K25,77,experiment,24,↓,up,↑,1.0504839000059292,False,15
A022K25,78,experiment,144,←,left,←,0.8215700999135152,True,15
A022K25,79,experiment,144,↑,up,↑,0.7223352999426425,True,15
A022K25,80,experiment,180,←,left,←,0.7963467000517994,True,15
A022K25,81,experiment,72,↓,right,→,0.8934098999015987,False,15
A022K25,82,experiment,108,↓,left,←,1.050784599967301,False,15
A022K25,83,experiment,108,←,left,←,0.8808566000079736,True,15
A022K25,84,experiment,156,→,left,←,1.017466300050728,False,15
A022K25,85,experiment,96,↓,down,↓,0.8393384999362752,True,15
A022K25,86,experiment,168,↑,down,↓,1.1597535000182688,False,15
A022K25,87,experiment,120,→,right,→,0.8496686000144109,True,15
A022K25,88,experiment,96,→,right,→,0.8653476999606937,True,15
A022K25,89,experiment,156,↑,up,↑,0.9404758000746369,True,15
A022K25,90,experiment,180,↓,up,↑,1.0060538001125678,False,15
A022K25,91,experiment,12,→,left,←,1.0051721000345424,False,15
A022K25,92,experiment,36,→,right,→,1.1897913001012057,True,15
A022K25,93,experiment,60,←,left,←,0.856565999914892,True,15
A022K25,94,training,60,←,left,←,0.6992126000113785,True,16
A022K25,95,training,24,↑,left,←,0.9856640000361949,False,16
A022K25,96,training,48,←,left,←,1.2334342999383807,True,16
A022K25,97,experiment,156,↑,right,→,1.1139490000205114,False,16
A022K25,98,experiment,24,→,right,→,1.477466500014998,True,16
A022K25,99,experiment,72,→,left,←,0.9798867999343202,False,16
A022K25,100,experiment,108,↓,down,↓,0.8568811999866739,True,16
A022K25,101,experiment,36,→,right,→,0.8136901999823749,True,16
A022K25,102,experiment,108,←,left,←,0.7121884999796748,True,16
A022K25,103,experiment,132,↓,down,↓,0.8653864999068901,True,16
A022K25,104,experiment,48,→,right,→,1.4234056000132114,True,16
A022K25,105,experiment,24,→,right,→,1.169600100023672,True,16
A022K25,106,experiment,48,↓,down,↓,0.6804150000680238,True,16
A022K25,107,experiment,84,→,right,→,0.6869683000259101,True,16
A022K25,108,experiment,120,↓,down,↓,0.5996546000242233,True,16
A022K25,109,experiment,120,→,right,→,0.8401844999752939,True,16
A022K25,110,experiment,60,↓,right,→,0.9986418999033049,False,16
A022K25,111,experiment,24,→,right,→,1.2623995000030845,True,16
A022K25,112,experiment,156,↓,down,↓,0.705064499983564,True,16
A022K25,113,experiment,120,→,right,→,0.7068621000507846,True,16
A022K25,114,experiment,180,→,right,→,0.6945466999895871,True,16
A022K25,115,experiment,108,↑,up,↑,0.8570226000156254,True,16
A022K25,116,experiment,144,→,right,→,0.5761923999525607,True,16
A022K25,117,experiment,36,↓,down,↓,0.5892471999395639,True,16
A022K25,118,experiment,144,←,left,←,0.6168191999895498,True,16
A022K25,119,experiment,60,↓,down,↓,0.7265666000312194,True,16
A022K25,120,experiment,12,←,left,←,0.8851977000012994,True,16
A022K25,121,experiment,180,↑,up,↑,1.1140574000310153,True,16
A022K25,122,experiment,36,→,right,→,0.7152236000401899,True,16
A022K25,123,experiment,72,→,right,→,1.2861203000647947,True,16
A022K25,124,experiment,72,→,right,→,0.6482834999915212,True,16
A022K25,125,experiment,12,↑,up,↑,0.8666988000040874,True,16
A022K25,126,experiment,96,↓,up,↑,0.8505130000412464,False,16
A022K25,127,experiment,180,←,right,→,0.741204799967818,False,16
A022K25,128,experiment,60,↑,up,↑,0.8953654000069946,True,16
A022K25,129,experiment,24,↑,up,↑,0.6856034999946132,True,16
A022K25,130,experiment,132,←,right,→,0.7886588000692427,False,16
A022K25,131,experiment,180,↓,down,↓,0.6739291999256238,True,16
A022K25,132,experiment,12,↓,down,↓,0.6245218999683857,True,16
A022K25,133,experiment,72,→,left,←,1.1750325999455526,False,16
A022K25,134,experiment,96,→,right,→,1.386340899975039,True,16
A022K25,135,experiment,48,↓,down,↓,0.6476136000128463,True,16
A022K25,136,experiment,84,→,right,→,0.5523664000211284,True,16
A022K25,137,experiment,156,↑,up,↑,0.6316853000316769,True,16
A022K25,138,experiment,96,↑,down,↓,1.1303767000790685,False,16
A022K25,139,experiment,96,↑,right,→,1.2574286999879405,False,16
A022K25,140,experiment,168,↓,right,→,0.8642889000475407,False,16
A022K25,141,experiment,120,←,no_key,no_letter,-1.0,False,16
A022K25,142,experiment,168,↑,up,↑,0.764324999996461,True,16
A022K25,143,experiment,156,←,up,↑,0.9474653999786824,False,16
A022K25,144,experiment,168,↓,up,↑,1.8528890000889078,False,16
A022K25,145,experiment,48,↑,up,↑,0.9725857999874279,True,16
A022K25,146,experiment,108,↓,right,→,1.2130683000432327,False,16
A022K25,147,experiment,132,↓,up,↑,1.11619630001951,False,16
A022K25,148,experiment,144,→,up,↑,1.032185500022024,False,16
A022K25,149,experiment,168,←,left,←,0.8698704000562429,True,16
A022K25,150,experiment,60,↓,up,↑,1.0407874999800697,False,16
A022K25,151,experiment,12,↑,down,↓,1.5258140999358147,False,16
A022K25,152,experiment,144,↓,up,↑,1.2572643000166863,False,16
A022K25,153,experiment,84,↓,down,↓,0.8934459000593051,True,16
A022K25,154,experiment,36,↑,up,↑,0.8419363000430167,True,16
A022K25,155,experiment,132,↑,up,↑,0.7585324000101537,True,16
A022K25,156,experiment,84,←,left,←,0.9488853000802919,True,16
A022K25,157,training,36,←,left,←,0.8858474999433383,True,16
A022K25,158,training,144,↓,down,↓,0.6805143000092357,True,16
A022K25,159,training,144,←,up,↑,1.4575154999038205,False,16
A022K25,160,experiment,12,↑,up,↑,0.7196719999192283,True,16
A022K25,161,experiment,180,→,left,←,1.059764500008896,False,16
A022K25,162,experiment,144,→,right,→,0.687557699973695,True,16
A022K25,163,experiment,36,←,down,↓,1.2599090998992324,False,16
A022K25,164,experiment,156,←,left,←,0.6236833999864757,True,16
A022K25,165,experiment,48,↑,up,↑,0.8011549999937415,True,16
A022K25,166,experiment,60,→,right,→,0.6420957000227645,True,16
A022K25,167,experiment,156,→,right,→,0.5379638000158593,True,16
A022K25,168,experiment,144,↓,down,↓,0.6481833999278024,True,16
A022K25,169,experiment,48,↓,down,↓,0.6602299999212846,True,16
A022K25,170,experiment,96,↓,down,↓,0.6267317000310868,True,16
A022K25,171,experiment,96,↓,down,↓,0.825104600051418,True,16
A022K25,172,experiment,60,←,left,←,0.8240401000948623,True,16
A022K25,173,experiment,120,↑,up,↑,1.881904699956067,True,16
A022K25,174,experiment,132,→,right,→,0.5814998000860214,True,16
A022K25,175,experiment,168,←,up,↑,0.9070491000311449,False,16
A022K25,176,experiment,180,↓,down,↓,0.7104377000359818,True,16
A022K25,177,experiment,132,→,left,←,0.9453340000472963,False,16
A022K25,178,experiment,48,→,right,→,1.4613338999915868,True,16
A022K25,179,experiment,60,↓,down,↓,0.7572680999292061,True,16
A022K25,180,experiment,108,↓,left,←,1.1600532999727875,False,16
A022K25,181,experiment,96,→,right,→,0.7195365999359637,True,16
A022K25,182,experiment,120,→,right,→,0.7563573999796063,True,16
A022K25,183,experiment,36,↑,down,↓,0.8070755999069661,False,16
A022K25,184,experiment,132,↑,up,↑,0.7039802999934182,True,16
A022K25,185,experiment,180,↓,down,↓,0.6649724999442697,True,16
A022K25,186,experiment,108,↑,down,↓,1.8946340000256896,False,16
A022K25,187,experiment,168,↑,down,↓,0.7823432999430224,False,16
A022K25,188,experiment,12,→,right,→,1.0911337999859825,True,16
A022K25,189,experiment,120,↑,up,↑,1.2593216999666765,True,16
A022K25,190,experiment,24,↓,down,↓,0.7540294999489561,True,16
A022K25,191,experiment,48,↓,up,↑,0.9296893000137061,False,16
A022K25,192,experiment,96,↑,up,↑,0.8428750999737531,True,16
A022K25,193,experiment,72,↓,down,↓,0.8988117999397218,True,16
A022K25,194,experiment,144,←,right,→,0.7575186000904068,False,16
A022K25,195,experiment,108,↓,down,↓,0.9782813000492752,True,16
A022K25,196,experiment,12,←,right,→,0.7673488999716938,False,16
A022K25,197,experiment,84,↓,down,↓,0.6074978999095038,True,16
A022K25,198,experiment,108,↑,up,↑,0.7556506999535486,True,16
A022K25,199,experiment,12,←,right,→,0.8477812999626622,False,16
A022K25,200,experiment,24,→,down,↓,1.2090779000427574,False,16
A022K25,201,experiment,156,↑,down,↓,1.5289957000641152,False,16
A022K25,202,experiment,36,↑,up,↑,0.9343718000454828,True,16
A022K25,203,experiment,60,↑,up,↑,0.7752013000426814,True,16
A022K25,204,experiment,180,→,down,↓,1.0352942999452353,False,16
A022K25,205,experiment,84,←,down,↓,1.6040608999319375,False,16
A022K25,206,experiment,168,→,down,↓,1.7324989000335336,False,16
A022K25,207,experiment,72,←,down,↓,0.7797831998905167,False,16
A022K25,208,experiment,36,↑,up,↑,0.6834794000023976,True,16
A022K25,209,experiment,72,←,no_key,no_letter,-1.0,False,16
A022K25,210,experiment,24,↑,up,↑,0.8896174000110477,True,16
A022K25,211,experiment,84,↑,up,↑,0.8199162000091746,True,16
A022K25,212,experiment,156,←,left,←,0.7452821000479162,True,16
A022K25,213,experiment,144,↑,up,↑,0.7468988000182435,True,16
A022K25,214,experiment,72,←,left,←,0.8037162999389693,True,16
A022K25,215,experiment,84,→,right,→,0.6777570999693125,True,16
A022K25,216,experiment,132,←,left,←,0.8265838000224903,True,16
A022K25,217,experiment,24,→,right,→,0.6279096999205649,True,16
A022K25,218,experiment,168,←,left,←,0.6581766000017524,True,16
A022K25,219,experiment,120,←,left,←,0.7096042000921443,True,16
A022K25,220,training,108,→,left,←,1.4257473000325263,False,16
A022K25,221,training,84,↑,down,↓,0.8736213999800384,False,16
A022K25,222,training,72,↑,up,↑,0.7222026999806985,True,16
A022K25,223,experiment,84,↓,up,↑,0.8875537000130862,False,16
A022K25,224,experiment,48,↓,up,↑,1.607055800035596,False,16
A022K25,225,experiment,144,↓,down,↓,1.326391899958253,True,16
A022K25,226,experiment,60,↑,up,↑,1.206386800040491,True,16
A022K25,227,experiment,120,→,down,↓,1.138124500052072,False,16
A022K25,228,experiment,156,↓,left,←,1.5968524999916553,False,16
A022K25,229,experiment,144,↓,down,↓,0.9225723999552429,True,16
A022K25,230,experiment,84,↑,up,↑,0.9056620999472216,True,16
A022K25,231,experiment,108,→,right,→,1.607724400004372,True,16
A022K25,232,experiment,96,↓,up,↑,0.9384266999550164,False,16
A022K25,233,experiment,132,↑,up,↑,0.624127299990505,True,16
A022K25,234,experiment,24,↑,up,↑,0.9993674999568611,True,16
A022K25,235,experiment,180,←,left,←,1.4942995000164956,True,16
A022K25,236,experiment,168,↓,up,↑,0.9163227999815717,False,16
A022K25,237,experiment,36,→,right,→,1.036054200027138,True,16
A022K25,238,experiment,12,→,left,←,1.071443900000304,False,16
A022K25,239,experiment,12,→,up,↑,1.046443600091152,False,16
A022K25,240,experiment,24,←,right,→,1.3438777999253944,False,16
A022K25,241,experiment,84,←,left,←,1.196560199954547,True,16
A022K25,242,experiment,180,→,right,→,0.960555600002408,True,16
A022K25,243,experiment,120,←,down,↓,1.4409318999387324,False,16
A022K25,244,experiment,84,←,left,←,0.6444738999707624,True,16
A022K25,245,experiment,108,↑,up,↑,0.8799026000779122,True,16
A022K25,246,experiment,168,←,right,→,0.9963926000054926,False,16
A022K25,247,experiment,48,←,left,←,0.6756934000877663,True,16
A022K25,248,experiment,36,←,up,↑,1.065583199961111,False,16
A022K25,249,experiment,132,↑,down,↓,1.2655092000495642,False,16
A022K25,250,experiment,144,←,left,←,0.7899491999996826,True,16
A022K25,251,experiment,36,→,right,→,0.8310547999572009,True,16
A022K25,252,experiment,120,↓,up,↑,1.033116800012067,False,16
A022K25,253,experiment,156,↓,up,↑,1.1958112000720575,False,16
A022K25,254,experiment,60,↑,down,↓,1.873524900060147,False,16
A022K25,255,experiment,96,↓,no_key,no_letter,-1.0,False,16
A022K25,256,experiment,108,←,left,←,1.0491928999545053,True,16
A022K25,257,experiment,72,←,up,↑,0.8557600999483839,False,16
A022K25,258,experiment,168,↓,right,→,0.8704268001019955,False,16
A022K25,259,experiment,72,→,right,→,0.8986345999874175,True,16
A022K25,260,experiment,24,↓,left,←,0.9352887000422925,False,16
A022K25,261,experiment,108,←,left,←,1.4255383000709116,True,16
A022K25,262,experiment,60,→,right,→,0.8669770000269637,True,16
A022K25,263,experiment,96,↑,no_key,no_letter,-1.0,False,16
A022K25,264,experiment,96,↑,up,↑,1.1345587000250816,True,16
A022K25,265,experiment,48,↑,up,↑,1.1727192000253126,True,16
A022K25,266,experiment,72,↑,down,↓,1.2131433999165893,False,16
A022K25,267,experiment,12,←,left,←,0.765908700064756,True,16
A022K25,268,experiment,156,→,right,→,0.7708615999436006,True,16
A022K25,269,experiment,180,→,right,→,0.6676828000927344,True,16
A022K25,270,experiment,180,←,left,←,0.6122237000381574,True,16
A022K25,271,experiment,168,←,left,←,0.6523926999652758,True,16
A022K25,272,experiment,132,↓,down,↓,0.7979928000131622,True,16
A022K25,273,experiment,132,←,left,←,0.6681249000830576,True,16
A022K25,274,experiment,144,↓,down,↓,0.8106075000250712,True,16
A022K25,275,experiment,24,↑,left,←,0.9314931000117213,False,16
A022K25,276,experiment,156,↓,down,↓,0.7609261999605224,True,16
A022K25,277,experiment,36,→,right,→,1.2365482999011874,True,16
A022K25,278,experiment,120,→,right,→,0.8920827000401914,True,16
A022K25,279,experiment,72,↑,up,↑,0.9033806999213994,True,16
A022K25,280,experiment,48,←,left,←,0.9810956999426708,True,16
A022K25,281,experiment,60,↑,up,↑,0.7009889999171719,True,16
A022K25,282,experiment,12,←,down,↓,1.5857517999829724,False,16
A022K25,283,training,156,↓,no_key,no_letter,-1.0,False,16
A022K25,284,training,132,→,left,←,0.8565369999269024,False,16
A022K25,285,training,156,↓,down,↓,0.7400366000365466,True,16
A022K25,286,experiment,72,↓,down,↓,0.8560379999689758,True,16
A022K25,287,experiment,180,↓,down,↓,0.7846558999735862,True,16
A022K25,288,experiment,36,→,left,←,0.7940584999741986,False,16
A022K25,289,experiment,84,→,left,←,0.841673000017181,False,16
A022K25,290,experiment,24,←,left,←,0.7162206000648439,True,16
A022K25,291,experiment,72,←,left,←,0.7778369000880048,True,16
A022K25,292,experiment,60,↓,down,↓,0.7529318999731913,True,16
A022K25,293,experiment,180,↓,down,↓,0.7168401000089943,True,16
A022K25,294,experiment,168,←,left,←,0.6689311999361962,True,16
A022K25,295,experiment,144,←,left,←,0.6321977999759838,True,16
A022K25,296,experiment,24,←,left,←,0.723741399939172,True,16
A022K25,297,experiment,156,→,right,→,0.74883639998734,True,16
A022K25,298,experiment,72,→,right,→,0.8353236999828368,True,16
A022K25,299,experiment,120,↑,left,←,0.7731166000012308,False,16
A022K25,300,experiment,120,↑,down,↓,1.2337390000466257,False,16
A022K25,301,experiment,132,↑,up,↑,1.130014199996367,True,16
A022K25,302,experiment,48,↑,up,↑,0.6717864000238478,True,16
A022K25,303,experiment,96,↑,up,↑,0.7896131000015885,True,16
A022K25,304,experiment,60,↓,down,↓,0.9212137999711558,True,16
A022K25,305,experiment,12,→,up,↑,1.2059563000220805,False,16
A022K25,306,experiment,132,↓,down,↓,0.6863179999636486,True,16
A022K25,307,experiment,84,←,down,↓,0.9507588999113068,False,16
A022K25,308,experiment,48,↓,up,↑,0.9030056999763474,False,16
A022K25,309,experiment,156,↑,up,↑,0.7903269999660552,True,16
A022K25,310,experiment,84,↑,down,↓,1.0037104999646544,False,16
A022K25,311,experiment,36,↑,up,↑,1.1631799000315368,True,16
A022K25,312,experiment,132,→,right,→,0.630146799958311,True,16
A022K25,313,experiment,108,↓,down,↓,0.8054493999807164,True,16
A022K25,314,experiment,120,←,left,←,0.9612399999750778,True,16
A022K25,315,experiment,168,←,right,→,0.7044005000498146,False,16
A022K25,316,experiment,96,↓,down,↓,0.8211020999588072,True,16
A022K25,317,experiment,180,→,right,→,0.6636799999978393,True,16
A022K25,318,experiment,144,→,right,→,0.737782199983485,True,16
A022K25,319,experiment,120,→,right,→,0.619038499891758,True,16
A022K25,320,experiment,168,↓,down,↓,0.7331268000416458,True,16
A022K25,321,experiment,168,↑,up,↑,0.7896992999594659,True,16
A022K25,322,experiment,108,↑,no_key,no_letter,-1.0,False,16
A022K25,323,experiment,156,↓,down,↓,0.6638423000695184,True,16
A022K25,324,experiment,36,↓,down,↓,0.7187326999846846,True,16
A022K25,325,experiment,60,↑,up,↑,1.1015378999290988,True,16
A022K25,326,experiment,132,←,down,↓,0.8295193000230938,False,16
A022K25,327,experiment,108,↓,down,↓,0.9618148999288678,True,16
A022K25,328,experiment,180,←,down,↓,1.6167585999937728,False,16
A022K25,329,experiment,96,↑,down,↓,0.5431545999599621,False,16
A022K25,330,experiment,144,↓,down,↓,0.6649596999632195,True,16
A022K25,331,experiment,156,↑,up,↑,1.0904737999662757,True,16
A022K25,332,experiment,48,↑,down,↓,1.4404714999254793,False,16
A022K25,333,experiment,108,→,down,↓,0.8388784000417218,False,16
A022K25,334,experiment,72,←,up,↑,0.9477312000235543,False,16
A022K25,335,experiment,24,→,right,→,0.6472917000064626,True,16
A022K25,336,experiment,96,→,right,→,0.7176735000684857,True,16
A022K25,337,experiment,12,↑,up,↑,0.8114819000475109,True,16
A022K25,338,experiment,36,↑,down,↓,1.3723850999958813,False,16
A022K25,339,experiment,48,↑,up,↑,0.8811655999161303,True,16
A022K25,340,experiment,24,→,up,↑,0.8151321000186726,False,16
A022K25,341,experiment,144,↑,up,↑,0.801160000031814,True,16
A022K25,342,experiment,12,↓,down,↓,0.7966904999921098,True,16
A022K25,343,experiment,60,↓,down,↓,0.8379592000273988,True,16
A022K25,344,experiment,12,→,right,→,0.9400700000114739,True,16
A022K25,345,experiment,84,←,right,→,1.6224969999166206,False,16
A022K25,346,training,72,←,up,↑,1.0225215000100434,False,16
A022K25,347,training,24,↓,down,↓,0.5911061998922378,True,16
A022K25,348,training,84,↑,down,↓,1.3874838000629097,False,16
A022K25,349,experiment,156,←,right,→,1.0740939999232069,False,16
A022K25,350,experiment,180,→,right,→,0.7832446000538766,True,16
A022K25,351,experiment,72,↓,down,↓,0.8330616999883205,True,16
A022K25,352,experiment,108,↑,down,↓,0.8780148000223562,False,16
A022K25,353,experiment,144,↓,down,↓,1.0594839999685064,True,16
A022K25,354,experiment,180,←,left,←,0.9119544000132009,True,16
A022K25,355,experiment,84,→,right,→,0.9699262999929488,True,16
A022K25,356,experiment,120,←,right,→,0.9177709000650793,False,16
A022K25,357,experiment,168,→,right,→,0.9584263000870124,True,16
A022K25,358,experiment,108,→,right,→,0.6651572999544442,True,16
A022K25,359,experiment,96,↓,down,↓,0.9824233999243006,True,16
A022K25,360,experiment,108,←,right,→,0.971078300033696,False,16
A022K25,361,experiment,96,↓,down,↓,1.1674494999460876,True,16
A022K25,362,experiment,108,↓,no_key,no_letter,-1.0,False,16
A022K25,363,experiment,156,↑,down,↓,0.7640480999834836,False,16
A022K25,364,experiment,120,→,left,←,1.402293000021018,False,16
A022K25,365,experiment,12,↓,down,↓,0.100475599989295,True,16
A022K25,366,experiment,120,↓,down,↓,0.9733658999903128,True,16
A022K25,367,experiment,36,↑,left,←,1.8305308999260888,False,16
A022K25,368,experiment,120,↑,up,↑,1.5678278000559658,True,16
A022K25,369,experiment,36,←,no_key,no_letter,-1.0,False,16
A022K25,370,experiment,144,↓,down,↓,0.8334310000063851,True,16
A022K25,371,experiment,168,←,left,←,0.6281423999462277,True,16
A022K25,372,experiment,72,←,right,→,1.0391770999412984,False,16
A022K25,373,experiment,24,↓,no_key,no_letter,-1.0,False,16
A022K25,374,experiment,168,↑,up,↑,1.0997313000261784,True,16
A022K25,375,experiment,180,←,left,←,0.9365223000058904,True,16
A022K25,376,experiment,12,→,right,→,0.5730720999417827,True,16
A022K25,377,experiment,84,←,left,←,0.6624916000291705,True,16
A022K25,378,experiment,156,↓,right,→,0.902064900030382,False,16
A022K25,379,experiment,24,←,right,→,1.051562000066042,False,16
A022K25,380,experiment,12,↑,up,↑,0.7553126000566408,True,16
A022K25,381,experiment,132,→,no_key,no_letter,-1.0,False,16
A022K25,382,experiment,84,↑,no_key,no_letter,-1.0,False,16
A022K25,383,experiment,132,→,left,←,0.7556799000594765,False,16
A022K25,384,experiment,72,↑,no_key,no_letter,-1.0,False,16
A022K25,385,experiment,60,↓,up,↑,0.8237662999890745,False,16
A022K25,386,experiment,96,↑,left,←,1.1180942000355572,False,16
A022K25,387,experiment,60,↓,up,↑,0.574105600011535,False,16
A022K25,388,experiment,132,←,right,→,0.735426599974744,False,16
A022K25,389,experiment,48,→,left,←,0.9271107000531629,False,16
A022K25,390,experiment,144,↑,up,↑,0.9241901999339461,True,16
A022K25,391,experiment,180,↑,no_key,no_letter,-1.0,False,16
A022K25,392,experiment,144,↑,up,↑,0.6971585999708623,True,16
A022K25,393,experiment,132,→,left,←,0.3005578999873251,False,16
A022K25,394,experiment,72,→,left,←,0.1173472999362275,False,16
A022K25,395,experiment,12,←,no_key,no_letter,-1.0,False,16
A022K25,396,experiment,48,→,no_key,no_letter,-1.0,False,16
A022K25,397,experiment,24,→,no_key,no_letter,-1.0,False,16
A022K25,398,experiment,60,↑,up,↑,0.6129370999988168,True,16
A022K25,399,experiment,36,→,right,→,1.018822200014256,True,16
A022K25,400,experiment,156,↓,right,→,0.85919810004998,False,16
A022K25,401,experiment,36,←,right,→,0.9543816999066621,False,16
A022K25,402,experiment,96,↓,left,←,1.211044600000605,False,16
A022K25,403,experiment,48,↓,up,↑,0.7156423999695107,False,16
A022K25,404,experiment,48,↑,no_key,no_letter,-1.0,False,16
A022K25,405,experiment,168,←,up,↑,1.1990643000463024,False,16
A022K25,406,experiment,24,↑,right,→,0.8964551000390202,False,16
A022K25,407,experiment,84,→,no_key,no_letter,-1.0,False,16
A022K25,408,experiment,60,←,left,←,0.5740686999633908,True,16
A022K25,409,training,120,←,left,←,0.5895126999821514,True,17
A022K25,410,training,36,↑,right,→,0.877861800021492,False,17
A022K25,411,training,84,←,left,←,1.1319575000088662,True,17
A022K25,412,experiment,96,←,no_key,no_letter,-1.0,False,17
A022K25,413,experiment,180,→,left,←,1.4528641999932006,False,17
A022K25,414,experiment,108,↓,no_key,no_letter,-1.0,False,17
A022K25,415,experiment,48,↑,up,↑,0.6198114999569952,True,17
A022K25,416,experiment,84,↓,up,↑,0.7849150999682024,False,17
A022K25,417,experiment,120,↑,up,↑,0.9606151999905705,True,17
A022K25,418,experiment,12,↓,up,↑,0.8256918999832124,False,17
A022K25,419,experiment,72,↓,up,↑,0.9855121000437066,False,17
A022K25,420,experiment,36,→,right,→,0.7710763000650331,True,17
A022K25,421,experiment,24,↑,up,↑,0.5691322999773547,True,17
A022K25,422,experiment,24,→,right,→,0.8015813000965863,True,17
A022K25,423,experiment,168,↓,down,↓,0.7762988000176847,True,17
A022K25,424,experiment,48,→,right,→,0.5657016999321058,True,17
A022K25,425,experiment,60,←,down,↓,1.3231968999607489,False,17
A022K25,426,experiment,60,↓,up,↑,0.7573087000055239,False,17
A022K25,427,experiment,12,↑,up,↑,0.694848700077273,True,17
A022K25,428,experiment,120,↑,up,↑,0.5593574000522494,True,17
A022K25,429,experiment,84,↓,up,↑,0.9707134000491351,False,17
A022K25,430,experiment,132,↓,down,↓,0.8377738000126556,True,17
A022K25,431,experiment,84,←,no_key,no_letter,-1.0,False,17
A022K25,432,experiment,132,↓,no_key,no_letter,-1.0,False,17
A022K25,433,experiment,96,↑,no_key,no_letter,-1.0,False,17
A022K25,434,experiment,168,←,no_key,no_letter,-1.0,False,17
A022K25,435,experiment,48,→,no_key,no_letter,-1.0,False,17
A022K25,436,experiment,156,→,up,↑,0.01723570004105568,False,17
A022K25,437,experiment,120,←,left,←,0.7471635999390855,True,17
A022K25,438,experiment,60,→,no_key,no_letter,-1.0,False,17
A022K25,439,experiment,72,←,no_key,no_letter,-1.0,False,17
A022K25,440,experiment,72,→,right,→,0.8987256999826059,True,17
A022K25,441,experiment,84,↑,no_key,no_letter,-1.0,False,17
A022K25,442,experiment,156,→,up,↑,1.6912701999535784,False,17
A022K25,443,experiment,108,←,up,↑,1.5450197999598458,False,17
A022K25,444,experiment,120,→,no_key,no_letter,-1.0,False,17
A022K25,445,experiment,180,→,right,→,0.6776506999740377,True,17
A022K25,446,experiment,108,←,no_key,no_letter,-1.0,False,17
A022K25,447,experiment,132,←,up,↑,1.2214114000089467,False,17
A022K25,448,experiment,180,↑,up,↑,0.7964860999491066,True,17
A022K25,449,experiment,156,←,left,←,0.8207725998945534,True,17
A022K25,450,experiment,36,→,right,→,0.7421193000627682,True,17
A022K25,451,experiment,96,←,left,←,0.5353829000378028,True,17
A022K25,452,experiment,156,→,right,→,0.5766913000261411,True,17
A022K25,453,experiment,108,→,right,→,0.5797332000220194,True,17
A022K25,454,experiment,12,↑,up,↑,0.7451435000402853,True,17
A022K25,455,experiment,60,↓,down,↓,0.6173648000694811,True,17
A022K25,456,experiment,180,↓,down,↓,0.6407201000256464,True,17
A022K25,457,experiment,144,↑,no_key,no_letter,-1.0,False,17
A022K25,458,experiment,36,→,left,←,0.6232453000266105,False,17
A022K25,459,experiment,36,↑,right,→,1.1977646000450477,False,17
A022K25,460,experiment,48,←,left,←,0.5490558999590576,True,17
A022K25,461,experiment,168,↑,up,↑,0.5711445999331772,True,17
A022K25,462,experiment,12,↑,no_key,no_letter,-1.0,False,17
A022K25,463,experiment,24,↑,right,→,0.664053599932231,False,17
A022K25,464,experiment,132,←,no_key,no_letter,-1.0,False,17
A022K25,465,experiment,96,→,right,→,1.6093925000168383,True,17
A022K25,466,experiment,144,↑,up,↑,0.5226876999950036,True,17
A022K25,467,experiment,168,→,right,→,0.77619829995092,True,17
A022K25,468,experiment,144,→,right,→,0.4731634999625385,True,17
A022K25,469,experiment,24,↓,right,→,0.8286799999186769,False,17
A022K25,470,experiment,144,↓,up,↑,0.7615936000365764,False,17
A022K25,471,experiment,72,←,left,←,0.8176359999924898,True,17
A022K25,472,training,144,↓,down,↓,0.5767789999954402,True,18
A022K25,473,training,180,↓,down,↓,0.75125550001394,True,18
A022K25,474,training,168,→,left,←,0.547516499995254,False,18
A022K25,475,experiment,168,↓,left,←,0.6174845000496134,False,18
A022K25,476,experiment,72,↑,up,↑,0.6886036000214517,True,18
A022K25,477,experiment,36,↓,down,↓,0.7621045999694616,True,18
A022K25,478,experiment,84,←,left,←,0.6288053001044318,True,18
A022K25,479,experiment,48,↓,down,↓,0.7685435999883339,True,18
A022K25,480,experiment,156,→,right,→,0.7497460000449792,True,18
A022K25,481,experiment,48,↓,down,↓,0.7477654999820516,True,18
A022K25,482,experiment,48,↓,down,↓,0.8645819000666961,True,18
A022K25,483,experiment,48,←,left,←,0.776681000017561,True,18
A022K25,484,experiment,84,→,right,→,0.7591739000054076,True,18
A022K25,485,experiment,72,↓,down,↓,0.885101499967277,True,18
A022K25,486,experiment,156,→,left,←,1.0740841999650002,False,18
A022K25,487,experiment,108,↑,right,→,1.558517900062725,False,18
A022K25,488,experiment,132,↓,no_key,no_letter,-1.0,False,18
A022K25,489,experiment,36,↓,right,→,0.7226275999564677,False,18
A022K25,490,experiment,12,→,right,→,0.671628599986434,True,18
A022K25,491,experiment,120,↑,up,↑,0.7041073000291362,True,18
A022K25,492,experiment,72,↓,up,↑,0.5605503999395296,False,18
A022K25,493,experiment,24,↓,up,↑,0.8273792000254616,False,18
A022K25,494,experiment,12,↑,right,→,0.9720146999461576,False,18
A022K25,495,experiment,180,↓,down,↓,0.6492445000912994,True,18
A022K25,496,experiment,12,↑,up,↑,0.613374900072813,True,18
A022K25,497,experiment,60,→,right,→,0.6274652000283822,True,18
A022K25,498,experiment,132,→,right,→,0.35032630001660436,True,18
A022K25,499,experiment,144,↓,no_key,no_letter,-1.0,False,18
A022K25,500,experiment,96,←,left,←,0.9771344000473619,True,18
A022K25,501,experiment,156,↑,up,↑,0.7885217000730336,True,18
A022K25,502,experiment,132,→,right,→,0.6675236000446603,True,18
A022K25,503,experiment,120,→,left,←,1.361500300001353,False,18
A022K25,504,experiment,72,←,left,←,0.945508599979803,True,18
A022K25,505,experiment,36,↑,down,↓,1.441134399967268,False,18
A022K25,506,experiment,60,→,right,→,0.616486799903214,True,18
A022K25,507,experiment,96,←,left,←,0.7666416999418288,True,18
A022K25,508,experiment,168,←,right,→,0.7988424999639392,False,18
A022K25,509,experiment,180,←,right,→,0.5887345999944955,False,18
A022K25,510,experiment,144,↓,down,↓,0.7258051999378949,True,18
A022K25,511,experiment,84,←,left,←,0.9048815999412909,True,18
A022K25,512,experiment,120,↓,right,→,0.845555100007914,False,18
A022K25,513,experiment,144,↑,up,↑,0.6915027999784797,True,18
A022K25,514,experiment,108,↑,down,↓,0.7839224999770522,False,18
A022K25,515,experiment,96,→,right,→,0.5932553000748158,True,18
A022K25,516,experiment,168,→,right,→,0.7436837999848649,True,18
A022K25,517,experiment,108,↓,down,↓,1.1518451999872923,True,18
A022K25,518,experiment,108,→,right,→,0.5564407999627292,True,18
A022K25,519,experiment,144,←,right,→,0.9857228000182658,False,18
A022K25,520,experiment,180,←,left,←,0.6081275000469759,True,18
A022K25,521,experiment,36,→,right,→,0.7965196999721229,True,18
A022K25,522,experiment,24,↓,down,↓,0.6586624000919983,True,18
A022K25,523,experiment,24,→,right,→,0.6813502999721095,True,18
A022K25,524,experiment,84,→,no_key,no_letter,-1.0,False,18
A022K25,525,experiment,156,↑,up,↑,1.3118307000258937,True,18
A022K25,526,experiment,60,←,down,↓,0.6955104999942705,False,18
A022K25,527,experiment,132,↓,down,↓,0.8285474000731483,True,18
A022K25,528,experiment,120,↑,up,↑,0.7661553000798449,True,18
A022K25,529,experiment,168,←,left,←,1.7345063999528065,True,18
A022K25,530,experiment,180,↑,up,↑,0.898557799984701,True,18
A022K25,531,experiment,96,↓,down,↓,0.7498395999427885,True,18
A022K25,532,experiment,12,←,down,↓,1.2264438000274822,False,18
A022K25,533,experiment,24,↑,up,↑,0.9171284000622109,True,18
A022K25,534,experiment,60,→,up,↑,0.8114202000433579,False,18
A022K25,535,training,36,↑,up,↑,0.7492863000370562,True,18
A022K25,536,training,84,→,right,→,0.590599299990572,True,18
A022K25,537,training,120,←,left,←,0.56444579991512,True,18
A022K25,538,experiment,12,↑,right,→,0.7680065000895411,False,18
A022K25,539,experiment,36,→,right,→,0.8015903999330476,True,18
A022K25,540,experiment,180,↓,down,↓,1.0512305999873206,True,18
A022K25,541,experiment,60,↑,up,↑,0.76087939995341,True,18
A022K25,542,experiment,132,←,left,←,0.6605366999283433,True,18
A022K25,543,experiment,120,↑,up,↑,0.5397280000615865,True,18
A022K25,544,experiment,36,↑,up,↑,0.6269989999709651,True,18
A022K25,545,experiment,24,←,left,←,0.9000048000598326,True,18
A022K25,546,experiment,108,↓,down,↓,0.8474698000354692,True,18
A022K25,547,experiment,48,←,left,←,1.0783301000483334,True,18
A022K25,548,experiment,48,→,right,→,0.7157859000144526,True,18
A022K25,549,experiment,120,↑,up,↑,0.5128044999437407,True,18
A022K25,550,experiment,156,↓,right,→,0.8780839999672025,False,18
A022K25,551,experiment,84,↓,down,↓,0.8919534999877214,True,18
A022K25,552,experiment,84,←,down,↓,0.9962027999572456,False,18
A022K25,553,experiment,144,↓,down,↓,0.8959801999153569,True,18
A022K25,554,experiment,48,←,left,←,0.6494510000338778,True,18
A022K25,555,experiment,36,→,right,→,0.6978293999563903,True,18
A022K25,556,experiment,12,←,right,→,0.9541615999769419,False,18
A022K25,557,experiment,24,←,left,←,0.49883389996830374,True,18
A022K25,558,experiment,168,←,right,→,0.87631630001124,False,18
A022K25,559,experiment,96,→,left,←,0.8914630999788642,False,18
A022K25,560,experiment,144,→,no_key,no_letter,-1.0,False,18
A022K25,561,experiment,180,↑,up,↑,0.6998845000052825,True,18
A022K25,562,experiment,60,→,up,↑,1.1451672000112012,False,18
A022K25,563,experiment,132,←,left,←,0.7499986999901012,True,18
A022K25,564,experiment,132,←,left,←,0.5274641000432894,True,18
A022K25,565,experiment,144,←,up,↑,0.9071316999616101,False,18
A022K25,566,experiment,12,→,down,↓,1.208470999961719,False,18
A022K25,567,experiment,96,←,left,←,0.6134124998934567,True,18
A022K25,568,experiment,108,←,left,←,0.8391816000221297,True,18
A022K25,569,experiment,72,←,left,←,0.5458806999959052,True,18
A022K25,570,experiment,12,↓,down,↓,0.9771181000396609,True,18
A022K25,571,experiment,168,↑,up,↑,0.5501034000189975,True,18
A022K25,572,experiment,168,←,right,→,0.9738434000173584,False,18
A022K25,573,experiment,84,→,right,→,0.696519699995406,True,18
A022K25,574,experiment,108,↑,up,↑,1.332255799905397,True,18
A022K25,575,experiment,120,↑,up,↑,0.686705100000836,True,18
A022K25,576,experiment,24,←,right,→,1.0426317000528798,False,18
A022K25,577,experiment,72,→,no_key,no_letter,-1.0,False,18
A022K25,578,experiment,36,↓,left,←,1.5944961999775842,False,18
A022K25,579,experiment,168,↑,up,↑,0.9611870999215171,True,18
A022K25,580,experiment,60,↑,no_key,no_letter,-1.0,False,18
A022K25,581,experiment,144,↓,down,↓,0.8673735000193119,True,18
A022K25,582,experiment,132,↓,down,↓,1.1089257000712678,True,18
A022K25,583,experiment,84,↑,up,↑,1.0422741000074893,True,18
A022K25,584,experiment,96,↑,up,↑,0.7711279999930412,True,18
A022K25,585,experiment,120,→,up,↑,1.2040352000622079,False,18
A022K25,586,experiment,180,↓,up,↑,1.82001330005005,False,18
A022K25,587,experiment,108,↑,up,↑,0.8125784998992458,True,18
A022K25,588,experiment,48,↓,down,↓,1.8825466999551281,True,18
A022K25,589,experiment,72,←,up,↑,0.9164089999394491,False,18
A022K25,590,experiment,72,→,down,↓,1.188429499976337,False,18
A022K25,591,experiment,180,↑,up,↑,1.5100023999111727,True,18
A022K25,592,experiment,156,↑,no_key,no_letter,-1.0,False,18
A022K25,593,experiment,24,←,up,↑,1.269600800005719,False,18
A022K25,594,experiment,156,←,left,←,0.8951791999861598,True,18
A022K25,595,experiment,156,→,right,→,0.20029120007529855,True,18
A022K25,596,experiment,60,↓,left,←,0.9801684999838471,False,18
A022K25,597,experiment,96,↑,no_key,no_letter,-1.0,False,18
A022K25,598,training,60,↓,down,↓,1.0164163999725133,True,18
A022K25,599,training,72,↑,up,↑,1.1040090000024065,True,18
A022K25,600,training,156,↓,down,↓,0.7249589000130072,True,18
A022K25,601,experiment,72,↓,down,↓,0.6770800000522286,True,18
A022K25,602,experiment,36,←,left,←,0.9086820000084117,True,18
A022K25,603,experiment,72,↓,down,↓,0.7620419999584556,True,18
A022K25,604,experiment,168,↓,down,↓,0.702640000032261,True,18
A022K25,605,experiment,156,↓,down,↓,0.607104399939999,True,18
A022K25,606,experiment,60,→,right,→,0.8189250000286847,True,18
A022K25,607,experiment,48,←,left,←,0.5505612000124529,True,18
A022K25,608,experiment,12,→,left,←,1.336858500028029,False,18
A022K25,609,experiment,144,↑,left,←,0.05036570003721863,False,18
A022K25,610,experiment,60,↓,down,↓,0.8718393999151886,True,18
A022K25,611,experiment,156,↓,down,↓,1.0994089999003336,True,18
A022K25,612,experiment,180,↓,left,←,0.31710350001230836,False,18
A022K25,613,experiment,108,↑,up,↑,0.7064508999465033,True,18
A022K25,614,experiment,132,↓,no_key,no_letter,-1.0,False,18
A022K25,615,experiment,108,↓,right,→,1.4190027000149712,False,18
A022K25,616,experiment,24,←,left,←,0.739812400075607,True,18
A022K25,617,experiment,180,→,up,↑,0.8436186000471935,False,18
A022K25,618,experiment,168,→,no_key,no_letter,-1.0,False,18
A022K25,619,experiment,132,→,right,→,0.5744429999031126,True,18
A022K25,620,experiment,132,↑,up,↑,0.9856831999495625,True,18
A022K25,621,experiment,96,↓,down,↓,0.8320169999497011,True,18
A022K25,622,experiment,12,→,left,←,1.2802563000004739,False,18
A022K25,623,experiment,180,↑,up,↑,0.8875969999935478,True,18
A022K25,624,experiment,168,↑,up,↑,0.6409532999387011,True,18
A022K25,625,experiment,132,↑,up,↑,0.6631176000228152,True,18
A022K25,626,experiment,84,↑,no_key,no_letter,-1.0,False,18
A022K25,627,experiment,12,↑,left,←,0.16669929993804544,False,18
A022K25,628,experiment,60,↑,up,↑,0.5792762000346556,True,18
A022K25,629,experiment,36,→,up,↑,0.8492908999323845,False,18
A022K25,630,experiment,144,←,down,↓,1.0978817000286654,False,18
A022K25,631,experiment,84,→,left,←,1.0269856000086293,False,18
A022K25,632,experiment,60,↓,no_key,no_letter,-1.0,False,18
A022K25,633,experiment,180,↑,up,↑,0.8477936999406666,True,18
A022K25,634,experiment,24,↓,up,↑,0.7340802000835538,False,18
A022K25,635,experiment,24,→,right,→,0.6338289000559598,True,18
A022K25,636,experiment,48,↓,down,↓,0.810755499987863,True,18
A022K25,637,experiment,12,↑,up,↑,0.832651500008069,True,18
A022K25,638,experiment,96,→,right,→,0.541431000106968,True,18
A022K25,639,experiment,120,→,right,→,0.5315433999057859,True,18
A022K25,640,experiment,156,→,right,→,0.6164304000558332,True,18
A022K25,641,experiment,120,→,no_key,no_letter,-1.0,False,18
A022K25,642,experiment,120,↑,up,↑,0.7908481999766082,True,18
A022K25,643,experiment,84,→,right,→,0.7364570000208914,True,18
A022K25,644,experiment,72,→,right,→,0.60249289998319,True,18
A022K25,645,experiment,108,←,right,→,0.7019563999492675,False,18
A022K25,646,experiment,108,↑,up,↑,1.0284287000540644,True,18
A022K25,647,experiment,48,↑,down,↓,1.235675000003539,False,18
A022K25,648,experiment,72,→,up,↑,1.0966129000298679,False,18
A022K25,649,experiment,144,→,up,↑,1.1485221999464557,False,18
A022K25,650,experiment,48,↑,left,←,1.031981199979782,False,18
A022K25,651,experiment,84,→,right,→,0.5175604000687599,True,18
A022K25,652,experiment,156,←,no_key,no_letter,-1.0,False,18
A022K25,653,experiment,120,←,no_key,no_letter,-1.0,False,18
A022K25,654,experiment,168,→,right,→,0.7590627999743447,True,18
A022K25,655,experiment,144,←,right,→,0.7515212999423966,False,18
A022K25,656,experiment,96,←,no_key,no_letter,-1.0,False,18
A022K25,657,experiment,96,←,left,←,0.11707939999178052,True,18
A022K25,658,experiment,24,↑,right,→,0.8391100999433547,False,18
A022K25,659,experiment,36,↓,left,←,0.6846265000058338,False,18
A022K25,660,experiment,36,→,left,←,1.4867488000309095,False,18
A022K25,661,training,48,→,right,→,0.6644170000217855,True,18
A022K25,662,training,84,→,right,→,0.5497729000635445,True,18
A022K25,663,training,144,→,right,→,0.7665985999628901,True,18
A022K25,664,experiment,180,←,left,←,0.9295825000153854,True,18
A022K25,665,experiment,96,↑,down,↓,0.7007325000595301,False,18
A022K25,666,experiment,48,→,right,→,0.5441043999744579,True,18
A022K25,667,experiment,132,→,right,→,0.6038306000409648,True,18
A022K25,668,experiment,84,↓,down,↓,0.9676720999414101,True,18
A022K25,669,experiment,12,↓,down,↓,0.945459800073877,True,18
A022K25,670,experiment,132,↓,right,→,0.8056553000351414,False,18
A022K25,671,experiment,60,↑,down,↓,0.60108469997067,False,18
A022K25,672,experiment,180,→,right,→,0.6249540999997407,True,18
A022K25,673,experiment,36,↑,down,↓,0.7402859999565408,False,18
A022K25,674,experiment,168,↓,down,↓,1.2909511000616476,True,18
A022K25,675,experiment,168,→,right,→,0.6864304000046104,True,18
A022K25,676,experiment,156,↓,down,↓,0.7805884000845253,True,18
A022K25,677,experiment,84,←,left,←,0.6708822000073269,True,18
A022K25,678,experiment,144,→,right,→,0.7833033000351861,True,18
A022K25,679,experiment,132,→,left,←,1.873129399958998,False,18
A022K25,680,experiment,72,↓,left,←,1.0604110000422224,False,18
A022K25,681,experiment,60,←,right,→,0.8033144000219181,False,18
A022K25,682,experiment,96,↓,down,↓,1.0135537999449298,True,18
A022K25,683,experiment,120,↓,up,↑,1.0707452000351623,False,18
A022K25,684,experiment,168,↑,no_key,no_letter,-1.0,False,18
A022K25,685,experiment,60,←,up,↑,1.730178999947384,False,18
A022K25,686,experiment,72,↑,down,↓,1.4153819000348449,False,18
A022K25,687,experiment,180,↓,down,↓,0.7812690999126062,True,18
A022K25,688,experiment,120,←,left,←,0.539073699968867,True,18
A022K25,689,experiment,24,↑,up,↑,0.5800251999171451,True,18
A022K25,690,experiment,96,→,right,→,0.5200562999816611,True,18
A022K25,691,experiment,108,↓,down,↓,0.8397573999827728,True,18
A022K25,692,experiment,144,↑,left,←,1.6294004999799654,False,18
A022K25,693,experiment,96,←,down,↓,1.7738727000541985,False,18
A022K25,694,experiment,156,←,right,→,0.5541763999499381,False,18
A022K25,695,experiment,84,←,right,→,0.9956005000276491,False,18
A022K25,696,experiment,24,←,right,→,1.1282926000421867,False,18
A022K25,697,experiment,12,↑,down,↓,0.7751215000171214,False,18
A022K25,698,experiment,180,↓,down,↓,0.7979079999495298,True,18
A022K25,699,experiment,120,←,left,←,0.5967469000024721,True,18
A022K25,700,experiment,156,→,right,→,0.9250036999583244,True,18
A022K25,701,experiment,12,↓,down,↓,0.8878347999416292,True,18
A022K25,702,experiment,72,→,no_key,no_letter,-1.0,False,18
A022K25,703,experiment,36,↓,down,↓,0.5285988000687212,True,18
A022K25,704,experiment,72,↓,down,↓,0.7853706000605598,True,18
A022K25,705,experiment,156,↑,up,↑,0.7141072999220341,True,18
A022K25,706,experiment,24,←,right,→,0.947372299968265,False,18
A022K25,707,experiment,48,↓,right,→,0.9708519000560045,False,18
A022K25,708,experiment,36,←,no_key,no_letter,-1.0,False,18
A022K25,709,experiment,120,↑,no_key,no_letter,-1.0,False,18
A022K25,710,experiment,48,↑,left,←,0.5579406999750063,False,18
A022K25,711,experiment,108,↑,up,↑,0.8404747999738902,True,18
A022K25,712,experiment,108,↓,down,↓,0.9092854999471456,True,18
A022K25,713,experiment,168,←,left,←,0.6089419000782073,True,18
A022K25,714,experiment,132,→,right,→,0.6842674999497831,True,18
A022K25,715,experiment,108,→,down,↓,1.059020399930887,False,18
A022K25,716,experiment,60,↓,up,↑,0.7838654000079259,False,18
A022K25,717,experiment,48,→,right,→,0.9613263999344781,True,18
A022K25,718,experiment,84,←,left,←,0.7052854000357911,True,18
A022K25,719,experiment,144,←,right,→,0.6088435999117792,False,18
A022K25,720,experiment,12,←,up,↑,1.8863427999895066,False,18
A022K25,721,experiment,24,←,left,←,0.7499695000005886,True,18
A022K25,722,experiment,144,↓,right,→,0.6077751000411808,False,18
A022K25,723,experiment,36,←,right,→,0.6495437000412494,False,18
A022K25,724,training,84,←,right,→,0.6728535000002012,False,18
A022K25,725,training,180,←,left,←,0.7923065000213683,True,18
A022K25,726,training,48,↓,down,↓,0.7348582999547943,True,18
A022K25,727,experiment,96,→,right,→,0.8818782999878749,True,18
A022K25,728,experiment,108,↓,down,↓,0.5981929999543354,True,18
A022K25,729,experiment,156,→,left,←,0.5128522999584675,False,18
A022K25,730,experiment,48,←,down,↓,0.7561848000623286,False,18
A022K25,731,experiment,180,→,right,→,0.5891016999958083,True,18
A022K25,732,experiment,36,→,down,↓,1.5352013999363407,False,18
A022K25,733,experiment,144,↑,up,↑,0.8285956000909209,True,18
A022K25,734,experiment,84,↓,down,↓,0.7345085999695584,True,18
A022K25,735,experiment,72,←,up,↑,1.246724999975413,False,18
A022K25,736,experiment,144,↓,down,↓,0.8854766000295058,True,18
A022K25,737,experiment,72,→,right,→,0.5879226999823004,True,18
A022K25,738,experiment,132,←,right,→,0.8225541999563575,False,18
A022K25,739,experiment,120,↑,down,↓,0.7346620999742299,False,18
A022K25,740,experiment,60,→,no_key,no_letter,-1.0,False,18
A022K25,741,experiment,24,→,left,←,0.7616846999153495,False,18
A022K25,742,experiment,156,↑,right,→,0.9241526999976486,False,18
A022K25,743,experiment,144,→,right,→,0.9898555999388918,True,18
A022K25,744,experiment,132,↑,up,↑,1.142998900031671,True,18
A022K25,745,experiment,12,↑,no_key,no_letter,-1.0,False,18
A022K25,746,experiment,60,→,left,←,1.00942799996119,False,18
A022K25,747,experiment,48,↓,down,↓,0.7206589999841526,True,18
A022K25,748,experiment,36,↑,up,↑,0.7789131000172347,True,18
A022K25,749,experiment,36,→,right,→,0.7279035999672487,True,18
A022K25,750,experiment,12,↑,left,←,1.0536946998909116,False,18
A022K25,751,experiment,168,↑,right,→,1.3830498999450356,False,18
A022K25,752,experiment,132,→,right,→,0.6434799999697134,True,18
A022K25,753,experiment,72,→,down,↓,1.1136769999284297,False,18
A022K25,754,experiment,96,↑,no_key,no_letter,-1.0,False,18
A022K25,755,experiment,156,↑,no_key,no_letter,-1.0,False,18
A022K25,756,experiment,84,→,right,→,1.242494500009343,True,18
A022K25,757,experiment,180,→,right,→,0.753078700043261,True,18
A022K25,758,experiment,48,→,right,→,0.6302613000152633,True,18
A022K25,759,experiment,24,↑,right,→,1.5743587999604642,False,18
A022K25,760,experiment,108,→,right,→,0.5372555999783799,True,18
A022K25,761,experiment,12,→,no_key,no_letter,-1.0,False,18
A022K25,762,experiment,180,↑,up,↑,0.8558076000772417,True,18
A022K25,763,experiment,24,←,up,↑,1.2702072000829503,False,18
A022K25,764,experiment,96,→,right,→,1.0425914999796078,True,18
A022K25,765,experiment,96,↓,up,↑,0.8526849000481889,False,18
A022K25,766,experiment,120,↓,up,↑,0.6747813000110909,False,18
A022K25,767,experiment,120,→,no_key,no_letter,-1.0,False,18
A022K25,768,experiment,60,←,right,→,1.1757974000647664,False,18
A022K25,769,experiment,168,→,right,→,0.3504544999450445,True,18
A022K25,770,experiment,36,→,left,←,0.6122072000289336,False,18
A022K25,771,experiment,168,↓,no_key,no_letter,-1.0,False,18
A022K25,772,experiment,108,↑,up,↑,1.6567766999360174,True,18
A022K25,773,experiment,84,←,left,←,0.6229032999835908,True,18
A022K25,774,experiment,120,→,right,→,0.6987479999661446,True,18
A022K25,775,experiment,84,↓,left,←,0.7665252999868244,False,18
A022K25,776,experiment,72,←,left,←,0.5016759000718594,True,18
A022K25,777,experiment,24,→,right,→,0.5619603999657556,True,18
A022K25,778,experiment,108,→,right,→,0.7212281000101939,True,18
A022K25,779,experiment,144,←,left,←,0.4779257000191137,True,18
A022K25,780,experiment,156,↓,left,←,1.1310462000546977,False,18
A022K25,781,experiment,48,→,right,→,0.9271476999856532,True,18
A022K25,782,experiment,132,←,down,↓,0.9652428000699729,False,18
A022K25,783,experiment,60,↑,up,↑,1.162877400056459,True,18
A022K25,784,experiment,168,←,left,←,0.6120527000166476,True,18
A022K25,785,experiment,12,↓,right,→,1.0115705999778584,False,18
A022K25,786,experiment,180,↑,up,↑,0.9196473999181762,True,18
A022K25,787,training,132,←,left,←,0.5099120000377297,True,18
A022K25,788,training,48,→,right,→,0.5234004000667483,True,18
A022K25,789,training,120,←,up,↑,1.830484800040722,False,18
A022K25,790,experiment,132,→,right,→,0.616320600034669,True,18
A022K25,791,experiment,120,↑,right,→,0.6197852999903262,False,18
A022K25,792,experiment,96,→,right,→,0.6198871999513358,True,18
A022K25,793,experiment,96,↑,left,←,0.997638100059703,False,18
A022K25,794,experiment,72,→,right,→,1.8835582999745384,True,18
A022K25,795,experiment,60,→,right,→,1.6957812000764534,True,18
A022K25,796,experiment,108,→,left,←,1.0240056000184268,False,18
A022K25,797,experiment,84,↑,no_key,no_letter,-1.0,False,18
A022K25,798,experiment,48,↓,right,→,0.5188175999792293,False,18
A022K25,799,experiment,24,←,left,←,0.655922400066629,True,18
A022K25,800,experiment,60,↓,down,↓,1.011156399967149,True,18
A022K25,801,experiment,12,→,right,→,0.6378125000046566,True,18
A022K25,802,experiment,84,←,right,→,0.6972435999196023,False,18
A022K25,803,experiment,48,←,left,←,0.7658803999656811,True,18
A022K25,804,experiment,36,←,down,↓,1.57663629995659,False,18
A022K25,805,experiment,36,→,right,→,0.5568958999356255,True,18
A022K25,806,experiment,24,↓,down,↓,0.8379741999087855,True,18
A022K25,807,experiment,168,←,right,→,0.7675721999257803,False,18
A022K25,808,experiment,12,↓,right,→,1.1933447000337765,False,18
A022K25,809,experiment,12,↓,left,←,0.8286300000036135,False,18
A022K25,810,experiment,24,↓,up,↑,0.9744823999935761,False,18
A022K25,811,experiment,144,→,right,→,0.5222552999621257,True,18
A022K25,812,experiment,156,↓,left,←,0.9537803999846801,False,18
A022K25,813,experiment,156,→,right,→,0.6013288999674842,True,18
A022K25,814,experiment,72,→,up,↑,1.0752979000099003,False,18
A022K25,815,experiment,108,→,no_key,no_letter,-1.0,False,18
A022K25,816,experiment,72,↓,down,↓,0.7655785999959335,True,18
A022K25,817,experiment,156,←,right,→,0.6868795000482351,False,18
A022K25,818,experiment,144,→,down,↓,0.9782717999769375,False,18
A022K25,819,experiment,48,↑,up,↑,1.0386375000234693,True,18
A022K25,820,experiment,96,↑,up,↑,0.7745473000686616,True,18
A022K25,821,experiment,168,↑,up,↑,0.799221400055103,True,18
A022K25,822,experiment,12,↓,no_key,no_letter,-1.0,False,18
A022K25,823,experiment,120,→,right,→,0.7169545999495313,True,18
A022K25,824,experiment,108,↑,up,↑,0.6926636000862345,True,18
A022K25,825,experiment,96,→,right,→,0.7485998999327421,True,18
A022K25,826,experiment,120,→,up,↑,0.8184591999743134,False,18
A022K25,827,experiment,180,↓,up,↑,0.8705226000165567,False,18
A022K25,828,experiment,132,→,left,←,0.9299159999936819,False,18
A022K25,829,experiment,144,↑,down,↓,1.1979526999639347,False,18
A022K25,830,experiment,48,↑,up,↑,0.8345956000266597,True,18
A022K25,831,experiment,60,↓,up,↑,1.2263993999222293,False,18
A022K25,832,experiment,24,←,up,↑,0.8911402999656275,False,18
A022K25,833,experiment,132,→,right,→,0.5374787000473589,True,18
A022K25,834,experiment,84,↑,right,→,0.7549098000163212,False,18
A022K25,835,experiment,168,←,right,→,0.6725706000579521,False,18
A022K25,836,experiment,36,←,right,→,1.3823569000232965,False,18
A022K25,837,experiment,108,←,left,←,0.8776830000570044,True,18
A022K25,838,experiment,72,→,up,↑,1.0353243000572547,False,18
A022K25,839,experiment,168,↑,no_key,no_letter,-1.0,False,18
A022K25,840,experiment,180,→,right,→,1.194158500060439,True,18
A022K25,841,experiment,132,←,left,←,0.6576973999617621,True,18
A022K25,842,experiment,84,↑,left,←,0.6713470999384299,False,18
A022K25,843,experiment,60,←,right,→,0.5234944000840187,False,18
A022K25,844,experiment,180,↑,left,←,0.3003173000179231,False,18
A022K25,845,experiment,36,←,left,←,0.8104024999774992,True,18
A022K25,846,experiment,180,↓,down,↓,0.9129851000616327,True,18
A022K25,847,experiment,144,↓,down,↓,0.7050586000550538,True,18
A022K25,848,experiment,120,←,left,←,0.994784599984996,True,18
A022K25,849,experiment,156,←,left,←,0.7207427999237552,True,18
