PART_ID,Trial_no,Trial_type,PDI,Stim_letter,Key_pressed,letter_choose,Rt,Corr,Stimulus Time
A025M31,1,training,10,←,no_key,no_letter,-1.0,False,30
A025M31,2,training,10,→,right,→,2.0440175000112504,True,30
A025M31,3,training,10,↑,left,←,1.2669501998461783,False,30
A025M31,4,training,10,→,right,→,0.7746218000538647,True,30
A025M31,5,training,10,←,left,←,0.8477015998214483,True,30
A025M31,6,training,10,←,left,←,0.7594471001066267,True,30
A025M31,7,training,10,↑,up,↑,0.718523999908939,True,30
A025M31,8,training,10,↓,down,↓,1.1522293000016361,True,30
A025M31,9,training,10,←,left,←,0.7915356000885367,True,30
A025M31,10,training,10,←,left,←,0.7195502000395209,True,30
A025M31,11,training,10,←,left,←,1.0297840000130236,True,30
A025M31,12,training,10,↓,down,↓,0.8987253999803215,True,30
A025M31,13,training,10,←,left,←,1.03212650003843,True,30
A025M31,14,training,10,←,left,←,0.8578043000306934,True,30
A025M31,15,training,10,↓,down,↓,0.8174142001662403,True,30
A025M31,16,training,10,↑,up,↑,0.8487384000327438,True,30
A025M31,17,training,10,↓,down,↓,0.8544203001074493,True,30
A025M31,18,training,10,↑,up,↑,0.83521269983612,True,30
A025M31,19,training,10,→,no_key,no_letter,-1.0,False,30
A025M31,20,training,10,→,right,→,0.7357626999728382,True,30
A025M31,21,training,10,←,left,←,0.5948471000883728,True,18
A025M31,22,training,10,←,left,←,0.6217902998905629,True,18
A025M31,23,training,10,↓,down,↓,0.8063513999804854,True,18
A025M31,24,training,10,←,left,←,0.6026686001569033,True,18
A025M31,25,training,10,→,right,→,0.5431717000901699,True,18
A025M31,26,training,10,→,right,→,0.5965557000599802,True,18
A025M31,27,training,10,↑,up,↑,0.6994698999915272,True,18
A025M31,28,training,10,→,right,→,0.5907192998565733,True,18
A025M31,29,training,10,→,right,→,0.686490299878642,True,18
A025M31,30,training,10,↑,up,↑,0.6246648000087589,True,18
A025M31,31,training,132,→,right,→,0.6573224000167102,True,15
A025M31,32,training,48,→,right,→,0.6143564998637885,True,15
A025M31,33,training,120,↑,up,↑,0.6028726999647915,True,15
A025M31,34,experiment,12,↓,down,↓,0.7187214000150561,True,15
A025M31,35,experiment,12,↓,down,↓,0.6396214000415057,True,15
A025M31,36,experiment,120,↓,down,↓,0.7013729999307543,True,15
A025M31,37,experiment,36,↑,up,↑,0.7008633001241833,True,15
A025M31,38,experiment,60,↓,down,↓,0.6147075002081692,True,15
A025M31,39,experiment,84,↓,down,↓,0.6416745998430997,True,15
A025M31,40,experiment,84,↑,up,↑,0.6767155001871288,True,15
A025M31,41,experiment,156,←,left,←,0.7036418002098799,True,15
A025M31,42,experiment,72,↑,down,↓,0.770292199915275,False,15
A025M31,43,experiment,156,→,right,→,0.5843672999180853,True,15
A025M31,44,experiment,48,→,right,→,0.6074012001045048,True,15
A025M31,45,experiment,36,↑,up,↑,0.6607908001169562,True,15
A025M31,46,experiment,108,→,left,←,0.73100890009664,False,15
A025M31,47,experiment,168,→,right,→,0.6079855998978019,True,15
A025M31,48,experiment,144,←,left,←,0.8499674000777304,True,15
A025M31,49,experiment,132,→,right,→,0.6035551999229938,True,15
A025M31,50,experiment,96,↓,down,↓,0.7470784999895841,True,15
A025M31,51,experiment,60,↑,down,↓,0.7491584999952465,False,15
A025M31,52,experiment,168,↑,up,↑,0.6101823998615146,True,15
A025M31,53,experiment,48,↑,up,↑,0.8144632999319583,True,15
A025M31,54,experiment,180,↓,down,↓,0.7022975999861956,True,15
A025M31,55,experiment,168,↓,down,↓,0.6985249000135809,True,15
A025M31,56,experiment,24,↓,down,↓,0.7578948999289423,True,15
A025M31,57,experiment,144,←,left,←,0.633999900193885,True,15
A025M31,58,experiment,132,↑,up,↑,0.7909614001400769,True,15
A025M31,59,experiment,60,←,left,←,0.7337966000195593,True,15
A025M31,60,experiment,72,←,left,←,0.6113198001403362,True,15
A025M31,61,experiment,12,↓,left,←,1.0060985998716205,False,15
A025M31,62,experiment,24,→,right,→,0.6271429001353681,True,15
A025M31,63,experiment,96,←,left,←,0.7278795999009162,True,15
A025M31,64,experiment,132,↑,left,←,0.9255647999234498,False,15
A025M31,65,experiment,144,↑,up,↑,0.7978341998532414,True,15
A025M31,66,experiment,12,→,left,←,1.0527411000803113,False,15
A025M31,67,experiment,156,↑,up,↑,0.69930289988406,True,15
A025M31,68,experiment,180,↑,up,↑,0.6097552999854088,True,15
A025M31,69,experiment,108,↑,up,↑,0.6850437000393867,True,15
A025M31,70,experiment,144,→,right,→,0.6369581001345068,True,15
A025M31,71,experiment,48,←,left,←,0.6651703000534326,True,15
A025M31,72,experiment,36,↓,up,↑,0.7880437998101115,False,15
A025M31,73,experiment,60,→,right,→,0.6868732001166791,True,15
A025M31,74,experiment,180,←,left,←,0.6487354000564665,True,15
A025M31,75,experiment,108,→,left,←,0.6326293000020087,False,15
A025M31,76,experiment,156,↓,down,↓,0.903914799913764,True,15
A025M31,77,experiment,72,↓,down,↓,0.8094854999799281,True,15
A025M31,78,experiment,108,↓,up,↑,0.6474750000052154,False,15
A025M31,79,experiment,120,↓,down,↓,0.6644152000080794,True,15
A025M31,80,experiment,48,↓,down,↓,1.3906941001769155,True,15
A025M31,81,experiment,84,↓,down,↓,0.7932287999428809,True,15
A025M31,82,experiment,96,→,right,→,0.8292467000428587,True,15
A025M31,83,experiment,84,→,right,→,0.7192690998781472,True,15
A025M31,84,experiment,132,↓,down,↓,0.7896722999867052,True,15
A025M31,85,experiment,96,↓,left,←,0.9020958999171853,False,15
A025M31,86,experiment,24,←,left,←,0.7282869000919163,True,15
A025M31,87,experiment,120,←,left,←,0.6992607000283897,True,15
A025M31,88,experiment,24,←,right,→,0.7316175000742078,False,15
A025M31,89,experiment,36,↑,up,↑,0.6276595001108944,True,15
A025M31,90,experiment,120,↓,down,↓,0.6829923999030143,True,15
A025M31,91,experiment,72,→,right,→,0.5485584000125527,True,15
A025M31,92,experiment,168,←,left,←,0.5943058000411838,True,15
A025M31,93,experiment,180,←,right,→,0.4964676001109183,False,15
A025M31,94,training,60,↓,down,↓,0.6590963001362979,True,15
A025M31,95,training,12,↓,down,↓,0.683287899941206,True,15
A025M31,96,training,144,↑,left,←,1.1544830999337137,False,15
A025M31,97,experiment,36,↓,down,↓,0.6585617000237107,True,15
A025M31,98,experiment,84,←,left,←,0.6662922999821603,True,15
A025M31,99,experiment,108,→,right,→,0.5927689999807626,True,15
A025M31,100,experiment,144,←,left,←,0.6532946000806987,True,15
A025M31,101,experiment,36,↑,up,↑,0.7970151000190526,True,15
A025M31,102,experiment,168,↑,up,↑,0.6735624000430107,True,15
A025M31,103,experiment,96,↓,down,↓,0.671965999994427,True,15
A025M31,104,experiment,12,→,left,←,0.665870500029996,False,15
A025M31,105,experiment,168,←,left,←,0.7392561000306159,True,15
A025M31,106,experiment,132,↓,down,↓,0.6121416001114994,True,15
A025M31,107,experiment,72,←,left,←,0.5453367999289185,True,15
A025M31,108,experiment,180,→,right,→,0.5266499000135809,True,15
A025M31,109,experiment,180,↑,up,↑,0.6562657000031322,True,15
A025M31,110,experiment,156,↑,up,↑,0.5630872999317944,True,15
A025M31,111,experiment,168,↓,down,↓,0.8204139000736177,True,15
A025M31,112,experiment,12,↓,right,→,0.933150399941951,False,15
A025M31,113,experiment,132,↑,up,↑,0.6000596000812948,True,15
A025M31,114,experiment,24,↑,up,↑,0.6925043999217451,True,15
A025M31,115,experiment,120,↑,up,↑,0.8098814999684691,True,15
A025M31,116,experiment,96,↑,up,↑,0.5766299001406878,True,15
A025M31,117,experiment,60,←,up,↑,0.06718320003710687,False,15
A025M31,118,experiment,24,↑,up,↑,0.6723090000450611,True,15
A025M31,119,experiment,120,↑,up,↑,0.6615993999876082,True,15
A025M31,120,experiment,84,→,right,→,0.8884134998079389,True,15
A025M31,121,experiment,36,↑,up,↑,0.6113638000097126,True,15
A025M31,122,experiment,24,→,right,→,0.6229146998375654,True,15
A025M31,123,experiment,144,←,left,←,0.6139068999327719,True,15
A025M31,124,experiment,156,→,right,→,0.65471709985286,True,15
A025M31,125,experiment,72,↓,up,↑,0.608658199897036,False,15
A025M31,126,experiment,96,↑,up,↑,0.6345972002018243,True,15
A025M31,127,experiment,120,↓,down,↓,0.6860730000771582,True,15
A025M31,128,experiment,24,↑,up,↑,0.5861933000851423,True,15
A025M31,129,experiment,168,←,left,←,0.6801757998764515,True,15
A025M31,130,experiment,180,↑,up,↑,0.5319627998396754,True,15
A025M31,131,experiment,132,→,right,→,0.533970900112763,True,15
A025M31,132,experiment,108,←,left,←,0.598400600021705,True,15
A025M31,133,experiment,84,↑,left,←,0.8420781998429447,False,15
A025M31,134,experiment,132,↑,up,↑,0.6944804000668228,True,15
A025M31,135,experiment,96,→,right,→,0.5091913000214845,True,15
A025M31,136,experiment,72,↓,down,↓,0.6433848000597209,True,15
A025M31,137,experiment,12,↓,down,↓,0.9093725997954607,True,15
A025M31,138,experiment,108,↑,left,←,1.2123713998589665,False,15
A025M31,139,experiment,48,←,left,←,0.8388298999052495,True,15
A025M31,140,experiment,48,↑,down,↓,0.838957600062713,False,15
A025M31,141,experiment,12,←,left,←,0.6293690998572856,True,15
A025M31,142,experiment,60,←,left,←,0.6127063001040369,True,15
A025M31,143,experiment,156,↑,up,↑,0.7776842000894248,True,15
A025M31,144,experiment,108,←,left,←,0.5136619999539107,True,15
A025M31,145,experiment,84,→,left,←,0.9586677001789212,False,15
A025M31,146,experiment,60,↓,down,↓,0.6399362999945879,True,15
A025M31,147,experiment,72,←,left,←,0.6160123001318425,True,15
A025M31,148,experiment,156,↓,down,↓,0.5785367998760194,True,15
A025M31,149,experiment,144,↑,up,↑,0.7400295999832451,True,15
A025M31,150,experiment,48,←,left,←,0.6344608999788761,True,15
A025M31,151,experiment,120,←,left,←,0.7547580997925252,True,15
A025M31,152,experiment,180,→,right,→,0.5156076999846846,True,15
A025M31,153,experiment,144,→,right,→,0.5507298000156879,True,15
A025M31,154,experiment,36,↓,up,↑,0.7726275001186877,False,15
A025M31,155,experiment,60,←,left,←,0.5829634999390692,True,15
A025M31,156,experiment,48,↓,down,↓,0.6689449998084456,True,15
A025M31,157,training,24,→,right,→,0.5542890999931842,True,15
A025M31,158,training,48,↑,up,↑,0.5407157000154257,True,15
A025M31,159,training,12,←,right,→,0.7294314000755548,False,15
A025M31,160,experiment,144,←,left,←,0.5790785001590848,True,15
A025M31,161,experiment,12,↑,up,↑,0.659981400007382,True,15
A025M31,162,experiment,84,←,left,←,0.6280992000829428,True,15
A025M31,163,experiment,168,↓,down,↓,0.7812208000104874,True,15
A025M31,164,experiment,168,→,right,→,0.712792299920693,True,15
A025M31,165,experiment,120,←,left,←,0.550709499977529,True,15
A025M31,166,experiment,132,←,left,←,0.5103192001115531,True,15
A025M31,167,experiment,24,←,left,←,0.5829371998552233,True,15
A025M31,168,experiment,156,←,left,←,0.563744799932465,True,15
A025M31,169,experiment,108,←,left,←,0.7210619999095798,True,15
A025M31,170,experiment,156,←,left,←,0.7629022998735309,True,15
A025M31,171,experiment,48,↑,up,↑,0.5577565999701619,True,15
A025M31,172,experiment,36,←,left,←,0.8543238998390734,True,15
A025M31,173,experiment,120,↑,up,↑,0.6118220998905599,True,15
A025M31,174,experiment,120,↓,down,↓,0.6942467000335455,True,15
A025M31,175,experiment,24,←,left,←,0.8941331000532955,True,15
A025M31,176,experiment,48,↓,up,↑,0.9967598000075668,False,15
A025M31,177,experiment,108,→,right,→,0.6853612998966128,True,15
A025M31,178,experiment,36,↑,up,↑,1.043945899931714,True,15
A025M31,179,experiment,24,↓,left,←,1.1092302999459207,False,15
A025M31,180,experiment,36,↓,up,↑,0.8176273999270052,False,15
A025M31,181,experiment,144,↓,down,↓,0.6067601998802274,True,15
A025M31,182,experiment,132,↑,up,↑,0.6832777000963688,True,15
A025M31,183,experiment,180,→,right,→,0.6062926000449806,True,15
A025M31,184,experiment,84,↓,down,↓,0.7312808998394758,True,15
A025M31,185,experiment,84,↓,down,↓,0.6770235998556018,True,15
A025M31,186,experiment,72,↑,up,↑,0.5783287999220192,True,15
A025M31,187,experiment,168,↑,down,↓,0.9626530997920781,False,15
A025M31,188,experiment,48,↑,up,↑,0.5893790998961776,True,15
A025M31,189,experiment,60,↓,up,↑,0.7023116999771446,False,15
A025M31,190,experiment,120,↓,down,↓,0.7431109000463039,True,15
A025M31,191,experiment,72,↓,down,↓,0.6229872000403702,True,15
A025M31,192,experiment,180,↑,up,↑,0.6184155000373721,True,15
A025M31,193,experiment,180,↑,up,↑,0.7026785998605192,True,15
A025M31,194,experiment,36,↓,down,↓,0.6805072000715882,True,15
A025M31,195,experiment,108,↓,down,↓,0.6912253999616951,True,15
A025M31,196,experiment,144,←,up,↑,0.7825697001535445,False,15
A025M31,197,experiment,96,→,right,→,0.6676314999349415,True,15
A025M31,198,experiment,24,↓,left,←,1.1628288000356406,False,15
A025M31,199,experiment,12,↑,up,↑,0.5703181999269873,True,15
A025M31,200,experiment,96,→,right,→,0.5731104000005871,True,15
A025M31,201,experiment,12,↓,down,↓,0.8010082000400871,True,15
A025M31,202,experiment,72,↑,up,↑,0.5681475999299437,True,15
A025M31,203,experiment,168,↑,up,↑,0.5667763999663293,True,15
A025M31,204,experiment,12,↑,up,↑,0.6037641000002623,True,15
A025M31,205,experiment,156,←,left,←,0.7743862001225352,True,15
A025M31,206,experiment,132,↑,up,↑,0.5307485000230372,True,15
A025M31,207,experiment,180,↑,up,↑,0.5085291001014411,True,15
A025M31,208,experiment,60,→,right,→,0.6543473999481648,True,15
A025M31,209,experiment,132,→,right,→,0.5900854000356048,True,15
A025M31,210,experiment,144,←,left,←,0.9801356999669224,True,15
A025M31,211,experiment,48,↑,left,←,1.1148433999624103,False,15
A025M31,212,experiment,84,↑,up,↑,0.7884384000208229,True,15
A025M31,213,experiment,108,↓,right,→,1.0536142000928521,False,15
A025M31,214,experiment,96,↓,down,↓,0.6962570000905544,True,15
A025M31,215,experiment,156,↓,down,↓,0.6518544999416918,True,15
A025M31,216,experiment,96,←,left,←,0.6596081000752747,True,15
A025M31,217,experiment,60,↑,up,↑,0.7200394000392407,True,15
A025M31,218,experiment,60,→,right,→,0.6242025999817997,True,15
A025M31,219,experiment,72,←,up,↑,0.8604477001354098,False,15
A025M31,220,training,84,←,left,←,0.6528495999518782,True,15
A025M31,221,training,120,→,right,→,0.48284119996242225,True,15
A025M31,222,training,48,←,left,←,0.5103132999502122,True,15
A025M31,223,experiment,84,←,right,→,0.7865840999875218,False,15
A025M31,224,experiment,48,↑,left,←,0.8851854000240564,False,15
A025M31,225,experiment,180,↓,down,↓,0.7628655000589788,True,15
A025M31,226,experiment,156,→,right,→,0.842278900090605,True,15
A025M31,227,experiment,156,↑,up,↑,0.6620949998032302,True,15
A025M31,228,experiment,48,↑,up,↑,0.658375799888745,True,15
A025M31,229,experiment,180,→,right,→,0.49663950013928115,True,15
A025M31,230,experiment,108,↓,down,↓,0.9812510998453945,True,15
A025M31,231,experiment,120,↑,up,↑,0.5378022999502718,True,15
A025M31,232,experiment,96,←,left,←,0.6366191001143306,True,15
A025M31,233,experiment,132,↓,down,↓,0.6791364001110196,True,15
A025M31,234,experiment,12,→,right,→,0.6608865999151021,True,15
A025M31,235,experiment,144,↓,down,↓,0.6527296998538077,True,15
A025M31,236,experiment,96,←,left,←,0.6191253999713808,True,15
A025M31,237,experiment,12,←,left,←,0.601303800009191,True,15
A025M31,238,experiment,48,↑,up,↑,0.5379466998856515,True,15
A025M31,239,experiment,12,↓,down,↓,0.6837883000262082,True,15
A025M31,240,experiment,48,↓,down,↓,0.6293329999316484,True,15
A025M31,241,experiment,144,↓,down,↓,0.6084379001986235,True,15
A025M31,242,experiment,144,↓,down,↓,0.604101900011301,True,15
A025M31,243,experiment,72,↑,up,↑,0.5435426000040025,True,15
A025M31,244,experiment,168,↑,up,↑,1.0404725999105722,True,15
A025M31,245,experiment,120,↓,down,↓,0.6585121999960393,True,15
A025M31,246,experiment,24,↓,down,↓,0.8894594998564571,True,15
A025M31,247,experiment,156,↓,down,↓,0.6332054000813514,True,15
A025M31,248,experiment,24,←,left,←,0.6853801000397652,True,15
A025M31,249,experiment,156,←,left,←,0.6132628999184817,True,15
A025M31,250,experiment,120,→,right,→,0.500633800169453,True,15
A025M31,251,experiment,24,←,left,←,0.6531633001286536,True,15
A025M31,252,experiment,180,↑,up,↑,0.6402686999645084,True,15
A025M31,253,experiment,108,↓,down,↓,0.5945445999968797,True,15
A025M31,254,experiment,24,↓,down,↓,0.6886033001355827,True,15
A025M31,255,experiment,12,↓,right,→,0.8872362999245524,False,15
A025M31,256,experiment,144,←,left,←,0.8552065000403672,True,15
A025M31,257,experiment,168,↑,up,↑,0.6369070999789983,True,15
A025M31,258,experiment,108,↑,up,↑,0.4747653999365866,True,15
A025M31,259,experiment,132,↑,up,↑,0.7219191999174654,True,15
A025M31,260,experiment,84,↑,up,↑,0.7443796000443399,True,15
A025M31,261,experiment,108,↓,down,↓,0.6416590998414904,True,15
A025M31,262,experiment,72,←,left,←,0.7089615999720991,True,15
A025M31,263,experiment,60,→,left,←,0.7575546000152826,False,15
A025M31,264,experiment,96,↓,down,↓,0.7717028998304158,True,15
A025M31,265,experiment,36,←,left,←,0.6162526998668909,True,15
A025M31,266,experiment,72,↓,down,↓,0.6115638001356274,True,15
A025M31,267,experiment,168,→,right,→,0.4641291000880301,True,15
A025M31,268,experiment,132,→,right,→,1.8427063999697566,True,15
A025M31,269,experiment,60,←,left,←,0.9554236999247223,True,15
A025M31,270,experiment,60,↑,up,↑,0.655973199987784,True,15
A025M31,271,experiment,96,→,right,→,0.7253624000586569,True,15
A025M31,272,experiment,60,←,left,←,0.6377486998680979,True,15
A025M31,273,experiment,168,↓,down,↓,0.735156900016591,True,15
A025M31,274,experiment,36,←,left,←,0.6958194999024272,True,15
A025M31,275,experiment,72,↓,down,↓,0.7194967998657376,True,15
A025M31,276,experiment,120,→,right,→,0.6377478002104908,True,15
A025M31,277,experiment,132,←,left,←,0.7990921000018716,True,15
A025M31,278,experiment,84,↓,down,↓,0.7502431001048535,True,15
A025M31,279,experiment,36,←,left,←,0.5573410000652075,True,15
A025M31,280,experiment,36,→,right,→,0.7837976000737399,True,15
A025M31,281,experiment,84,↑,up,↑,0.5872112999204546,True,15
A025M31,282,experiment,180,→,left,←,0.6980439000762999,False,15
A025M31,283,training,12,←,up,↑,0.9124207999557257,False,14
A025M31,284,training,156,↓,down,↓,0.6738377998117357,True,14
A025M31,285,training,120,↓,down,↓,0.6992942998185754,True,14
A025M31,286,experiment,120,←,left,←,0.5198818000499159,True,14
A025M31,287,experiment,108,↓,down,↓,0.5926332999952137,True,14
A025M31,288,experiment,24,↓,down,↓,0.6666339000221342,True,14
A025M31,289,experiment,36,←,left,←,0.5732050999067724,True,14
A025M31,290,experiment,180,↓,down,↓,0.7259957999922335,True,14
A025M31,291,experiment,12,→,right,→,0.6054674000479281,True,14
A025M31,292,experiment,36,↑,left,←,0.8886712999083102,False,14
A025M31,293,experiment,36,→,left,←,0.582195800030604,False,14
A025M31,294,experiment,132,↓,down,↓,0.7490902000572532,True,14
A025M31,295,experiment,96,←,left,←,0.6011131000705063,True,14
A025M31,296,experiment,120,←,left,←,0.5470753000117838,True,14
A025M31,297,experiment,60,←,left,←,0.6415673000738025,True,14
A025M31,298,experiment,48,↓,down,↓,0.7125026001594961,True,14
A025M31,299,experiment,168,→,right,→,0.47197730001062155,True,14
A025M31,300,experiment,120,→,right,→,0.47790660010650754,True,14
A025M31,301,experiment,144,←,left,←,0.6813193000853062,True,14
A025M31,302,experiment,48,←,left,←,0.6869056997820735,True,14
A025M31,303,experiment,108,←,left,←,0.6019560999702662,True,14
A025M31,304,experiment,96,↓,down,↓,0.7711759000085294,True,14
A025M31,305,experiment,84,←,left,←,0.6511210999451578,True,14
A025M31,306,experiment,180,←,left,←,0.652551099890843,True,14
A025M31,307,experiment,12,→,left,←,0.7621019999496639,False,14
A025M31,308,experiment,144,↑,up,↑,1.0089649001602083,True,14
A025M31,309,experiment,132,←,left,←,0.6964090999681503,True,14
A025M31,310,experiment,108,↓,left,←,0.7599633999634534,False,14
A025M31,311,experiment,180,→,right,→,0.5648504998534918,True,14
A025M31,312,experiment,24,↓,down,↓,0.8996399999596179,True,14
A025M31,313,experiment,48,←,up,↑,0.7194795000832528,False,14
A025M31,314,experiment,108,←,right,→,0.5641550000291318,False,14
A025M31,315,experiment,48,←,left,←,0.7353746998123825,True,14
A025M31,316,experiment,60,↓,down,↓,0.6193554000928998,True,14
A025M31,317,experiment,72,↑,left,←,0.7434675998520106,False,14
A025M31,318,experiment,120,↓,down,↓,0.6833168999291956,True,14
A025M31,319,experiment,36,←,left,←,0.6049170000478625,True,14
A025M31,320,experiment,132,→,right,→,0.5314192001242191,True,14
A025M31,321,experiment,60,←,up,↑,0.847273499937728,False,14
A025M31,322,experiment,132,→,up,↑,0.7529850001446903,False,14
A025M31,323,experiment,72,↓,down,↓,0.6618697999510914,True,14
A025M31,324,experiment,84,←,up,↑,0.8330429000779986,False,14
A025M31,325,experiment,168,→,left,←,0.6441953999456018,False,14
A025M31,326,experiment,168,→,right,→,0.633202699944377,True,14
A025M31,327,experiment,156,↓,down,↓,0.768610900035128,True,14
A025M31,328,experiment,156,→,right,→,0.5579486000351608,True,14
A025M31,329,experiment,96,↑,up,↑,0.6744050001725554,True,14
A025M31,330,experiment,156,↑,up,↑,0.5928728000726551,True,14
A025M31,331,experiment,144,→,right,→,0.6459169001318514,True,14
A025M31,332,experiment,84,↓,down,↓,0.7293799999170005,True,14
A025M31,333,experiment,144,↑,up,↑,0.5617148999590427,True,14
A025M31,334,experiment,156,↑,down,↓,0.8143945999909192,False,14
A025M31,335,experiment,168,→,right,→,0.5514366999268532,True,14
A025M31,336,experiment,180,←,up,↑,0.8726537998300046,False,14
A025M31,337,experiment,60,↓,down,↓,0.6817669000010937,True,14
A025M31,338,experiment,12,↑,up,↑,0.6103875997941941,True,14
A025M31,339,experiment,96,→,right,→,0.654706200119108,True,14
A025M31,340,experiment,72,←,left,←,0.8114308000076562,True,14
A025M31,341,experiment,84,↑,left,←,0.6958313998766243,False,14
A025M31,342,experiment,72,←,left,←,0.5328724998980761,True,14
A025M31,343,experiment,12,↓,left,←,0.8394543998874724,False,14
A025M31,344,experiment,24,↑,up,↑,0.6876167000737041,True,14
A025M31,345,experiment,24,←,left,←,0.6881403001025319,True,14
A025M31,346,training,132,↑,up,↑,0.8413547999225557,True,14
A025M31,347,training,72,↑,right,→,0.759739900007844,False,14
A025M31,348,training,180,↓,down,↓,0.7709383999463171,True,14
A025M31,349,experiment,156,→,right,→,0.5007723998278379,True,14
A025M31,350,experiment,132,←,left,←,0.5540427998639643,True,14
A025M31,351,experiment,156,↓,up,↑,0.6085600999649614,False,14
A025M31,352,experiment,180,←,left,←,0.7663247000891715,True,14
A025M31,353,experiment,108,→,right,→,0.5276540999766439,True,14
A025M31,354,experiment,156,↑,up,↑,0.6737893000245094,True,14
A025M31,355,experiment,168,↓,down,↓,0.7896964000537992,True,14
A025M31,356,experiment,180,↓,left,←,0.8758082999847829,False,14
A025M31,357,experiment,168,↑,up,↑,0.6475778000894934,True,14
A025M31,358,experiment,132,→,right,→,0.5198276999872178,True,14
A025M31,359,experiment,84,→,right,→,0.49915849999524653,True,14
A025M31,360,experiment,96,→,left,←,0.7386795000638813,False,14
A025M31,361,experiment,144,↓,up,↑,0.6072200001217425,False,14
A025M31,362,experiment,36,→,left,←,0.7122893999330699,False,14
A025M31,363,experiment,168,→,right,→,0.773902699816972,True,14
A025M31,364,experiment,132,↓,down,↓,0.7114752000197768,True,14
A025M31,365,experiment,48,↑,up,↑,0.7017942001111805,True,14
A025M31,366,experiment,96,→,right,→,0.5316429000813514,True,14
A025M31,367,experiment,96,↓,down,↓,0.7782378999982029,True,14
A025M31,368,experiment,24,↓,down,↓,0.8201608001254499,True,14
A025M31,369,experiment,48,↓,down,↓,0.7386239999905229,True,14
A025M31,370,experiment,48,→,right,→,0.5372190999332815,True,14
A025M31,371,experiment,24,↓,down,↓,0.7281157998368144,True,14
A025M31,372,experiment,144,→,right,→,0.5531186999287456,True,14
A025M31,373,experiment,60,←,left,←,0.9016650000121444,True,14
A025M31,374,experiment,120,→,right,→,0.4476487999781966,True,14
A025M31,375,experiment,180,←,right,→,0.9425542000681162,False,14
A025M31,376,experiment,108,↑,up,↑,0.6976697999052703,True,14
A025M31,377,experiment,120,↑,up,↑,0.637449299916625,True,14
A025M31,378,experiment,12,←,left,←,0.656987400026992,True,14
A025M31,379,experiment,12,→,left,←,0.6722524999640882,False,14
A025M31,380,experiment,12,←,left,←,0.6312150000594556,True,14
A025M31,381,experiment,108,→,right,→,0.7374686000403017,True,14
A025M31,382,experiment,72,↓,left,←,0.9026893000118434,False,14
A025M31,383,experiment,24,→,right,→,0.5202097999863327,True,14
A025M31,384,experiment,36,↑,up,↑,0.5943227000534534,True,14
A025M31,385,experiment,60,↓,down,↓,0.8336919001303613,True,14
A025M31,386,experiment,144,→,right,→,0.5089241999667138,True,14
A025M31,387,experiment,132,←,right,→,0.46129700005985796,False,14
A025M31,388,experiment,120,→,right,→,0.5090904000680894,True,14
A025M31,389,experiment,84,↓,down,↓,0.712800299981609,True,14
A025M31,390,experiment,180,→,left,←,0.7455134999472648,False,14
A025M31,391,experiment,48,←,left,←,0.6182317000348121,True,14
A025M31,392,experiment,144,→,right,→,0.4578397998120636,True,14
A025M31,393,experiment,84,→,right,→,0.5296947001479566,True,14
A025M31,394,experiment,36,↓,down,↓,0.8114265999756753,True,14
A025M31,395,experiment,120,←,right,→,0.560576300136745,False,14
A025M31,396,experiment,168,↑,up,↑,0.5959807001054287,True,14
A025M31,397,experiment,24,→,right,→,0.5564707000739872,True,14
A025M31,398,experiment,84,←,up,↑,0.6932611002121121,False,14
A025M31,399,experiment,156,↑,up,↑,0.6505047001410276,True,14
A025M31,400,experiment,60,↓,up,↑,0.621852400014177,False,14
A025M31,401,experiment,60,↓,right,→,0.6532332999631763,False,14
A025M31,402,experiment,72,←,down,↓,0.7076067000161856,False,14
A025M31,403,experiment,108,↓,up,↑,0.58900439995341,False,14
A025M31,404,experiment,72,↑,up,↑,0.5957421998027712,True,14
A025M31,405,experiment,12,↓,up,↑,0.6478664998430759,False,14
A025M31,406,experiment,96,↑,up,↑,0.6417481999378651,True,14
A025M31,407,experiment,72,→,right,→,0.5944608999416232,True,14
A025M31,408,experiment,36,↑,up,↑,0.6361587999854237,True,14
A025M31,409,training,108,↑,up,↑,0.62897829990834,True,14
A025M31,410,training,120,←,left,←,0.6690996999386698,True,14
A025M31,411,training,144,↓,down,↓,0.7447651999536902,True,14
A025M31,412,experiment,132,↑,up,↑,0.6693076000083238,True,14
A025M31,413,experiment,84,←,left,←,0.6350253999698907,True,14
A025M31,414,experiment,144,←,left,←,0.5390930001158267,True,14
A025M31,415,experiment,108,↑,up,↑,0.49812890007160604,True,14
A025M31,416,experiment,48,←,left,←,0.7789640000555664,True,14
A025M31,417,experiment,108,↑,up,↑,0.500789400190115,True,14
A025M31,418,experiment,60,↑,up,↑,1.1408785998355597,True,14
A025M31,419,experiment,36,←,left,←,1.1165048000402749,True,14
A025M31,420,experiment,36,↑,up,↑,0.5606127998325974,True,14
A025M31,421,experiment,36,↓,up,↑,0.5825257999822497,False,14
A025M31,422,experiment,180,←,left,←,0.6216215000022203,True,14
A025M31,423,experiment,36,→,up,↑,0.8582422998733819,False,14
A025M31,424,experiment,48,↑,up,↑,0.6492106998339295,True,14
A025M31,425,experiment,108,↓,left,←,0.6850532998796552,False,14
A025M31,426,experiment,12,↑,up,↑,0.9625447997823358,True,14
A025M31,427,experiment,12,←,left,←,0.6570226999465376,True,14
A025M31,428,experiment,120,→,left,←,0.6331168999895453,False,14
A025M31,429,experiment,60,←,up,↑,0.6088171999435872,False,14
A025M31,430,experiment,84,↑,up,↑,0.6137961000204086,True,14
A025M31,431,experiment,96,↑,up,↑,0.6223573999013752,True,14
A025M31,432,experiment,156,→,up,↑,0.654308500001207,False,14
A025M31,433,experiment,96,↑,left,←,1.3646298998501152,False,14
A025M31,434,experiment,120,↑,up,↑,0.5228875998873264,True,14
A025M31,435,experiment,48,←,left,←,0.8139888998121023,True,14
A025M31,436,experiment,132,↑,up,↑,0.5490334001369774,True,14
A025M31,437,experiment,84,→,right,→,0.6509991001803428,True,14
A025M31,438,experiment,132,→,right,→,0.6373411000240594,True,14
A025M31,439,experiment,72,↓,down,↓,0.8365243000444025,True,14
A025M31,440,experiment,144,←,right,→,0.879670700058341,False,14
A025M31,441,experiment,120,←,left,←,0.7613740998785943,True,14
A025M31,442,experiment,144,←,left,←,0.669884700095281,True,14
A025M31,443,experiment,156,↓,down,↓,0.8330242999363691,True,14
A025M31,444,experiment,24,↓,up,↑,0.6805734999943525,False,14
A025M31,445,experiment,108,→,right,→,0.5361138000153005,True,14
A025M31,446,experiment,60,↓,down,↓,0.7176587001886219,True,14
A025M31,447,experiment,132,↑,up,↑,0.5411110001150519,True,14
A025M31,448,experiment,96,←,left,←,0.6364386000204831,True,14
A025M31,449,experiment,180,←,left,←,0.6534936998505145,True,14
A025M31,450,experiment,144,←,left,←,0.6088501000776887,True,14
A025M31,451,experiment,168,←,left,←,0.5347323999740183,True,14
A025M31,452,experiment,72,←,left,←,0.6133644001092762,True,14
A025M31,453,experiment,24,↑,up,↑,0.7083566000219434,True,14
A025M31,454,experiment,120,→,right,→,0.5580528001300991,True,14
A025M31,455,experiment,24,↑,up,↑,0.6555274000857025,True,14
A025M31,456,experiment,168,←,left,←,0.649171199882403,True,14
A025M31,457,experiment,168,↓,down,↓,0.7489310000091791,True,14
A025M31,458,experiment,84,→,right,→,0.6283952998928726,True,14
A025M31,459,experiment,180,→,right,→,0.5452310999389738,True,14
A025M31,460,experiment,48,←,right,→,0.629988000029698,False,14
A025M31,461,experiment,168,↑,up,↑,0.7013616000767797,True,14
A025M31,462,experiment,12,←,right,→,0.7022351000923663,False,14
A025M31,463,experiment,156,↓,up,↑,0.5921814001630992,False,14
A025M31,464,experiment,12,↓,up,↑,0.5863206998910755,False,14
A025M31,465,experiment,180,→,right,→,0.575888300081715,True,14
A025M31,466,experiment,72,↑,up,↑,0.618979699909687,True,14
A025M31,467,experiment,96,←,left,←,0.7163853000383824,True,14
A025M31,468,experiment,24,←,left,←,0.7159837000072002,True,14
A025M31,469,experiment,156,↓,down,↓,0.7699770000763237,True,14
A025M31,470,experiment,60,→,right,→,0.5344008998945355,True,14
A025M31,471,experiment,72,←,up,↑,0.6236529999878258,False,14
A025M31,472,training,156,→,right,→,0.5361470999196172,True,14
A025M31,473,training,180,←,right,→,0.4701636000536382,False,14
A025M31,474,training,96,↓,left,←,0.7444197000004351,False,14
A025M31,475,experiment,24,→,left,←,0.6109763998538256,False,14
A025M31,476,experiment,168,←,left,←,0.5784821000415832,True,14
A025M31,477,experiment,132,←,left,←,0.6769721999298781,True,14
A025M31,478,experiment,84,↓,down,↓,0.7748391998466104,True,14
A025M31,479,experiment,156,→,right,→,0.7917577000334859,True,14
A025M31,480,experiment,108,←,left,←,0.9806794999167323,True,14
A025M31,481,experiment,84,↑,up,↑,0.5857367001008242,True,14
A025M31,482,experiment,36,→,left,←,0.7563151000067592,False,14
A025M31,483,experiment,180,→,right,→,0.6373165000695735,True,14
A025M31,484,experiment,180,↓,left,←,0.8139718000311404,False,14
A025M31,485,experiment,96,→,left,←,0.7067273000720888,False,14
A025M31,486,experiment,144,←,left,←,0.5970120998099446,True,14
A025M31,487,experiment,12,→,left,←,0.7201768001541495,False,14
A025M31,488,experiment,132,←,left,←,0.6526345999445766,True,14
A025M31,489,experiment,168,←,left,←,0.571650099940598,True,14
A025M31,490,experiment,180,↓,down,↓,0.7409781001042575,True,14
A025M31,491,experiment,144,↑,up,↑,0.8191800999920815,True,14
A025M31,492,experiment,180,↑,up,↑,0.5861160000786185,True,14
A025M31,493,experiment,120,←,left,←,0.6415257998742163,True,14
A025M31,494,experiment,60,↑,up,↑,0.6946918000467122,True,14
A025M31,495,experiment,144,↑,up,↑,0.6630273999180645,True,14
A025M31,496,experiment,60,→,right,→,0.6377581001725048,True,14
A025M31,497,experiment,156,←,right,→,0.6807176999282092,False,14
A025M31,498,experiment,108,←,right,→,0.8624062999151647,False,14
A025M31,499,experiment,84,↑,up,↑,0.7531906999647617,True,14
A025M31,500,experiment,168,→,left,←,1.027294599916786,False,14
A025M31,501,experiment,108,↑,up,↑,0.6462750998325646,True,14
A025M31,502,experiment,120,→,right,→,0.5882103000767529,True,14
A025M31,503,experiment,72,↓,down,↓,0.7344694999046624,True,14
A025M31,504,experiment,12,↓,right,→,0.7766442999709398,False,14
A025M31,505,experiment,24,↓,down,↓,0.6420175000093877,True,14
A025M31,506,experiment,72,←,left,←,0.6789528999943286,True,14
A025M31,507,experiment,120,↓,down,↓,0.6432006000541151,True,14
A025M31,508,experiment,72,←,left,←,0.5845043999142945,True,14
A025M31,509,experiment,120,←,left,←,0.7446115000639111,True,14
A025M31,510,experiment,84,↑,up,↑,0.6800303000491112,True,14
A025M31,511,experiment,156,→,left,←,0.6228658999316394,False,14
A025M31,512,experiment,132,↑,up,↑,0.5996777999680489,True,14
A025M31,513,experiment,156,→,right,→,0.6125970999710262,True,14
A025M31,514,experiment,108,→,right,→,0.5837143000680953,True,14
A025M31,515,experiment,96,→,right,→,0.5683867998886853,True,14
A025M31,516,experiment,12,→,right,→,0.7877368000335991,True,14
A025M31,517,experiment,48,→,left,←,0.7045758999884129,False,14
A025M31,518,experiment,60,→,up,↑,0.8911971999332309,False,14
A025M31,519,experiment,168,↑,up,↑,0.6254700999706984,True,14
A025M31,520,experiment,36,←,right,→,0.9207975999452174,False,14
A025M31,521,experiment,48,→,left,←,0.614591799909249,False,14
A025M31,522,experiment,48,→,right,→,0.576831600163132,True,14
A025M31,523,experiment,60,←,left,←,0.6743285001721233,True,14
A025M31,524,experiment,36,↑,up,↑,0.7428315000142902,True,14
A025M31,525,experiment,24,↑,up,↑,0.6389427999965847,True,14
A025M31,526,experiment,96,↑,up,↑,0.5833305998239666,True,14
A025M31,527,experiment,132,↓,down,↓,0.7956377000082284,True,14
A025M31,528,experiment,144,↓,down,↓,0.771507800091058,True,14
A025M31,529,experiment,72,←,left,←,0.6111527998000383,True,14
A025M31,530,experiment,36,→,right,→,0.49612849997356534,True,14
A025M31,531,experiment,96,←,left,←,0.5439053000882268,True,14
A025M31,532,experiment,48,←,left,←,0.7103428000118583,True,14
A025M31,533,experiment,24,←,left,←,0.5212135999463499,True,14
A025M31,534,experiment,12,↓,right,→,0.8933675000444055,False,14
A025M31,535,training,180,→,right,→,0.6716530998237431,True,14
A025M31,536,training,180,→,right,→,0.7504364000633359,True,14
A025M31,537,training,24,→,right,→,0.5921517999377102,True,14
A025M31,538,experiment,60,↑,up,↑,0.6030815998092294,True,14
A025M31,539,experiment,24,↑,right,→,0.6589494999498129,False,14
A025M31,540,experiment,24,←,up,↑,0.6513702999800444,False,14
A025M31,541,experiment,72,→,right,→,0.6119836000725627,True,14
A025M31,542,experiment,156,→,left,←,0.7009006999433041,False,14
A025M31,543,experiment,108,↓,right,→,0.48844770016148686,False,14
A025M31,544,experiment,96,↓,down,↓,0.7000565999187529,True,14
A025M31,545,experiment,12,→,right,→,0.6457991998177022,True,14
A025M31,546,experiment,36,→,right,→,0.6658966999966651,True,14
A025M31,547,experiment,84,→,right,→,0.5610785998869687,True,14
A025M31,548,experiment,36,↑,up,↑,0.6702624999452382,True,14
A025M31,549,experiment,12,↑,up,↑,0.7902335999533534,True,14
A025M31,550,experiment,156,↓,right,→,0.5855320999398828,False,14
A025M31,551,experiment,180,→,right,→,0.6750028000678867,True,14
A025M31,552,experiment,180,↓,up,↑,0.6739724001381546,False,14
A025M31,553,experiment,96,↑,up,↑,0.6065960999112576,True,14
A025M31,554,experiment,144,↓,down,↓,0.7204689001664519,True,14
A025M31,555,experiment,72,↓,up,↑,0.5685050999745727,False,14
A025M31,556,experiment,84,→,right,→,0.5196293999906629,True,14
A025M31,557,experiment,156,←,left,←,0.8456556000746787,True,14
A025M31,558,experiment,48,↑,up,↑,0.5761994000058621,True,14
A025M31,559,experiment,12,←,left,←,0.7740240001585335,True,14
A025M31,560,experiment,120,↓,down,↓,0.8183738999068737,True,14
A025M31,561,experiment,48,→,right,→,0.6368462000973523,True,14
A025M31,562,experiment,108,↓,right,→,0.5971126998774707,False,14
A025M31,563,experiment,60,↑,down,↓,1.152758500073105,False,14
A025M31,564,experiment,96,←,down,↓,0.7806373001076281,False,14
A025M31,565,experiment,12,←,left,←,0.705003899987787,True,14
A025M31,566,experiment,180,←,left,←,0.7492030998691916,True,14
A025M31,567,experiment,24,←,left,←,0.5650573000311852,True,14
A025M31,568,experiment,132,↑,up,↑,0.6983910000417382,True,14
A025M31,569,experiment,144,↓,down,↓,1.1897390000522137,True,14
A025M31,570,experiment,72,→,right,→,0.7101215999573469,True,14
A025M31,571,experiment,156,←,left,←,0.7181780999526381,True,14
A025M31,572,experiment,132,↓,down,↓,0.738447500159964,True,14
A025M31,573,experiment,120,→,right,→,0.5308477999642491,True,14
A025M31,574,experiment,72,↑,up,↑,0.5797071000561118,True,14
A025M31,575,experiment,168,↓,up,↑,0.8129151000175625,False,14
A025M31,576,experiment,132,→,right,→,0.5988632999360561,True,14
A025M31,577,experiment,36,→,right,→,0.6362775000743568,True,14
A025M31,578,experiment,60,↑,up,↑,0.856815000064671,True,14
A025M31,579,experiment,108,←,left,←,0.6712045001331717,True,14
A025M31,580,experiment,60,↑,up,↑,0.5496060999576002,True,14
A025M31,581,experiment,120,↑,up,↑,0.849689400056377,True,14
A025M31,582,experiment,132,←,right,→,0.5601463001221418,False,14
A025M31,583,experiment,120,→,right,→,0.7539933999069035,True,14
A025M31,584,experiment,180,↓,down,↓,0.711428300011903,True,14
A025M31,585,experiment,108,↓,down,↓,0.6750873001292348,True,14
A025M31,586,experiment,48,↓,down,↓,0.7407538001425564,True,14
A025M31,587,experiment,168,→,right,→,0.577005400089547,True,14
A025M31,588,experiment,144,→,right,→,0.6236745999194682,True,14
A025M31,589,experiment,36,→,right,→,0.7923840000294149,True,14
A025M31,590,experiment,168,→,right,→,0.783700899919495,True,14
A025M31,591,experiment,84,↓,down,↓,0.6928888999391347,True,14
A025M31,592,experiment,24,←,left,←,0.6634500999934971,True,14
A025M31,593,experiment,96,←,left,←,0.5806550001725554,True,14
A025M31,594,experiment,144,↓,down,↓,0.5962435000110418,True,14
A025M31,595,experiment,48,→,right,→,0.7974152001552284,True,14
A025M31,596,experiment,84,↑,down,↓,0.9040549998171628,False,14
A025M31,597,experiment,168,↑,up,↑,0.6344396998174489,True,14
A025M31,598,training,108,↑,up,↑,0.550460800062865,True,14
A025M31,599,training,120,←,left,←,0.612122799968347,True,14
A025M31,600,training,24,←,left,←,0.5854251000564545,True,14
A025M31,601,experiment,168,↓,down,↓,0.6804218001198024,True,14
A025M31,602,experiment,24,↑,up,↑,0.631485200021416,True,14
A025M31,603,experiment,96,↑,up,↑,0.5896077998913825,True,14
A025M31,604,experiment,12,→,right,→,0.6873759999871254,True,14
A025M31,605,experiment,180,←,left,←,0.7121683999430388,True,14
A025M31,606,experiment,168,←,left,←,0.6115019998978823,True,14
A025M31,607,experiment,60,↓,down,↓,0.8592069998849183,True,14
A025M31,608,experiment,120,←,left,←,0.6429492000024766,True,14
A025M31,609,experiment,156,←,left,←,0.6361702000722289,True,14
A025M31,610,experiment,132,↑,up,↑,0.6371148999314755,True,14
A025M31,611,experiment,156,→,right,→,0.6195707998704165,True,14
A025M31,612,experiment,72,↓,down,↓,0.7881173000205308,True,14
A025M31,613,experiment,156,↓,down,↓,0.6933642998337746,True,14
A025M31,614,experiment,180,↓,down,↓,0.6608424999285489,True,14
A025M31,615,experiment,144,→,right,→,0.5012153999414295,True,14
A025M31,616,experiment,156,←,down,↓,0.8220874001272023,False,14
A025M31,617,experiment,12,↑,up,↑,0.6438679001294076,True,14
A025M31,618,experiment,12,←,left,←,0.665953200077638,True,14
A025M31,619,experiment,48,↓,down,↓,0.8175107999704778,True,14
A025M31,620,experiment,144,↓,down,↓,0.6689264001324773,True,14
A025M31,621,experiment,120,←,left,←,0.7818360000383109,True,14
A025M31,622,experiment,168,→,right,→,0.6041407999582589,True,14
A025M31,623,experiment,48,↓,down,↓,0.7551817998755723,True,14
A025M31,624,experiment,108,↑,up,↑,0.7026066000107676,True,14
A025M31,625,experiment,60,↓,down,↓,0.7455933999735862,True,14
A025M31,626,experiment,84,↑,up,↑,0.9618389999959618,True,14
A025M31,627,experiment,180,↑,up,↑,0.7225067999679595,True,14
A025M31,628,experiment,84,↑,up,↑,0.9038122999481857,True,14
A025M31,629,experiment,24,→,right,→,0.6072606998495758,True,14
A025M31,630,experiment,72,↓,down,↓,0.7126636998727918,True,14
A025M31,631,experiment,24,↓,down,↓,0.7531602999661118,True,14
A025M31,632,experiment,96,→,right,→,0.701596099883318,True,14
A025M31,633,experiment,72,→,right,→,0.5943740999791771,True,14
A025M31,634,experiment,36,←,left,←,0.8233799999579787,True,14
A025M31,635,experiment,72,↓,down,↓,0.7313051999080926,True,14
A025M31,636,experiment,36,←,left,←,0.8202690999023616,True,14
A025M31,637,experiment,60,↓,down,↓,0.6575527999084443,True,14
A025M31,638,experiment,132,←,left,←,0.8237507999874651,True,14
A025M31,639,experiment,48,←,left,←,0.6095453999005258,True,14
A025M31,640,experiment,120,→,right,→,0.5233205000404269,True,14
A025M31,641,experiment,36,↑,left,←,0.8570980001240969,False,14
A025M31,642,experiment,132,↑,up,↑,0.6020818999968469,True,14
A025M31,643,experiment,180,→,right,→,0.5845765999983996,True,14
A025M31,644,experiment,144,→,right,→,0.6732777999714017,True,14
A025M31,645,experiment,120,→,up,↑,0.910322800045833,False,14
A025M31,646,experiment,168,→,right,→,0.5643241000361741,True,14
A025M31,647,experiment,108,↓,down,↓,0.776716300053522,True,14
A025M31,648,experiment,108,↑,up,↑,0.9024504998233169,True,14
A025M31,649,experiment,36,→,left,←,0.79322630004026,False,14
A025M31,650,experiment,144,↑,up,↑,0.5513518999796361,True,14
A025M31,651,experiment,12,↓,up,↑,0.6489299999084324,False,14
A025M31,652,experiment,60,↓,down,↓,0.7422897999640554,True,14
A025M31,653,experiment,84,→,right,→,0.6015905998647213,True,14
A025M31,654,experiment,96,←,left,←,0.9163561998866498,True,14
A025M31,655,experiment,24,←,left,←,0.9932532999664545,True,14
A025M31,656,experiment,132,→,right,→,0.6386665999889374,True,14
A025M31,657,experiment,48,←,up,↑,0.7443274999968708,False,14
A025M31,658,experiment,96,↑,up,↑,0.6337578999809921,True,14
A025M31,659,experiment,108,↓,up,↑,0.5935549999121577,False,14
A025M31,660,experiment,84,→,right,→,0.5611018999479711,True,14
A025M31,661,training,144,→,left,←,0.6068186999764293,False,14
A025M31,662,training,180,↑,left,←,0.9107340001501143,False,14
A025M31,663,training,168,←,right,→,0.8647278000134975,False,14
A025M31,664,experiment,156,←,left,←,0.5532612001989037,True,14
A025M31,665,experiment,96,↑,up,↑,0.6294303999748081,True,14
A025M31,666,experiment,180,←,left,←,0.6640782000031322,True,14
A025M31,667,experiment,132,↑,up,↑,0.5895920000039041,True,14
A025M31,668,experiment,156,↓,up,↑,0.6450869999825954,False,14
A025M31,669,experiment,24,→,right,→,0.535478699952364,True,14
A025M31,670,experiment,36,↓,down,↓,0.6889727001544088,True,14
A025M31,671,experiment,60,↑,down,↓,0.8531126999296248,False,14
A025M31,672,experiment,96,↓,down,↓,0.8128873999230564,True,14
A025M31,673,experiment,180,↑,up,↑,0.723303500097245,True,14
A025M31,674,experiment,60,↓,down,↓,0.812007199972868,True,14
A025M31,675,experiment,180,→,right,→,0.5978054001461715,True,14
A025M31,676,experiment,156,→,right,→,0.47611010004766285,True,14
A025M31,677,experiment,72,→,right,→,0.5535786000546068,True,14
A025M31,678,experiment,180,→,right,→,0.5132528999820352,True,14
A025M31,679,experiment,96,←,left,←,0.7247991999611259,True,14
A025M31,680,experiment,108,↓,down,↓,0.7433016002178192,True,14
A025M31,681,experiment,132,→,right,→,0.5217226000968367,True,14
A025M31,682,experiment,84,→,down,↓,1.3729334000963718,False,14
A025M31,683,experiment,120,↑,up,↑,0.9139903001487255,True,14
A025M31,684,experiment,144,↑,up,↑,0.7322766999714077,True,14
A025M31,685,experiment,144,→,down,↓,0.7441930000204593,False,14
A025M31,686,experiment,36,←,left,←,0.7122147001791745,True,14
A025M31,687,experiment,12,→,right,→,0.8357723001390696,True,14
A025M31,688,experiment,168,↑,up,↑,0.665013900026679,True,14
A025M31,689,experiment,168,→,right,→,0.6015705999452621,True,14
A025M31,690,experiment,12,→,left,←,0.7955142999999225,False,14
A025M31,691,experiment,48,↑,up,↑,0.6261356000322849,True,14
A025M31,692,experiment,108,↑,up,↑,0.6156841998454183,True,14
A025M31,693,experiment,72,↑,up,↑,0.5505240999627858,True,14
A025M31,694,experiment,120,→,right,→,0.5511486998293549,True,14
A025M31,695,experiment,132,↓,down,↓,0.7711836001835763,True,14
A025M31,696,experiment,48,→,right,→,0.5660441999789327,True,14
A025M31,697,experiment,24,↑,up,↑,0.5794659000821412,True,14
A025M31,698,experiment,120,↓,up,↑,0.7196438000537455,False,14
A025M31,699,experiment,156,→,right,→,0.5022718000691384,True,14
A025M31,700,experiment,24,↑,right,→,1.2621063000988215,False,14
A025M31,701,experiment,108,→,right,→,0.5407644000370055,True,14
A025M31,702,experiment,144,←,left,←,0.880390299949795,True,14
A025M31,703,experiment,72,↑,up,↑,0.8182004000991583,True,14
A025M31,704,experiment,96,↑,up,↑,0.6160717001184821,True,14
A025M31,705,experiment,12,↓,down,↓,0.9889579999726266,True,14
A025M31,706,experiment,60,↑,up,↑,0.7597687998786569,True,14
A025M31,707,experiment,36,↑,up,↑,0.5678789999801666,True,14
A025M31,708,experiment,48,↑,up,↑,0.6520652999170125,True,14
A025M31,709,experiment,60,↑,up,↑,0.5723021999001503,True,14
A025M31,710,experiment,48,↑,up,↑,0.6291533999610692,True,14
A025M31,711,experiment,132,↑,up,↑,0.5322653001639992,True,14
A025M31,712,experiment,144,↑,up,↑,0.521174699999392,True,14
A025M31,713,experiment,168,↓,up,↑,0.525995000032708,False,14
A025M31,714,experiment,72,↓,up,↑,0.6662409000564367,False,14
A025M31,715,experiment,24,←,right,→,0.5999227999709547,False,14
A025M31,716,experiment,84,↑,up,↑,0.6894529000855982,True,14
A025M31,717,experiment,168,←,left,←,0.97358059999533,True,14
A025M31,718,experiment,108,→,right,→,0.702860200079158,True,14
A025M31,719,experiment,84,↑,up,↑,0.7143569998443127,True,14
A025M31,720,experiment,36,←,left,←,0.6986326999031007,True,14
A025M31,721,experiment,12,↑,up,↑,0.6723996999207884,True,14
A025M31,722,experiment,84,↑,down,↓,0.7786568000447005,False,14
A025M31,723,experiment,120,↓,up,↑,0.6724849999882281,False,14
A025M31,724,training,168,←,left,←,0.6513582998886704,True,14
A025M31,725,training,24,←,left,←,0.9150586000178009,True,14
A025M31,726,training,72,↑,up,↑,0.6904504999984056,True,14
A025M31,727,experiment,84,←,left,←,0.5841381999198347,True,14
A025M31,728,experiment,132,↓,down,↓,0.8648499001283199,True,14
A025M31,729,experiment,144,←,left,←,0.6068794999737293,True,14
A025M31,730,experiment,168,→,right,→,0.6226244000717998,True,14
A025M31,731,experiment,108,↓,left,←,0.6912446001078933,False,14
A025M31,732,experiment,84,←,left,←,0.6052681000437587,True,14
A025M31,733,experiment,180,↓,down,↓,0.7203698998782784,True,14
A025M31,734,experiment,96,↑,up,↑,0.6115218000486493,True,14
A025M31,735,experiment,120,→,right,→,0.6140467000659555,True,14
A025M31,736,experiment,48,←,left,←,0.94156050006859,True,14
A025M31,737,experiment,48,←,left,←,0.658785599982366,True,14
A025M31,738,experiment,84,↑,up,↑,0.6113734999671578,True,14
A025M31,739,experiment,12,←,left,←,0.6078560000751168,True,14
A025M31,740,experiment,12,↓,down,↓,0.6050731998402625,True,14
A025M31,741,experiment,96,→,right,→,0.6932018999941647,True,14
A025M31,742,experiment,36,→,right,→,0.597604600014165,True,14
A025M31,743,experiment,60,↓,down,↓,0.6887822998687625,True,14
A025M31,744,experiment,36,↑,up,↑,0.6595752001740038,True,14
A025M31,745,experiment,168,→,right,→,0.6005270001478493,True,14
A025M31,746,experiment,156,↓,down,↓,0.6921168998815119,True,14
A025M31,747,experiment,24,←,left,←,0.7692034998908639,True,14
A025M31,748,experiment,24,↓,down,↓,0.6883350000716746,True,14
A025M31,749,experiment,12,→,right,→,0.5252976999618113,True,14
A025M31,750,experiment,72,←,left,←,0.9542515999637544,True,14
A025M31,751,experiment,144,↑,up,↑,0.5987869999371469,True,14
A025M31,752,experiment,156,←,left,←,0.6548878999892622,True,14
A025M31,753,experiment,132,↑,up,↑,0.6057866001501679,True,14
A025M31,754,experiment,156,↓,down,↓,0.7673239000141621,True,14
A025M31,755,experiment,168,←,left,←,0.8800542000681162,True,14
A025M31,756,experiment,12,↓,up,↑,0.6716405998449773,False,14
A025M31,757,experiment,72,↑,up,↑,0.5554668998811394,True,14
A025M31,758,experiment,48,↑,up,↑,0.6250523999333382,True,14
A025M31,759,experiment,72,←,left,←,1.0108445000369102,True,14
A025M31,760,experiment,24,←,left,←,0.6779489999171346,True,14
A025M31,761,experiment,60,←,left,←,0.8183554001152515,True,14
A025M31,762,experiment,36,↑,right,→,0.7042066999711096,False,14
A025M31,763,experiment,84,→,left,←,0.6510769000742584,False,14
A025M31,764,experiment,108,←,left,←,0.6672753999009728,True,14
A025M31,765,experiment,60,←,left,←,0.6850294999312609,True,14
A025M31,766,experiment,156,↑,up,↑,0.6586887000594288,True,14
A025M31,767,experiment,144,→,left,←,0.8517393001820892,False,14
A025M31,768,experiment,24,←,left,←,0.6420074999332428,True,14
A025M31,769,experiment,144,→,left,←,0.6736681000329554,False,14
A025M31,770,experiment,120,→,right,→,0.7771895998157561,True,14
A025M31,771,experiment,180,→,right,→,0.8200986001174897,True,14
A025M31,772,experiment,120,→,left,←,0.7679555001668632,False,14
A025M31,773,experiment,168,←,right,→,0.655298599973321,False,14
A025M31,774,experiment,180,↑,up,↑,0.5979506999719888,True,14
A025M31,775,experiment,96,←,left,←,0.6586317999754101,True,14
A025M31,776,experiment,96,↓,down,↓,0.7007951000705361,True,14
A025M31,777,experiment,36,↑,up,↑,0.739314500009641,True,14
A025M31,778,experiment,180,↑,up,↑,0.5949874999932945,True,14
A025M31,779,experiment,60,→,right,→,0.5741638999897987,True,14
A025M31,780,experiment,48,←,left,←,0.7811565999872983,True,14
A025M31,781,experiment,132,↓,up,↑,0.6136141000315547,False,14
A025M31,782,experiment,120,↑,up,↑,0.5984286000020802,True,14
A025M31,783,experiment,108,↓,down,↓,0.725129900034517,True,14
A025M31,784,experiment,108,→,right,→,0.561639399966225,True,14
A025M31,785,experiment,132,↓,down,↓,1.0141195999458432,True,14
A025M31,786,experiment,72,←,left,←,0.6541468999348581,True,14
A025M31,787,training,144,→,right,→,0.6339477999135852,True,14
A025M31,788,training,180,↓,up,↑,0.6505380000453442,False,14
A025M31,789,training,84,→,right,→,0.6750592000316828,True,14
A025M31,790,experiment,132,↓,down,↓,0.7668201997876167,True,14
A025M31,791,experiment,24,↑,down,↓,0.9995594001375139,False,14
A025M31,792,experiment,144,←,left,←,0.5997246999759227,True,14
A025M31,793,experiment,96,↑,up,↑,0.6179406000301242,True,14
A025M31,794,experiment,12,↓,right,→,0.7431381000205874,False,14
A025M31,795,experiment,108,←,left,←,0.7163199000060558,True,14
A025M31,796,experiment,168,↑,up,↑,0.6837172000668943,True,14
A025M31,797,experiment,108,↑,up,↑,0.643160899868235,True,14
A025M31,798,experiment,108,↑,down,↓,0.6846318999305367,False,14
A025M31,799,experiment,24,↓,up,↑,0.889699200168252,False,14
A025M31,800,experiment,72,←,left,←,0.8173464999999851,True,14
A025M31,801,experiment,180,↓,down,↓,0.8613921999931335,True,14
A025M31,802,experiment,36,→,left,←,0.6481164998840541,False,14
A025M31,803,experiment,84,↑,down,↓,0.707787600113079,False,14
A025M31,804,experiment,108,↓,down,↓,0.8949782000854611,True,14
A025M31,805,experiment,12,↑,up,↑,0.6825162000022829,True,14
A025M31,806,experiment,156,↑,up,↑,0.6301905999425799,True,14
A025M31,807,experiment,180,←,left,←,0.6382724000141025,True,14
A025M31,808,experiment,180,↑,left,←,0.8889897000044584,False,14
A025M31,809,experiment,12,→,left,←,0.5440127998590469,False,14
A025M31,810,experiment,132,←,left,←,0.5595370999071747,True,14
A025M31,811,experiment,24,→,right,→,0.16696409997530282,True,14
A025M31,812,experiment,168,↑,left,←,0.8721901001408696,False,14
A025M31,813,experiment,60,→,left,←,0.5602117001544684,False,14
A025M31,814,experiment,48,←,left,←,0.5627309000119567,True,14
A025M31,815,experiment,24,→,right,→,0.7501843001227826,True,14
A025M31,816,experiment,84,↓,left,←,0.7793314000591636,False,14
A025M31,817,experiment,168,↑,up,↑,0.6077495999634266,True,14
A025M31,818,experiment,12,←,left,←,0.6706924000754952,True,14
A025M31,819,experiment,144,↑,up,↑,0.5587954001966864,True,14
A025M31,820,experiment,96,→,right,→,0.6215727000962943,True,14
A025M31,821,experiment,96,←,right,→,0.7717309999279678,False,14
A025M31,822,experiment,36,↓,up,↑,1.4547097999602556,False,14
A025M31,823,experiment,84,↑,up,↑,0.6293473998084664,True,14
A025M31,824,experiment,168,↓,down,↓,0.7396379001438618,True,14
A025M31,825,experiment,156,→,right,→,0.5818529999814928,True,14
A025M31,826,experiment,36,↑,up,↑,0.7172866999171674,True,14
A025M31,827,experiment,96,↑,up,↑,0.6702727999072522,True,14
A025M31,828,experiment,120,→,right,→,0.6364103001542389,True,14
A025M31,829,experiment,180,↓,down,↓,0.7605178998783231,True,14
A025M31,830,experiment,60,→,right,→,0.5226793999318033,True,14
A025M31,831,experiment,72,↓,down,↓,0.70431900001131,True,14
A025M31,832,experiment,132,↑,up,↑,0.6162529001012444,True,14
A025M31,833,experiment,156,←,left,←,0.7337548001669347,True,14
A025M31,834,experiment,132,↑,up,↑,0.8772042000200599,True,14
A025M31,835,experiment,144,←,left,←,0.6637045999523252,True,14
A025M31,836,experiment,120,↑,up,↑,0.8209158999379724,True,14
A025M31,837,experiment,48,↑,up,↑,0.8157327000517398,True,14
A025M31,838,experiment,84,→,right,→,0.6771573000587523,True,14
A025M31,839,experiment,156,←,left,←,0.7217877998482436,True,14
A025M31,840,experiment,60,←,right,→,0.7403498999774456,False,14
A025M31,841,experiment,48,←,left,←,0.6349594001658261,True,14
A025M31,842,experiment,72,→,right,→,0.6791636000853032,True,14
A025M31,843,experiment,72,↓,left,←,0.7608448001556098,False,14
A025M31,844,experiment,36,→,left,←,0.676483100047335,False,14
A025M31,845,experiment,144,↑,up,↑,0.6821958001237363,True,14
A025M31,846,experiment,60,→,right,→,0.6224185000173748,True,14
A025M31,847,experiment,120,↑,up,↑,0.6492948001250625,True,14
A025M31,848,experiment,120,↑,up,↑,0.774938799906522,True,14
A025M31,849,experiment,48,↓,up,↑,0.7283023002091795,False,14
