PART_ID,Trial_no,Trial_type,PDI,Stim_letter,Key_pressed,letter_choose,Rt,Corr,Stimulus Time
A026K23,1,training,10,↑,no_key,no_letter,-1.0,False,30
A026K23,2,training,10,↓,down,↓,1.8177644999232143,True,30
A026K23,3,training,10,↓,down,↓,1.268581299809739,True,30
A026K23,4,training,10,↓,no_key,no_letter,-1.0,False,30
A026K23,5,training,10,↓,down,↓,2.062324699945748,True,30
A026K23,6,training,10,→,up,↑,1.9019597000442445,False,30
A026K23,7,training,10,→,right,→,1.2836841000244021,True,30
A026K23,8,training,10,→,right,→,0.753828400047496,True,30
A026K23,9,training,10,←,left,←,1.4568786001764238,True,30
A026K23,10,training,10,←,right,→,1.6154255999717861,False,30
A026K23,11,training,10,←,left,←,1.2090002000331879,True,30
A026K23,12,training,10,↑,up,↑,1.7250151000916958,True,30
A026K23,13,training,10,↓,down,↓,1.351120000006631,True,30
A026K23,14,training,10,↓,down,↓,0.9714317999314517,True,30
A026K23,15,training,10,→,right,→,0.949502999894321,True,30
A026K23,16,training,10,↑,up,↑,1.0717114000581205,True,30
A026K23,17,training,10,←,left,←,1.2771270000375807,True,30
A026K23,18,training,10,↓,down,↓,0.8188585001043975,True,30
A026K23,19,training,10,↓,down,↓,1.0285158001352102,True,30
A026K23,20,training,10,↑,up,↑,0.9830467000138015,True,30
A026K23,21,training,10,↑,up,↑,0.8049562000669539,True,18
A026K23,22,training,10,↑,up,↑,0.8805790001060814,True,18
A026K23,23,training,10,↑,up,↑,0.9260564998257905,True,18
A026K23,24,training,10,↑,up,↑,1.000373400049284,True,18
A026K23,25,training,10,←,left,←,1.4215287999249995,True,18
A026K23,26,training,10,→,up,↑,1.449536700034514,False,18
A026K23,27,training,10,↓,up,↑,1.2366380000021309,False,18
A026K23,28,training,10,↓,down,↓,1.160191000206396,True,18
A026K23,29,training,10,↑,up,↑,0.9661398997996002,True,18
A026K23,30,training,10,→,right,→,1.0159287999849766,True,18
A026K23,31,training,84,→,right,→,0.9645452999975532,True,15
A026K23,32,training,24,↑,down,↓,0.9228882000315934,False,15
A026K23,33,training,180,↓,down,↓,0.8507640000898391,True,15
A026K23,34,experiment,120,↑,down,↓,1.1219830000773072,False,15
A026K23,35,experiment,48,↓,up,↑,1.1242876998148859,False,15
A026K23,36,experiment,12,↓,no_key,no_letter,-1.0,False,15
A026K23,37,experiment,108,↑,up,↑,1.0463017001748085,True,15
A026K23,38,experiment,96,←,right,→,0.9603625000454485,False,15
A026K23,39,experiment,180,↓,up,↑,1.2620065999217331,False,15
A026K23,40,experiment,72,←,left,←,1.0410436000674963,True,15
A026K23,41,experiment,156,↑,right,→,1.232581599848345,False,15
A026K23,42,experiment,72,→,left,←,1.5020117999520153,False,15
A026K23,43,experiment,156,↓,up,↑,1.1386891999281943,False,15
A026K23,44,experiment,60,↓,down,↓,0.74299730011262,True,15
A026K23,45,experiment,24,↓,up,↑,1.1301837000064552,False,15
A026K23,46,experiment,180,←,left,←,1.3281884999014437,True,15
A026K23,47,experiment,156,←,right,→,1.150453999871388,False,15
A026K23,48,experiment,84,→,up,↑,1.4066756998654455,False,15
A026K23,49,experiment,84,←,up,↑,1.0725419998634607,False,15
A026K23,50,experiment,60,→,up,↑,1.334961700020358,False,15
A026K23,51,experiment,48,→,right,→,1.1406018000561744,True,15
A026K23,52,experiment,84,↓,left,←,1.2201590000186116,False,15
A026K23,53,experiment,48,→,left,←,0.8278304999694228,False,15
A026K23,54,experiment,96,←,up,↑,1.165143699850887,False,15
A026K23,55,experiment,72,←,up,↑,1.0819355000276119,False,15
A026K23,56,experiment,12,←,left,←,0.6114205999765545,True,15
A026K23,57,experiment,156,→,up,↑,1.1642127998638898,False,15
A026K23,58,experiment,180,←,left,←,0.9626409998163581,True,15
A026K23,59,experiment,24,←,right,→,1.0918423999100924,False,15
A026K23,60,experiment,132,↑,up,↑,0.9140402001794428,True,15
A026K23,61,experiment,60,→,up,↑,1.2801217001397163,False,15
A026K23,62,experiment,108,↑,up,↑,0.6887005001772195,True,15
A026K23,63,experiment,84,↓,down,↓,1.0360522998962551,True,15
A026K23,64,experiment,24,→,right,→,0.7937852998729795,True,15
A026K23,65,experiment,108,↓,down,↓,0.7648041001521051,True,15
A026K23,66,experiment,120,→,right,→,0.897534100105986,True,15
A026K23,67,experiment,168,↓,up,↑,1.1191630999092013,False,15
A026K23,68,experiment,72,←,up,↑,1.1012514000758529,False,15
A026K23,69,experiment,36,↑,no_key,no_letter,-1.0,False,15
A026K23,70,experiment,144,→,right,→,0.806657699868083,True,15
A026K23,71,experiment,132,↑,up,↑,0.9740623999387026,True,15
A026K23,72,experiment,36,↑,up,↑,0.7647798000834882,True,15
A026K23,73,experiment,24,←,left,←,0.7624563998542726,True,15
A026K23,74,experiment,60,↑,up,↑,1.0309687000699341,True,15
A026K23,75,experiment,144,→,right,→,1.0577356000430882,True,15
A026K23,76,experiment,96,→,right,→,0.7765073000919074,True,15
A026K23,77,experiment,12,↑,up,↑,0.8814757999498397,True,15
A026K23,78,experiment,180,→,left,←,1.060151900164783,False,15
A026K23,79,experiment,12,↓,up,↑,0.977457899833098,False,15
A026K23,80,experiment,36,←,left,←,0.9830706000793725,True,15
A026K23,81,experiment,168,↓,up,↑,0.8995730001479387,False,15
A026K23,82,experiment,96,←,right,→,1.0297888999339193,False,15
A026K23,83,experiment,144,↑,up,↑,0.6422951999120414,True,15
A026K23,84,experiment,132,←,right,→,0.7905908001121134,False,15
A026K23,85,experiment,132,→,right,→,0.7791891999077052,True,15
A026K23,86,experiment,144,←,left,←,0.8967470999341458,True,15
A026K23,87,experiment,120,→,right,→,0.6817312999628484,True,15
A026K23,88,experiment,36,↑,up,↑,0.7959202998317778,True,15
A026K23,89,experiment,168,↓,down,↓,0.6283723001834005,True,15
A026K23,90,experiment,108,→,left,←,0.802080700173974,False,15
A026K23,91,experiment,168,↓,down,↓,0.7522736000828445,True,15
A026K23,92,experiment,120,→,right,→,0.6789383001159877,True,15
A026K23,93,experiment,48,↑,up,↑,1.3795121000148356,True,15
A026K23,94,training,36,↓,up,↑,1.0075690001249313,False,16
A026K23,95,training,156,↓,down,↓,0.7041088999249041,True,16
A026K23,96,training,144,←,left,←,0.9512326999101788,True,16
A026K23,97,experiment,180,→,right,→,0.7352146999910474,True,16
A026K23,98,experiment,24,←,left,←,0.865106999874115,True,16
A026K23,99,experiment,132,→,right,→,0.8409523998852819,True,16
A026K23,100,experiment,72,↓,down,↓,0.8114708000794053,True,16
A026K23,101,experiment,84,↑,up,↑,0.9760774997994304,True,16
A026K23,102,experiment,156,↓,up,↑,1.6594378999434412,False,16
A026K23,103,experiment,72,→,left,←,0.8516808999702334,False,16
A026K23,104,experiment,144,↓,up,↑,1.0847921001259238,False,16
A026K23,105,experiment,132,→,right,→,0.9308704999275506,True,16
A026K23,106,experiment,36,↑,up,↑,1.000553400022909,True,16
A026K23,107,experiment,36,←,left,←,1.0481889999937266,True,16
A026K23,108,experiment,60,↑,up,↑,0.9153179000131786,True,16
A026K23,109,experiment,12,↑,left,←,1.3923881000373513,False,16
A026K23,110,experiment,96,←,right,→,0.78036729991436,False,16
A026K23,111,experiment,24,↑,up,↑,0.9005086999386549,True,16
A026K23,112,experiment,180,←,up,↑,0.8709563000593334,False,16
A026K23,113,experiment,132,→,right,→,0.8258591999765486,True,16
A026K23,114,experiment,108,↓,down,↓,0.980306199984625,True,16
A026K23,115,experiment,168,→,left,←,1.0892235999926925,False,16
A026K23,116,experiment,156,↑,right,→,1.0412375999148935,False,16
A026K23,117,experiment,60,↑,up,↑,0.7762869000434875,True,16
A026K23,118,experiment,156,↑,up,↑,0.9349995998200029,True,16
A026K23,119,experiment,72,↓,down,↓,0.8624208001419902,True,16
A026K23,120,experiment,36,→,right,→,0.7102231001481414,True,16
A026K23,121,experiment,84,↓,up,↑,1.0261552999727428,False,16
A026K23,122,experiment,48,←,left,←,1.2811129000037909,True,16
A026K23,123,experiment,120,↓,down,↓,0.745672499993816,True,16
A026K23,124,experiment,108,↑,up,↑,0.8987612999044359,True,16
A026K23,125,experiment,168,↑,up,↑,0.7404700999613851,True,16
A026K23,126,experiment,144,↓,down,↓,0.48854020005092025,True,16
A026K23,127,experiment,168,←,left,←,0.7436284001450986,True,16
A026K23,128,experiment,48,→,right,→,0.8294371999800205,True,16
A026K23,129,experiment,60,↓,up,↑,1.7114784999284893,False,16
A026K23,130,experiment,180,←,left,←,0.7067828001454473,True,16
A026K23,131,experiment,168,↓,down,↓,0.7516936999745667,True,16
A026K23,132,experiment,120,←,no_key,no_letter,-1.0,False,16
A026K23,133,experiment,120,↑,up,↑,0.7169939999002963,True,16
A026K23,134,experiment,12,←,left,←,0.6179382998961955,True,16
A026K23,135,experiment,96,→,right,→,0.5753301000222564,True,16
A026K23,136,experiment,132,←,up,↑,1.2804080999922007,False,16
A026K23,137,experiment,120,↑,up,↑,0.7981122999917716,True,16
A026K23,138,experiment,96,↑,up,↑,0.7515191999264061,True,16
A026K23,139,experiment,108,↑,up,↑,1.6877566000912338,True,16
A026K23,140,experiment,144,→,right,→,0.7806796999648213,True,16
A026K23,141,experiment,96,←,no_key,no_letter,-1.0,False,16
A026K23,142,experiment,84,↓,up,↑,0.9109193999320269,False,16
A026K23,143,experiment,144,→,right,→,1.0368296999949962,True,16
A026K23,144,experiment,180,↑,up,↑,0.7964838000480086,True,16
A026K23,145,experiment,48,→,right,→,0.6920529999770224,True,16
A026K23,146,experiment,24,←,left,←,0.8496673000045121,True,16
A026K23,147,experiment,72,←,left,←,0.8850030000321567,True,16
A026K23,148,experiment,108,→,right,→,0.7319292998872697,True,16
A026K23,149,experiment,156,↓,up,↑,0.8088171000126749,False,16
A026K23,150,experiment,12,↓,right,→,1.0207696999423206,False,16
A026K23,151,experiment,36,↑,up,↑,0.9474543000105768,True,16
A026K23,152,experiment,24,→,left,←,1.0080541998613626,False,16
A026K23,153,experiment,60,↓,up,↑,1.1060911999084055,False,16
A026K23,154,experiment,12,↓,up,↑,0.7986308000981808,False,16
A026K23,155,experiment,84,↓,up,↑,0.9370931999292225,False,16
A026K23,156,experiment,48,←,right,→,1.0672818999737501,False,16
A026K23,157,training,96,↓,up,↑,0.6599322999827564,False,16
A026K23,158,training,60,→,right,→,0.8092160001397133,True,16
A026K23,159,training,156,↑,up,↑,0.8325828998349607,True,16
A026K23,160,experiment,60,→,right,→,0.6213255999609828,True,16
A026K23,161,experiment,108,↑,up,↑,0.7924719001166523,True,16
A026K23,162,experiment,48,↓,up,↑,0.8858823000919074,False,16
A026K23,163,experiment,12,→,right,→,0.7458563998807222,True,16
A026K23,164,experiment,96,↑,up,↑,0.7651497998740524,True,16
A026K23,165,experiment,144,↓,down,↓,0.7649360001087189,True,16
A026K23,166,experiment,84,→,right,→,0.7289938000030816,True,16
A026K23,167,experiment,108,→,left,←,1.5865967001300305,False,16
A026K23,168,experiment,168,→,up,↑,0.9287733000237495,False,16
A026K23,169,experiment,132,→,left,←,0.6564983001444489,False,16
A026K23,170,experiment,24,→,right,→,0.8978163998108357,True,16
A026K23,171,experiment,36,→,up,↑,0.8804677000734955,False,16
A026K23,172,experiment,108,←,left,←,0.8473288000095636,True,16
A026K23,173,experiment,180,↑,up,↑,0.5747512001544237,True,16
A026K23,174,experiment,156,→,left,←,0.5387540000956506,False,16
A026K23,175,experiment,144,↓,up,↑,0.8446189998649061,False,16
A026K23,176,experiment,60,↓,up,↑,0.7610200999770314,False,16
A026K23,177,experiment,48,↓,down,↓,0.8795039998367429,True,16
A026K23,178,experiment,180,←,left,←,0.8000334000680596,True,16
A026K23,179,experiment,168,←,left,←,0.750676800031215,True,16
A026K23,180,experiment,108,→,right,→,0.8690694998949766,True,16
A026K23,181,experiment,156,←,left,←,0.7723234000150114,True,16
A026K23,182,experiment,156,↓,up,↑,0.8456810999196023,False,16
A026K23,183,experiment,12,→,right,→,0.8950026999227703,True,16
A026K23,184,experiment,132,←,left,←,1.0590333000291139,True,16
A026K23,185,experiment,12,←,right,→,1.153883600141853,False,16
A026K23,186,experiment,24,→,left,←,0.8147865999490023,False,16
A026K23,187,experiment,72,↓,down,↓,0.5642985999584198,True,16
A026K23,188,experiment,120,←,left,←,0.7969915999565274,True,16
A026K23,189,experiment,120,↓,down,↓,0.6450057001784444,True,16
A026K23,190,experiment,36,→,right,→,0.6681073000654578,True,16
A026K23,191,experiment,144,→,right,→,0.9331755000166595,True,16
A026K23,192,experiment,60,←,left,←,1.2440238997805864,True,16
A026K23,193,experiment,12,→,up,↑,1.2285227000247687,False,16
A026K23,194,experiment,84,↑,up,↑,1.0656072001438588,True,16
A026K23,195,experiment,36,↓,left,←,1.523670299910009,False,16
A026K23,196,experiment,96,←,no_key,no_letter,-1.0,False,16
A026K23,197,experiment,180,→,left,←,1.6597462000790983,False,16
A026K23,198,experiment,48,↓,down,↓,0.8302992999088019,True,16
A026K23,199,experiment,24,↓,up,↑,0.9148792999330908,False,16
A026K23,200,experiment,72,→,right,→,0.6225215001031756,True,16
A026K23,201,experiment,84,→,right,→,0.670467299874872,True,16
A026K23,202,experiment,72,←,left,←,1.1605098999571055,True,16
A026K23,203,experiment,96,→,right,→,0.6048138001933694,True,16
A026K23,204,experiment,84,↓,down,↓,0.7567711998708546,True,16
A026K23,205,experiment,120,↑,up,↑,0.7996348000597209,True,16
A026K23,206,experiment,24,→,right,→,0.6640987999271601,True,16
A026K23,207,experiment,72,↑,no_key,no_letter,-1.0,False,16
A026K23,208,experiment,48,→,right,→,0.6762959000188857,True,16
A026K23,209,experiment,156,↓,up,↑,0.7963950999546796,False,16
A026K23,210,experiment,96,→,right,→,0.6985406999010593,True,16
A026K23,211,experiment,132,←,left,←,0.7848433000035584,True,16
A026K23,212,experiment,180,↓,up,↑,0.6790724000893533,False,16
A026K23,213,experiment,168,↓,up,↑,0.6950595998205245,False,16
A026K23,214,experiment,36,←,right,→,0.7355690998956561,False,16
A026K23,215,experiment,144,↑,up,↑,0.5703769000247121,True,16
A026K23,216,experiment,168,↑,left,←,0.5396217999514192,False,16
A026K23,217,experiment,132,↓,up,↑,0.7717309999279678,False,16
A026K23,218,experiment,120,→,left,←,0.9620682999957353,False,16
A026K23,219,experiment,60,↑,up,↑,0.6724729998968542,True,16
A026K23,220,training,132,←,left,←,0.6930996999144554,True,16
A026K23,221,training,156,→,right,→,0.8079022001475096,True,16
A026K23,222,training,144,↑,up,↑,0.6523530001286417,True,16
A026K23,223,experiment,96,→,right,→,0.5895551999565214,True,16
A026K23,224,experiment,168,↓,up,↑,0.8261325000785291,False,16
A026K23,225,experiment,36,↑,left,←,0.9000964001752436,False,16
A026K23,226,experiment,156,←,left,←,0.5997516000643373,True,16
A026K23,227,experiment,180,↓,down,↓,0.7162864999845624,True,16
A026K23,228,experiment,72,→,right,→,0.8781095000449568,True,16
A026K23,229,experiment,24,↑,up,↑,0.9736746000126004,True,16
A026K23,230,experiment,168,←,left,←,0.8954745999071747,True,16
A026K23,231,experiment,96,↓,down,↓,0.6981750999111682,True,16
A026K23,232,experiment,120,→,left,←,0.6510981000028551,False,16
A026K23,233,experiment,24,←,right,→,1.1237890999764204,False,16
A026K23,234,experiment,36,→,right,→,0.6299173999577761,True,16
A026K23,235,experiment,48,→,right,→,0.7482390999794006,True,16
A026K23,236,experiment,60,←,left,←,0.6725828000344336,True,16
A026K23,237,experiment,96,→,right,→,0.9436631998978555,True,16
A026K23,238,experiment,108,→,right,→,0.7515358000528067,True,16
A026K23,239,experiment,60,↑,left,←,1.4457274999003857,False,16
A026K23,240,experiment,180,↑,up,↑,0.6758423000574112,True,16
A026K23,241,experiment,132,→,right,→,0.6877542000729591,True,16
A026K23,242,experiment,132,←,left,←,0.7176651998888701,True,16
A026K23,243,experiment,108,↑,up,↑,0.5954688999336213,True,16
A026K23,244,experiment,180,↑,up,↑,0.5332493002060801,True,16
A026K23,245,experiment,168,←,left,←,0.5778739999514073,True,16
A026K23,246,experiment,156,↓,down,↓,0.8952921000309289,True,16
A026K23,247,experiment,108,↑,up,↑,0.5933687998913229,True,16
A026K23,248,experiment,72,↓,down,↓,0.6371333999559283,True,16
A026K23,249,experiment,144,↓,down,↓,0.6564915999770164,True,16
A026K23,250,experiment,120,→,down,↓,0.8863783001434058,False,16
A026K23,251,experiment,12,↓,no_key,no_letter,-1.0,False,16
A026K23,252,experiment,12,↓,right,→,1.1433592999819666,False,16
A026K23,253,experiment,84,→,right,→,0.8059090999886394,True,16
A026K23,254,experiment,48,←,left,←,1.135396600002423,True,16
A026K23,255,experiment,120,↑,up,↑,0.7692799000069499,True,16
A026K23,256,experiment,24,↓,down,↓,0.6844666998367757,True,16
A026K23,257,experiment,156,↓,up,↑,1.03788680001162,False,16
A026K23,258,experiment,72,↑,up,↑,0.6650207000784576,True,16
A026K23,259,experiment,60,↓,down,↓,0.6926524001173675,True,16
A026K23,260,experiment,48,↓,left,←,0.9245487998705357,False,16
A026K23,261,experiment,180,←,left,←,0.8014172001276165,True,16
A026K23,262,experiment,48,→,up,↑,1.4077576000709087,False,16
A026K23,263,experiment,24,←,left,←,0.6884628001134843,True,16
A026K23,264,experiment,144,↑,up,↑,0.6610749000683427,True,16
A026K23,265,experiment,12,↓,down,↓,0.8107469999231398,True,16
A026K23,266,experiment,36,←,left,←,0.5897125999908894,True,16
A026K23,267,experiment,144,←,left,←,0.6469517999794334,True,16
A026K23,268,experiment,144,←,left,←,0.6192612999584526,True,16
A026K23,269,experiment,156,←,left,←,0.6400643000379205,True,16
A026K23,270,experiment,84,←,left,←,0.7755905999802053,True,16
A026K23,271,experiment,84,→,right,→,0.8764190999791026,True,16
A026K23,272,experiment,132,↓,down,↓,0.6945151998661458,True,16
A026K23,273,experiment,12,→,right,→,0.8764943999703974,True,16
A026K23,274,experiment,84,←,left,←,0.7038487999234349,True,16
A026K23,275,experiment,36,↑,up,↑,0.6310356999747455,True,16
A026K23,276,experiment,120,↑,up,↑,0.7258711999747902,True,16
A026K23,277,experiment,60,→,right,→,0.6561448001302779,True,16
A026K23,278,experiment,96,↓,up,↑,0.9690680999774486,False,16
A026K23,279,experiment,108,↑,up,↑,0.620024099946022,True,16
A026K23,280,experiment,132,→,right,→,0.5833761000540107,True,16
A026K23,281,experiment,72,←,left,←,0.8542621999513358,True,16
A026K23,282,experiment,168,←,left,←,0.6475978000089526,True,16
A026K23,283,training,180,←,left,←,1.0104900000151247,True,16
A026K23,284,training,156,←,left,←,0.953508400125429,True,16
A026K23,285,training,48,↓,up,↑,0.9386183000169694,False,16
A026K23,286,experiment,120,↑,up,↑,0.6714485997799784,True,16
A026K23,287,experiment,72,←,up,↑,0.783910800004378,False,16
A026K23,288,experiment,144,↓,down,↓,0.6939537001308054,True,16
A026K23,289,experiment,120,↓,down,↓,0.6332493000663817,True,16
A026K23,290,experiment,72,↑,up,↑,1.3476487000007182,True,16
A026K23,291,experiment,84,←,left,←,0.7117505001369864,True,16
A026K23,292,experiment,168,→,right,→,0.9247326999902725,True,16
A026K23,293,experiment,60,←,left,←,0.6524332000408322,True,16
A026K23,294,experiment,144,←,left,←,1.0020667999051511,True,16
A026K23,295,experiment,156,←,left,←,0.8423838999588042,True,16
A026K23,296,experiment,96,←,left,←,0.7263442000839859,True,16
A026K23,297,experiment,108,←,left,←,0.6605586998630315,True,16
A026K23,298,experiment,108,↓,down,↓,0.6228609001263976,True,16
A026K23,299,experiment,120,↑,up,↑,0.6672685998491943,True,16
A026K23,300,experiment,60,↓,down,↓,0.5539476000703871,True,16
A026K23,301,experiment,72,←,left,←,0.6481407000683248,True,16
A026K23,302,experiment,132,↓,down,↓,0.5906224001664668,True,16
A026K23,303,experiment,156,↑,up,↑,1.2562398998998106,True,16
A026K23,304,experiment,156,→,right,→,0.9044051000382751,True,16
A026K23,305,experiment,108,←,left,←,0.7006617998704314,True,16
A026K23,306,experiment,60,←,left,←,0.7124464001972228,True,16
A026K23,307,experiment,168,↑,right,→,1.1901290998794138,False,16
A026K23,308,experiment,36,→,left,←,1.0218446999788284,False,16
A026K23,309,experiment,84,↑,up,↑,0.7017391000408679,True,16
A026K23,310,experiment,36,→,down,↓,1.3693555002100766,False,16
A026K23,311,experiment,48,→,right,→,0.8265867000445724,True,16
A026K23,312,experiment,60,→,left,←,0.8855101999361068,False,16
A026K23,313,experiment,132,→,left,←,0.8362662000581622,False,16
A026K23,314,experiment,180,←,left,←,1.0648358999751508,True,16
A026K23,315,experiment,84,←,left,←,0.5395736999344081,True,16
A026K23,316,experiment,120,↓,down,↓,0.8137155000586063,True,16
A026K23,317,experiment,96,←,left,←,0.5387750000227243,True,16
A026K23,318,experiment,48,↑,up,↑,0.8148190998472273,True,16
A026K23,319,experiment,132,↓,right,→,1.380469499854371,False,16
A026K23,320,experiment,72,↓,down,↓,0.8333859001286328,True,16
A026K23,321,experiment,24,→,right,→,0.6715830999892205,True,16
A026K23,322,experiment,108,→,right,→,0.6964360000565648,True,16
A026K23,323,experiment,180,↑,up,↑,0.8968279000837356,True,16
A026K23,324,experiment,84,↑,up,↑,0.9415874998085201,True,16
A026K23,325,experiment,144,←,left,←,0.8166699998546392,True,16
A026K23,326,experiment,12,↓,down,↓,0.7234945001546293,True,16
A026K23,327,experiment,168,↓,down,↓,0.727783199865371,True,16
A026K23,328,experiment,48,↓,down,↓,0.6351860000286251,True,16
A026K23,329,experiment,12,←,left,←,1.1841914001852274,True,16
A026K23,330,experiment,156,↓,down,↓,0.5952245998196304,True,16
A026K23,331,experiment,36,←,left,←,0.9237571000121534,True,16
A026K23,332,experiment,144,↓,down,↓,0.6105931999627501,True,16
A026K23,333,experiment,48,↑,up,↑,0.6821713000535965,True,16
A026K23,334,experiment,180,↑,up,↑,0.6873380001634359,True,16
A026K23,335,experiment,24,→,left,←,1.817619799869135,False,16
A026K23,336,experiment,180,↑,up,↑,0.7070754999294877,True,16
A026K23,337,experiment,96,←,left,←,0.7489599001128227,True,16
A026K23,338,experiment,24,↑,up,↑,1.1174918999895453,True,16
A026K23,339,experiment,168,↑,up,↑,0.8306704999413341,True,16
A026K23,340,experiment,36,↑,up,↑,0.6902972999960184,True,16
A026K23,341,experiment,12,↑,up,↑,0.6305678999051452,True,16
A026K23,342,experiment,132,↑,up,↑,0.6384344000834972,True,16
A026K23,343,experiment,24,→,left,←,0.756118199788034,False,16
A026K23,344,experiment,12,→,right,→,0.9332924000918865,True,16
A026K23,345,experiment,96,↓,left,←,0.6861791000701487,False,16
A026K23,346,training,132,→,right,→,0.6551928000990301,True,16
A026K23,347,training,96,↓,down,↓,0.5152760001365095,True,16
A026K23,348,training,168,↑,up,↑,0.7333662000019103,True,16
A026K23,349,experiment,156,↑,up,↑,0.7624796000309289,True,16
A026K23,350,experiment,48,→,left,←,1.0666670999489725,False,16
A026K23,351,experiment,180,←,right,→,0.7120572999119759,False,16
A026K23,352,experiment,132,↑,up,↑,0.5784109001979232,True,16
A026K23,353,experiment,168,↑,up,↑,0.6281463000923395,True,16
A026K23,354,experiment,108,→,right,→,0.5990474000573158,True,16
A026K23,355,experiment,84,↓,down,↓,0.5788267001044005,True,16
A026K23,356,experiment,36,↓,down,↓,0.38395319995470345,True,16
A026K23,357,experiment,60,↓,down,↓,0.8416930998209864,True,16
A026K23,358,experiment,168,↑,down,↓,0.6435432999860495,False,16
A026K23,359,experiment,12,↓,up,↑,0.8287355001084507,False,16
A026K23,360,experiment,60,↑,up,↑,0.5771117999684066,True,16
A026K23,361,experiment,96,→,up,↑,0.350307899992913,False,16
A026K23,362,experiment,156,↓,up,↑,0.9123721001669765,False,16
A026K23,363,experiment,84,↓,down,↓,0.5941912000998855,True,16
A026K23,364,experiment,48,←,left,←,0.6316864001564682,True,16
A026K23,365,experiment,120,←,left,←,0.837066100211814,True,16
A026K23,366,experiment,108,←,left,←,0.6420181000139564,True,16
A026K23,367,experiment,60,→,left,←,0.6759310001507401,False,16
A026K23,368,experiment,180,←,right,→,0.9423992000520229,False,16
A026K23,369,experiment,108,→,left,←,1.5859505999833345,False,16
A026K23,370,experiment,144,↑,up,↑,0.8028873999137431,True,16
A026K23,371,experiment,144,←,left,←,0.6767354998737574,True,16
A026K23,372,experiment,72,←,left,←,0.6396186000201851,True,16
A026K23,373,experiment,24,↑,up,↑,0.925139200175181,True,16
A026K23,374,experiment,180,←,left,←,0.6061466000974178,True,16
A026K23,375,experiment,156,↓,left,←,0.8216306001413614,False,16
A026K23,376,experiment,72,↓,down,↓,0.8092955001629889,True,16
A026K23,377,experiment,156,→,left,←,0.6724041998386383,False,16
A026K23,378,experiment,48,→,right,→,0.7854174000676721,True,16
A026K23,379,experiment,132,↑,up,↑,0.6244842000305653,True,16
A026K23,380,experiment,72,↑,down,↓,0.8899168001953512,False,16
A026K23,381,experiment,84,←,left,←,0.5826550000347197,True,16
A026K23,382,experiment,36,↓,down,↓,0.5592990999575704,True,16
A026K23,383,experiment,60,←,right,→,0.6975670999381691,False,16
A026K23,384,experiment,24,↑,up,↑,0.6033164002001286,True,16
A026K23,385,experiment,120,←,left,←,0.8146604001522064,True,16
A026K23,386,experiment,96,↓,right,→,0.8032992999069393,False,16
A026K23,387,experiment,108,↓,down,↓,0.6362324000801891,True,16
A026K23,388,experiment,168,↑,down,↓,0.5731360001955181,False,16
A026K23,389,experiment,12,↓,down,↓,0.5786741999909282,True,16
A026K23,390,experiment,36,↑,up,↑,0.7574571000877768,True,16
A026K23,391,experiment,120,←,left,←,0.6344678001478314,True,16
A026K23,392,experiment,36,→,right,→,0.773909900104627,True,16
A026K23,393,experiment,12,↓,right,→,1.2758162000682205,False,16
A026K23,394,experiment,24,↓,down,↓,0.49632280017249286,True,16
A026K23,395,experiment,180,→,left,←,0.8145022999960929,False,16
A026K23,396,experiment,48,↑,down,↓,0.5487902997992933,False,16
A026K23,397,experiment,168,→,left,←,0.5321953999809921,False,16
A026K23,398,experiment,120,←,left,←,0.7580858999863267,True,16
A026K23,399,experiment,144,→,right,→,0.6674989000894129,True,16
A026K23,400,experiment,144,→,right,→,0.5926496000029147,True,16
A026K23,401,experiment,96,↑,up,↑,0.6480175000615418,True,16
A026K23,402,experiment,24,→,left,←,1.031157499877736,False,16
A026K23,403,experiment,84,→,right,→,0.9091517000924796,True,16
A026K23,404,experiment,132,←,left,←,0.6736581998411566,True,16
A026K23,405,experiment,72,↑,up,↑,0.6118767000734806,True,16
A026K23,406,experiment,12,↓,down,↓,0.7756054000928998,True,16
A026K23,407,experiment,96,←,left,←,0.7969579000491649,True,16
A026K23,408,experiment,132,→,left,←,0.7257312999572605,False,16
A026K23,409,training,180,←,up,↑,1.7111795998644084,False,16
A026K23,410,training,72,→,right,→,1.0835746000520885,True,16
A026K23,411,training,72,←,left,←,1.0232808000873774,True,16
A026K23,412,experiment,108,→,right,→,0.6220710000488907,True,16
A026K23,413,experiment,168,←,up,↑,0.9387032999657094,False,16
A026K23,414,experiment,108,←,right,→,1.683164200047031,False,16
A026K23,415,experiment,36,→,right,→,0.7025499998126179,True,16
A026K23,416,experiment,36,↑,up,↑,0.8033048999495804,True,16
A026K23,417,experiment,72,→,right,→,0.763137900037691,True,16
A026K23,418,experiment,48,↑,up,↑,0.7301834998652339,True,16
A026K23,419,experiment,12,↑,up,↑,0.7227360000833869,True,16
A026K23,420,experiment,144,↓,up,↑,0.7011522001121193,False,16
A026K23,421,experiment,120,→,right,→,0.7909844999667257,True,16
A026K23,422,experiment,156,↑,up,↑,0.594642800046131,True,16
A026K23,423,experiment,24,↓,down,↓,1.1227382000070065,True,16
A026K23,424,experiment,132,→,right,→,0.6864516001660377,True,16
A026K23,425,experiment,180,←,left,←,0.6696995999664068,True,16
A026K23,426,experiment,132,↓,up,↑,0.7682701000012457,False,16
A026K23,427,experiment,156,↑,up,↑,0.6732771000824869,True,16
A026K23,428,experiment,36,→,up,↑,0.8433737999293953,False,16
A026K23,429,experiment,84,↑,up,↑,0.7977344000246376,True,16
A026K23,430,experiment,180,↑,right,→,1.0930941000115126,False,16
A026K23,431,experiment,12,↓,up,↑,0.7478318000212312,False,16
A026K23,432,experiment,120,↓,up,↑,0.6911854001227766,False,16
A026K23,433,experiment,108,←,left,←,1.342295799870044,True,16
A026K23,434,experiment,144,↓,up,↑,0.9527517999522388,False,16
A026K23,435,experiment,180,↓,up,↑,1.8737147999927402,False,16
A026K23,436,experiment,24,→,up,↑,0.8671464999206364,False,16
A026K23,437,experiment,12,↓,down,↓,1.1047354000620544,True,16
A026K23,438,experiment,36,←,down,↓,0.5996588999405503,False,16
A026K23,439,experiment,24,←,left,←,0.55522850016132,True,16
A026K23,440,experiment,72,↑,up,↑,0.6222335998900235,True,16
A026K23,441,experiment,96,↓,right,→,1.319360600085929,False,16
A026K23,442,experiment,96,←,left,←,0.7425296998117119,True,16
A026K23,443,experiment,168,→,up,↑,0.9268680999521166,False,16
A026K23,444,experiment,156,←,left,←,0.7318615999538451,True,16
A026K23,445,experiment,168,↑,up,↑,0.7009211000986397,True,16
A026K23,446,experiment,12,↓,right,→,1.4021954000927508,False,16
A026K23,447,experiment,48,←,left,←,0.6694708000868559,True,16
A026K23,448,experiment,180,←,left,←,0.6441218999680132,True,16
A026K23,449,experiment,48,→,right,→,1.8467325998935848,True,16
A026K23,450,experiment,120,↓,down,↓,0.7061203999910504,True,16
A026K23,451,experiment,60,→,up,↑,0.8039095001295209,False,16
A026K23,452,experiment,72,↑,up,↑,1.0454674998763949,True,16
A026K23,453,experiment,96,↓,down,↓,0.6496013000141829,True,16
A026K23,454,experiment,168,↑,down,↓,0.5034801000729203,False,16
A026K23,455,experiment,108,↓,down,↓,0.6986716999672353,True,16
A026K23,456,experiment,72,↓,down,↓,0.6561785999219865,True,16
A026K23,457,experiment,156,↑,up,↑,0.7367463000118732,True,16
A026K23,458,experiment,24,→,left,←,0.5273506999947131,False,16
A026K23,459,experiment,84,←,left,←,0.5787605999503285,True,16
A026K23,460,experiment,84,←,right,→,1.0219983998686075,False,16
A026K23,461,experiment,132,↑,up,↑,0.8750021001324058,True,16
A026K23,462,experiment,60,←,left,←,0.6947639998979867,True,16
A026K23,463,experiment,144,←,left,←,0.7664975000079721,True,16
A026K23,464,experiment,132,↓,down,↓,0.6647946999873966,True,16
A026K23,465,experiment,96,↓,down,↓,0.48620599997229874,True,16
A026K23,466,experiment,144,←,left,←,0.7143212000373751,True,16
A026K23,467,experiment,48,↑,down,↓,0.6247829000931233,False,16
A026K23,468,experiment,60,→,right,→,0.698753299890086,True,16
A026K23,469,experiment,60,↓,down,↓,0.6284612999297678,True,16
A026K23,470,experiment,84,←,down,↓,0.6594989001750946,False,16
A026K23,471,experiment,120,←,right,→,0.9010735000483692,False,16
A026K23,472,training,132,→,right,→,0.5872116999235004,True,16
A026K23,473,training,36,→,right,→,0.6922861998900771,True,16
A026K23,474,training,84,↑,up,↑,0.45049820002168417,True,16
A026K23,475,experiment,144,→,right,→,0.5824166000820696,True,16
A026K23,476,experiment,96,←,left,←,0.5405053999274969,True,16
A026K23,477,experiment,132,←,left,←,0.5905206000898033,True,16
A026K23,478,experiment,72,↑,right,→,0.8879454000853002,False,16
A026K23,479,experiment,12,↓,down,↓,0.7140378998592496,True,16
A026K23,480,experiment,60,↓,down,↓,0.6753557999618351,True,16
A026K23,481,experiment,144,←,left,←,0.5468802000395954,True,16
A026K23,482,experiment,60,↓,down,↓,0.665713099995628,True,16
A026K23,483,experiment,120,↑,right,→,1.0445866000372916,False,16
A026K23,484,experiment,60,←,left,←,0.5343748999293894,True,16
A026K23,485,experiment,36,↓,down,↓,0.6631661001592875,True,16
A026K23,486,experiment,156,←,left,←,0.626345600001514,True,16
A026K23,487,experiment,24,↓,down,↓,0.7831093999557197,True,16
A026K23,488,experiment,156,↑,up,↑,0.6483622000087053,True,16
A026K23,489,experiment,96,→,right,→,0.6002042000181973,True,16
A026K23,490,experiment,12,←,right,→,0.7578177999239415,False,16
A026K23,491,experiment,36,↑,up,↑,0.5247104000300169,True,16
A026K23,492,experiment,144,←,left,←,0.5808988001663238,True,16
A026K23,493,experiment,168,↓,down,↓,0.7769417001400143,True,16
A026K23,494,experiment,12,←,left,←,0.6125166001729667,True,16
A026K23,495,experiment,24,←,left,←,0.559798700036481,True,16
A026K23,496,experiment,144,→,right,→,0.6476174001581967,True,16
A026K23,497,experiment,24,↓,down,↓,0.687586999963969,True,16
A026K23,498,experiment,132,←,left,←,0.5759928000625223,True,16
A026K23,499,experiment,84,←,left,←,0.5209135001059622,True,16
A026K23,500,experiment,24,↑,up,↑,0.912509499816224,True,16
A026K23,501,experiment,180,↑,up,↑,0.7387521001510322,True,16
A026K23,502,experiment,96,↓,down,↓,0.6665668000932783,True,16
A026K23,503,experiment,84,←,left,←,0.49731240002438426,True,16
A026K23,504,experiment,108,→,right,→,0.6287730000913143,True,16
A026K23,505,experiment,72,↓,down,↓,0.5525313999969512,True,16
A026K23,506,experiment,132,↑,up,↑,0.7749419000465423,True,16
A026K23,507,experiment,108,→,right,→,0.7576511998195201,True,16
A026K23,508,experiment,156,↑,up,↑,0.6429889998398721,True,16
A026K23,509,experiment,84,↓,down,↓,0.590309799881652,True,16
A026K23,510,experiment,48,↑,up,↑,0.8421710000839084,True,16
A026K23,511,experiment,120,←,left,←,0.589805900119245,True,16
A026K23,512,experiment,48,↑,up,↑,0.7467022999189794,True,16
A026K23,513,experiment,168,→,right,→,0.5704972997773439,True,16
A026K23,514,experiment,72,↓,up,↑,0.7064356999471784,False,16
A026K23,515,experiment,72,→,left,←,0.5123278999235481,False,16
A026K23,516,experiment,108,↓,down,↓,0.6270582000724971,True,16
A026K23,517,experiment,120,←,left,←,0.728914599865675,True,16
A026K23,518,experiment,12,↓,down,↓,0.6951562999747694,True,16
A026K23,519,experiment,48,→,right,→,0.5966820002067834,True,16
A026K23,520,experiment,108,↑,up,↑,0.6546807999256998,True,16
A026K23,521,experiment,36,→,right,→,0.7174586001783609,True,16
A026K23,522,experiment,84,↑,up,↑,0.6978376999031752,True,16
A026K23,523,experiment,132,→,right,→,0.7911525999661535,True,16
A026K23,524,experiment,36,↑,up,↑,0.7009419000241905,True,16
A026K23,525,experiment,96,←,left,←,0.5103070999030024,True,16
A026K23,526,experiment,48,←,right,→,0.6975237999577075,False,16
A026K23,527,experiment,120,←,right,→,0.9516930000390857,False,16
A026K23,528,experiment,168,←,left,←,0.6289707000833005,True,16
A026K23,529,experiment,156,→,right,→,0.8631683001294732,True,16
A026K23,530,experiment,180,↑,up,↑,0.6718345999252051,True,16
A026K23,531,experiment,180,↑,up,↑,0.5954230998177081,True,16
A026K23,532,experiment,168,↑,up,↑,0.6370882999617606,True,16
A026K23,533,experiment,60,↑,right,→,0.8602902998682112,False,16
A026K23,534,experiment,180,↓,no_key,no_letter,-1.0,False,16
A026K23,535,training,132,↑,no_key,no_letter,-1.0,False,16
A026K23,536,training,84,↑,up,↑,1.3081819999497384,True,16
A026K23,537,training,12,↑,up,↑,1.69862570008263,True,16
A026K23,538,experiment,72,→,right,→,0.6286017000675201,True,16
A026K23,539,experiment,120,→,right,→,0.5772581999190152,True,16
A026K23,540,experiment,96,↓,down,↓,0.5548724001273513,True,16
A026K23,541,experiment,36,→,right,→,0.6854784002061933,True,16
A026K23,542,experiment,96,↓,down,↓,0.7472684001550078,True,16
A026K23,543,experiment,156,→,right,→,0.734233400085941,True,16
A026K23,544,experiment,72,↓,down,↓,0.6268118000589311,True,16
A026K23,545,experiment,144,←,left,←,0.759244600078091,True,16
A026K23,546,experiment,180,↑,down,↓,0.6990092999767512,False,16
A026K23,547,experiment,108,↓,down,↓,0.8464353999588639,True,16
A026K23,548,experiment,60,←,left,←,0.8712885000277311,True,16
A026K23,549,experiment,84,←,left,←,0.5370708999689668,True,16
A026K23,550,experiment,72,↓,down,↓,0.49295589979737997,True,16
A026K23,551,experiment,12,←,left,←,0.7095470998901874,True,16
A026K23,552,experiment,48,↑,up,↑,0.8880978000815958,True,16
A026K23,553,experiment,48,↑,up,↑,0.6573002999648452,True,16
A026K23,554,experiment,132,↓,up,↑,0.8425080999732018,False,16
A026K23,555,experiment,180,↑,right,→,1.6537907000165433,False,16
A026K23,556,experiment,24,↓,up,↑,0.8020258001051843,False,16
A026K23,557,experiment,108,↓,down,↓,0.5538217998109758,True,16
A026K23,558,experiment,120,→,right,→,0.662741799838841,True,16
A026K23,559,experiment,48,←,right,→,1.0197713999077678,False,16
A026K23,560,experiment,96,→,right,→,0.810699800029397,True,16
A026K23,561,experiment,180,→,up,↑,0.8114390000700951,False,16
A026K23,562,experiment,180,←,left,←,0.6176333001349121,True,16
A026K23,563,experiment,84,↑,up,↑,0.7428126998711377,True,16
A026K23,564,experiment,168,→,right,→,0.774559399811551,True,16
A026K23,565,experiment,72,↑,left,←,0.9273489001207054,False,16
A026K23,566,experiment,168,←,left,←,0.6787582000251859,True,16
A026K23,567,experiment,132,↑,up,↑,0.7335378001444042,True,16
A026K23,568,experiment,144,↓,left,←,0.8094742000102997,False,16
A026K23,569,experiment,60,↑,up,↑,0.6330277998931706,True,16
A026K23,570,experiment,84,↓,down,↓,0.6300417999736965,True,16
A026K23,571,experiment,168,←,left,←,0.6312722999136895,True,16
A026K23,572,experiment,24,←,left,←,0.5011479000095278,True,16
A026K23,573,experiment,132,→,left,←,0.6353698000311852,False,16
A026K23,574,experiment,156,←,right,→,1.233315900200978,False,16
A026K23,575,experiment,120,←,left,←,0.6458146998193115,True,16
A026K23,576,experiment,120,↑,up,↑,0.7032387999352068,True,16
A026K23,577,experiment,144,→,down,↓,0.8423656998202205,False,16
A026K23,578,experiment,36,↑,up,↑,0.7849178998731077,True,16
A026K23,579,experiment,24,←,left,←,0.6057928998488933,True,16
A026K23,580,experiment,108,↑,up,↑,0.651870199944824,True,16
A026K23,581,experiment,132,→,right,→,0.7529238001443446,True,16
A026K23,582,experiment,168,←,left,←,0.6078900001011789,True,16
A026K23,583,experiment,60,←,left,←,0.9331890000030398,True,16
A026K23,584,experiment,156,↑,up,↑,0.720867799827829,True,16
A026K23,585,experiment,12,↑,up,↑,0.6456070998683572,True,16
A026K23,586,experiment,60,←,right,→,1.1886923999991268,False,16
A026K23,587,experiment,108,↓,down,↓,0.6441228000912815,True,16
A026K23,588,experiment,144,→,right,→,1.031951299868524,True,16
A026K23,589,experiment,84,←,left,←,0.5755161000415683,True,16
A026K23,590,experiment,24,→,down,↓,0.7279807000886649,False,16
A026K23,591,experiment,12,→,right,→,0.6735910000279546,True,16
A026K23,592,experiment,96,↓,down,↓,0.5568323999177665,True,16
A026K23,593,experiment,36,→,right,→,0.586456699995324,True,16
A026K23,594,experiment,36,↑,down,↓,0.635004699928686,False,16
A026K23,595,experiment,12,←,left,←,0.6553440999705344,True,16
A026K23,596,experiment,156,←,right,→,0.6730195998679847,False,16
A026K23,597,experiment,48,↓,down,↓,0.5337994999717921,True,16
A026K23,598,training,144,←,left,←,0.5949118998833001,True,16
A026K23,599,training,60,↓,up,↑,0.8161786999553442,False,16
A026K23,600,training,168,→,left,←,0.6160599999129772,False,16
A026K23,601,experiment,60,↓,down,↓,0.5296227999497205,True,16
A026K23,602,experiment,96,↓,down,↓,0.47756189992651343,True,16
A026K23,603,experiment,84,↑,down,↓,0.45942039997316897,False,16
A026K23,604,experiment,36,↓,down,↓,0.52663360000588,True,16
A026K23,605,experiment,24,↑,up,↑,0.6293171001598239,True,16
A026K23,606,experiment,48,↓,down,↓,0.7300051001366228,True,16
A026K23,607,experiment,60,→,up,↑,0.9343332001008093,False,16
A026K23,608,experiment,60,↑,up,↑,0.8224108000285923,True,16
A026K23,609,experiment,132,←,left,←,0.5994760999456048,True,16
A026K23,610,experiment,96,↓,down,↓,0.5443656998686492,True,16
A026K23,611,experiment,72,←,left,←,0.6719510001130402,True,16
A026K23,612,experiment,48,←,left,←,0.8250712000299245,True,16
A026K23,613,experiment,108,↓,up,↑,0.9031168001238257,False,16
A026K23,614,experiment,12,↑,up,↑,0.6653716000728309,True,16
A026K23,615,experiment,12,↑,up,↑,0.9709216000046581,True,16
A026K23,616,experiment,144,←,right,→,0.7968422998674214,False,16
A026K23,617,experiment,96,↓,down,↓,0.5955221001058817,True,16
A026K23,618,experiment,96,↑,up,↑,0.7118414000142366,True,16
A026K23,619,experiment,132,↓,left,←,1.2627004999667406,False,16
A026K23,620,experiment,180,←,left,←,0.6170800998806953,True,16
A026K23,621,experiment,72,↓,down,↓,0.5396733998786658,True,16
A026K23,622,experiment,120,←,left,←,0.8034655000083148,True,16
A026K23,623,experiment,180,↑,up,↑,0.9522272001486272,True,16
A026K23,624,experiment,108,←,left,←,0.7345471999142319,True,16
A026K23,625,experiment,36,←,up,↑,0.9146237999666482,False,16
A026K23,626,experiment,108,↑,up,↑,0.6064935000613332,True,16
A026K23,627,experiment,36,↓,down,↓,0.8726759001147002,True,16
A026K23,628,experiment,120,←,left,←,0.7001241000834852,True,16
A026K23,629,experiment,144,←,right,→,0.9032349998597056,False,16
A026K23,630,experiment,156,↑,up,↑,0.9299745000898838,True,16
A026K23,631,experiment,156,→,right,→,0.7325041000731289,True,16
A026K23,632,experiment,120,→,right,→,0.5853316001594067,True,16
A026K23,633,experiment,72,↓,down,↓,0.5278954999521375,True,16
A026K23,634,experiment,144,←,down,↓,0.9201605999842286,False,16
A026K23,635,experiment,168,←,left,←,0.5895428999792784,True,16
A026K23,636,experiment,24,→,right,→,0.7984376999083906,True,16
A026K23,637,experiment,84,↓,up,↑,0.9524050001055002,False,16
A026K23,638,experiment,72,→,left,←,0.680580300046131,False,16
A026K23,639,experiment,48,↑,down,↓,1.157662499928847,False,16
A026K23,640,experiment,132,↓,up,↑,0.8132061001379043,False,16
A026K23,641,experiment,156,↓,down,↓,0.6728787999600172,True,16
A026K23,642,experiment,12,←,down,↓,0.8812160999514163,False,16
A026K23,643,experiment,24,←,left,←,1.2254770998843014,True,16
A026K23,644,experiment,180,→,right,→,0.7434364999644458,True,16
A026K23,645,experiment,144,↓,up,↑,0.9222599000204355,False,16
A026K23,646,experiment,132,→,right,→,0.6884405999444425,True,16
A026K23,647,experiment,156,↑,up,↑,0.7180111999623477,True,16
A026K23,648,experiment,168,←,left,←,0.7082760999910533,True,16
A026K23,649,experiment,168,↑,right,→,0.8367388001643121,False,16
A026K23,650,experiment,120,←,right,→,0.9479427000042051,False,16
A026K23,651,experiment,180,←,left,←,0.6288634000811726,True,16
A026K23,652,experiment,12,↑,left,←,0.9753332999534905,False,16
A026K23,653,experiment,48,←,right,→,0.6734166999813169,False,16
A026K23,654,experiment,168,→,right,→,0.7352014000061899,True,16
A026K23,655,experiment,84,→,right,→,0.5476141001563519,True,16
A026K23,656,experiment,108,↓,down,↓,0.5569611000828445,True,16
A026K23,657,experiment,60,↑,up,↑,0.8392086001113057,True,16
A026K23,658,experiment,84,←,left,←,0.5555787000339478,True,16
A026K23,659,experiment,24,←,right,→,0.9620270000305027,False,16
A026K23,660,experiment,36,←,left,←,0.6970442000310868,True,16
A026K23,661,training,84,↓,down,↓,0.580296500120312,True,16
A026K23,662,training,120,↑,down,↓,0.49182150000706315,False,16
A026K23,663,training,132,→,right,→,0.9879320000763983,True,16
A026K23,664,experiment,120,↑,up,↑,0.6660768000874668,True,16
A026K23,665,experiment,168,←,left,←,0.6491248998790979,True,16
A026K23,666,experiment,180,↑,up,↑,0.6785505001898855,True,16
A026K23,667,experiment,36,→,left,←,0.9021918999496847,False,16
A026K23,668,experiment,48,↓,up,↑,0.7712332999799401,False,16
A026K23,669,experiment,108,→,right,→,1.1127766999416053,True,16
A026K23,670,experiment,132,↑,up,↑,0.9237487998325378,True,16
A026K23,671,experiment,24,↑,down,↓,0.7732502999715507,False,16
A026K23,672,experiment,96,↑,up,↑,0.5717406999319792,True,16
A026K23,673,experiment,12,→,right,→,0.771000700071454,True,16
A026K23,674,experiment,108,↓,down,↓,0.482082000002265,True,16
A026K23,675,experiment,12,↑,up,↑,0.6898981998674572,True,16
A026K23,676,experiment,180,↓,up,↑,0.932123800041154,False,16
A026K23,677,experiment,108,↓,down,↓,0.723130099941045,True,16
A026K23,678,experiment,24,↓,up,↑,0.7593867999967188,False,16
A026K23,679,experiment,180,←,left,←,0.817381399916485,True,16
A026K23,680,experiment,60,↑,up,↑,0.6263957999181002,True,16
A026K23,681,experiment,12,←,left,←,0.6624195000622422,True,16
A026K23,682,experiment,60,↑,up,↑,0.7605201001279056,True,16
A026K23,683,experiment,144,←,left,←,0.7970606000162661,True,16
A026K23,684,experiment,84,↓,down,↓,0.582448499975726,True,16
A026K23,685,experiment,36,←,left,←,0.6253227998968214,True,16
A026K23,686,experiment,84,↓,right,→,0.8734846999868751,False,16
A026K23,687,experiment,48,→,left,←,0.8653073001187295,False,16
A026K23,688,experiment,24,→,no_key,no_letter,-1.0,False,16
A026K23,689,experiment,72,→,right,→,0.9419286001939327,True,16
A026K23,690,experiment,12,←,no_key,no_letter,-1.0,False,16
A026K23,691,experiment,48,↑,left,←,0.8238086998462677,False,16
A026K23,692,experiment,132,→,left,←,0.7589528998360038,False,16
A026K23,693,experiment,72,↑,right,→,1.2547528999857605,False,16
A026K23,694,experiment,144,↓,up,↑,1.0800290999468416,False,16
A026K23,695,experiment,60,↓,down,↓,0.5850635000970215,True,16
A026K23,696,experiment,144,↓,down,↓,0.46079450007528067,True,16
A026K23,697,experiment,168,→,right,→,0.5922546999063343,True,16
A026K23,698,experiment,156,↓,up,↑,0.9599127999972552,False,16
A026K23,699,experiment,156,↑,up,↑,0.5831244001165032,True,16
A026K23,700,experiment,120,←,left,←,0.5785411999095231,True,16
A026K23,701,experiment,84,↑,right,→,1.2936340000014752,False,16
A026K23,702,experiment,24,→,right,→,0.7680079001002014,True,16
A026K23,703,experiment,156,→,up,↑,0.7655883000697941,False,16
A026K23,704,experiment,36,↑,up,↑,0.9109122999943793,True,16
A026K23,705,experiment,36,→,right,→,0.8018596998881549,True,16
A026K23,706,experiment,72,→,no_key,no_letter,-1.0,False,16
A026K23,707,experiment,96,↓,up,↑,0.8243993998039514,False,16
A026K23,708,experiment,108,↑,up,↑,1.0146057999227196,True,16
A026K23,709,experiment,72,↓,down,↓,0.5286889998242259,True,16
A026K23,710,experiment,84,↑,up,↑,0.7996271001175046,True,16
A026K23,711,experiment,180,→,right,→,0.5642387999687344,True,16
A026K23,712,experiment,96,↑,up,↑,0.8382564000785351,True,16
A026K23,713,experiment,120,↑,up,↑,0.5827715999912471,True,16
A026K23,714,experiment,60,←,left,←,0.6032225000672042,True,16
A026K23,715,experiment,132,→,right,→,0.5510565999429673,True,16
A026K23,716,experiment,96,↑,up,↑,0.49472830002196133,True,16
A026K23,717,experiment,144,↑,up,↑,0.7275403998792171,True,16
A026K23,718,experiment,132,→,up,↑,1.03856569994241,False,16
A026K23,719,experiment,120,←,left,←,1.0127262000460178,True,16
A026K23,720,experiment,168,←,no_key,no_letter,-1.0,False,16
A026K23,721,experiment,48,↓,up,↑,0.7353572999127209,False,16
A026K23,722,experiment,168,↓,down,↓,0.6803146000020206,True,16
A026K23,723,experiment,156,→,right,→,0.5457489998079836,True,16
A026K23,724,training,72,→,right,→,0.7463017001282424,True,16
A026K23,725,training,120,→,right,→,0.8492860998958349,True,16
A026K23,726,training,144,→,up,↑,0.8162650000303984,False,16
A026K23,727,experiment,24,←,left,←,0.6826273000333458,True,16
A026K23,728,experiment,24,←,left,←,1.1061674000229686,True,16
A026K23,729,experiment,168,←,up,↑,0.7687478000298142,False,16
A026K23,730,experiment,84,↓,down,↓,0.501103299902752,True,16
A026K23,731,experiment,108,↑,up,↑,0.5645959000103176,True,16
A026K23,732,experiment,156,→,left,←,0.7588199998717755,False,16
A026K23,733,experiment,180,↑,up,↑,0.5669192001223564,True,16
A026K23,734,experiment,96,↓,down,↓,0.9556486001238227,True,16
A026K23,735,experiment,12,↓,left,←,1.5277929999865592,False,16
A026K23,736,experiment,72,↓,down,↓,0.7125462000258267,True,16
A026K23,737,experiment,60,→,right,→,0.834848599974066,True,16
A026K23,738,experiment,24,←,left,←,0.718087799847126,True,16
A026K23,739,experiment,36,←,left,←,0.695469900034368,True,16
A026K23,740,experiment,156,↓,up,↑,1.2631591001991183,False,16
A026K23,741,experiment,108,↓,down,↓,0.7207825998775661,True,16
A026K23,742,experiment,48,↓,up,↑,0.8617674000561237,False,16
A026K23,743,experiment,156,↑,left,←,0.6509476001374424,False,16
A026K23,744,experiment,84,↑,down,↓,0.6749833999201655,False,16
A026K23,745,experiment,120,↓,down,↓,0.7845532998908311,True,16
A026K23,746,experiment,36,↑,up,↑,0.8595314999110997,True,16
A026K23,747,experiment,120,↑,down,↓,0.770980300148949,False,16
A026K23,748,experiment,12,←,left,←,0.7363211999181658,True,16
A026K23,749,experiment,12,↑,left,←,0.9351804999168962,False,16
A026K23,750,experiment,84,↓,down,↓,0.7652716001030058,True,16
A026K23,751,experiment,48,←,left,←,0.5952262999489903,True,16
A026K23,752,experiment,60,→,left,←,0.7038167999126017,False,16
A026K23,753,experiment,96,↓,down,↓,1.090917499968782,True,16
A026K23,754,experiment,132,←,left,←,0.5977521000895649,True,16
A026K23,755,experiment,96,←,right,→,0.8158438999671489,False,16
A026K23,756,experiment,120,↓,down,↓,0.6387229999527335,True,16
A026K23,757,experiment,132,←,left,←,0.5241060999687761,True,16
A026K23,758,experiment,144,←,left,←,0.5425990999210626,True,16
A026K23,759,experiment,120,→,right,→,0.5804745999630541,True,16
A026K23,760,experiment,96,↓,down,↓,0.4393005999736488,True,16
A026K23,761,experiment,180,←,left,←,0.7551206001080573,True,16
A026K23,762,experiment,60,←,left,←,0.5642824999522418,True,16
A026K23,763,experiment,168,↑,down,↓,0.7968769001308829,False,16
A026K23,764,experiment,144,↓,down,↓,0.6917893001809716,True,16
A026K23,765,experiment,36,↑,up,↑,1.1316939000971615,True,16
A026K23,766,experiment,108,↓,no_key,no_letter,-1.0,False,16
A026K23,767,experiment,144,→,right,→,0.9808837999589741,True,16
A026K23,768,experiment,180,→,right,→,0.6021489000413567,True,16
A026K23,769,experiment,180,→,left,←,0.7642893001902848,False,16
A026K23,770,experiment,12,↑,up,↑,0.6246833000332117,True,16
A026K23,771,experiment,168,↓,up,↑,0.5538176000118256,False,16
A026K23,772,experiment,132,→,right,→,0.4978507000487298,True,16
A026K23,773,experiment,144,←,left,←,0.5610454000998288,True,16
A026K23,774,experiment,48,↓,up,↑,0.7087181000970304,False,16
A026K23,775,experiment,48,←,up,↑,0.7471079998649657,False,16
A026K23,776,experiment,72,↓,down,↓,0.6357886001933366,True,16
A026K23,777,experiment,168,→,right,→,0.5172913998831064,True,16
A026K23,778,experiment,72,→,right,→,0.6558294999413192,True,16
A026K23,779,experiment,84,↑,up,↑,0.592439099913463,True,16
A026K23,780,experiment,108,→,right,→,0.6991250000428408,True,16
A026K23,781,experiment,72,↓,up,↑,0.9775489999447018,False,16
A026K23,782,experiment,60,→,right,→,0.8553825998678803,True,16
A026K23,783,experiment,24,←,left,←,0.645554999820888,True,16
A026K23,784,experiment,156,→,left,←,0.5357747999951243,False,16
A026K23,785,experiment,132,↓,right,→,0.7556443999055773,False,16
A026K23,786,experiment,36,←,right,→,0.5973033998161554,False,16
A026K23,787,training,84,←,no_key,no_letter,-1.0,False,16
A026K23,788,training,168,←,up,↑,0.7131872999016196,False,16
A026K23,789,training,168,→,left,←,0.9320527999661863,False,16
A026K23,790,experiment,180,←,left,←,0.8167037998791784,True,16
A026K23,791,experiment,24,→,right,→,0.6168489998672158,True,16
A026K23,792,experiment,36,↓,left,←,0.8061023999471217,False,16
A026K23,793,experiment,180,↓,up,↑,0.7691556001082063,False,16
A026K23,794,experiment,120,↓,up,↑,0.7702239998616278,False,16
A026K23,795,experiment,48,↑,down,↓,0.754738099873066,False,16
A026K23,796,experiment,108,↑,down,↓,0.4659494000952691,False,16
A026K23,797,experiment,168,↓,up,↑,0.7036037999205291,False,16
A026K23,798,experiment,144,←,left,←,0.500298400176689,True,16
A026K23,799,experiment,60,←,left,←,0.5753890001215041,True,16
A026K23,800,experiment,144,→,left,←,0.6763887999113649,False,16
A026K23,801,experiment,168,←,left,←,0.662432000041008,True,16
A026K23,802,experiment,36,→,right,→,0.6544986001681536,True,16
A026K23,803,experiment,180,→,right,→,0.6135429001878947,True,16
A026K23,804,experiment,132,→,right,→,0.624258300056681,True,16
A026K23,805,experiment,144,↓,down,↓,0.6168142000678927,True,16
A026K23,806,experiment,144,←,right,→,0.5672226999886334,False,16
A026K23,807,experiment,72,←,left,←,0.5644378000870347,True,16
A026K23,808,experiment,96,↓,down,↓,0.7143312999978662,True,16
A026K23,809,experiment,180,↓,down,↓,0.5242244999390095,True,16
A026K23,810,experiment,84,↑,up,↑,0.6022722001653165,True,16
A026K23,811,experiment,48,←,down,↓,0.8946986999362707,False,16
A026K23,812,experiment,96,→,right,→,0.8526091000530869,True,16
A026K23,813,experiment,36,→,right,→,0.7170539998915046,True,16
A026K23,814,experiment,108,↓,down,↓,0.5193098001182079,True,16
A026K23,815,experiment,12,↑,up,↑,0.8899252000264823,True,16
A026K23,816,experiment,60,↓,down,↓,0.49730249983258545,True,16
A026K23,817,experiment,120,←,right,→,0.8766711000353098,False,16
A026K23,818,experiment,108,↑,up,↑,0.6045206999406219,True,16
A026K23,819,experiment,72,←,left,←,1.154245899990201,True,16
A026K23,820,experiment,156,↓,down,↓,0.658999300096184,True,16
A026K23,821,experiment,84,↑,up,↑,0.5676732000429183,True,16
A026K23,822,experiment,108,↑,down,↓,0.5865730000659823,False,16
A026K23,823,experiment,132,↓,down,↓,1.5049495999701321,True,16
A026K23,824,experiment,48,↑,up,↑,0.6767821998801082,True,16
A026K23,825,experiment,36,→,left,←,0.9521415000781417,False,16
A026K23,826,experiment,24,←,right,→,1.3480935001280159,False,16
A026K23,827,experiment,60,↑,up,↑,0.639741700142622,True,16
A026K23,828,experiment,120,↑,up,↑,0.6287696999497712,True,16
A026K23,829,experiment,156,↓,left,←,1.097348100040108,False,16
A026K23,830,experiment,96,→,up,↑,0.7478047001641244,False,16
A026K23,831,experiment,168,↑,up,↑,0.8618587001692504,True,16
A026K23,832,experiment,12,→,up,↑,0.7510065999813378,False,16
A026K23,833,experiment,60,↑,right,→,0.5751068000681698,False,16
A026K23,834,experiment,156,↑,up,↑,0.7038872998673469,True,16
A026K23,835,experiment,84,←,left,←,0.7664622000884265,True,16
A026K23,836,experiment,132,→,right,→,0.5893111999612302,True,16
A026K23,837,experiment,12,←,left,←,1.28611860005185,True,16
A026K23,838,experiment,72,↓,down,↓,0.8699407000094652,True,16
A026K23,839,experiment,84,↓,up,↑,0.623708400176838,False,16
A026K23,840,experiment,156,↑,up,↑,0.7226442000828683,True,16
A026K23,841,experiment,24,←,left,←,0.6353430000599474,True,16
A026K23,842,experiment,24,→,right,→,0.6592904001008719,True,16
A026K23,843,experiment,12,↓,left,←,0.5684609999880195,False,16
A026K23,844,experiment,168,↓,down,↓,0.5713607999496162,True,16
A026K23,845,experiment,132,→,right,→,0.58092480013147,True,16
A026K23,846,experiment,48,↓,down,↓,0.5640600000042468,True,16
A026K23,847,experiment,96,↓,down,↓,0.6417415000032634,True,16
A026K23,848,experiment,120,↑,up,↑,0.5524538999889046,True,16
A026K23,849,experiment,72,↓,down,↓,0.5152557999826968,True,16
