PART_ID,Trial_no,Trial_type,PDI,Stim_letter,Key_pressed,letter_choose,Rt,Corr,Stimulus Time
A027M23,1,training,10,←,up,↑,1.7174498001113534,False,30
A027M23,2,training,10,←,no_key,no_letter,-1.0,False,30
A027M23,3,training,10,↓,down,↓,0.7321518999524415,True,30
A027M23,4,training,10,↑,up,↑,1.1554851999972016,True,30
A027M23,5,training,10,↓,down,↓,0.8672704000491649,True,30
A027M23,6,training,10,→,right,→,0.9179885999765247,True,30
A027M23,7,training,10,↓,down,↓,0.6676194998435676,True,30
A027M23,8,training,10,↓,down,↓,0.8387776999734342,True,30
A027M23,9,training,10,←,left,←,1.0883316998369992,True,30
A027M23,10,training,10,→,right,→,0.5506657999940217,True,30
A027M23,11,training,10,↑,no_key,no_letter,-1.0,False,30
A027M23,12,training,10,←,left,←,0.6339571999851614,True,30
A027M23,13,training,10,→,right,→,0.8690818001050502,True,30
A027M23,14,training,10,→,right,→,0.9184743999503553,True,30
A027M23,15,training,10,↓,down,↓,0.8636223000939935,True,30
A027M23,16,training,10,←,no_key,no_letter,-1.0,False,30
A027M23,17,training,10,←,left,←,1.2533223000355065,True,30
A027M23,18,training,10,→,right,→,0.9588925999123603,True,30
A027M23,19,training,10,←,left,←,0.5840881001204252,True,30
A027M23,20,training,10,↓,down,↓,0.9026440000161529,True,30
A027M23,21,training,10,↓,down,↓,0.5769249999430031,True,18
A027M23,22,training,10,↑,up,↑,0.47448550001718104,True,18
A027M23,23,training,10,→,right,→,0.5724103001412004,True,18
A027M23,24,training,10,←,left,←,0.5993665000423789,True,18
A027M23,25,training,10,↑,up,↑,0.4927749999333173,True,18
A027M23,26,training,10,←,left,←,0.9482523000333458,True,18
A027M23,27,training,10,←,left,←,0.6540584999602288,True,18
A027M23,28,training,10,↓,down,↓,0.7106708998326212,True,18
A027M23,29,training,10,→,right,→,0.7668387999292463,True,18
A027M23,30,training,10,↓,down,↓,0.5000616000033915,True,18
A027M23,31,training,84,→,left,←,0.9998018001206219,False,15
A027M23,32,training,60,→,left,←,0.8739475999027491,False,15
A027M23,33,training,60,←,right,→,1.017253699945286,False,15
A027M23,34,experiment,12,←,up,↑,1.2062274001073092,False,15
A027M23,35,experiment,48,→,right,→,0.7244977001100779,True,15
A027M23,36,experiment,60,↓,left,←,1.0511566000059247,False,15
A027M23,37,experiment,120,←,left,←,0.7595289999153465,True,15
A027M23,38,experiment,144,←,left,←,0.8824094999581575,True,15
A027M23,39,experiment,168,→,right,→,0.9251135000959039,True,15
A027M23,40,experiment,60,←,left,←,0.7852406001184136,True,15
A027M23,41,experiment,84,↓,down,↓,0.7213460998609662,True,15
A027M23,42,experiment,12,↓,down,↓,1.1928266000468284,True,15
A027M23,43,experiment,96,→,right,→,0.7547825998626649,True,15
A027M23,44,experiment,132,↑,down,↓,1.1494320000056177,False,15
A027M23,45,experiment,168,↑,left,←,0.980136200087145,False,15
A027M23,46,experiment,108,→,right,→,0.6927149998955429,True,15
A027M23,47,experiment,96,←,right,→,0.7386141999159008,False,15
A027M23,48,experiment,144,↓,down,↓,0.9560920000076294,True,15
A027M23,49,experiment,12,↑,left,←,1.0024916001129895,False,15
A027M23,50,experiment,60,↑,right,→,0.7240746000315994,False,15
A027M23,51,experiment,108,→,right,→,0.6431519999168813,True,15
A027M23,52,experiment,108,↑,up,↑,0.9785314002074301,True,15
A027M23,53,experiment,24,←,right,→,0.7100561999250203,False,15
A027M23,54,experiment,156,↓,down,↓,0.740755399921909,True,15
A027M23,55,experiment,180,→,right,→,0.7046994001138955,True,15
A027M23,56,experiment,84,↓,down,↓,0.6836661999113858,True,15
A027M23,57,experiment,168,←,right,→,0.7175797999370843,False,15
A027M23,58,experiment,132,↑,down,↓,1.1173686999827623,False,15
A027M23,59,experiment,24,↑,down,↓,1.29639649996534,False,15
A027M23,60,experiment,120,↑,up,↑,0.6378115999978036,True,15
A027M23,61,experiment,72,→,left,←,0.9546809000894427,False,15
A027M23,62,experiment,120,↓,down,↓,0.8549444999080151,True,15
A027M23,63,experiment,120,↓,down,↓,0.7201517999637872,True,15
A027M23,64,experiment,12,→,left,←,0.9949604999274015,False,15
A027M23,65,experiment,180,↑,up,↑,0.8958506998606026,True,15
A027M23,66,experiment,24,↓,down,↓,0.8815810999367386,True,15
A027M23,67,experiment,144,↓,down,↓,0.9112447001971304,True,15
A027M23,68,experiment,48,↓,up,↑,1.114390900125727,False,15
A027M23,69,experiment,24,↑,left,←,1.0499747002031654,False,15
A027M23,70,experiment,36,→,right,→,0.5455726999789476,True,15
A027M23,71,experiment,156,↓,right,→,0.9415176000911742,False,15
A027M23,72,experiment,132,←,left,←,0.8776439998764545,True,15
A027M23,73,experiment,132,←,left,←,0.7939361999742687,True,15
A027M23,74,experiment,72,←,left,←,0.8428404000587761,True,15
A027M23,75,experiment,72,↓,right,→,0.693023799918592,False,15
A027M23,76,experiment,180,←,left,←,0.6886452999897301,True,15
A027M23,77,experiment,60,↓,left,←,0.6695493999868631,False,15
A027M23,78,experiment,108,→,left,←,0.6203545997850597,False,15
A027M23,79,experiment,96,↑,left,←,0.8659177999943495,False,15
A027M23,80,experiment,84,↑,left,←,0.5281271000858396,False,15
A027M23,81,experiment,156,↓,down,↓,0.9462425999809057,True,15
A027M23,82,experiment,48,←,left,←,0.8292157999239862,True,15
A027M23,83,experiment,36,↓,down,↓,0.7479365998879075,True,15
A027M23,84,experiment,36,↓,down,↓,0.46209769998677075,True,15
A027M23,85,experiment,48,↑,left,←,0.8093985000159591,False,15
A027M23,86,experiment,156,↑,no_key,no_letter,-1.0,False,15
A027M23,87,experiment,144,↓,left,←,0.7420591001864523,False,15
A027M23,88,experiment,84,←,right,→,1.1324948999099433,False,15
A027M23,89,experiment,72,→,left,←,0.42240829998627305,False,15
A027M23,90,experiment,180,←,no_key,no_letter,-1.0,False,15
A027M23,91,experiment,96,←,left,←,0.42313720006495714,True,15
A027M23,92,experiment,36,→,no_key,no_letter,-1.0,False,15
A027M23,93,experiment,168,→,right,→,0.9705095000099391,True,15
A027M23,94,training,108,←,right,→,0.4797620000317693,False,16
A027M23,95,training,12,→,down,↓,0.999030499951914,False,16
A027M23,96,training,180,↑,left,←,0.785195899894461,False,16
A027M23,97,experiment,144,↑,left,←,0.9508012000005692,False,16
A027M23,98,experiment,60,←,left,←,0.7043668001424521,True,16
A027M23,99,experiment,12,←,left,←,0.5983621999621391,True,16
A027M23,100,experiment,36,↓,left,←,0.4721859998535365,False,16
A027M23,101,experiment,156,↓,down,↓,0.6474199998192489,True,16
A027M23,102,experiment,108,←,left,←,0.559307900024578,True,16
A027M23,103,experiment,120,↓,down,↓,0.5321158000733703,True,16
A027M23,104,experiment,60,←,left,←,0.4401481000240892,True,16
A027M23,105,experiment,24,→,right,→,0.5192237999290228,True,16
A027M23,106,experiment,168,→,right,→,0.5528925000689924,True,16
A027M23,107,experiment,72,→,right,→,0.4766224001068622,True,16
A027M23,108,experiment,168,←,left,←,0.714739799965173,True,16
A027M23,109,experiment,156,↓,right,→,0.6980800000019372,False,16
A027M23,110,experiment,120,←,right,→,0.47523400001227856,False,16
A027M23,111,experiment,180,↑,up,↑,0.6800443001557142,True,16
A027M23,112,experiment,108,←,left,←,0.4873379999771714,True,16
A027M23,113,experiment,48,→,no_key,no_letter,-1.0,False,16
A027M23,114,experiment,96,→,left,←,0.5297711999155581,False,16
A027M23,115,experiment,24,↓,down,↓,0.756679099984467,True,16
A027M23,116,experiment,60,→,right,→,0.45649190014228225,True,16
A027M23,117,experiment,156,↑,left,←,0.4005734999664128,False,16
A027M23,118,experiment,132,←,right,→,0.5464975999202579,False,16
A027M23,119,experiment,84,→,right,→,0.839368499815464,True,16
A027M23,120,experiment,108,→,right,→,0.8530628001317382,True,16
A027M23,121,experiment,84,←,left,←,1.056662700138986,True,16
A027M23,122,experiment,12,←,down,↓,0.9436097999569029,False,16
A027M23,123,experiment,48,↓,down,↓,0.7118870001286268,True,16
A027M23,124,experiment,144,→,right,→,0.6294780999887735,True,16
A027M23,125,experiment,132,↓,down,↓,0.7264195000752807,True,16
A027M23,126,experiment,96,↓,down,↓,0.6894453999120742,True,16
A027M23,127,experiment,84,←,left,←,0.7008432999718934,True,16
A027M23,128,experiment,180,→,right,→,0.7690864000469446,True,16
A027M23,129,experiment,144,↓,down,↓,1.0943283999804407,True,16
A027M23,130,experiment,180,↓,down,↓,0.7841043998487294,True,16
A027M23,131,experiment,120,←,left,←,0.7817950998432934,True,16
A027M23,132,experiment,24,←,no_key,no_letter,-1.0,False,16
A027M23,133,experiment,132,↓,down,↓,0.7608257001265883,True,16
A027M23,134,experiment,12,↑,down,↓,0.8442883999086916,False,16
A027M23,135,experiment,168,↑,right,→,1.0710587999783456,False,16
A027M23,136,experiment,36,↓,down,↓,0.8786076998803765,True,16
A027M23,137,experiment,96,→,down,↓,1.0889687000308186,False,16
A027M23,138,experiment,36,→,right,→,0.7970052999444306,True,16
A027M23,139,experiment,72,←,left,←,0.6928335998672992,True,16
A027M23,140,experiment,72,↑,down,↓,0.8334205001592636,False,16
A027M23,141,experiment,48,→,down,↓,0.956454899860546,False,16
A027M23,142,experiment,132,↓,up,↑,0.9885405998211354,False,16
A027M23,143,experiment,72,←,up,↑,1.0929107998963445,False,16
A027M23,144,experiment,120,→,right,→,0.6508339000865817,True,16
A027M23,145,experiment,180,→,right,→,0.6389933000318706,True,16
A027M23,146,experiment,48,←,right,→,0.9377623999025673,False,16
A027M23,147,experiment,96,←,left,←,0.991274599917233,True,16
A027M23,148,experiment,60,↓,left,←,0.6728087000083178,False,16
A027M23,149,experiment,84,→,up,↑,0.9567215000279248,False,16
A027M23,150,experiment,168,←,right,→,0.7781963997986168,False,16
A027M23,151,experiment,12,↓,left,←,0.6036094999872148,False,16
A027M23,152,experiment,24,←,right,→,0.8171198000200093,False,16
A027M23,153,experiment,108,↓,left,←,0.6639847999904305,False,16
A027M23,154,experiment,156,↑,left,←,0.8060018999967724,False,16
A027M23,155,experiment,144,↑,left,←,0.6303440998308361,False,16
A027M23,156,experiment,36,↑,left,←,0.806101500056684,False,16
A027M23,157,training,12,←,left,←,0.5627270000986755,True,17
A027M23,158,training,168,←,left,←,0.6491469999309629,True,17
A027M23,159,training,84,↑,up,↑,0.6365241999737918,True,17
A027M23,160,experiment,108,↑,up,↑,0.8145369000267237,True,17
A027M23,161,experiment,48,↑,no_key,no_letter,-1.0,False,17
A027M23,162,experiment,72,←,right,→,0.8513237999286503,False,17
A027M23,163,experiment,96,↑,up,↑,0.7007299000397325,True,17
A027M23,164,experiment,36,↑,up,↑,0.5194535001646727,True,17
A027M23,165,experiment,12,↓,down,↓,0.8238070998340845,True,17
A027M23,166,experiment,156,↑,up,↑,0.65302349999547,True,17
A027M23,167,experiment,72,↓,up,↑,1.0253220999147743,False,17
A027M23,168,experiment,168,←,right,→,0.9802258999552578,False,17
A027M23,169,experiment,96,←,left,←,0.6263356001581997,True,17
A027M23,170,experiment,72,←,left,←,0.8791973998304456,True,17
A027M23,171,experiment,132,↓,down,↓,0.7425349000841379,True,17
A027M23,172,experiment,12,↑,left,←,0.8152149999514222,False,17
A027M23,173,experiment,60,↑,up,↑,0.6597440000623465,True,17
A027M23,174,experiment,96,↑,up,↑,0.6243636000435799,True,17
A027M23,175,experiment,96,←,left,←,0.6034660001751035,True,17
A027M23,176,experiment,84,↓,up,↑,0.890723500167951,False,17
A027M23,177,experiment,156,↓,down,↓,0.7927622999995947,True,17
A027M23,178,experiment,48,→,left,←,0.7647818999830633,False,17
A027M23,179,experiment,120,↑,up,↑,0.49267180007882416,True,17
A027M23,180,experiment,12,→,left,←,0.6539600999094546,False,17
A027M23,181,experiment,24,↓,up,↑,0.6470959999132901,False,17
A027M23,182,experiment,12,→,right,→,0.4886559001170099,True,17
A027M23,183,experiment,48,←,left,←,0.47098369989544153,True,17
A027M23,184,experiment,24,↑,left,←,0.836878800066188,False,17
A027M23,185,experiment,120,←,right,→,0.5655014000367373,False,17
A027M23,186,experiment,36,←,left,←,0.4004810999613255,True,17
A027M23,187,experiment,60,←,left,←,0.4171706000342965,True,17
A027M23,188,experiment,84,↑,right,→,0.8440679998602718,False,17
A027M23,189,experiment,132,↓,right,→,0.45982959982939065,False,17
A027M23,190,experiment,48,→,left,←,0.5224532999563962,False,17
A027M23,191,experiment,60,→,no_key,no_letter,-1.0,False,17
A027M23,192,experiment,168,↓,right,→,0.40022700000554323,False,17
A027M23,193,experiment,132,←,left,←,0.48799749999307096,True,17
A027M23,194,experiment,144,↑,no_key,no_letter,-1.0,False,17
A027M23,195,experiment,24,←,no_key,no_letter,-1.0,False,17
A027M23,196,experiment,144,↑,up,↑,0.5872712999116629,True,17
A027M23,197,experiment,60,↑,up,↑,0.7796495000366122,True,17
A027M23,198,experiment,156,↑,right,→,0.6687597997952253,False,17
A027M23,199,experiment,132,←,left,←,0.6531193999107927,True,17
A027M23,200,experiment,72,↓,right,→,0.9013648999389261,False,17
A027M23,201,experiment,168,→,right,→,0.8472230001352727,True,17
A027M23,202,experiment,84,→,left,←,1.0788354000542313,False,17
A027M23,203,experiment,36,↑,up,↑,1.1355447999667376,True,17
A027M23,204,experiment,144,↓,down,↓,0.7531985999085009,True,17
A027M23,205,experiment,120,↑,left,←,0.6067798999138176,False,17
A027M23,206,experiment,108,→,right,→,0.49213370005600154,True,17
A027M23,207,experiment,120,←,left,←,0.5979989999905229,True,17
A027M23,208,experiment,180,←,left,←,0.7981153998989612,True,17
A027M23,209,experiment,24,↑,left,←,0.9037311000283808,False,17
A027M23,210,experiment,144,↑,up,↑,0.5377348000183702,True,17
A027M23,211,experiment,180,←,left,←,0.6402851000893861,True,17
A027M23,212,experiment,168,→,right,→,0.5712903998792171,True,17
A027M23,213,experiment,84,↑,left,←,0.5875887000001967,False,17
A027M23,214,experiment,36,←,left,←,0.7713241998571903,True,17
A027M23,215,experiment,180,→,right,→,0.5529859000816941,True,17
A027M23,216,experiment,180,↑,right,→,0.5174853999633342,False,17
A027M23,217,experiment,108,↑,up,↑,0.6312498999759555,True,17
A027M23,218,experiment,108,→,left,←,0.47423469997011125,False,17
A027M23,219,experiment,156,↑,left,←,0.5199900998268276,False,17
A027M23,220,training,120,↓,right,→,0.5470869999844581,False,18
A027M23,221,training,168,↓,up,↑,0.785605699988082,False,18
A027M23,222,training,108,←,left,←,0.49007969978265464,True,18
A027M23,223,experiment,144,↓,down,↓,0.6351977998856455,True,18
A027M23,224,experiment,24,→,left,←,0.6583547000773251,False,18
A027M23,225,experiment,156,←,left,←,0.5488446999806911,True,18
A027M23,226,experiment,60,←,left,←,0.6021451000124216,True,18
A027M23,227,experiment,96,↓,down,↓,0.6525542000308633,True,18
A027M23,228,experiment,156,↑,down,↓,0.8511290000751615,False,18
A027M23,229,experiment,132,←,left,←,0.7113892999477684,True,18
A027M23,230,experiment,180,→,right,→,0.6547928999643773,True,18
A027M23,231,experiment,120,→,right,→,0.7132424998562783,True,18
A027M23,232,experiment,144,↑,up,↑,0.844693599967286,True,18
A027M23,233,experiment,180,←,left,←,0.9484204000327736,True,18
A027M23,234,experiment,168,←,left,←,0.8812706999015063,True,18
A027M23,235,experiment,60,↑,up,↑,0.7929642000235617,True,18
A027M23,236,experiment,144,←,left,←,0.7830803000833839,True,18
A027M23,237,experiment,12,←,left,←,0.8578669999260455,True,18
A027M23,238,experiment,96,↓,down,↓,0.880582100013271,True,18
A027M23,239,experiment,84,↑,up,↑,1.0276260999962687,True,18
A027M23,240,experiment,36,↓,down,↓,0.7765172000508755,True,18
A027M23,241,experiment,72,→,right,→,0.7199387999717146,True,18
A027M23,242,experiment,72,→,right,→,0.8013372998684645,True,18
A027M23,243,experiment,132,↑,up,↑,0.7468242000322789,True,18
A027M23,244,experiment,96,↓,down,↓,0.6270643998868763,True,18
A027M23,245,experiment,180,←,left,←,0.7957894999999553,True,18
A027M23,246,experiment,12,←,down,↓,0.929287200095132,False,18
A027M23,247,experiment,120,↑,up,↑,0.66893280018121,True,18
A027M23,248,experiment,36,←,left,←,0.835287099936977,True,18
A027M23,249,experiment,84,↓,down,↓,0.7411547999363393,True,18
A027M23,250,experiment,48,↑,down,↓,1.1487679998390377,False,18
A027M23,251,experiment,72,←,left,←,0.56516889994964,True,18
A027M23,252,experiment,168,→,right,→,0.6869083000347018,True,18
A027M23,253,experiment,60,→,right,→,0.7028270000591874,True,18
A027M23,254,experiment,108,↑,up,↑,0.7108211000449955,True,18
A027M23,255,experiment,36,↓,down,↓,0.7400767998769879,True,18
A027M23,256,experiment,156,↓,down,↓,0.8484893999993801,True,18
A027M23,257,experiment,168,→,right,→,0.7663060000631958,True,18
A027M23,258,experiment,120,↓,down,↓,0.6872366000898182,True,18
A027M23,259,experiment,24,→,right,→,0.7095437999814749,True,18
A027M23,260,experiment,36,↓,down,↓,0.7643079999834299,True,18
A027M23,261,experiment,12,↓,down,↓,0.9252036998514086,True,18
A027M23,262,experiment,156,→,right,→,0.6953965998254716,True,18
A027M23,263,experiment,72,←,left,←,0.6041534000542015,True,18
A027M23,264,experiment,12,↑,up,↑,0.7133442000485957,True,18
A027M23,265,experiment,96,→,right,→,0.6659713999833912,True,18
A027M23,266,experiment,84,↓,down,↓,0.7756531001068652,True,18
A027M23,267,experiment,24,↑,up,↑,1.1136996999848634,True,18
A027M23,268,experiment,60,←,left,←,0.6743604000657797,True,18
A027M23,269,experiment,48,←,left,←,0.615920800017193,True,18
A027M23,270,experiment,48,←,left,←,0.648799000075087,True,18
A027M23,271,experiment,48,↓,down,↓,0.7473604001570493,True,18
A027M23,272,experiment,144,↓,down,↓,0.7042793999426067,True,18
A027M23,273,experiment,132,↓,down,↓,0.6268503000028431,True,18
A027M23,274,experiment,180,↑,up,↑,0.9357165999244899,True,18
A027M23,275,experiment,168,→,right,→,0.5751251999754459,True,18
A027M23,276,experiment,84,←,left,←,0.7786524000111967,True,18
A027M23,277,experiment,108,←,left,←,0.7743289000354707,True,18
A027M23,278,experiment,108,↑,up,↑,0.7285245999228209,True,18
A027M23,279,experiment,24,↓,down,↓,0.6917805999983102,True,18
A027M23,280,experiment,108,←,left,←,0.5291901000309736,True,18
A027M23,281,experiment,132,←,left,←,0.5128236999735236,True,18
A027M23,282,experiment,120,↓,down,↓,0.5997074998449534,True,18
A027M23,283,training,24,↑,up,↑,0.6566684001591057,True,17
A027M23,284,training,36,←,left,←,0.4171611999627203,True,17
A027M23,285,training,60,↓,up,↑,0.6230797001626343,False,17
A027M23,286,experiment,72,↓,down,↓,0.635883399983868,True,17
A027M23,287,experiment,84,←,left,←,0.612582900095731,True,17
A027M23,288,experiment,48,↑,up,↑,0.4621480000205338,True,17
A027M23,289,experiment,12,→,right,→,0.4814514999743551,True,17
A027M23,290,experiment,156,↓,down,↓,0.7142584000248462,True,17
A027M23,291,experiment,120,↓,down,↓,0.7861190000548959,True,17
A027M23,292,experiment,84,↓,down,↓,0.7691510000731796,True,17
A027M23,293,experiment,144,→,right,→,0.7362449001520872,True,17
A027M23,294,experiment,24,←,left,←,0.5931770000606775,True,17
A027M23,295,experiment,12,↓,down,↓,1.020891800057143,True,17
A027M23,296,experiment,168,↑,up,↑,0.6637662001885474,True,17
A027M23,297,experiment,72,→,right,→,0.6530695001129061,True,17
A027M23,298,experiment,84,→,right,→,0.5214282001834363,True,17
A027M23,299,experiment,24,←,right,→,0.6534969999920577,False,17
A027M23,300,experiment,108,←,left,←,0.7349737999029458,True,17
A027M23,301,experiment,168,→,right,→,0.5400876998901367,True,17
A027M23,302,experiment,180,↓,down,↓,0.730110100004822,True,17
A027M23,303,experiment,84,↓,down,↓,0.6499830998945981,True,17
A027M23,304,experiment,72,↑,up,↑,0.7122231000103056,True,17
A027M23,305,experiment,60,↓,right,→,1.1798606000375003,False,17
A027M23,306,experiment,108,↑,up,↑,0.7693320999387652,True,17
A027M23,307,experiment,60,↓,down,↓,0.6001707001123577,True,17
A027M23,308,experiment,60,←,left,←,0.6066293998155743,True,17
A027M23,309,experiment,36,←,left,←,0.6073964999523014,True,17
A027M23,310,experiment,48,↓,down,↓,0.763309100177139,True,17
A027M23,311,experiment,144,↑,up,↑,0.8495338999200612,True,17
A027M23,312,experiment,48,↓,down,↓,0.6710959000047296,True,17
A027M23,313,experiment,108,↑,up,↑,0.6290571999270469,True,17
A027M23,314,experiment,168,←,left,←,0.5383623000234365,True,17
A027M23,315,experiment,72,←,left,←,0.4928919000085443,True,17
A027M23,316,experiment,24,←,left,←,0.3837914001196623,True,17
A027M23,317,experiment,144,↓,left,←,0.6724100999999791,False,17
A027M23,318,experiment,132,↑,up,↑,0.5380243000108749,True,17
A027M23,319,experiment,144,↑,up,↑,0.5090151999611408,True,17
A027M23,320,experiment,12,→,left,←,0.7580525001976639,False,17
A027M23,321,experiment,132,←,left,←,0.5525730999652296,True,17
A027M23,322,experiment,108,↓,down,↓,0.5941073999274522,True,17
A027M23,323,experiment,96,↓,down,↓,0.383772199973464,True,17
A027M23,324,experiment,60,→,left,←,0.5545024999883026,False,17
A027M23,325,experiment,36,←,right,→,0.5731217998545617,False,17
A027M23,326,experiment,156,↓,down,↓,0.5737860000226647,True,17
A027M23,327,experiment,120,↓,left,←,0.7729835999198258,False,17
A027M23,328,experiment,132,↓,down,↓,0.8940696001518518,True,17
A027M23,329,experiment,180,↓,down,↓,0.6312854997813702,True,17
A027M23,330,experiment,48,↓,down,↓,0.6726619999390095,True,17
A027M23,331,experiment,120,↓,down,↓,0.722619199892506,True,17
A027M23,332,experiment,132,←,left,←,0.7014417999889702,True,17
A027M23,333,experiment,180,←,left,←,1.2155846001114696,True,17
A027M23,334,experiment,36,→,right,→,0.6117402999661863,True,17
A027M23,335,experiment,12,←,left,←,0.40057580010034144,True,17
A027M23,336,experiment,120,←,left,←,0.46444229991175234,True,17
A027M23,337,experiment,168,↑,up,↑,0.7719943998381495,True,17
A027M23,338,experiment,24,↓,down,↓,0.8513565000612289,True,17
A027M23,339,experiment,156,↓,down,↓,0.680200699949637,True,17
A027M23,340,experiment,36,↓,left,←,0.8418336999602616,False,17
A027M23,341,experiment,180,↑,down,↓,0.7905900999903679,False,17
A027M23,342,experiment,96,↑,up,↑,0.6210388001054525,True,17
A027M23,343,experiment,156,←,left,←,0.5185441998764873,True,17
A027M23,344,experiment,96,↑,up,↑,0.5510388999246061,True,17
A027M23,345,experiment,96,→,right,→,0.6433087999466807,True,17
A027M23,346,training,96,↓,down,↓,0.5829513999633491,True,17
A027M23,347,training,72,↓,down,↓,0.47161979996599257,True,17
A027M23,348,training,60,←,no_key,no_letter,-1.0,False,17
A027M23,349,experiment,36,←,left,←,0.4547971000429243,True,17
A027M23,350,experiment,144,→,right,→,0.5337592998985201,True,17
A027M23,351,experiment,144,←,left,←,0.38382579991593957,True,17
A027M23,352,experiment,12,→,right,→,0.675416799960658,True,17
A027M23,353,experiment,48,↓,down,↓,0.5568242999725044,True,17
A027M23,354,experiment,12,↓,down,↓,0.6787889001425356,True,17
A027M23,355,experiment,72,←,left,←,0.6782911000773311,True,17
A027M23,356,experiment,180,↓,down,↓,0.7852309998124838,True,17
A027M23,357,experiment,24,↑,right,→,0.9506854000501335,False,17
A027M23,358,experiment,156,←,left,←,0.5166615999769419,True,17
A027M23,359,experiment,60,→,right,→,0.515746699878946,True,17
A027M23,360,experiment,156,↓,down,↓,0.5490462000016123,True,17
A027M23,361,experiment,144,←,right,→,0.7881366999354213,False,17
A027M23,362,experiment,168,←,right,→,0.7462287999223918,False,17
A027M23,363,experiment,132,←,left,←,0.7003405001014471,True,17
A027M23,364,experiment,168,↑,up,↑,0.47471199999563396,True,17
A027M23,365,experiment,156,↓,down,↓,0.767620500177145,True,17
A027M23,366,experiment,72,←,left,←,0.5707643001805991,True,17
A027M23,367,experiment,156,→,left,←,0.9315718000289053,False,17
A027M23,368,experiment,132,↑,up,↑,0.5812955000437796,True,17
A027M23,369,experiment,180,↓,down,↓,0.783684300025925,True,17
A027M23,370,experiment,84,←,left,←,0.7572949999012053,True,17
A027M23,371,experiment,36,↓,down,↓,0.5599217000417411,True,17
A027M23,372,experiment,108,←,left,←,0.5335806999355555,True,17
A027M23,373,experiment,144,←,left,←,0.6761727998964489,True,17
A027M23,374,experiment,84,↓,down,↓,0.5880219000391662,True,17
A027M23,375,experiment,96,←,left,←,0.7504088999703526,True,17
A027M23,376,experiment,84,←,right,→,0.7623203999828547,False,17
A027M23,377,experiment,180,↑,up,↑,0.7102274999488145,True,17
A027M23,378,experiment,108,↑,up,↑,0.5576996000017971,True,17
A027M23,379,experiment,108,→,left,←,0.5752191001083702,False,17
A027M23,380,experiment,168,→,left,←,0.5385658999439329,False,17
A027M23,381,experiment,12,←,left,←,0.8546625999733806,True,17
A027M23,382,experiment,36,→,left,←,0.6852909000590444,False,17
A027M23,383,experiment,24,→,right,→,0.5565973999910057,True,17
A027M23,384,experiment,60,↓,left,←,0.3671096998732537,False,17
A027M23,385,experiment,24,↑,left,←,0.5740920000243932,False,17
A027M23,386,experiment,60,←,no_key,no_letter,-1.0,False,17
A027M23,387,experiment,120,←,left,←,0.5462075998075306,True,17
A027M23,388,experiment,132,←,left,←,0.3838010001927614,True,17
A027M23,389,experiment,168,↑,up,↑,0.7250020001083612,True,17
A027M23,390,experiment,60,↑,up,↑,0.5092102000489831,True,17
A027M23,391,experiment,180,↑,up,↑,1.028041899902746,True,17
A027M23,392,experiment,84,↓,up,↑,0.5457791001535952,False,17
A027M23,393,experiment,72,→,right,→,0.6758423999417573,True,17
A027M23,394,experiment,12,→,right,→,0.8226731000468135,True,17
A027M23,395,experiment,96,←,left,←,0.5176060998346657,True,17
A027M23,396,experiment,24,←,no_key,no_letter,-1.0,False,17
A027M23,397,experiment,120,↓,right,→,0.6176873999647796,False,17
A027M23,398,experiment,36,←,left,←,0.5877629998140037,True,17
A027M23,399,experiment,132,↑,up,↑,0.6203246999066323,True,17
A027M23,400,experiment,108,←,left,←,0.595772200031206,True,17
A027M23,401,experiment,72,↑,up,↑,0.770099800080061,True,17
A027M23,402,experiment,48,↓,down,↓,0.7477056998759508,True,17
A027M23,403,experiment,120,↑,up,↑,0.6533961000386626,True,17
A027M23,404,experiment,96,↓,down,↓,0.5788275999948382,True,17
A027M23,405,experiment,96,↓,right,→,0.8495718000922352,False,17
A027M23,406,experiment,120,↓,down,↓,0.8601207998581231,True,17
A027M23,407,experiment,48,↓,down,↓,0.8412984998431057,True,17
A027M23,408,experiment,48,→,right,→,0.5796471000649035,True,17
A027M23,409,training,168,↓,down,↓,0.7586117000319064,True,17
A027M23,410,training,12,↑,up,↑,0.9266977000515908,True,17
A027M23,411,training,180,↑,up,↑,0.7499504000879824,True,17
A027M23,412,experiment,168,↑,up,↑,0.5537097998894751,True,17
A027M23,413,experiment,132,→,right,→,0.5851094999816269,True,17
A027M23,414,experiment,180,←,left,←,0.7096897999290377,True,17
A027M23,415,experiment,60,↑,up,↑,0.5413462000433356,True,17
A027M23,416,experiment,24,→,right,→,0.7196474000811577,True,17
A027M23,417,experiment,72,↓,down,↓,0.6268814001232386,True,17
A027M23,418,experiment,180,→,right,→,0.8342518000863492,True,17
A027M23,419,experiment,108,←,left,←,0.598164799856022,True,17
A027M23,420,experiment,72,↓,down,↓,0.6786752000916749,True,17
A027M23,421,experiment,168,↓,down,↓,0.7276689000427723,True,17
A027M23,422,experiment,144,→,right,→,0.5022523000370711,True,17
A027M23,423,experiment,120,←,left,←,0.5665250001475215,True,17
A027M23,424,experiment,60,←,left,←,0.48414089996367693,True,17
A027M23,425,experiment,48,→,right,→,0.8274606999475509,True,17
A027M23,426,experiment,108,←,left,←,0.6027808000799268,True,17
A027M23,427,experiment,108,→,right,→,0.6369815999642015,True,17
A027M23,428,experiment,12,→,right,→,0.4991177001502365,True,17
A027M23,429,experiment,84,↓,up,↑,0.6897619999945164,False,17
A027M23,430,experiment,60,↑,up,↑,0.5187320001423359,True,17
A027M23,431,experiment,180,↓,down,↓,0.660605400102213,True,17
A027M23,432,experiment,144,↓,down,↓,0.8513570998329669,True,17
A027M23,433,experiment,96,←,left,←,0.670646000187844,True,17
A027M23,434,experiment,36,←,left,←,0.6390748000703752,True,17
A027M23,435,experiment,168,↓,down,↓,0.7478485000319779,True,17
A027M23,436,experiment,156,↑,up,↑,0.5278801000677049,True,17
A027M23,437,experiment,144,←,left,←,0.6214871001429856,True,17
A027M23,438,experiment,132,←,left,←,0.5099022001959383,True,17
A027M23,439,experiment,72,→,right,→,0.5466543999500573,True,17
A027M23,440,experiment,48,→,no_key,no_letter,-1.0,False,17
A027M23,441,experiment,108,↑,right,→,1.144934399984777,False,17
A027M23,442,experiment,144,←,left,←,0.5456298999488354,True,17
A027M23,443,experiment,84,↓,down,↓,0.7352359001524746,True,17
A027M23,444,experiment,60,↑,no_key,no_letter,-1.0,False,17
A027M23,445,experiment,132,→,no_key,no_letter,-1.0,False,17
A027M23,446,experiment,180,↑,no_key,no_letter,-1.0,False,17
A027M23,447,experiment,96,↓,no_key,no_letter,-1.0,False,17
A027M23,448,experiment,156,↑,no_key,no_letter,-1.0,False,17
A027M23,449,experiment,12,↑,no_key,no_letter,-1.0,False,17
A027M23,450,experiment,24,↑,no_key,no_letter,-1.0,False,17
A027M23,451,experiment,132,→,no_key,no_letter,-1.0,False,17
A027M23,452,experiment,24,↓,no_key,no_letter,-1.0,False,17
A027M23,453,experiment,120,←,no_key,no_letter,-1.0,False,17
A027M23,454,experiment,36,←,no_key,no_letter,-1.0,False,17
A027M23,455,experiment,36,←,no_key,no_letter,-1.0,False,17
A027M23,456,experiment,48,←,no_key,no_letter,-1.0,False,17
A027M23,457,experiment,12,→,no_key,no_letter,-1.0,False,17
A027M23,458,experiment,156,→,no_key,no_letter,-1.0,False,17
A027M23,459,experiment,84,←,no_key,no_letter,-1.0,False,17
A027M23,460,experiment,96,←,no_key,no_letter,-1.0,False,17
A027M23,461,experiment,12,↑,no_key,no_letter,-1.0,False,17
A027M23,462,experiment,48,←,no_key,no_letter,-1.0,False,17
A027M23,463,experiment,24,←,no_key,no_letter,-1.0,False,17
A027M23,464,experiment,72,←,no_key,no_letter,-1.0,False,17
A027M23,465,experiment,120,↓,no_key,no_letter,-1.0,False,17
A027M23,466,experiment,168,→,no_key,no_letter,-1.0,False,17
A027M23,467,experiment,36,↑,no_key,no_letter,-1.0,False,17
A027M23,468,experiment,156,→,no_key,no_letter,-1.0,False,17
A027M23,469,experiment,84,↓,no_key,no_letter,-1.0,False,17
A027M23,470,experiment,120,←,no_key,no_letter,-1.0,False,17
A027M23,471,experiment,96,←,no_key,no_letter,-1.0,False,17
A027M23,472,training,60,↑,left,←,0.5008672000840306,False,18
A027M23,473,training,168,→,right,→,0.642649200046435,True,18
A027M23,474,training,48,←,left,←,0.38375780009664595,True,18
A027M23,475,experiment,108,↓,down,↓,0.5793380001559854,True,18
A027M23,476,experiment,168,→,no_key,no_letter,-1.0,False,18
A027M23,477,experiment,84,↓,down,↓,0.5901951000560075,True,18
A027M23,478,experiment,96,→,right,→,0.5107607999816537,True,18
A027M23,479,experiment,12,↓,down,↓,0.49300980009138584,True,18
A027M23,480,experiment,48,←,no_key,no_letter,-1.0,False,18
A027M23,481,experiment,120,←,right,→,0.5796386001165956,False,18
A027M23,482,experiment,132,←,left,←,0.6386211002245545,True,18
A027M23,483,experiment,120,←,left,←,0.7738777999766171,True,18
A027M23,484,experiment,156,→,right,→,0.5745131000876427,True,18
A027M23,485,experiment,72,→,left,←,0.5365293000359088,False,18
A027M23,486,experiment,156,↓,down,↓,0.5471362001262605,True,18
A027M23,487,experiment,36,↑,right,→,0.6568535999394953,False,18
A027M23,488,experiment,60,↓,down,↓,0.6768998999614269,True,18
A027M23,489,experiment,48,↑,up,↑,0.5666171999182552,True,18
A027M23,490,experiment,12,←,left,←,0.6600386002101004,True,18
A027M23,491,experiment,132,↓,down,↓,0.738354800036177,True,18
A027M23,492,experiment,120,↑,up,↑,0.5339237998705357,True,18
A027M23,493,experiment,132,←,left,←,0.4004826999735087,True,18
A027M23,494,experiment,24,↓,down,↓,0.7796696999575943,True,18
A027M23,495,experiment,180,→,right,→,0.4811971001327038,True,18
A027M23,496,experiment,24,←,no_key,no_letter,-1.0,False,18
A027M23,497,experiment,24,←,left,←,0.5229067001491785,True,18
A027M23,498,experiment,168,↓,down,↓,0.5352270000148565,True,18
A027M23,499,experiment,72,↓,down,↓,0.8911093999631703,True,18
A027M23,500,experiment,72,↓,down,↓,0.5328151998110116,True,18
A027M23,501,experiment,156,←,left,←,0.5649447999894619,True,18
A027M23,502,experiment,24,←,left,←,0.6502830998506397,True,18
A027M23,503,experiment,168,←,left,←,0.5728587000630796,True,18
A027M23,504,experiment,84,←,left,←,0.5893615998793393,True,18
A027M23,505,experiment,96,←,left,←,0.5717640998773277,True,18
A027M23,506,experiment,108,↑,up,↑,0.648827200056985,True,18
A027M23,507,experiment,144,↑,up,↑,0.47966740000993013,True,18
A027M23,508,experiment,12,↑,up,↑,0.48415350005961955,True,18
A027M23,509,experiment,36,←,left,←,0.41716090007685125,True,18
A027M23,510,experiment,168,↑,no_key,no_letter,-1.0,False,18
A027M23,511,experiment,108,↑,no_key,no_letter,-1.0,False,18
A027M23,512,experiment,132,→,right,→,0.6438970998860896,True,18
A027M23,513,experiment,120,↓,down,↓,0.790268899872899,True,18
A027M23,514,experiment,108,←,left,←,0.48524020006880164,True,18
A027M23,515,experiment,48,↑,up,↑,0.4782495000399649,True,18
A027M23,516,experiment,60,↑,up,↑,0.6384846000000834,True,18
A027M23,517,experiment,96,↑,up,↑,0.8664375999942422,True,18
A027M23,518,experiment,60,→,no_key,no_letter,-1.0,False,18
A027M23,519,experiment,36,↓,down,↓,0.5774139999412,True,18
A027M23,520,experiment,180,↓,down,↓,0.641687200171873,True,18
A027M23,521,experiment,84,←,left,←,0.6058084000833333,True,18
A027M23,522,experiment,180,←,left,←,0.4912048999685794,True,18
A027M23,523,experiment,84,→,right,→,0.49285209993831813,True,18
A027M23,524,experiment,180,→,left,←,0.7255624998360872,False,18
A027M23,525,experiment,156,↑,up,↑,0.5041950999293476,True,18
A027M23,526,experiment,96,→,left,←,0.5723506999202073,False,18
A027M23,527,experiment,144,↑,up,↑,0.651372899999842,True,18
A027M23,528,experiment,48,←,left,←,0.41709710005670786,True,18
A027M23,529,experiment,72,→,right,→,0.6142123998142779,True,18
A027M23,530,experiment,36,←,no_key,no_letter,-1.0,False,18
A027M23,531,experiment,60,←,left,←,0.6691340999677777,True,18
A027M23,532,experiment,12,←,left,←,0.7472977000288665,True,18
A027M23,533,experiment,144,↓,down,↓,0.8285712001379579,True,18
A027M23,534,experiment,144,↓,down,↓,0.5994484000839293,True,18
A027M23,535,training,24,→,right,→,0.5016834998968989,True,18
A027M23,536,training,36,→,right,→,0.41711700009182096,True,18
A027M23,537,training,132,↓,down,↓,0.49032459990121424,True,18
A027M23,538,experiment,180,→,right,→,0.4335489000659436,True,18
A027M23,539,experiment,24,↓,no_key,no_letter,-1.0,False,18
A027M23,540,experiment,48,←,right,→,0.6818574999924749,False,18
A027M23,541,experiment,108,←,left,←,0.6442784001119435,True,18
A027M23,542,experiment,12,→,right,→,0.7420145000796765,True,18
A027M23,543,experiment,12,←,left,←,0.5170788001269102,True,18
A027M23,544,experiment,144,←,left,←,0.5524361000861973,True,18
A027M23,545,experiment,84,↓,down,↓,0.5142904999665916,True,18
A027M23,546,experiment,96,←,no_key,no_letter,-1.0,False,18
A027M23,547,experiment,60,←,left,←,0.6532143999356776,True,18
A027M23,548,experiment,156,←,right,→,0.7306170000229031,False,18
A027M23,549,experiment,132,↓,down,↓,0.6867388999089599,True,18
A027M23,550,experiment,156,↑,no_key,no_letter,-1.0,False,18
A027M23,551,experiment,96,↓,down,↓,0.5379294001031667,True,18
A027M23,552,experiment,144,←,left,←,0.5650651000905782,True,18
A027M23,553,experiment,72,→,right,→,0.4339083000086248,True,18
A027M23,554,experiment,60,→,right,→,0.40050719981081784,True,18
A027M23,555,experiment,168,←,left,←,0.5846446000505239,True,18
A027M23,556,experiment,144,→,right,→,0.6241510999388993,True,18
A027M23,557,experiment,168,←,left,←,0.6064333999529481,True,18
A027M23,558,experiment,72,↑,up,↑,0.5284593000542372,True,18
A027M23,559,experiment,84,←,left,←,0.4921734998933971,True,18
A027M23,560,experiment,12,←,left,←,0.5447088999208063,True,18
A027M23,561,experiment,48,↑,up,↑,0.7020612000487745,True,18
A027M23,562,experiment,108,←,left,←,0.5480438000522554,True,18
A027M23,563,experiment,120,↑,up,↑,0.729748799931258,True,18
A027M23,564,experiment,24,←,no_key,no_letter,-1.0,False,18
A027M23,565,experiment,84,→,right,→,0.6403327998705208,True,18
A027M23,566,experiment,24,↓,down,↓,0.9485910998191684,True,18
A027M23,567,experiment,144,←,left,←,0.5175097999162972,True,18
A027M23,568,experiment,72,←,no_key,no_letter,-1.0,False,18
A027M23,569,experiment,12,←,right,→,0.4894918999634683,False,18
A027M23,570,experiment,108,→,right,→,0.652057999977842,True,18
A027M23,571,experiment,156,↓,down,↓,0.7494894000701606,True,18
A027M23,572,experiment,120,→,right,→,0.5797983000520617,True,18
A027M23,573,experiment,48,↓,down,↓,0.6778273000381887,True,18
A027M23,574,experiment,84,↓,down,↓,0.587535799946636,True,18
A027M23,575,experiment,120,←,left,←,0.8558042999356985,True,18
A027M23,576,experiment,156,↑,up,↑,0.6698119998909533,True,18
A027M23,577,experiment,48,→,right,→,0.47567999991588295,True,18
A027M23,578,experiment,60,←,no_key,no_letter,-1.0,False,18
A027M23,579,experiment,120,↑,no_key,no_letter,-1.0,False,18
A027M23,580,experiment,168,↓,down,↓,0.6247959001921117,True,18
A027M23,581,experiment,108,↓,down,↓,0.8390117001254112,True,18
A027M23,582,experiment,180,→,right,→,0.6437941000331193,True,18
A027M23,583,experiment,72,→,right,→,0.5366449002176523,True,18
A027M23,584,experiment,36,↑,up,↑,0.7564648000989109,True,18
A027M23,585,experiment,96,→,right,→,0.5287505998276174,True,18
A027M23,586,experiment,180,←,left,←,0.5616229998413473,True,18
A027M23,587,experiment,132,↑,up,↑,0.636162200011313,True,18
A027M23,588,experiment,132,↓,down,↓,0.7227960000745952,True,18
A027M23,589,experiment,24,↑,up,↑,1.0830183001235127,True,18
A027M23,590,experiment,36,←,right,→,0.9154795999638736,False,18
A027M23,591,experiment,60,↑,up,↑,0.7188804000616074,True,18
A027M23,592,experiment,36,←,left,←,0.5672590001486242,True,18
A027M23,593,experiment,36,←,left,←,0.48668189998716116,True,18
A027M23,594,experiment,132,↑,up,↑,0.5211874002125114,True,18
A027M23,595,experiment,168,→,right,→,0.5374157000333071,True,18
A027M23,596,experiment,96,←,left,←,0.6824316999409348,True,18
A027M23,597,experiment,180,↑,up,↑,0.4783474998548627,True,18
A027M23,598,training,108,↓,up,↑,0.6720559999812394,False,18
A027M23,599,training,132,↑,up,↑,0.920917000155896,True,18
A027M23,600,training,156,←,left,←,0.4697279001120478,True,18
A027M23,601,experiment,120,↑,up,↑,0.41730830003507435,True,18
A027M23,602,experiment,108,↓,down,↓,0.5973439000081271,True,18
A027M23,603,experiment,60,↓,down,↓,0.7657719999551773,True,18
A027M23,604,experiment,132,↓,down,↓,0.5174118001013994,True,18
A027M23,605,experiment,72,←,left,←,0.4337422999087721,True,18
A027M23,606,experiment,84,↑,up,↑,0.7921704999171197,True,18
A027M23,607,experiment,180,↑,up,↑,0.674095300026238,True,18
A027M23,608,experiment,180,↓,down,↓,0.7201980999670923,True,18
A027M23,609,experiment,168,→,right,→,0.6181886000558734,True,18
A027M23,610,experiment,60,←,left,←,0.6375204999931157,True,18
A027M23,611,experiment,180,←,left,←,0.6391176998149604,True,18
A027M23,612,experiment,168,↑,up,↑,0.5755994999781251,True,18
A027M23,613,experiment,156,←,left,←,0.5349661000072956,True,18
A027M23,614,experiment,48,↑,left,←,0.7564056999981403,False,18
A027M23,615,experiment,84,↓,down,↓,0.7720117999706417,True,18
A027M23,616,experiment,60,↑,up,↑,0.7312272998970002,True,18
A027M23,617,experiment,168,→,right,→,0.7989922999404371,True,18
A027M23,618,experiment,156,→,right,→,0.736862399848178,True,18
A027M23,619,experiment,72,↑,up,↑,0.7578407998662442,True,18
A027M23,620,experiment,12,→,right,→,0.8481713000219315,True,18
A027M23,621,experiment,108,←,left,←,0.7479876999277622,True,18
A027M23,622,experiment,144,↑,up,↑,0.5209133999887854,True,18
A027M23,623,experiment,48,↓,down,↓,0.7002727000508457,True,18
A027M23,624,experiment,132,↑,up,↑,0.605396999977529,True,18
A027M23,625,experiment,156,↑,up,↑,0.8490680998656899,True,18
A027M23,626,experiment,180,←,left,←,0.6059158002026379,True,18
A027M23,627,experiment,108,→,right,→,0.5056692999787629,True,18
A027M23,628,experiment,72,←,left,←,0.49652180005796254,True,18
A027M23,629,experiment,48,↓,down,↓,0.558188599999994,True,18
A027M23,630,experiment,36,→,right,→,0.6812279999721795,True,18
A027M23,631,experiment,96,→,right,→,0.7218296001665294,True,18
A027M23,632,experiment,132,↓,down,↓,0.6496663999278098,True,18
A027M23,633,experiment,12,→,right,→,0.7162738000042737,True,18
A027M23,634,experiment,24,↓,down,↓,0.864730300148949,True,18
A027M23,635,experiment,156,←,left,←,0.7196967999916524,True,18
A027M23,636,experiment,144,←,left,←,0.9221644999925047,True,18
A027M23,637,experiment,144,→,right,→,0.7646151999942958,True,18
A027M23,638,experiment,84,→,right,→,0.5347660998813808,True,18
A027M23,639,experiment,168,↑,up,↑,0.7429577000439167,True,18
A027M23,640,experiment,144,↑,up,↑,0.8969831999856979,True,18
A027M23,641,experiment,84,↑,up,↑,0.7234867999795824,True,18
A027M23,642,experiment,12,↑,up,↑,0.8169726999476552,True,18
A027M23,643,experiment,132,↑,up,↑,0.7662404999136925,True,18
A027M23,644,experiment,12,←,left,←,0.5100147998891771,True,18
A027M23,645,experiment,24,→,no_key,no_letter,-1.0,False,18
A027M23,646,experiment,48,↓,down,↓,0.8186999000608921,True,18
A027M23,647,experiment,96,→,right,→,0.6700973999686539,True,18
A027M23,648,experiment,120,→,right,→,0.6292209001258016,True,18
A027M23,649,experiment,72,↓,down,↓,0.8690580001566559,True,18
A027M23,650,experiment,24,←,left,←,0.7164622999262065,True,18
A027M23,651,experiment,96,↓,down,↓,0.8452192998956889,True,18
A027M23,652,experiment,120,↓,down,↓,0.6968417000025511,True,18
A027M23,653,experiment,96,←,left,←,0.5858138001058251,True,18
A027M23,654,experiment,60,→,right,→,0.7173226999584585,True,18
A027M23,655,experiment,36,→,left,←,1.0597804000135511,False,18
A027M23,656,experiment,24,↑,up,↑,0.798618600005284,True,18
A027M23,657,experiment,108,↓,down,↓,0.5064266000408679,True,18
A027M23,658,experiment,36,↑,up,↑,0.49368249997496605,True,18
A027M23,659,experiment,36,←,left,←,0.433702299837023,True,18
A027M23,660,experiment,120,→,left,←,0.7047729999758303,False,18
A027M23,661,training,48,↓,down,↓,0.565077300183475,True,17
A027M23,662,training,120,↓,down,↓,0.4172398999799043,True,17
A027M23,663,training,72,↑,no_key,no_letter,-1.0,False,17
A027M23,664,experiment,144,↑,up,↑,0.6112714000046253,True,17
A027M23,665,experiment,84,↑,up,↑,0.6278803001623601,True,17
A027M23,666,experiment,180,←,left,←,0.5809944998472929,True,17
A027M23,667,experiment,36,→,no_key,no_letter,-1.0,False,17
A027M23,668,experiment,96,↑,no_key,no_letter,-1.0,False,17
A027M23,669,experiment,120,↑,right,→,0.5495031999889761,False,17
A027M23,670,experiment,132,↑,up,↑,0.5971562000922859,True,17
A027M23,671,experiment,36,→,up,↑,0.6346658000256866,False,17
A027M23,672,experiment,168,←,left,←,0.5703298998996615,True,17
A027M23,673,experiment,132,↑,right,→,0.964291000040248,False,17
A027M23,674,experiment,144,↑,up,↑,0.8276942998636514,True,17
A027M23,675,experiment,120,←,no_key,no_letter,-1.0,False,17
A027M23,676,experiment,108,←,left,←,0.4171025000978261,True,17
A027M23,677,experiment,60,↓,no_key,no_letter,-1.0,False,17
A027M23,678,experiment,48,→,right,→,0.7048983001150191,True,17
A027M23,679,experiment,144,↓,left,←,0.3671673000790179,False,17
A027M23,680,experiment,168,←,left,←,0.4937346000224352,True,17
A027M23,681,experiment,84,↑,up,↑,0.8559990001376718,True,17
A027M23,682,experiment,180,↓,down,↓,0.5110981999896467,True,17
A027M23,683,experiment,120,→,no_key,no_letter,-1.0,False,17
A027M23,684,experiment,108,→,right,→,0.4173620999790728,True,17
A027M23,685,experiment,24,←,left,←,0.4813890000805259,True,17
A027M23,686,experiment,108,↑,up,↑,0.7052119001746178,True,17
A027M23,687,experiment,24,←,left,←,0.46095349988900125,True,17
A027M23,688,experiment,12,↓,down,↓,0.7370716000441462,True,17
A027M23,689,experiment,132,↓,down,↓,0.7302124998532236,True,17
A027M23,690,experiment,132,↓,down,↓,0.7784460000693798,True,17
A027M23,691,experiment,60,←,left,←,0.713692800141871,True,17
A027M23,692,experiment,144,→,right,→,0.7776874999981374,True,17
A027M23,693,experiment,84,→,right,→,0.5177096999250352,True,17
A027M23,694,experiment,72,←,right,→,0.742581200087443,False,17
A027M23,695,experiment,72,→,no_key,no_letter,-1.0,False,17
A027M23,696,experiment,180,↓,down,↓,0.7755706999450922,True,17
A027M23,697,experiment,60,↑,down,↓,0.6783894998952746,False,17
A027M23,698,experiment,96,↑,up,↑,0.4813089999370277,True,17
A027M23,699,experiment,24,→,right,→,0.6096552000381052,True,17
A027M23,700,experiment,72,→,right,→,0.5167911001481116,True,17
A027M23,701,experiment,12,↓,down,↓,0.7371918000280857,True,17
A027M23,702,experiment,12,↓,down,↓,0.47502270014956594,True,17
A027M23,703,experiment,48,←,left,←,0.6763484000694007,True,17
A027M23,704,experiment,48,→,right,→,0.49196220003068447,True,17
A027M23,705,experiment,180,↑,up,↑,0.5063952999189496,True,17
A027M23,706,experiment,156,↑,up,↑,0.612645799992606,True,17
A027M23,707,experiment,36,→,right,→,0.5479925000108778,True,17
A027M23,708,experiment,156,↑,up,↑,0.7852252000011504,True,17
A027M23,709,experiment,60,→,right,→,0.5342360998038203,True,17
A027M23,710,experiment,108,↓,down,↓,0.798800699878484,True,17
A027M23,711,experiment,72,↑,up,↑,0.483558899955824,True,17
A027M23,712,experiment,120,↑,up,↑,0.7734326000791043,True,17
A027M23,713,experiment,168,←,left,←,0.5731162999290973,True,17
A027M23,714,experiment,96,↑,right,→,0.6985167001839727,False,17
A027M23,715,experiment,36,↓,up,↑,0.745183699997142,False,17
A027M23,716,experiment,156,↓,down,↓,0.6820942000485957,True,17
A027M23,717,experiment,24,↓,down,↓,0.500791999977082,True,17
A027M23,718,experiment,96,←,left,←,0.5775045999325812,True,17
A027M23,719,experiment,156,↑,down,↓,0.8743286000099033,False,17
A027M23,720,experiment,84,←,no_key,no_letter,-1.0,False,17
A027M23,721,experiment,168,↓,down,↓,0.5793296999763697,True,17
A027M23,722,experiment,12,↑,up,↑,0.624261099845171,True,17
A027M23,723,experiment,48,←,left,←,0.5915266999509186,True,17
A027M23,724,training,108,↑,left,←,0.6651731999590993,False,17
A027M23,725,training,84,→,no_key,no_letter,-1.0,False,17
A027M23,726,training,60,→,right,→,0.5950517000164837,True,17
A027M23,727,experiment,12,↓,right,→,0.6688623002264649,False,17
A027M23,728,experiment,144,→,right,→,0.4804158001206815,True,17
A027M23,729,experiment,36,←,left,←,0.7094166001770645,True,17
A027M23,730,experiment,72,↑,up,↑,0.47514029988087714,True,17
A027M23,731,experiment,84,↑,up,↑,0.6517483999487013,True,17
A027M23,732,experiment,60,↑,up,↑,0.5859064999967813,True,17
A027M23,733,experiment,84,↓,down,↓,0.6072812001220882,True,17
A027M23,734,experiment,132,↓,down,↓,0.5062525998800993,True,17
A027M23,735,experiment,24,↓,down,↓,0.9587826998904347,True,17
A027M23,736,experiment,96,←,left,←,0.5089332999195904,True,17
A027M23,737,experiment,132,↓,down,↓,0.6929297000169754,True,17
A027M23,738,experiment,168,↓,down,↓,0.7086827999446541,True,17
A027M23,739,experiment,60,←,left,←,0.6126608001068234,True,17
A027M23,740,experiment,84,↓,down,↓,0.682073200121522,True,17
A027M23,741,experiment,156,↓,left,←,0.6586929000914097,False,17
A027M23,742,experiment,120,←,left,←,0.4741717001888901,True,17
A027M23,743,experiment,24,↓,down,↓,0.8051790001336485,True,17
A027M23,744,experiment,108,→,right,→,0.5442379999440163,True,17
A027M23,745,experiment,180,←,left,←,0.5818874998949468,True,17
A027M23,746,experiment,12,↑,up,↑,0.6801103998441249,True,17
A027M23,747,experiment,132,↑,up,↑,0.4172163000330329,True,17
A027M23,748,experiment,24,↓,down,↓,0.8470568000338972,True,17
A027M23,749,experiment,120,→,right,→,0.45764519996009767,True,17
A027M23,750,experiment,48,↑,down,↓,0.9668880999088287,False,17
A027M23,751,experiment,48,→,right,→,0.6900627999566495,True,17
A027M23,752,experiment,36,↑,up,↑,0.5290372997988015,True,17
A027M23,753,experiment,72,↑,up,↑,0.9157622000202537,True,17
A027M23,754,experiment,120,↑,up,↑,0.9267714000307024,True,17
A027M23,755,experiment,180,←,left,←,0.6168510999996215,True,17
A027M23,756,experiment,96,↓,down,↓,0.5838415999896824,True,17
A027M23,757,experiment,96,←,left,←,0.6131102000363171,True,17
A027M23,758,experiment,84,↓,down,↓,0.7585974999237806,True,17
A027M23,759,experiment,108,←,left,←,0.5054570001084358,True,17
A027M23,760,experiment,144,↓,down,↓,0.7621077999938279,True,17
A027M23,761,experiment,48,↓,down,↓,0.8344105000142008,True,17
A027M23,762,experiment,60,↑,down,↓,0.8163502998650074,False,17
A027M23,763,experiment,96,↓,down,↓,0.8022140001412481,True,17
A027M23,764,experiment,168,↓,down,↓,0.7247222000733018,True,17
A027M23,765,experiment,36,→,right,→,0.7507044000085443,True,17
A027M23,766,experiment,144,↓,down,↓,0.8886812999844551,True,17
A027M23,767,experiment,108,←,left,←,0.6661177999339998,True,17
A027M23,768,experiment,72,↑,down,↓,0.745723000029102,False,17
A027M23,769,experiment,168,←,left,←,0.4830275001004338,True,17
A027M23,770,experiment,156,↑,up,↑,0.5323555001523346,True,17
A027M23,771,experiment,12,↓,down,↓,0.794256699969992,True,17
A027M23,772,experiment,72,↓,down,↓,0.4831592000555247,True,17
A027M23,773,experiment,168,↓,up,↑,0.7873152000829577,False,17
A027M23,774,experiment,24,←,left,←,0.6250473000109196,True,17
A027M23,775,experiment,120,←,left,←,0.4004009000491351,True,17
A027M23,776,experiment,156,↑,no_key,no_letter,-1.0,False,17
A027M23,777,experiment,60,→,right,→,0.45160980010405183,True,17
A027M23,778,experiment,36,↑,no_key,no_letter,-1.0,False,17
A027M23,779,experiment,144,←,right,→,0.518166699912399,False,17
A027M23,780,experiment,12,↑,up,↑,0.6467319000512362,True,17
A027M23,781,experiment,156,←,right,→,0.9144892001058906,False,17
A027M23,782,experiment,48,←,left,←,0.48822780000045896,True,17
A027M23,783,experiment,180,←,left,←,0.5337400001008064,True,17
A027M23,784,experiment,180,→,right,→,0.48939760006032884,True,17
A027M23,785,experiment,108,↓,up,↑,0.8592147000599653,False,17
A027M23,786,experiment,132,→,right,→,0.6716144001111388,True,17
A027M23,787,training,48,↑,up,↑,0.4994759000837803,True,17
A027M23,788,training,132,↓,down,↓,0.6706137999426574,True,17
A027M23,789,training,108,←,no_key,no_letter,-1.0,False,17
A027M23,790,experiment,168,↓,down,↓,0.5335811001714319,True,17
A027M23,791,experiment,84,→,no_key,no_letter,-1.0,False,17
A027M23,792,experiment,24,→,no_key,no_letter,-1.0,False,17
A027M23,793,experiment,60,←,left,←,0.46971599990502,True,17
A027M23,794,experiment,180,↓,down,↓,0.628951600054279,True,17
A027M23,795,experiment,60,→,left,←,0.6133028999902308,False,17
A027M23,796,experiment,36,↑,left,←,0.5017623000312597,False,17
A027M23,797,experiment,180,↓,down,↓,0.5854318998754025,True,17
A027M23,798,experiment,168,↑,up,↑,0.46916149999015033,True,17
A027M23,799,experiment,108,→,right,→,0.6766306001227349,True,17
A027M23,800,experiment,120,↓,down,↓,0.7375192998442799,True,17
A027M23,801,experiment,84,←,left,←,0.49017719994299114,True,17
A027M23,802,experiment,96,↓,down,↓,0.6799237998202443,True,17
A027M23,803,experiment,24,↑,up,↑,0.5091868001036346,True,17
A027M23,804,experiment,132,↓,down,↓,0.5313997999764979,True,17
A027M23,805,experiment,144,←,left,←,0.593400000128895,True,17
A027M23,806,experiment,156,→,right,→,0.5135854999534786,True,17
A027M23,807,experiment,180,↓,down,↓,0.4170119999907911,True,17
A027M23,808,experiment,36,↑,left,←,0.8664506000932306,False,17
A027M23,809,experiment,12,→,left,←,0.6191777000203729,False,17
A027M23,810,experiment,60,←,left,←,0.6910983000416309,True,17
A027M23,811,experiment,120,→,right,→,0.7619569001253694,True,17
A027M23,812,experiment,132,→,right,→,0.5201964001171291,True,17
A027M23,813,experiment,24,←,left,←,0.5824031000956893,True,17
A027M23,814,experiment,36,←,left,←,0.8090747999958694,True,17
A027M23,815,experiment,108,→,right,→,0.461038599954918,True,17
A027M23,816,experiment,96,↓,up,↑,0.8911528999451548,False,17
A027M23,817,experiment,120,→,right,→,0.474502099910751,True,17
A027M23,818,experiment,72,←,left,←,0.4911648998968303,True,17
A027M23,819,experiment,24,→,left,←,0.9423318000044674,False,17
A027M23,820,experiment,132,↑,up,↑,0.5757456999272108,True,17
A027M23,821,experiment,72,↓,down,↓,0.4893160001374781,True,17
A027M23,822,experiment,72,↑,up,↑,0.4005839000456035,True,17
A027M23,823,experiment,12,←,right,→,0.8256210000254214,False,17
A027M23,824,experiment,48,→,right,→,0.41731849987991154,True,17
A027M23,825,experiment,108,←,no_key,no_letter,-1.0,False,17
A027M23,826,experiment,48,←,left,←,0.4972135000862181,True,17
A027M23,827,experiment,96,←,left,←,0.5990098000038415,True,17
A027M23,828,experiment,120,→,right,→,0.45337149989791214,True,17
A027M23,829,experiment,156,←,left,←,0.7472798998933285,True,17
A027M23,830,experiment,36,↑,up,↑,0.4737461998593062,True,17
A027M23,831,experiment,180,→,right,→,0.46325189992785454,True,17
A027M23,832,experiment,60,↑,up,↑,0.4550119999330491,True,17
A027M23,833,experiment,84,↑,up,↑,0.5574789999518543,True,17
A027M23,834,experiment,12,→,right,→,0.4782878998667002,True,17
A027M23,835,experiment,168,↓,down,↓,0.8335388000123203,True,17
A027M23,836,experiment,156,←,left,←,0.4617675000336021,True,17
A027M23,837,experiment,168,←,left,←,0.595905999885872,True,17
A027M23,838,experiment,144,↓,down,↓,0.7903990999329835,True,17
A027M23,839,experiment,132,←,left,←,0.7386724001262337,True,17
A027M23,840,experiment,48,↓,down,↓,0.8058939001057297,True,17
A027M23,841,experiment,12,→,right,→,0.7857252000831068,True,17
A027M23,842,experiment,144,↓,down,↓,0.6023931000381708,True,17
A027M23,843,experiment,108,↓,down,↓,0.7570802001282573,True,17
A027M23,844,experiment,156,←,left,←,0.5694962998386472,True,17
A027M23,845,experiment,144,↓,down,↓,0.7476173997856677,True,17
A027M23,846,experiment,96,←,left,←,0.41707920003682375,True,17
A027M23,847,experiment,72,←,left,←,0.38380829989910126,True,17
A027M23,848,experiment,48,→,right,→,0.4666132000274956,True,17
A027M23,849,experiment,84,↓,down,↓,0.7783292001113296,True,17
