PART_ID,Trial_no,Trial_type,PDI,Stim_letter,Key_pressed,letter_choose,Rt,Corr,Stimulus Time
A029K23,1,training,10,↑,no_key,no_letter,-1.0,False,30
A029K23,2,training,10,→,right,→,0.8150423001497984,True,30
A029K23,3,training,10,↓,right,→,0.7239814000204206,False,30
A029K23,4,training,10,→,right,→,0.8330661000218242,True,30
A029K23,5,training,10,↑,no_key,no_letter,-1.0,False,30
A029K23,6,training,10,←,left,←,0.6338100999128073,True,30
A029K23,7,training,10,↓,down,↓,0.9416543999686837,True,30
A029K23,8,training,10,→,right,→,0.5504999000113457,True,30
A029K23,9,training,10,↑,left,←,1.3256820999085903,False,30
A029K23,10,training,10,↓,left,←,1.3184952998999506,False,30
A029K23,11,training,10,↓,down,↓,0.8258074000477791,True,30
A029K23,12,training,10,→,right,→,0.4669139999896288,True,30
A029K23,13,training,10,↓,down,↓,1.9358123000711203,True,30
A029K23,14,training,10,→,right,→,0.5838766999077052,True,30
A029K23,15,training,10,↓,down,↓,0.6884200999047607,True,30
A029K23,16,training,10,→,right,→,0.5671296999789774,True,30
A029K23,17,training,10,↑,up,↑,0.7237638998776674,True,30
A029K23,18,training,10,↑,up,↑,0.7289243000559509,True,30
A029K23,19,training,10,↓,down,↓,1.8956746000330895,True,30
A029K23,20,training,10,→,right,→,0.46717349998652935,True,30
A029K23,21,training,10,←,right,→,1.0223185999784619,False,18
A029K23,22,training,10,↑,up,↑,1.3112753999885172,True,18
A029K23,23,training,10,→,right,→,0.4338843000587076,True,18
A029K23,24,training,10,→,up,↑,1.7573616998270154,False,18
A029K23,25,training,10,↓,down,↓,0.6883241999894381,True,18
A029K23,26,training,10,→,right,→,0.950764800189063,True,18
A029K23,27,training,10,→,right,→,0.5228530000895262,True,18
A029K23,28,training,10,→,down,↓,1.5831344998441637,False,18
A029K23,29,training,10,↓,right,→,1.161380800185725,False,18
A029K23,30,training,10,↑,up,↑,0.7341366000473499,True,18
A029K23,31,training,36,→,right,→,0.893771099857986,True,15
A029K23,32,training,84,→,right,→,0.6245015000458807,True,15
A029K23,33,training,156,←,left,←,0.8153012001421303,True,15
A029K23,34,experiment,36,←,right,→,0.8131548000965267,False,15
A029K23,35,experiment,36,↑,up,↑,0.727000400191173,True,15
A029K23,36,experiment,72,↓,right,→,0.8438438000157475,False,15
A029K23,37,experiment,180,↑,up,↑,1.7386581001337618,True,15
A029K23,38,experiment,168,←,right,→,1.0209800999145955,False,15
A029K23,39,experiment,156,↓,no_key,no_letter,-1.0,False,15
A029K23,40,experiment,48,←,right,→,1.2491625999100506,False,15
A029K23,41,experiment,120,←,left,←,0.7412252000067383,True,15
A029K23,42,experiment,60,→,right,→,0.6025974999647588,True,15
A029K23,43,experiment,48,←,left,←,0.6768835999537259,True,15
A029K23,44,experiment,12,→,up,↑,1.1692468000110239,False,15
A029K23,45,experiment,60,→,right,→,0.6052264000754803,True,15
A029K23,46,experiment,156,←,left,←,0.7078877000603825,True,15
A029K23,47,experiment,84,←,left,←,0.8235179998446256,True,15
A029K23,48,experiment,180,↓,up,↑,1.2862959001213312,False,15
A029K23,49,experiment,132,→,right,→,0.8202782000880688,True,15
A029K23,50,experiment,24,→,right,→,0.9053303999826312,True,15
A029K23,51,experiment,48,↑,up,↑,0.7205826998688281,True,15
A029K23,52,experiment,60,↓,down,↓,0.9122651999350637,True,15
A029K23,53,experiment,96,↑,left,←,0.9251633998937905,False,15
A029K23,54,experiment,12,→,right,→,0.8120850000996143,True,15
A029K23,55,experiment,120,→,right,→,0.7523724001366645,True,15
A029K23,56,experiment,156,↓,right,→,0.8178166998550296,False,15
A029K23,57,experiment,96,↑,left,←,0.8311952000949532,False,15
A029K23,58,experiment,168,↑,right,→,0.8761044000275433,False,15
A029K23,59,experiment,168,↓,no_key,no_letter,-1.0,False,15
A029K23,60,experiment,96,↑,up,↑,1.7758488999679685,True,15
A029K23,61,experiment,132,←,left,←,0.7428378001786768,True,15
A029K23,62,experiment,108,←,right,→,0.8058514001313597,False,15
A029K23,63,experiment,144,↓,right,→,1.1168211998883635,False,15
A029K23,64,experiment,132,→,left,←,1.327809700043872,False,15
A029K23,65,experiment,144,→,left,←,0.7478779000230134,False,15
A029K23,66,experiment,168,↑,left,←,0.8369685001671314,False,15
A029K23,67,experiment,36,↓,left,←,0.815766500076279,False,15
A029K23,68,experiment,12,→,up,↑,1.5739223000127822,False,15
A029K23,69,experiment,12,→,right,→,0.9246769999153912,True,15
A029K23,70,experiment,24,→,right,→,1.1005508000962436,True,15
A029K23,71,experiment,72,↑,up,↑,1.1765046999789774,True,15
A029K23,72,experiment,108,→,down,↓,1.2753767999820411,False,15
A029K23,73,experiment,96,↓,no_key,no_letter,-1.0,False,15
A029K23,74,experiment,108,↓,left,←,1.6139663001522422,False,15
A029K23,75,experiment,180,↓,up,↑,1.2401562000159174,False,15
A029K23,76,experiment,36,←,left,←,1.1530754999257624,True,15
A029K23,77,experiment,156,↓,down,↓,0.6149134000297636,True,15
A029K23,78,experiment,84,↑,down,↓,0.8330957000143826,False,15
A029K23,79,experiment,72,→,right,→,0.5541687998920679,True,15
A029K23,80,experiment,48,↑,up,↑,1.0726834998931736,True,15
A029K23,81,experiment,144,←,left,←,0.46541519998572767,True,15
A029K23,82,experiment,144,→,left,←,0.8437405999284238,False,15
A029K23,83,experiment,132,→,left,←,0.800330099882558,False,15
A029K23,84,experiment,72,←,left,←,1.0435651000589132,True,15
A029K23,85,experiment,24,→,right,→,0.9629476999398321,True,15
A029K23,86,experiment,84,↑,left,←,0.9621033000294119,False,15
A029K23,87,experiment,84,→,right,→,0.8539191000163555,True,15
A029K23,88,experiment,24,↑,right,→,1.1895638001151383,False,15
A029K23,89,experiment,108,→,right,→,0.8867850000970066,True,15
A029K23,90,experiment,180,↓,down,↓,1.1496073000598699,True,15
A029K23,91,experiment,60,←,right,→,0.8622564000543207,False,15
A029K23,92,experiment,120,→,right,→,0.5875371000729501,True,15
A029K23,93,experiment,120,↑,left,←,1.2184850999619812,False,15
A029K23,94,training,48,↓,down,↓,0.7785455998964608,True,16
A029K23,95,training,48,←,left,←,0.7711921001318842,True,16
A029K23,96,training,132,↑,right,→,0.6907049000728875,False,16
A029K23,97,experiment,12,↓,right,→,0.8908919000532478,False,16
A029K23,98,experiment,132,←,right,→,0.5759452001657337,False,16
A029K23,99,experiment,180,→,right,→,0.8441201001405716,True,16
A029K23,100,experiment,144,↑,up,↑,1.0857686998788267,True,16
A029K23,101,experiment,60,↑,down,↓,0.9289118000306189,False,16
A029K23,102,experiment,84,→,right,→,0.6812554001808167,True,16
A029K23,103,experiment,108,↓,down,↓,1.231201599817723,True,16
A029K23,104,experiment,132,↑,up,↑,0.6413523000665009,True,16
A029K23,105,experiment,168,↓,up,↑,1.1523965001106262,False,16
A029K23,106,experiment,120,←,left,←,0.6496158998925239,True,16
A029K23,107,experiment,24,↑,right,→,0.7744070999324322,False,16
A029K23,108,experiment,36,↓,down,↓,0.6534482999704778,True,16
A029K23,109,experiment,84,↑,up,↑,0.8224711001385003,True,16
A029K23,110,experiment,168,←,right,→,0.7676031000446528,False,16
A029K23,111,experiment,48,←,left,←,0.6012548001017421,True,16
A029K23,112,experiment,108,↑,up,↑,0.7618278001900762,True,16
A029K23,113,experiment,180,←,left,←,0.7319287999998778,True,16
A029K23,114,experiment,60,←,left,←,0.5252440001349896,True,16
A029K23,115,experiment,156,↓,right,→,0.7209034999832511,False,16
A029K23,116,experiment,12,↑,up,↑,0.6237751999869943,True,16
A029K23,117,experiment,120,←,right,→,0.7024848000146449,False,16
A029K23,118,experiment,156,↓,down,↓,0.8538815998472273,True,16
A029K23,119,experiment,24,↓,down,↓,0.8936654001008719,True,16
A029K23,120,experiment,60,↓,down,↓,0.7006353999022394,True,16
A029K23,121,experiment,72,→,right,→,0.45911070005968213,True,16
A029K23,122,experiment,72,←,left,←,0.8826871998608112,True,16
A029K23,123,experiment,24,→,right,→,0.6306185000576079,True,16
A029K23,124,experiment,84,←,left,←,0.9491548999212682,True,16
A029K23,125,experiment,24,→,left,←,0.9593067998066545,False,16
A029K23,126,experiment,108,↓,down,↓,0.6740540000610054,True,16
A029K23,127,experiment,180,→,right,→,0.6275442000478506,True,16
A029K23,128,experiment,48,↓,up,↑,1.144541900139302,False,16
A029K23,129,experiment,96,→,right,→,0.5660582999698818,True,16
A029K23,130,experiment,48,↑,up,↑,0.6489866999909282,True,16
A029K23,131,experiment,96,↑,up,↑,0.7033653999678791,True,16
A029K23,132,experiment,144,←,right,→,0.7393298000097275,False,16
A029K23,133,experiment,36,↓,up,↑,1.5890995999798179,False,16
A029K23,134,experiment,72,↑,up,↑,0.7400561000686139,True,16
A029K23,135,experiment,144,↑,up,↑,0.6159683000296354,True,16
A029K23,136,experiment,96,↑,up,↑,0.6778727998025715,True,16
A029K23,137,experiment,96,↑,up,↑,0.5970214998815209,True,16
A029K23,138,experiment,60,↑,up,↑,0.784595400094986,True,16
A029K23,139,experiment,156,↑,down,↓,0.9926045001484454,False,16
A029K23,140,experiment,168,↑,up,↑,0.6204745001159608,True,16
A029K23,141,experiment,36,→,right,→,0.6245188000611961,True,16
A029K23,142,experiment,120,←,right,→,0.7380116002168506,False,16
A029K23,143,experiment,12,←,right,→,0.8335355999879539,False,16
A029K23,144,experiment,132,↑,up,↑,0.5815566000528634,True,16
A029K23,145,experiment,12,←,left,←,0.6614565001800656,True,16
A029K23,146,experiment,48,↓,down,↓,0.6327920998446643,True,16
A029K23,147,experiment,120,→,left,←,1.0162770999595523,False,16
A029K23,148,experiment,72,→,right,→,0.5562051997985691,True,16
A029K23,149,experiment,168,→,right,→,0.8050812999717891,True,16
A029K23,150,experiment,156,→,right,→,0.5258166999556124,True,16
A029K23,151,experiment,84,→,right,→,0.5037799999117851,True,16
A029K23,152,experiment,180,↓,up,↑,0.7434939001686871,False,16
A029K23,153,experiment,108,↑,up,↑,0.8196630999445915,True,16
A029K23,154,experiment,132,←,right,→,0.6909113000147045,False,16
A029K23,155,experiment,144,↑,up,↑,0.6242488001007587,True,16
A029K23,156,experiment,36,↓,down,↓,0.8588741000276059,True,16
A029K23,157,training,180,↓,up,↑,0.6758558999281377,False,16
A029K23,158,training,180,→,right,→,0.7505987999029458,True,16
A029K23,159,training,144,↓,up,↑,0.7485235999338329,False,16
A029K23,160,experiment,24,←,right,→,0.5729215000756085,False,16
A029K23,161,experiment,180,↓,down,↓,0.9277361000422388,True,16
A029K23,162,experiment,156,↑,right,→,0.6113944000098854,False,16
A029K23,163,experiment,180,↑,down,↓,0.8342037999536842,False,16
A029K23,164,experiment,24,←,left,←,0.5154037000611424,True,16
A029K23,165,experiment,180,↑,up,↑,0.8837315000128001,True,16
A029K23,166,experiment,12,↓,right,→,0.7188683999702334,False,16
A029K23,167,experiment,36,↓,down,↓,0.5742217001970857,True,16
A029K23,168,experiment,60,←,right,→,0.7190680999774486,False,16
A029K23,169,experiment,84,→,right,→,0.7016310999169946,True,16
A029K23,170,experiment,144,↓,down,↓,0.6159985000267625,True,16
A029K23,171,experiment,108,←,right,→,0.5553873998578638,False,16
A029K23,172,experiment,120,↓,down,↓,0.6116869999095798,True,16
A029K23,173,experiment,12,↓,up,↑,1.1426296001300216,False,16
A029K23,174,experiment,48,↑,up,↑,0.5021810999605805,True,16
A029K23,175,experiment,60,↓,down,↓,0.5609573000110686,True,16
A029K23,176,experiment,72,→,right,→,0.46489840000867844,True,16
A029K23,177,experiment,168,↓,down,↓,0.7442623001988977,True,16
A029K23,178,experiment,96,↑,up,↑,0.7230736999772489,True,16
A029K23,179,experiment,120,↑,up,↑,0.518134200014174,True,16
A029K23,180,experiment,60,↑,up,↑,0.7028259001672268,True,16
A029K23,181,experiment,12,→,right,→,0.4447902000974864,True,16
A029K23,182,experiment,24,←,left,←,0.5007487998809665,True,16
A029K23,183,experiment,168,↓,up,↑,0.06718900008127093,False,16
A029K23,184,experiment,132,↓,down,↓,0.575783499982208,True,16
A029K23,185,experiment,108,↓,down,↓,0.5681497000623494,True,16
A029K23,186,experiment,12,↑,no_key,no_letter,-1.0,False,16
A029K23,187,experiment,36,↓,down,↓,0.6635386999696493,True,16
A029K23,188,experiment,48,↓,down,↓,0.5595136999618262,True,16
A029K23,189,experiment,84,←,right,→,0.591567900031805,False,16
A029K23,190,experiment,72,↓,down,↓,0.560457699932158,True,16
A029K23,191,experiment,72,←,up,↑,0.7795621000695974,False,16
A029K23,192,experiment,168,→,up,↑,0.5330012999475002,False,16
A029K23,193,experiment,132,↑,up,↑,0.6524948000442237,True,16
A029K23,194,experiment,132,→,right,→,0.451870399992913,True,16
A029K23,195,experiment,84,↑,up,↑,0.5690718998666853,True,16
A029K23,196,experiment,156,↓,up,↑,1.1084979998413473,False,16
A029K23,197,experiment,108,←,left,←,1.0344978999346495,True,16
A029K23,198,experiment,84,→,right,→,0.569215500028804,True,16
A029K23,199,experiment,96,←,left,←,0.6098265999462456,True,16
A029K23,200,experiment,36,↑,up,↑,0.6292951998766512,True,16
A029K23,201,experiment,48,←,left,←,0.5325442000757903,True,16
A029K23,202,experiment,72,↑,up,↑,0.6904724000487477,True,16
A029K23,203,experiment,96,←,left,←,0.46052840002812445,True,16
A029K23,204,experiment,144,↓,down,↓,0.6377306999638677,True,16
A029K23,205,experiment,60,→,right,→,0.8028867000248283,True,16
A029K23,206,experiment,120,→,right,→,0.5588767000008374,True,16
A029K23,207,experiment,36,↓,down,↓,0.6244459999725223,True,16
A029K23,208,experiment,48,←,right,→,0.4751609000377357,False,16
A029K23,209,experiment,156,↑,up,↑,0.5322313001379371,True,16
A029K23,210,experiment,120,↑,up,↑,0.4705274999141693,True,16
A029K23,211,experiment,156,↑,right,→,0.7786793999839574,False,16
A029K23,212,experiment,144,↓,down,↓,0.5970493000932038,True,16
A029K23,213,experiment,108,←,left,←,0.7592837000265718,True,16
A029K23,214,experiment,132,↑,up,↑,0.5258915000595152,True,16
A029K23,215,experiment,96,↑,up,↑,1.568183699855581,True,16
A029K23,216,experiment,24,↑,up,↑,0.5007525000255555,True,16
A029K23,217,experiment,144,↑,up,↑,0.5164053998887539,True,16
A029K23,218,experiment,180,↑,right,→,0.5233505999203771,False,16
A029K23,219,experiment,168,↓,up,↑,1.0295990000013262,False,16
A029K23,220,training,120,→,right,→,0.4610067999456078,True,16
A029K23,221,training,12,↓,down,↓,0.7589750001206994,True,16
A029K23,222,training,108,↑,right,→,0.6116434999275953,False,16
A029K23,223,experiment,12,←,right,→,0.5359690999612212,False,16
A029K23,224,experiment,180,↑,right,→,0.6161597000900656,False,16
A029K23,225,experiment,84,↑,right,→,0.5166783998720348,False,16
A029K23,226,experiment,156,↑,up,↑,0.6423090999014676,True,16
A029K23,227,experiment,36,↑,up,↑,0.6159421999473125,True,16
A029K23,228,experiment,72,←,left,←,0.5985682001337409,True,16
A029K23,229,experiment,96,→,no_key,no_letter,-1.0,False,16
A029K23,230,experiment,12,←,right,→,0.5623715000692755,False,16
A029K23,231,experiment,144,←,right,→,0.5361197001766413,False,16
A029K23,232,experiment,156,→,right,→,0.718656700104475,True,16
A029K23,233,experiment,60,↑,right,→,0.532473900122568,False,16
A029K23,234,experiment,24,→,right,→,0.5252152998000383,True,16
A029K23,235,experiment,72,←,right,→,0.6574543998576701,False,16
A029K23,236,experiment,48,↓,down,↓,0.6736412001773715,True,16
A029K23,237,experiment,48,↑,up,↑,0.5962022999301553,True,16
A029K23,238,experiment,180,→,right,→,0.6324575000908226,True,16
A029K23,239,experiment,108,→,right,→,0.5222365001682192,True,16
A029K23,240,experiment,180,↑,up,↑,0.5700739999301732,True,16
A029K23,241,experiment,60,↓,down,↓,0.7301936000585556,True,16
A029K23,242,experiment,168,↓,up,↑,0.7506874999962747,False,16
A029K23,243,experiment,156,↑,down,↓,0.652878399938345,False,16
A029K23,244,experiment,36,↑,up,↑,0.4945664000697434,True,16
A029K23,245,experiment,84,↓,down,↓,0.6053068998735398,True,16
A029K23,246,experiment,120,←,left,←,0.9202735999133438,True,16
A029K23,247,experiment,180,→,right,→,0.7357479999773204,True,16
A029K23,248,experiment,120,↓,up,↑,0.7744627001229674,False,16
A029K23,249,experiment,24,←,left,←,0.5509970001876354,True,16
A029K23,250,experiment,48,→,right,→,0.4966113001573831,True,16
A029K23,251,experiment,132,→,right,→,0.5814942000433803,True,16
A029K23,252,experiment,144,↑,up,↑,0.5963310999795794,True,16
A029K23,253,experiment,132,→,right,→,0.44753320002928376,True,16
A029K23,254,experiment,144,↑,up,↑,0.5154707999899983,True,16
A029K23,255,experiment,24,↑,up,↑,0.4722359001170844,True,16
A029K23,256,experiment,36,←,left,←,0.5696684999857098,True,16
A029K23,257,experiment,72,↓,down,↓,0.6335201999172568,True,16
A029K23,258,experiment,132,→,right,→,0.46705659991130233,True,16
A029K23,259,experiment,108,→,right,→,0.5085957001429051,True,16
A029K23,260,experiment,168,→,right,→,0.5613190000876784,True,16
A029K23,261,experiment,108,↓,up,↑,0.8453190999571234,False,16
A029K23,262,experiment,132,↑,right,→,0.6448385000694543,False,16
A029K23,263,experiment,84,↓,down,↓,0.663190099876374,True,16
A029K23,264,experiment,96,←,right,→,0.5050401999615133,False,16
A029K23,265,experiment,120,↓,right,→,0.5208240000065416,False,16
A029K23,266,experiment,96,←,left,←,0.5681298999115825,True,16
A029K23,267,experiment,156,←,left,←,0.5214645999949425,True,16
A029K23,268,experiment,48,↑,up,↑,0.5044680999126285,True,16
A029K23,269,experiment,144,←,right,→,0.6631929001305252,False,16
A029K23,270,experiment,120,←,right,→,0.5353892000857741,False,16
A029K23,271,experiment,108,←,right,→,0.5264864000491798,False,16
A029K23,272,experiment,96,↑,up,↑,0.7123934999108315,True,16
A029K23,273,experiment,168,↑,up,↑,0.578288400080055,True,16
A029K23,274,experiment,12,←,left,←,0.8641856000758708,True,16
A029K23,275,experiment,60,↑,up,↑,0.678855000063777,True,16
A029K23,276,experiment,24,←,right,→,0.6001186999492347,False,16
A029K23,277,experiment,60,↓,right,→,0.5714908000081778,False,16
A029K23,278,experiment,84,↑,up,↑,0.6179567000363022,True,16
A029K23,279,experiment,168,→,right,→,0.5112172001972795,True,16
A029K23,280,experiment,36,↓,down,↓,0.6457324998918921,True,16
A029K23,281,experiment,72,→,right,→,0.44578499998897314,True,16
A029K23,282,experiment,12,↓,down,↓,0.6512027999851853,True,16
A029K23,283,training,108,←,right,→,0.5985254999250174,False,16
A029K23,284,training,84,→,right,→,0.5516677999403328,True,16
A029K23,285,training,96,→,right,→,1.6439708000980318,True,16
A029K23,286,experiment,132,↓,down,↓,0.5875150999054313,True,16
A029K23,287,experiment,156,←,left,←,0.566641200101003,True,16
A029K23,288,experiment,156,↑,up,↑,0.5720431001391262,True,16
A029K23,289,experiment,72,←,left,←,0.747421900043264,True,16
A029K23,290,experiment,144,→,right,→,0.5620959000661969,True,16
A029K23,291,experiment,72,↓,down,↓,0.5725011001341045,True,16
A029K23,292,experiment,48,↑,up,↑,0.4584818999283016,True,16
A029K23,293,experiment,72,→,right,→,0.5008944999426603,True,16
A029K23,294,experiment,60,→,right,→,0.6389407999813557,True,16
A029K23,295,experiment,36,↑,right,→,0.7012272998690605,False,16
A029K23,296,experiment,48,↑,no_key,no_letter,-1.0,False,16
A029K23,297,experiment,84,↓,down,↓,0.5880915999878198,True,16
A029K23,298,experiment,156,↓,up,↑,0.7791333999484777,False,16
A029K23,299,experiment,84,↑,up,↑,0.8288459000177681,True,16
A029K23,300,experiment,108,→,right,→,0.5207978000398725,True,16
A029K23,301,experiment,120,↑,up,↑,0.5722216998692602,True,16
A029K23,302,experiment,36,→,right,→,0.45401200000196695,True,16
A029K23,303,experiment,168,→,right,→,0.5892056999728084,True,16
A029K23,304,experiment,12,→,right,→,0.7796453000046313,True,16
A029K23,305,experiment,60,←,left,←,0.7649883998092264,True,16
A029K23,306,experiment,96,→,right,→,0.6288193999789655,True,16
A029K23,307,experiment,108,→,right,→,0.5642448000144213,True,16
A029K23,308,experiment,12,↑,up,↑,0.7442316000815481,True,16
A029K23,309,experiment,36,←,right,→,0.7883654998149723,False,16
A029K23,310,experiment,48,→,right,→,1.1424821999389678,True,16
A029K23,311,experiment,72,←,right,→,0.5000722999684513,False,16
A029K23,312,experiment,12,→,right,→,0.9469655998982489,True,16
A029K23,313,experiment,180,←,left,←,0.7655565999448299,True,16
A029K23,314,experiment,168,↓,up,↑,0.7430304000154138,False,16
A029K23,315,experiment,180,↓,down,↓,0.7831695000641048,True,16
A029K23,316,experiment,120,↑,up,↑,0.6648047999478877,True,16
A029K23,317,experiment,36,→,left,←,0.883198699913919,False,16
A029K23,318,experiment,24,↓,down,↓,0.9703323000576347,True,16
A029K23,319,experiment,168,↑,up,↑,1.0111515000462532,True,16
A029K23,320,experiment,180,→,right,→,0.4996376000344753,True,16
A029K23,321,experiment,168,←,right,→,0.5471671998966485,False,16
A029K23,322,experiment,24,↓,left,←,1.1707534999586642,False,16
A029K23,323,experiment,96,←,left,←,0.639679699903354,True,16
A029K23,324,experiment,132,→,right,→,0.5389574998989701,True,16
A029K23,325,experiment,60,←,left,←,0.5977673998568207,True,16
A029K23,326,experiment,120,←,right,→,0.5616258000954986,False,16
A029K23,327,experiment,120,→,right,→,0.6329530000220984,True,16
A029K23,328,experiment,24,→,right,→,0.5522161000408232,True,16
A029K23,329,experiment,12,←,left,←,1.0706951001193374,True,16
A029K23,330,experiment,180,↑,up,↑,0.9381572001148015,True,16
A029K23,331,experiment,96,←,left,←,1.1793843999039382,True,16
A029K23,332,experiment,48,→,left,←,1.0960677999537438,False,16
A029K23,333,experiment,84,→,right,→,1.819153199903667,True,16
A029K23,334,experiment,60,→,right,→,1.659127000020817,True,16
A029K23,335,experiment,144,↑,up,↑,0.5719681000337005,True,16
A029K23,336,experiment,144,←,left,←,0.562180700013414,True,16
A029K23,337,experiment,96,↑,up,↑,0.46941349981352687,True,16
A029K23,338,experiment,108,↓,up,↑,0.6300366001669317,False,16
A029K23,339,experiment,132,↑,up,↑,0.5904413999523968,True,16
A029K23,340,experiment,108,↑,up,↑,0.4932327999267727,True,16
A029K23,341,experiment,132,↑,up,↑,0.5627132998779416,True,16
A029K23,342,experiment,24,↓,down,↓,1.2491190999280661,True,16
A029K23,343,experiment,84,←,left,←,0.7809310001321137,True,16
A029K23,344,experiment,156,↓,left,←,1.0290993999224156,False,16
A029K23,345,experiment,144,↓,down,↓,0.5937695999164134,True,16
A029K23,346,training,168,←,left,←,0.6284280000254512,True,16
A029K23,347,training,36,↓,down,↓,0.6699663000181317,True,16
A029K23,348,training,108,↑,up,↑,0.8104280999395996,True,16
A029K23,349,experiment,168,↑,up,↑,0.49579409998841584,True,16
A029K23,350,experiment,156,↓,up,↑,0.8633755000773817,False,16
A029K23,351,experiment,120,→,right,→,0.6599350997712463,True,16
A029K23,352,experiment,168,←,right,→,0.657981300028041,False,16
A029K23,353,experiment,12,↓,right,→,1.174089499982074,False,16
A029K23,354,experiment,108,↓,up,↑,0.6096531997900456,False,16
A029K23,355,experiment,108,←,left,←,0.7247079000808299,True,16
A029K23,356,experiment,132,→,right,→,0.4892011000774801,True,16
A029K23,357,experiment,48,←,right,→,0.5877125000115484,False,16
A029K23,358,experiment,12,↓,down,↓,0.7690509001258761,True,16
A029K23,359,experiment,12,→,right,→,0.6795451999641955,True,16
A029K23,360,experiment,180,←,left,←,0.5225223999004811,True,16
A029K23,361,experiment,72,→,right,→,0.5714247999712825,True,16
A029K23,362,experiment,36,→,left,←,0.8847916000522673,False,16
A029K23,363,experiment,60,→,right,→,0.5487880001310259,True,16
A029K23,364,experiment,24,→,right,→,1.3267584999557585,True,16
A029K23,365,experiment,144,↑,left,←,1.1438313000835478,False,16
A029K23,366,experiment,156,←,right,→,0.7996922000311315,False,16
A029K23,367,experiment,72,↑,up,↑,0.5328980998601764,True,16
A029K23,368,experiment,120,←,left,←,0.9238643001299351,True,16
A029K23,369,experiment,24,→,right,→,0.43833129992708564,True,16
A029K23,370,experiment,36,→,left,←,0.7007675999775529,False,16
A029K23,371,experiment,96,↓,up,↑,0.6463243998587132,False,16
A029K23,372,experiment,60,↓,down,↓,1.034516700077802,True,16
A029K23,373,experiment,168,↑,up,↑,0.6321227001026273,True,16
A029K23,374,experiment,48,↑,up,↑,0.5333638999145478,True,16
A029K23,375,experiment,108,←,right,→,0.5997593000065535,False,16
A029K23,376,experiment,96,→,right,→,0.9969701000954956,True,16
A029K23,377,experiment,84,←,right,→,0.799414899898693,False,16
A029K23,378,experiment,132,↓,down,↓,0.6458081000018865,True,16
A029K23,379,experiment,156,↓,down,↓,1.0436430999543518,True,16
A029K23,380,experiment,48,↑,up,↑,0.639283699914813,True,16
A029K23,381,experiment,180,↓,down,↓,0.819983100052923,True,16
A029K23,382,experiment,180,↓,up,↑,1.4405336000490934,False,16
A029K23,383,experiment,168,↑,down,↓,0.8145916000939906,False,16
A029K23,384,experiment,84,←,left,←,0.7484836000949144,True,16
A029K23,385,experiment,72,→,up,↑,1.3456214999314398,False,16
A029K23,386,experiment,12,←,right,→,0.8153153997845948,False,16
A029K23,387,experiment,60,↑,up,↑,0.7603596998378634,True,16
A029K23,388,experiment,84,→,right,→,0.48003980005159974,True,16
A029K23,389,experiment,36,↓,down,↓,0.5523598999716341,True,16
A029K23,390,experiment,180,↓,down,↓,0.5977336999494582,True,16
A029K23,391,experiment,96,↑,up,↑,0.6445828001014888,True,16
A029K23,392,experiment,132,↓,down,↓,0.5133345001377165,True,16
A029K23,393,experiment,96,→,right,→,0.5540702999569476,True,16
A029K23,394,experiment,144,↑,up,↑,0.6481763001065701,True,16
A029K23,395,experiment,60,↑,up,↑,0.7124222000129521,True,16
A029K23,396,experiment,48,→,right,→,0.49862210010178387,True,16
A029K23,397,experiment,156,↓,down,↓,0.8144208998419344,True,16
A029K23,398,experiment,36,↓,no_key,no_letter,-1.0,False,16
A029K23,399,experiment,144,←,right,→,0.769124099984765,False,16
A029K23,400,experiment,24,↑,no_key,no_letter,-1.0,False,16
A029K23,401,experiment,132,↓,down,↓,0.7806698998901993,True,16
A029K23,402,experiment,120,↑,up,↑,0.6202212998177856,True,16
A029K23,403,experiment,24,←,left,←,0.6314282000530511,True,16
A029K23,404,experiment,120,←,right,→,0.5561797001864761,False,16
A029K23,405,experiment,72,→,right,→,0.5183713000733405,True,16
A029K23,406,experiment,84,↑,left,←,1.0741779999807477,False,16
A029K23,407,experiment,108,↑,up,↑,0.5595626998692751,True,16
A029K23,408,experiment,144,↑,up,↑,0.6285023000091314,True,16
A029K23,409,training,36,↑,up,↑,0.7600816001649946,True,16
A029K23,410,training,180,←,right,→,0.4970567000564188,False,16
A029K23,411,training,144,↑,up,↑,0.5411606999114156,True,16
A029K23,412,experiment,156,↓,down,↓,0.5860913000069559,True,16
A029K23,413,experiment,144,←,right,→,0.6890304000116885,False,16
A029K23,414,experiment,168,→,right,→,1.647540400037542,True,16
A029K23,415,experiment,24,↑,up,↑,0.53573890007101,True,16
A029K23,416,experiment,156,↑,up,↑,1.9207873998675495,True,16
A029K23,417,experiment,72,→,right,→,0.6678217998705804,True,16
A029K23,418,experiment,96,→,right,→,0.49418949987739325,True,16
A029K23,419,experiment,120,←,left,←,0.7496078999247402,True,16
A029K23,420,experiment,132,→,right,→,0.50151910004206,True,16
A029K23,421,experiment,60,↓,right,→,0.7486237999983132,False,16
A029K23,422,experiment,84,↓,down,↓,0.6671643999870867,True,16
A029K23,423,experiment,168,←,left,←,0.927134299883619,True,16
A029K23,424,experiment,24,→,no_key,no_letter,-1.0,False,16
A029K23,425,experiment,48,→,no_key,no_letter,-1.0,False,16
A029K23,426,experiment,120,←,left,←,0.5258824001066387,True,16
A029K23,427,experiment,12,←,left,←,0.6113894002046436,True,16
A029K23,428,experiment,48,↑,left,←,0.6441828000824898,False,16
A029K23,429,experiment,132,↓,down,↓,0.8172668998595327,True,16
A029K23,430,experiment,12,←,left,←,0.462686900049448,True,16
A029K23,431,experiment,132,↓,down,↓,0.6226726998575032,True,16
A029K23,432,experiment,108,↓,down,↓,0.5208403998985887,True,16
A029K23,433,experiment,84,←,left,←,0.5508280000649393,True,16
A029K23,434,experiment,180,↓,down,↓,0.561485200189054,True,16
A029K23,435,experiment,36,↓,up,↑,1.3148449999280274,False,16
A029K23,436,experiment,120,↑,down,↓,0.6182417999953032,False,16
A029K23,437,experiment,180,→,right,→,0.43528009997680783,True,16
A029K23,438,experiment,36,↓,right,→,0.6295562000013888,False,16
A029K23,439,experiment,72,→,right,→,1.2768280999734998,True,16
A029K23,440,experiment,144,→,right,→,0.7181361000984907,True,16
A029K23,441,experiment,72,↑,up,↑,0.8840506998822093,True,16
A029K23,442,experiment,48,←,left,←,0.44931269995868206,True,16
A029K23,443,experiment,84,↓,down,↓,0.6706360999960452,True,16
A029K23,444,experiment,108,↓,left,←,0.7493326999247074,False,16
A029K23,445,experiment,84,↑,up,↑,0.7391592999920249,True,16
A029K23,446,experiment,96,↓,down,↓,0.7267308998852968,True,16
A029K23,447,experiment,60,↑,up,↑,0.6307282999623567,True,16
A029K23,448,experiment,24,←,left,←,0.5452113000210375,True,16
A029K23,449,experiment,156,←,left,←,0.643220900092274,True,16
A029K23,450,experiment,108,↓,down,↓,0.6005476000718772,True,16
A029K23,451,experiment,48,↑,up,↑,0.4978686000686139,True,16
A029K23,452,experiment,72,↑,down,↓,0.7403983001131564,False,16
A029K23,453,experiment,168,↑,left,←,0.40025950013659894,False,16
A029K23,454,experiment,60,↑,up,↑,0.47809830005280674,True,16
A029K23,455,experiment,108,↑,up,↑,0.4709483999758959,True,16
A029K23,456,experiment,24,→,up,↑,0.9373344001360238,False,16
A029K23,457,experiment,132,→,right,→,0.9810617999173701,True,16
A029K23,458,experiment,36,↑,up,↑,0.6565643998328596,True,16
A029K23,459,experiment,168,↑,up,↑,0.5303612002171576,True,16
A029K23,460,experiment,96,←,right,→,0.6047445998992771,False,16
A029K23,461,experiment,12,↑,up,↑,1.0476150999311358,True,16
A029K23,462,experiment,12,↓,up,↑,0.766812999965623,False,16
A029K23,463,experiment,156,→,right,→,0.5027747999411076,True,16
A029K23,464,experiment,36,↑,up,↑,0.7192644998431206,True,16
A029K23,465,experiment,96,←,left,←,0.7193086999468505,True,16
A029K23,466,experiment,120,→,right,→,0.4514742000028491,True,16
A029K23,467,experiment,180,↓,down,↓,0.5949685000814497,True,16
A029K23,468,experiment,144,↑,up,↑,0.6614095999393612,True,16
A029K23,469,experiment,60,↑,up,↑,0.5563797000795603,True,16
A029K23,470,experiment,180,↑,up,↑,0.5679645999334753,True,16
A029K23,471,experiment,144,→,right,→,0.5187200999353081,True,16
A029K23,472,training,168,→,right,→,0.4900598998647183,True,16
A029K23,473,training,156,←,left,←,0.7247349999379367,True,16
A029K23,474,training,144,↓,down,↓,0.5560254999436438,True,16
A029K23,475,experiment,180,→,right,→,0.7054623998701572,True,16
A029K23,476,experiment,48,↑,up,↑,0.73376279999502,True,16
A029K23,477,experiment,132,←,right,→,0.6264103001449257,False,16
A029K23,478,experiment,12,↓,down,↓,0.7119988999329507,True,16
A029K23,479,experiment,156,↓,up,↑,0.668811900075525,False,16
A029K23,480,experiment,108,←,left,←,0.5563493999652565,True,16
A029K23,481,experiment,96,↑,up,↑,0.5488081001676619,True,16
A029K23,482,experiment,12,←,no_key,no_letter,-1.0,False,16
A029K23,483,experiment,132,←,no_key,no_letter,-1.0,False,16
A029K23,484,experiment,12,↓,up,↑,1.0987495000008494,False,16
A029K23,485,experiment,60,↓,down,↓,0.7057195000816137,True,16
A029K23,486,experiment,120,↑,up,↑,0.5204310000408441,True,16
A029K23,487,experiment,36,←,left,←,0.5215514001902193,True,16
A029K23,488,experiment,168,↑,up,↑,0.6253827000036836,True,16
A029K23,489,experiment,168,←,left,←,0.645266099832952,True,16
A029K23,490,experiment,84,↑,up,↑,0.5291316001676023,True,16
A029K23,491,experiment,12,→,right,→,0.8183141001500189,True,16
A029K23,492,experiment,60,↑,up,↑,0.6939729999285191,True,16
A029K23,493,experiment,144,↓,up,↑,0.7614984998945147,False,16
A029K23,494,experiment,84,↓,right,→,0.81245579989627,False,16
A029K23,495,experiment,180,←,right,→,0.5623677000403404,False,16
A029K23,496,experiment,108,→,right,→,0.6041705999523401,True,16
A029K23,497,experiment,72,→,right,→,0.5406740000471473,True,16
A029K23,498,experiment,84,←,left,←,1.2126472000963986,True,16
A029K23,499,experiment,120,→,right,→,0.7582076000981033,True,16
A029K23,500,experiment,156,↑,right,→,0.886456600157544,False,16
A029K23,501,experiment,168,→,right,→,0.45018699998036027,True,16
A029K23,502,experiment,144,→,right,→,0.694383499911055,True,16
A029K23,503,experiment,84,→,right,→,0.7456100999843329,True,16
A029K23,504,experiment,168,←,left,←,0.606811200035736,True,16
A029K23,505,experiment,96,→,right,→,0.7889747000299394,True,16
A029K23,506,experiment,132,→,right,→,0.5267078001052141,True,16
A029K23,507,experiment,96,→,right,→,0.47077189991250634,True,16
A029K23,508,experiment,24,↑,right,→,1.1416105998214334,False,16
A029K23,509,experiment,48,←,left,←,0.5133855000603944,True,16
A029K23,510,experiment,24,↓,down,↓,0.7370960998814553,True,16
A029K23,511,experiment,60,↓,right,→,0.643156599951908,False,16
A029K23,512,experiment,60,→,right,→,0.5044807000085711,True,16
A029K23,513,experiment,156,→,right,→,0.6728519999887794,True,16
A029K23,514,experiment,108,←,left,←,0.9060397997964174,True,16
A029K23,515,experiment,144,→,left,←,1.1704583000391722,False,16
A029K23,516,experiment,36,↑,down,↓,1.1292133999522775,False,16
A029K23,517,experiment,24,↓,left,←,0.7737280998844653,False,16
A029K23,518,experiment,96,→,right,→,1.7930296999402344,True,16
A029K23,519,experiment,72,→,right,→,0.5084172999486327,True,16
A029K23,520,experiment,156,→,right,→,0.5459751000162214,True,16
A029K23,521,experiment,36,↓,down,↓,0.5777060999535024,True,16
A029K23,522,experiment,132,→,right,→,0.5122764001134783,True,16
A029K23,523,experiment,24,↑,up,↑,0.5044331999961287,True,16
A029K23,524,experiment,72,←,up,↑,1.1960667001549155,False,16
A029K23,525,experiment,48,→,right,→,0.5195162000600249,True,16
A029K23,526,experiment,180,↑,up,↑,1.029326800024137,True,16
A029K23,527,experiment,36,↓,down,↓,0.49511070013977587,True,16
A029K23,528,experiment,120,←,right,→,0.6058590000029653,False,16
A029K23,529,experiment,48,↑,left,←,0.6783414999954402,False,16
A029K23,530,experiment,72,←,right,→,0.5512365000322461,False,16
A029K23,531,experiment,144,↓,right,→,0.6289362998213619,False,16
A029K23,532,experiment,180,↑,up,↑,0.7640319000929594,True,16
A029K23,533,experiment,108,→,down,↓,0.7400887999683619,False,16
A029K23,534,experiment,120,→,left,←,0.9642211000900716,False,16
A029K23,535,training,120,←,right,→,0.5213836999610066,False,16
A029K23,536,training,156,↑,up,↑,0.7766209000255913,True,16
A029K23,537,training,120,↓,up,↑,0.5598055999726057,False,16
A029K23,538,experiment,36,←,left,←,0.8410059998277575,True,16
A029K23,539,experiment,144,↑,up,↑,0.522760699968785,True,16
A029K23,540,experiment,48,←,left,←,0.5262830001302063,True,16
A029K23,541,experiment,60,←,right,→,0.6839640999678522,False,16
A029K23,542,experiment,132,↓,up,↑,0.6050591999664903,False,16
A029K23,543,experiment,120,↓,down,↓,0.5338693000376225,True,16
A029K23,544,experiment,144,←,left,←,1.029599899891764,True,16
A029K23,545,experiment,84,↓,right,→,0.6574862999841571,False,16
A029K23,546,experiment,84,↓,down,↓,0.5384250001516193,True,16
A029K23,547,experiment,48,↓,right,→,0.5972214001230896,False,16
A029K23,548,experiment,108,←,left,←,0.5045390999875963,True,16
A029K23,549,experiment,60,←,right,→,0.4784743001218885,False,16
A029K23,550,experiment,168,←,left,←,0.5515439000446349,True,16
A029K23,551,experiment,72,↓,down,↓,0.640112099936232,True,16
A029K23,552,experiment,60,↓,down,↓,0.5430481000803411,True,16
A029K23,553,experiment,12,→,right,→,0.5002743999939412,True,16
A029K23,554,experiment,168,←,left,←,0.6037590999621898,True,16
A029K23,555,experiment,12,↓,down,↓,0.5852246999274939,True,16
A029K23,556,experiment,36,←,left,←,0.4564263999927789,True,16
A029K23,557,experiment,72,↑,up,↑,0.6161462999880314,True,16
A029K23,558,experiment,24,↑,down,↓,0.9101933999918401,False,16
A029K23,559,experiment,36,←,left,←,0.4859203998930752,True,16
A029K23,560,experiment,120,→,right,→,0.4976824999321252,True,16
A029K23,561,experiment,156,→,no_key,no_letter,-1.0,False,16
A029K23,562,experiment,180,↓,up,↑,1.2094380999915302,False,16
A029K23,563,experiment,12,←,left,←,0.6079638998489827,True,16
A029K23,564,experiment,156,↓,down,↓,0.4983475999906659,True,16
A029K23,565,experiment,108,↑,down,↓,0.7437299999874085,False,16
A029K23,566,experiment,144,↓,down,↓,0.6274147999938577,True,16
A029K23,567,experiment,156,←,left,←,0.7172608999535441,True,16
A029K23,568,experiment,144,→,right,→,0.514507899992168,True,16
A029K23,569,experiment,96,↓,down,↓,0.5308984001167119,True,16
A029K23,570,experiment,120,↑,up,↑,0.6459633000195026,True,16
A029K23,571,experiment,180,→,right,→,0.5223385998979211,True,16
A029K23,572,experiment,168,↑,up,↑,0.6108428000006825,True,16
A029K23,573,experiment,72,←,right,→,0.548052900005132,False,16
A029K23,574,experiment,60,←,left,←,0.4682748999912292,True,16
A029K23,575,experiment,120,↑,up,↑,1.0374490001704544,True,16
A029K23,576,experiment,132,←,left,←,0.40041020000353456,True,16
A029K23,577,experiment,84,↑,up,↑,0.5084344998467714,True,16
A029K23,578,experiment,168,→,right,→,0.4851722999010235,True,16
A029K23,579,experiment,108,↓,right,→,0.8849198999814689,False,16
A029K23,580,experiment,180,↓,no_key,no_letter,-1.0,False,16
A029K23,581,experiment,132,←,right,→,0.7737032000441104,False,16
A029K23,582,experiment,108,→,right,→,0.43462499999441206,True,16
A029K23,583,experiment,156,↑,up,↑,0.6032615001313388,True,16
A029K23,584,experiment,132,←,left,←,1.3081457999069244,True,16
A029K23,585,experiment,12,←,right,→,0.7365921998862177,False,16
A029K23,586,experiment,24,↓,up,↑,0.8625765999313444,False,16
A029K23,587,experiment,96,↑,up,↑,0.7348811000119895,True,16
A029K23,588,experiment,24,↓,down,↓,0.8753440000582486,True,16
A029K23,589,experiment,72,→,right,→,0.6359309998806566,True,16
A029K23,590,experiment,48,↑,up,↑,0.5792396999895573,True,16
A029K23,591,experiment,96,↑,up,↑,0.5186159999575466,True,16
A029K23,592,experiment,48,→,right,→,0.542955300072208,True,16
A029K23,593,experiment,24,↑,up,↑,0.8663504000287503,True,16
A029K23,594,experiment,96,←,left,←,0.8871671000961214,True,16
A029K23,595,experiment,180,↑,up,↑,0.4852764999959618,True,16
A029K23,596,experiment,84,↓,up,↑,0.6634112000465393,False,16
A029K23,597,experiment,36,→,right,→,0.5977529000956565,True,16
A029K23,598,training,180,↑,up,↑,0.7878928000573069,True,16
A029K23,599,training,180,←,left,←,1.6765052999835461,True,16
A029K23,600,training,120,↑,up,↑,0.6492469001095742,True,16
A029K23,601,experiment,168,←,right,→,0.5280439001508057,False,16
A029K23,602,experiment,24,↑,up,↑,0.5703263999894261,True,16
A029K23,603,experiment,132,↓,up,↑,0.5993001000024378,False,16
A029K23,604,experiment,60,→,right,→,0.5341345001943409,True,16
A029K23,605,experiment,168,↓,right,→,0.5356751999352127,False,16
A029K23,606,experiment,72,←,left,←,0.823787400033325,True,16
A029K23,607,experiment,24,↓,down,↓,0.551289200084284,True,16
A029K23,608,experiment,60,←,right,→,0.782052000053227,False,16
A029K23,609,experiment,72,↓,down,↓,0.5966680001001805,True,16
A029K23,610,experiment,132,↑,up,↑,0.6953920999076217,True,16
A029K23,611,experiment,132,→,left,←,0.6798737000208348,False,16
A029K23,612,experiment,180,←,left,←,0.5575004999991506,True,16
A029K23,613,experiment,60,→,right,→,0.6127736000344157,True,16
A029K23,614,experiment,108,↑,left,←,1.2040526999626309,False,16
A029K23,615,experiment,120,↑,up,↑,0.6057504001073539,True,16
A029K23,616,experiment,96,↑,up,↑,0.4434978999197483,True,16
A029K23,617,experiment,144,→,right,→,0.8274019998498261,True,16
A029K23,618,experiment,12,→,right,→,0.6640397999435663,True,16
A029K23,619,experiment,12,↑,up,↑,0.5333116000983864,True,16
A029K23,620,experiment,72,↓,up,↑,1.0830883998423815,False,16
A029K23,621,experiment,156,→,right,→,0.4984559000004083,True,16
A029K23,622,experiment,144,→,right,→,0.48726429999805987,True,16
A029K23,623,experiment,12,↑,up,↑,0.6150354000274092,True,16
A029K23,624,experiment,180,→,right,→,0.6454336000606418,True,16
A029K23,625,experiment,144,↓,right,→,0.6968194998335093,False,16
A029K23,626,experiment,168,↑,up,↑,0.6637631000485271,True,16
A029K23,627,experiment,180,→,right,→,0.7472020999994129,True,16
A029K23,628,experiment,36,→,right,→,0.536526600131765,True,16
A029K23,629,experiment,156,↓,up,↑,0.6538182999938726,False,16
A029K23,630,experiment,48,←,left,←,0.4418444000184536,True,16
A029K23,631,experiment,60,↓,down,↓,1.3206075998023152,True,16
A029K23,632,experiment,96,→,right,→,0.6303210000041872,True,16
A029K23,633,experiment,84,→,right,→,0.8077851000707597,True,16
A029K23,634,experiment,36,←,left,←,0.5482978001236916,True,16
A029K23,635,experiment,24,↓,up,↑,0.8258382000494748,False,16
A029K23,636,experiment,108,↑,up,↑,0.5018849999178201,True,16
A029K23,637,experiment,96,←,left,←,0.5938317000400275,True,16
A029K23,638,experiment,132,↑,up,↑,1.0394236999563873,True,16
A029K23,639,experiment,120,↓,down,↓,0.7235761999618262,True,16
A029K23,640,experiment,120,↓,up,↑,0.6734961001202464,False,16
A029K23,641,experiment,84,↓,down,↓,0.8139724000357091,True,16
A029K23,642,experiment,96,←,right,→,0.7603542001452297,False,16
A029K23,643,experiment,12,→,right,→,1.5008429998997599,True,16
A029K23,644,experiment,48,↓,down,↓,1.1354654000606388,True,16
A029K23,645,experiment,156,→,up,↑,1.2253336000721902,False,16
A029K23,646,experiment,108,↓,down,↓,0.8139903000555933,True,16
A029K23,647,experiment,108,→,right,→,0.6569380001164973,True,16
A029K23,648,experiment,48,←,left,←,0.9429049999453127,True,16
A029K23,649,experiment,84,↑,up,↑,0.7180379999335855,True,16
A029K23,650,experiment,36,←,left,←,0.7038817999418825,True,16
A029K23,651,experiment,120,←,right,→,0.5490753999911249,False,16
A029K23,652,experiment,36,→,right,→,0.7786878000479192,True,16
A029K23,653,experiment,168,↓,down,↓,0.7660725999157876,True,16
A029K23,654,experiment,144,←,right,→,0.7847070000134408,False,16
A029K23,655,experiment,156,↓,down,↓,0.7830705000087619,True,16
A029K23,656,experiment,48,↓,down,↓,0.9308301000855863,True,16
A029K23,657,experiment,24,↑,up,↑,0.7026726000476629,True,16
A029K23,658,experiment,180,←,left,←,1.6362562000285834,True,16
A029K23,659,experiment,72,↑,up,↑,0.47680649999529123,True,16
A029K23,660,experiment,84,↑,up,↑,0.5910052000544965,True,16
A029K23,661,training,48,↑,up,↑,0.5033898998517543,True,16
A029K23,662,training,168,↑,up,↑,0.49955369997769594,True,16
A029K23,663,training,108,←,left,←,0.6337470000144094,True,16
A029K23,664,experiment,108,→,left,←,0.5116511001251638,False,16
A029K23,665,experiment,168,↓,down,↓,0.5638607000000775,True,16
A029K23,666,experiment,84,↑,down,↓,1.0002715000882745,False,16
A029K23,667,experiment,120,↑,up,↑,0.5235612001270056,True,16
A029K23,668,experiment,24,↑,up,↑,0.5258432999253273,True,16
A029K23,669,experiment,72,↓,down,↓,0.5514348999131471,True,16
A029K23,670,experiment,72,←,left,←,0.5350130000151694,True,16
A029K23,671,experiment,180,↓,left,←,0.5248295001219958,False,16
A029K23,672,experiment,132,↓,down,↓,0.5129253999330103,True,16
A029K23,673,experiment,60,↓,up,↑,0.5812916001304984,False,16
A029K23,674,experiment,180,→,right,→,0.5557780999224633,True,16
A029K23,675,experiment,12,↑,up,↑,0.6527964998967946,True,16
A029K23,676,experiment,60,←,left,←,0.5078821999486536,True,16
A029K23,677,experiment,96,←,right,→,0.6821494998876005,False,16
A029K23,678,experiment,84,←,left,←,0.516263899859041,True,16
A029K23,679,experiment,132,↑,up,↑,0.5150953000411391,True,16
A029K23,680,experiment,48,↑,up,↑,0.6338387001305819,True,16
A029K23,681,experiment,168,↓,down,↓,0.5202985999640077,True,16
A029K23,682,experiment,120,→,left,←,1.0070885999593884,False,16
A029K23,683,experiment,36,↑,up,↑,0.567896299995482,True,16
A029K23,684,experiment,48,↓,down,↓,0.5208275998011231,True,16
A029K23,685,experiment,108,←,right,→,0.7359141998458654,False,16
A029K23,686,experiment,96,→,right,→,0.4853389000054449,True,16
A029K23,687,experiment,108,→,right,→,0.6615101001225412,True,16
A029K23,688,experiment,120,→,right,→,0.6384782998356968,True,16
A029K23,689,experiment,72,→,right,→,0.9624429999385029,True,16
A029K23,690,experiment,48,→,right,→,0.6528593001421541,True,16
A029K23,691,experiment,48,↓,down,↓,0.7073691999539733,True,16
A029K23,692,experiment,12,→,right,→,0.8034995999187231,True,16
A029K23,693,experiment,60,→,right,→,1.2425335999578238,True,16
A029K23,694,experiment,36,←,left,←,0.5213935999199748,True,16
A029K23,695,experiment,72,↓,up,↑,1.203375699929893,False,16
A029K23,696,experiment,180,↓,up,↑,0.6271691999863833,False,16
A029K23,697,experiment,156,↑,up,↑,0.6218872000463307,True,16
A029K23,698,experiment,168,↓,down,↓,0.5704604999627918,True,16
A029K23,699,experiment,168,←,left,←,0.7480834999587387,True,16
A029K23,700,experiment,108,↓,up,↑,0.7650403000880033,False,16
A029K23,701,experiment,60,→,right,→,0.5652821001131088,True,16
A029K23,702,experiment,120,↑,up,↑,0.4621305000036955,True,16
A029K23,703,experiment,132,→,right,→,1.190146000124514,True,16
A029K23,704,experiment,180,↑,up,↑,0.7265045999083668,True,16
A029K23,705,experiment,36,→,right,→,1.0107097998261452,True,16
A029K23,706,experiment,156,↓,up,↑,1.1717785000801086,False,16
A029K23,707,experiment,144,→,right,→,0.4832033000420779,True,16
A029K23,708,experiment,12,↑,no_key,no_letter,-1.0,False,16
A029K23,709,experiment,144,↑,up,↑,0.4523253000807017,True,16
A029K23,710,experiment,96,↓,left,←,1.4114862999413162,False,16
A029K23,711,experiment,84,↓,up,↑,0.5712000001221895,False,16
A029K23,712,experiment,12,↓,down,↓,0.6388542999047786,True,16
A029K23,713,experiment,96,←,right,→,0.6235308998730034,False,16
A029K23,714,experiment,132,→,right,→,0.47060439991764724,True,16
A029K23,715,experiment,144,↓,down,↓,0.6800572001375258,True,16
A029K23,716,experiment,156,→,right,→,0.4988171001896262,True,16
A029K23,717,experiment,24,→,left,←,0.8566241001244634,False,16
A029K23,718,experiment,84,←,left,←,0.666201600106433,True,16
A029K23,719,experiment,24,↑,up,↑,0.710565600078553,True,16
A029K23,720,experiment,156,↑,up,↑,0.8278693999163806,True,16
A029K23,721,experiment,24,↑,up,↑,0.7837865999899805,True,16
A029K23,722,experiment,144,→,right,→,1.0554064998868853,True,16
A029K23,723,experiment,36,→,right,→,0.6405237000435591,True,16
A029K23,724,training,120,↓,down,↓,0.9413721000310034,True,16
A029K23,725,training,132,→,up,↑,0.5604646999854594,False,16
A029K23,726,training,180,→,right,→,0.4709835001267493,True,16
A029K23,727,experiment,12,↓,down,↓,0.7782296999357641,True,16
A029K23,728,experiment,12,←,right,→,0.6273934999480844,False,16
A029K23,729,experiment,156,↑,up,↑,0.6736210000235587,True,16
A029K23,730,experiment,120,↑,up,↑,0.4711813998874277,True,16
A029K23,731,experiment,144,→,right,→,0.5854454999789596,True,16
A029K23,732,experiment,60,←,right,→,0.5122515000402927,False,16
A029K23,733,experiment,168,←,left,←,0.4504190001171082,True,16
A029K23,734,experiment,84,→,right,→,0.4951291000470519,True,16
A029K23,735,experiment,24,→,right,→,0.9132552999071777,True,16
A029K23,736,experiment,144,→,right,→,0.5151015999726951,True,16
A029K23,737,experiment,12,→,right,→,0.47546020010486245,True,16
A029K23,738,experiment,36,←,right,→,0.6599828000180423,False,16
A029K23,739,experiment,48,←,left,←,0.5480889999307692,True,16
A029K23,740,experiment,108,↓,down,↓,0.5397849001456052,True,16
A029K23,741,experiment,60,←,right,→,0.8085692001041025,False,16
A029K23,742,experiment,168,→,right,→,0.6466390998102725,True,16
A029K23,743,experiment,132,↑,right,→,1.2387096001766622,False,16
A029K23,744,experiment,156,→,right,→,0.5556530000176281,True,16
A029K23,745,experiment,108,←,left,←,0.6185711999423802,True,16
A029K23,746,experiment,108,→,right,→,0.5940648999530822,True,16
A029K23,747,experiment,96,←,left,←,0.7113971998915076,True,16
A029K23,748,experiment,156,←,left,←,0.7151976001914591,True,16
A029K23,749,experiment,48,←,right,→,0.5136824999935925,False,16
A029K23,750,experiment,132,←,left,←,0.4864070999901742,True,16
A029K23,751,experiment,60,↑,up,↑,1.8045954999979585,True,16
A029K23,752,experiment,96,↑,up,↑,0.6280928999185562,True,16
A029K23,753,experiment,36,↓,down,↓,0.5433700000867248,True,16
A029K23,754,experiment,84,←,left,←,0.56758559984155,True,16
A029K23,755,experiment,168,→,right,→,0.6035762999672443,True,16
A029K23,756,experiment,180,↓,right,→,0.6778275000397116,False,16
A029K23,757,experiment,72,→,right,→,0.6755981999449432,True,16
A029K23,758,experiment,108,→,right,→,0.6032076999545097,True,16
A029K23,759,experiment,144,→,right,→,1.113767199916765,True,16
A029K23,760,experiment,180,↑,up,↑,0.5787542001344264,True,16
A029K23,761,experiment,72,↓,down,↓,0.6406480998266488,True,16
A029K23,762,experiment,132,→,right,→,0.7037866997998208,True,16
A029K23,763,experiment,48,←,right,→,0.8395547000691295,False,16
A029K23,764,experiment,24,↑,up,↑,0.5578604000620544,True,16
A029K23,765,experiment,96,↓,down,↓,0.5349246000405401,True,16
A029K23,766,experiment,180,→,right,→,0.4992678000126034,True,16
A029K23,767,experiment,72,↑,right,→,0.7990117999725044,False,16
A029K23,768,experiment,120,↓,left,←,1.810065699974075,False,16
A029K23,769,experiment,120,↓,left,←,0.8160569998435676,False,16
A029K23,770,experiment,72,→,right,→,0.5090656999964267,True,16
A029K23,771,experiment,168,↑,up,↑,0.877430000109598,True,16
A029K23,772,experiment,156,↓,down,↓,0.9954032001551241,True,16
A029K23,773,experiment,36,↑,up,↑,0.5124663999304175,True,16
A029K23,774,experiment,12,←,left,←,0.6259535001590848,True,16
A029K23,775,experiment,144,↓,down,↓,0.5490530000533909,True,16
A029K23,776,experiment,48,→,right,→,0.5081611000932753,True,16
A029K23,777,experiment,96,↑,up,↑,0.6480135000310838,True,16
A029K23,778,experiment,132,←,no_key,no_letter,-1.0,False,16
A029K23,779,experiment,24,↓,left,←,1.0849955000448972,False,16
A029K23,780,experiment,120,←,left,←,0.48906849999912083,True,16
A029K23,781,experiment,36,←,left,←,0.7881341997999698,True,16
A029K23,782,experiment,84,↑,up,↑,0.6031704000197351,True,16
A029K23,783,experiment,24,↓,up,↑,1.3525825999677181,False,16
A029K23,784,experiment,60,↓,down,↓,0.6574249998666346,True,16
A029K23,785,experiment,84,↑,down,↓,0.9151484000030905,False,16
A029K23,786,experiment,180,↑,up,↑,0.7999041001312435,True,16
A029K23,787,training,36,↑,right,→,0.7078241999261081,False,16
A029K23,788,training,84,↓,up,↑,0.6540737000759691,False,16
A029K23,789,training,168,↑,up,↑,1.1282645999453962,True,16
A029K23,790,experiment,120,↓,down,↓,0.4881213998887688,True,16
A029K23,791,experiment,180,↓,down,↓,1.0377947001252323,True,16
A029K23,792,experiment,132,↑,right,→,0.5790822000708431,False,16
A029K23,793,experiment,108,↑,up,↑,0.572239900007844,True,16
A029K23,794,experiment,84,↓,down,↓,0.5111243999563158,True,16
A029K23,795,experiment,144,↑,up,↑,0.5950400999281555,True,16
A029K23,796,experiment,156,↓,up,↑,0.7002605001907796,False,16
A029K23,797,experiment,120,→,right,→,0.6297840001061559,True,16
A029K23,798,experiment,96,↓,up,↑,0.5568385999649763,False,16
A029K23,799,experiment,48,↓,right,→,0.5776794999837875,False,16
A029K23,800,experiment,72,→,right,→,0.4573273998685181,True,16
A029K23,801,experiment,168,↓,right,→,0.5459654000587761,False,16
A029K23,802,experiment,24,←,right,→,0.5769843999296427,False,16
A029K23,803,experiment,12,↓,down,↓,0.6317350999452174,True,16
A029K23,804,experiment,96,←,left,←,0.5202236999757588,True,16
A029K23,805,experiment,36,←,right,→,0.47922679991461337,False,16
A029K23,806,experiment,132,←,right,→,0.5378221001010388,False,16
A029K23,807,experiment,96,→,right,→,0.6111047999002039,True,16
A029K23,808,experiment,156,←,left,←,0.5161463001277298,True,16
A029K23,809,experiment,168,→,right,→,0.5803261999972165,True,16
A029K23,810,experiment,60,→,right,→,0.5357981999404728,True,16
A029K23,811,experiment,72,←,left,←,0.458517599850893,True,16
A029K23,812,experiment,108,↑,up,↑,0.8964212997816503,True,16
A029K23,813,experiment,72,↑,up,↑,0.40080820000730455,True,16
A029K23,814,experiment,12,↓,down,↓,0.6551693000365049,True,16
A029K23,815,experiment,24,↑,up,↑,0.6221586999017745,True,16
A029K23,816,experiment,60,↓,down,↓,0.5658185000065714,True,16
A029K23,817,experiment,108,←,left,←,0.7814517999067903,True,16
A029K23,818,experiment,96,↑,right,→,0.6256938001606613,False,16
A029K23,819,experiment,108,←,right,→,0.7901677000336349,False,16
A029K23,820,experiment,156,←,right,→,0.4511589000467211,False,16
A029K23,821,experiment,180,↑,up,↑,0.4541309999767691,True,16
A029K23,822,experiment,24,←,right,→,0.6243380999658257,False,16
A029K23,823,experiment,12,←,left,←,0.527251899940893,True,16
A029K23,824,experiment,156,↓,no_key,no_letter,-1.0,False,16
A029K23,825,experiment,132,↓,down,↓,0.5497067000251263,True,16
A029K23,826,experiment,120,←,left,←,0.5527683000545949,True,16
A029K23,827,experiment,84,→,right,→,0.6570870000869036,True,16
A029K23,828,experiment,72,↓,down,↓,0.5500367998611182,True,16
A029K23,829,experiment,144,↑,right,→,1.4625323000364006,False,16
A029K23,830,experiment,48,→,right,→,0.9474450999405235,True,16
A029K23,831,experiment,36,↑,right,→,1.0674044000916183,False,16
A029K23,832,experiment,36,→,right,→,0.4551468000281602,True,16
A029K23,833,experiment,180,↑,up,↑,0.6231809998862445,True,16
A029K23,834,experiment,48,↑,left,←,0.7994297000113875,False,16
A029K23,835,experiment,84,→,right,→,0.7868701000697911,True,16
A029K23,836,experiment,60,→,left,←,1.7490438998211175,False,16
A029K23,837,experiment,36,↓,up,↑,0.6961296000517905,False,16
A029K23,838,experiment,144,↑,up,↑,0.5230864000041038,True,16
A029K23,839,experiment,168,←,left,←,0.47110849991440773,True,16
A029K23,840,experiment,168,←,right,→,0.5667915001977235,False,16
A029K23,841,experiment,132,↑,up,↑,0.6495079000014812,True,16
A029K23,842,experiment,12,→,right,→,0.5744899001438171,True,16
A029K23,843,experiment,84,↑,up,↑,0.6090343000832945,True,16
A029K23,844,experiment,120,↓,up,↑,0.7142694999929518,False,16
A029K23,845,experiment,144,→,right,→,0.5503595999907702,True,16
A029K23,846,experiment,60,→,right,→,0.5728764000814408,True,16
A029K23,847,experiment,24,↑,left,←,1.3043494999874383,False,16
A029K23,848,experiment,48,←,left,←,0.44319060002453625,True,16
A029K23,849,experiment,180,↑,up,↑,0.567465600091964,True,16
