PART_ID,Trial_no,Trial_type,PDI,Stim_letter,Key_pressed,letter_choose,Rt,Corr,Stimulus Time
A031K23,1,training,10,→,no_key,no_letter,-1.0,False,30
A031K23,2,training,10,←,up,↑,1.9821625000040513,False,30
A031K23,3,training,10,←,left,←,1.6238741999986814,True,30
A031K23,4,training,10,→,right,→,1.4447280999884242,True,30
A031K23,5,training,10,↓,down,↓,0.9647237999888603,True,30
A031K23,6,training,10,↓,down,↓,0.8315170999994734,True,30
A031K23,7,training,10,→,right,→,0.9666193000011845,True,30
A031K23,8,training,10,↑,down,↓,1.8309760999982245,False,30
A031K23,9,training,10,↓,down,↓,0.9387949000083609,True,30
A031K23,10,training,10,→,right,→,0.5671997999888845,True,30
A031K23,11,training,10,↑,down,↓,0.6005886000057217,False,30
A031K23,12,training,10,←,left,←,0.58359159999236,True,30
A031K23,13,training,10,↓,down,↓,0.7115003999933833,True,30
A031K23,14,training,10,←,left,←,1.4531782999983989,True,30
A031K23,15,training,10,←,left,←,0.9347719999932451,True,30
A031K23,16,training,10,←,left,←,0.6004620000021532,True,30
A031K23,17,training,10,↓,down,↓,0.8361694000050193,True,30
A031K23,18,training,10,→,right,→,0.8289234999974724,True,30
A031K23,19,training,10,→,right,→,0.9265546999959042,True,30
A031K23,20,training,10,↓,down,↓,0.6828045000002021,True,30
A031K23,21,training,10,→,right,→,0.5679895000066608,True,18
A031K23,22,training,10,↑,up,↑,0.9315103999979328,True,18
A031K23,23,training,10,↓,down,↓,0.5499939000001177,True,18
A031K23,24,training,10,↓,down,↓,0.6795532999967691,True,18
A031K23,25,training,10,↓,down,↓,0.4803111999935936,True,18
A031K23,26,training,10,→,right,→,0.8550725000095554,True,18
A031K23,27,training,10,→,right,→,0.8122139000042807,True,18
A031K23,28,training,10,←,left,←,0.6587939000019105,True,18
A031K23,29,training,10,←,left,←,0.7387371999939205,True,18
A031K23,30,training,10,↓,down,↓,0.6363186999951722,True,18
A031K23,31,training,72,←,left,←,0.802204099993105,True,15
A031K23,32,training,24,↑,down,↓,1.4339750000071945,False,15
A031K23,33,training,84,↓,up,↑,0.9431397000007564,False,15
A031K23,34,experiment,132,↑,left,←,1.6669910000055097,False,15
A031K23,35,experiment,108,↑,up,↑,0.7514295000000857,True,15
A031K23,36,experiment,144,↑,up,↑,0.9105730000010226,True,15
A031K23,37,experiment,108,↑,up,↑,0.9817400000029011,True,15
A031K23,38,experiment,24,↑,no_key,no_letter,-1.0,False,15
A031K23,39,experiment,120,↑,down,↓,0.7997975000034785,False,15
A031K23,40,experiment,72,→,left,←,0.9152238999959081,False,15
A031K23,41,experiment,12,↓,right,→,1.3623067000007723,False,15
A031K23,42,experiment,84,→,up,↑,1.6445223000046099,False,15
A031K23,43,experiment,168,↑,left,←,1.6695449999970151,False,15
A031K23,44,experiment,24,←,left,←,0.7895466000045417,True,15
A031K23,45,experiment,84,→,right,→,0.7902546999976039,True,15
A031K23,46,experiment,144,←,left,←,0.7967806999949971,True,15
A031K23,47,experiment,180,↑,up,↑,1.7757010999921476,True,15
A031K23,48,experiment,48,←,no_key,no_letter,-1.0,False,15
A031K23,49,experiment,84,↑,up,↑,1.356943399994634,True,15
A031K23,50,experiment,36,←,no_key,no_letter,-1.0,False,15
A031K23,51,experiment,108,↑,up,↑,0.5644202999974368,True,15
A031K23,52,experiment,180,↓,up,↑,1.3631688000023132,False,15
A031K23,53,experiment,156,↓,no_key,no_letter,-1.0,False,15
A031K23,54,experiment,156,←,left,←,0.7252560000051744,True,15
A031K23,55,experiment,72,←,left,←,0.6937032999994699,True,15
A031K23,56,experiment,168,↑,up,↑,1.0780595999967773,True,15
A031K23,57,experiment,132,←,left,←,0.6741704000014579,True,15
A031K23,58,experiment,168,→,left,←,1.2829283000028227,False,15
A031K23,59,experiment,12,↓,right,→,1.1188075999962166,False,15
A031K23,60,experiment,156,→,down,↓,1.5481409000058193,False,15
A031K23,61,experiment,132,↑,right,→,1.3197080000099959,False,15
A031K23,62,experiment,12,↓,down,↓,0.6609730000054697,True,15
A031K23,63,experiment,168,←,no_key,no_letter,-1.0,False,15
A031K23,64,experiment,12,↑,right,→,1.1779218000010587,False,15
A031K23,65,experiment,144,↓,up,↑,1.238526400004048,False,15
A031K23,66,experiment,132,↓,down,↓,0.9498057000018889,True,15
A031K23,67,experiment,60,→,right,→,0.8580375999881653,True,15
A031K23,68,experiment,120,←,no_key,no_letter,-1.0,False,15
A031K23,69,experiment,24,→,right,→,1.3849346999923,True,15
A031K23,70,experiment,72,→,left,←,1.2730819999997038,False,15
A031K23,71,experiment,60,→,left,←,1.1787309999926947,False,15
A031K23,72,experiment,120,→,right,→,0.5860252999991644,True,15
A031K23,73,experiment,36,←,up,↑,0.9802653999940958,False,15
A031K23,74,experiment,96,←,left,←,0.4731117000046652,True,15
A031K23,75,experiment,96,↓,down,↓,1.0773370999959297,True,15
A031K23,76,experiment,36,↑,right,→,0.8913381000020308,False,15
A031K23,77,experiment,156,→,right,→,1.243561299997964,True,15
A031K23,78,experiment,144,→,up,↑,1.31751660000009,False,15
A031K23,79,experiment,72,←,left,←,0.6506920999963768,True,15
A031K23,80,experiment,48,←,left,←,0.7185419000015827,True,15
A031K23,81,experiment,96,↓,down,↓,1.2582177000003867,True,15
A031K23,82,experiment,24,↓,up,↑,1.2571930999984033,False,15
A031K23,83,experiment,36,←,left,←,0.4485473000095226,True,15
A031K23,84,experiment,120,↓,down,↓,0.5678212999919197,True,15
A031K23,85,experiment,180,←,right,→,0.8045023000013316,False,15
A031K23,86,experiment,108,↓,down,↓,0.43273970000154804,True,15
A031K23,87,experiment,60,→,left,←,0.8472848000092199,False,15
A031K23,88,experiment,180,→,left,←,0.6462981999939075,False,15
A031K23,89,experiment,84,↓,up,↑,0.8647254999959841,False,15
A031K23,90,experiment,48,↓,down,↓,1.0877891999989515,True,15
A031K23,91,experiment,60,↑,up,↑,0.8329937999951653,True,15
A031K23,92,experiment,48,←,left,←,0.47910939999565016,True,15
A031K23,93,experiment,96,←,left,←,0.38355009999941103,True,15
A031K23,94,training,60,↑,down,↓,1.0423481000034371,False,16
A031K23,95,training,132,↑,up,↑,0.8001903999975184,True,16
A031K23,96,training,168,→,left,←,0.9103866999939783,False,16
A031K23,97,experiment,168,→,left,←,0.7477490999881411,False,16
A031K23,98,experiment,12,←,right,→,0.8165503000054741,False,16
A031K23,99,experiment,72,↓,down,↓,0.9596345000027213,True,16
A031K23,100,experiment,96,↑,up,↑,1.0928544999915175,True,16
A031K23,101,experiment,72,→,left,←,1.1803723000048194,False,16
A031K23,102,experiment,156,↑,up,↑,1.2759710000100313,True,16
A031K23,103,experiment,24,←,right,→,0.8802275999914855,False,16
A031K23,104,experiment,24,→,right,→,1.343605200003367,True,16
A031K23,105,experiment,156,←,left,←,0.9401005999970948,True,16
A031K23,106,experiment,60,→,left,←,1.1765083999925992,False,16
A031K23,107,experiment,12,↓,down,↓,0.755449199990835,True,16
A031K23,108,experiment,108,↑,up,↑,0.6203546000033384,True,16
A031K23,109,experiment,108,←,left,←,0.7725801000051433,True,16
A031K23,110,experiment,132,↑,up,↑,0.5956202999950619,True,16
A031K23,111,experiment,132,↑,up,↑,0.6493458000040846,True,16
A031K23,112,experiment,120,→,left,←,1.0254181000054814,False,16
A031K23,113,experiment,120,←,left,←,0.7279693999880692,True,16
A031K23,114,experiment,24,←,down,↓,1.2905013999989023,False,16
A031K23,115,experiment,84,→,left,←,0.7331724000105169,False,16
A031K23,116,experiment,180,←,left,←,0.6740690000005998,True,16
A031K23,117,experiment,132,←,left,←,1.3943377999967197,True,16
A031K23,118,experiment,24,↑,right,→,0.9271961000049487,False,16
A031K23,119,experiment,144,↓,no_key,no_letter,-1.0,False,16
A031K23,120,experiment,108,↑,up,↑,0.7773973000003025,True,16
A031K23,121,experiment,168,↑,up,↑,0.6277761999954237,True,16
A031K23,122,experiment,156,↓,up,↑,1.1247373999940464,False,16
A031K23,123,experiment,84,↓,down,↓,0.6818978000083007,True,16
A031K23,124,experiment,60,↓,left,←,1.1903816999983974,False,16
A031K23,125,experiment,36,↑,up,↑,0.8410847000050126,True,16
A031K23,126,experiment,72,→,left,←,0.8422572999988915,False,16
A031K23,127,experiment,120,←,left,←,0.4921180999954231,True,16
A031K23,128,experiment,36,→,right,→,0.4676158999936888,True,16
A031K23,129,experiment,144,↑,down,↓,1.3407405000034487,False,16
A031K23,130,experiment,96,←,left,←,0.5991903000103775,True,16
A031K23,131,experiment,96,←,left,←,0.6249414999911096,True,16
A031K23,132,experiment,48,→,right,→,0.5453187000093749,True,16
A031K23,133,experiment,108,↓,down,↓,0.8388558000006014,True,16
A031K23,134,experiment,120,→,right,→,0.638718100002734,True,16
A031K23,135,experiment,36,↓,down,↓,1.0923770999943372,True,16
A031K23,136,experiment,12,↓,left,←,0.9099399999977322,False,16
A031K23,137,experiment,84,↑,up,↑,0.9267719000054058,True,16
A031K23,138,experiment,36,→,right,→,0.7693567999958759,True,16
A031K23,139,experiment,168,↓,down,↓,0.8305057999968994,True,16
A031K23,140,experiment,180,→,right,→,1.0491758999996819,True,16
A031K23,141,experiment,48,→,left,←,0.6108721000055084,False,16
A031K23,142,experiment,156,←,left,←,1.35889460000908,True,16
A031K23,143,experiment,144,↓,no_key,no_letter,-1.0,False,16
A031K23,144,experiment,60,↓,down,↓,0.5496432999934768,True,16
A031K23,145,experiment,144,↓,down,↓,0.7881313000107184,True,16
A031K23,146,experiment,72,↑,up,↑,1.4700195999903372,True,16
A031K23,147,experiment,96,↑,left,←,1.420759000000544,False,16
A031K23,148,experiment,180,↑,left,←,1.833593599993037,False,16
A031K23,149,experiment,48,←,left,←,1.1238883000041824,True,16
A031K23,150,experiment,84,→,left,←,1.594706000003498,False,16
A031K23,151,experiment,12,↑,up,↑,0.9925395999889588,True,16
A031K23,152,experiment,60,↑,up,↑,1.5343006000039168,True,16
A031K23,153,experiment,132,↑,right,→,1.3655652000015834,False,16
A031K23,154,experiment,48,←,right,→,0.6832506999926409,False,16
A031K23,155,experiment,180,←,right,→,1.2385195000097156,False,16
A031K23,156,experiment,168,↓,up,↑,1.3153694000066025,False,16
A031K23,157,training,36,→,left,←,0.5763273000047775,False,16
A031K23,158,training,156,←,left,←,0.5785458000027575,True,16
A031K23,159,training,156,↓,down,↓,0.6544169999979204,True,16
A031K23,160,experiment,84,←,left,←,0.5319988000119338,True,16
A031K23,161,experiment,60,→,left,←,0.9870464999985415,False,16
A031K23,162,experiment,168,↓,down,↓,0.7051756000000751,True,16
A031K23,163,experiment,48,→,right,→,0.9481142999866279,True,16
A031K23,164,experiment,60,↑,up,↑,0.8500365999934729,True,16
A031K23,165,experiment,72,←,left,←,0.6906165999971563,True,16
A031K23,166,experiment,108,→,right,→,0.8009637999930419,True,16
A031K23,167,experiment,84,→,right,→,0.851920400004019,True,16
A031K23,168,experiment,108,↑,up,↑,0.7207447999971919,True,16
A031K23,169,experiment,24,↓,down,↓,0.7595506999932695,True,16
A031K23,170,experiment,96,↓,right,→,1.2159662999911234,False,16
A031K23,171,experiment,84,←,left,←,0.7435033999936422,True,16
A031K23,172,experiment,132,→,up,↑,0.7348787000082666,False,16
A031K23,173,experiment,96,←,left,←,0.7547675999958301,True,16
A031K23,174,experiment,120,↑,up,↑,0.7050050999969244,True,16
A031K23,175,experiment,96,→,up,↑,1.0013182000111556,False,16
A031K23,176,experiment,36,↑,up,↑,1.0849863999901572,True,16
A031K23,177,experiment,72,←,left,←,0.8947366000065813,True,16
A031K23,178,experiment,144,←,left,←,1.0678179999958957,True,16
A031K23,179,experiment,12,↑,down,↓,1.21218129999761,False,16
A031K23,180,experiment,48,↑,left,←,0.7545041999983368,False,16
A031K23,181,experiment,72,→,right,→,0.6060307000007015,True,16
A031K23,182,experiment,60,↓,down,↓,1.1443250000011176,True,16
A031K23,183,experiment,180,↓,down,↓,0.8091706999985036,True,16
A031K23,184,experiment,168,↓,down,↓,1.2864485000027344,True,16
A031K23,185,experiment,156,↓,down,↓,0.7780307999928482,True,16
A031K23,186,experiment,156,↑,up,↑,0.5816244000016013,True,16
A031K23,187,experiment,84,←,left,←,0.630211199997575,True,16
A031K23,188,experiment,120,↓,down,↓,0.997164000000339,True,16
A031K23,189,experiment,120,→,right,→,0.6745342999929562,True,16
A031K23,190,experiment,12,←,left,←,1.122396499995375,True,16
A031K23,191,experiment,144,↓,down,↓,0.7069476000033319,True,16
A031K23,192,experiment,48,↑,down,↓,1.0322452999971574,False,16
A031K23,193,experiment,156,↓,up,↑,1.4586955999984639,False,16
A031K23,194,experiment,144,↓,up,↑,1.7470233000058215,False,16
A031K23,195,experiment,132,↓,down,↓,0.7832288999925368,True,16
A031K23,196,experiment,12,←,down,↓,0.7373200000001816,False,16
A031K23,197,experiment,132,↑,up,↑,0.8783603000047151,True,16
A031K23,198,experiment,120,↓,right,→,0.7469928999926196,False,16
A031K23,199,experiment,156,↓,down,↓,0.7457853999949293,True,16
A031K23,200,experiment,48,→,right,→,0.8195585000066785,True,16
A031K23,201,experiment,96,→,right,→,0.7946114999940619,True,16
A031K23,202,experiment,24,←,left,←,0.8314497000101255,True,16
A031K23,203,experiment,108,↓,up,↑,0.8012190000008559,False,16
A031K23,204,experiment,108,↑,up,↑,0.7378886999940732,True,16
A031K23,205,experiment,132,←,left,←,0.6452468000061344,True,16
A031K23,206,experiment,24,→,right,→,0.8561907000112114,True,16
A031K23,207,experiment,180,↓,down,↓,1.5587270999967586,True,16
A031K23,208,experiment,180,↑,up,↑,0.7722546000004513,True,16
A031K23,209,experiment,60,↑,left,←,0.7870956999977352,False,16
A031K23,210,experiment,24,→,right,→,0.5104946000064956,True,16
A031K23,211,experiment,36,↑,up,↑,0.7375670000037644,True,16
A031K23,212,experiment,144,↑,left,←,0.8195932999951765,False,16
A031K23,213,experiment,180,←,left,←,0.7194351000071038,True,16
A031K23,214,experiment,72,←,left,←,0.7069639999972424,True,16
A031K23,215,experiment,12,↑,up,↑,1.0539413999940734,True,16
A031K23,216,experiment,36,↑,up,↑,0.5931497999990825,True,16
A031K23,217,experiment,168,→,right,→,0.7785880000010366,True,16
A031K23,218,experiment,168,↓,left,←,0.7711949999938952,False,16
A031K23,219,experiment,36,↑,up,↑,0.8927477999968687,True,16
A031K23,220,training,60,→,left,←,0.8531439999933355,False,16
A031K23,221,training,36,→,right,→,0.7617534999881173,True,16
A031K23,222,training,156,→,left,←,0.7374523999897065,False,16
A031K23,223,experiment,72,↓,down,↓,0.814812399999937,True,16
A031K23,224,experiment,12,↑,up,↑,0.7151443999900948,True,16
A031K23,225,experiment,168,↑,up,↑,0.6913860000058776,True,16
A031K23,226,experiment,120,←,left,←,0.7391944999981206,True,16
A031K23,227,experiment,24,→,left,←,0.663011299999198,False,16
A031K23,228,experiment,132,→,right,→,0.5998095999966608,True,16
A031K23,229,experiment,36,←,right,→,1.0654406999965431,False,16
A031K23,230,experiment,120,→,right,→,0.8463482000079239,True,16
A031K23,231,experiment,144,←,left,←,0.7005298000003677,True,16
A031K23,232,experiment,72,←,left,←,0.8117452000005869,True,16
A031K23,233,experiment,36,↑,up,↑,0.6553961000026902,True,16
A031K23,234,experiment,156,→,no_key,no_letter,-1.0,False,16
A031K23,235,experiment,108,→,no_key,no_letter,-1.0,False,16
A031K23,236,experiment,144,→,right,→,0.8013710999948671,True,16
A031K23,237,experiment,132,←,left,←,0.7493247000093106,True,16
A031K23,238,experiment,36,↓,up,↑,0.9185893000103533,False,16
A031K23,239,experiment,24,↑,up,↑,0.5969672999926843,True,16
A031K23,240,experiment,168,↓,down,↓,0.9269945999985794,True,16
A031K23,241,experiment,84,↓,down,↓,1.1340295999980299,True,16
A031K23,242,experiment,168,↓,up,↑,0.8283636999985902,False,16
A031K23,243,experiment,108,↑,up,↑,0.7850523000088288,True,16
A031K23,244,experiment,180,←,left,←,0.7462644000042928,True,16
A031K23,245,experiment,156,↑,up,↑,0.7798906999960309,True,16
A031K23,246,experiment,144,↑,up,↑,0.6746897999983048,True,16
A031K23,247,experiment,72,↓,up,↑,0.8195556999999098,False,16
A031K23,248,experiment,96,→,right,→,1.046044599992456,True,16
A031K23,249,experiment,24,→,right,→,0.9957721999962814,True,16
A031K23,250,experiment,84,↓,up,↑,1.2344969999976456,False,16
A031K23,251,experiment,96,↓,left,←,1.2309369999857154,False,16
A031K23,252,experiment,144,↑,up,↑,0.7418582000100287,True,16
A031K23,253,experiment,132,←,left,←,0.6412992999976268,True,16
A031K23,254,experiment,180,←,left,←,0.6588284000026761,True,16
A031K23,255,experiment,96,→,left,←,0.6411737000016728,False,16
A031K23,256,experiment,60,↓,down,↓,0.7632454999984475,True,16
A031K23,257,experiment,108,↑,down,↓,0.8423774000111734,False,16
A031K23,258,experiment,60,↑,up,↑,0.7121323000028497,True,16
A031K23,259,experiment,48,→,left,←,0.7036821999936365,False,16
A031K23,260,experiment,180,←,left,←,0.630675299995346,True,16
A031K23,261,experiment,24,←,left,←,0.6641433999902802,True,16
A031K23,262,experiment,132,→,left,←,0.7901633000001311,False,16
A031K23,263,experiment,12,↓,up,↑,0.6762445000058506,False,16
A031K23,264,experiment,168,←,left,←,0.5476917999912985,True,16
A031K23,265,experiment,60,←,left,←,0.7465421000088099,True,16
A031K23,266,experiment,156,←,left,←,0.7493047999887494,True,16
A031K23,267,experiment,156,←,left,←,0.7839919999969425,True,16
A031K23,268,experiment,120,↓,left,←,0.9709395999961998,False,16
A031K23,269,experiment,36,←,down,↓,1.1488370000006398,False,16
A031K23,270,experiment,84,↑,up,↑,0.6526012000103947,True,16
A031K23,271,experiment,48,←,left,←,0.6987073000054806,True,16
A031K23,272,experiment,108,←,left,←,0.652457799995318,True,16
A031K23,273,experiment,48,←,no_key,no_letter,-1.0,False,16
A031K23,274,experiment,48,←,left,←,0.697441099997377,True,16
A031K23,275,experiment,120,→,right,→,0.7247250000073109,True,16
A031K23,276,experiment,12,↑,up,↑,0.8452723000082187,True,16
A031K23,277,experiment,60,←,left,←,0.7066967999999179,True,16
A031K23,278,experiment,12,↓,no_key,no_letter,-1.0,False,16
A031K23,279,experiment,84,←,no_key,no_letter,-1.0,False,16
A031K23,280,experiment,72,→,right,→,0.8321711000025971,True,16
A031K23,281,experiment,96,↑,up,↑,1.0547947000013664,True,16
A031K23,282,experiment,180,↑,up,↑,0.7777602999994997,True,16
A031K23,283,training,180,↑,no_key,no_letter,-1.0,False,16
A031K23,284,training,108,↑,up,↑,0.582818099996075,True,16
A031K23,285,training,72,↓,down,↓,0.8586885999975493,True,16
A031K23,286,experiment,156,→,right,→,0.7165549000055762,True,16
A031K23,287,experiment,180,→,right,→,0.9366860000009183,True,16
A031K23,288,experiment,36,←,left,←,0.7092049999919254,True,16
A031K23,289,experiment,168,↑,up,↑,0.6267939999961527,True,16
A031K23,290,experiment,132,←,left,←,0.6131364000029862,True,16
A031K23,291,experiment,72,↓,down,↓,0.7496414000052027,True,16
A031K23,292,experiment,108,→,right,→,0.533975600003032,True,16
A031K23,293,experiment,156,←,left,←,1.2204266999906395,True,16
A031K23,294,experiment,60,←,up,↑,1.076215000008233,False,16
A031K23,295,experiment,120,→,right,→,0.7522912999993423,True,16
A031K23,296,experiment,84,↓,down,↓,0.5581385000114096,True,16
A031K23,297,experiment,72,↓,no_key,no_letter,-1.0,False,16
A031K23,298,experiment,36,↓,up,↑,1.2413378000055673,False,16
A031K23,299,experiment,48,→,left,←,0.974413200005074,False,16
A031K23,300,experiment,84,→,right,→,1.158439199993154,True,16
A031K23,301,experiment,60,←,left,←,0.6997696999897016,True,16
A031K23,302,experiment,24,←,no_key,no_letter,-1.0,False,16
A031K23,303,experiment,168,↑,up,↑,0.7737139999953797,True,16
A031K23,304,experiment,72,↑,up,↑,1.0358192999992752,True,16
A031K23,305,experiment,24,←,left,←,0.752264800001285,True,16
A031K23,306,experiment,144,→,left,←,1.0670163999893703,False,16
A031K23,307,experiment,144,←,left,←,0.6505069000122603,True,16
A031K23,308,experiment,12,←,no_key,no_letter,-1.0,False,16
A031K23,309,experiment,120,←,left,←,0.5935888000094565,True,16
A031K23,310,experiment,48,↑,up,↑,0.6379364999884274,True,16
A031K23,311,experiment,36,↓,up,↑,0.6434560999914538,False,16
A031K23,312,experiment,96,→,left,←,0.6911760999937542,False,16
A031K23,313,experiment,144,←,left,←,0.6348047999927076,True,16
A031K23,314,experiment,132,→,left,←,0.849503299992648,False,16
A031K23,315,experiment,72,↓,down,↓,0.7756443999969633,True,16
A031K23,316,experiment,36,→,no_key,no_letter,-1.0,False,16
A031K23,317,experiment,156,↑,up,↑,0.7668982000031974,True,16
A031K23,318,experiment,108,↑,up,↑,1.3276995999913197,True,16
A031K23,319,experiment,12,↓,no_key,no_letter,-1.0,False,16
A031K23,320,experiment,132,↑,up,↑,0.6775618999963626,True,16
A031K23,321,experiment,180,↑,up,↑,0.5816945999977179,True,16
A031K23,322,experiment,12,←,left,←,0.7080624000082025,True,16
A031K23,323,experiment,12,↓,down,↓,1.203270900005009,True,16
A031K23,324,experiment,132,←,left,←,0.5741353000048548,True,16
A031K23,325,experiment,144,↓,down,↓,0.7087367000058293,True,16
A031K23,326,experiment,96,←,left,←,0.9970566999982111,True,16
A031K23,327,experiment,180,←,left,←,0.5266207000095164,True,16
A031K23,328,experiment,156,←,left,←,0.5614882999943802,True,16
A031K23,329,experiment,48,↑,no_key,no_letter,-1.0,False,16
A031K23,330,experiment,120,↑,up,↑,0.6462074000010034,True,16
A031K23,331,experiment,168,→,left,←,1.1004727999970783,False,16
A031K23,332,experiment,96,→,left,←,0.6110015000012936,False,16
A031K23,333,experiment,108,←,no_key,no_letter,-1.0,False,16
A031K23,334,experiment,120,↓,no_key,no_letter,-1.0,False,16
A031K23,335,experiment,48,↓,down,↓,0.812244799992186,True,16
A031K23,336,experiment,108,←,left,←,0.7237528999976348,True,16
A031K23,337,experiment,180,↑,up,↑,0.6902683999942383,True,16
A031K23,338,experiment,60,↑,up,↑,0.6693205000046873,True,16
A031K23,339,experiment,24,↑,up,↑,0.6030457000015303,True,16
A031K23,340,experiment,60,←,right,→,1.5730045000091195,False,16
A031K23,341,experiment,168,↓,down,↓,0.9842742000037106,True,16
A031K23,342,experiment,84,↑,up,↑,0.9578161999961594,True,16
A031K23,343,experiment,84,↑,down,↓,1.2389806999999564,False,16
A031K23,344,experiment,96,→,right,→,1.079862900005537,True,16
A031K23,345,experiment,24,↓,down,↓,0.8643930999969598,True,16
A031K23,346,training,108,↑,down,↓,0.947371900008875,False,16
A031K23,347,training,12,←,left,←,0.7915637999976752,True,16
A031K23,348,training,12,↓,down,↓,0.5241105999884894,True,16
A031K23,349,experiment,60,←,left,←,0.5631266999989748,True,16
A031K23,350,experiment,132,←,left,←,0.7043585999927018,True,16
A031K23,351,experiment,36,←,left,←,0.5580785999918589,True,16
A031K23,352,experiment,60,↓,down,↓,0.6317991000105394,True,16
A031K23,353,experiment,24,→,right,→,0.6453586999996332,True,16
A031K23,354,experiment,108,↓,down,↓,0.5836018999980297,True,16
A031K23,355,experiment,156,←,no_key,no_letter,-1.0,False,16
A031K23,356,experiment,168,←,left,←,0.5541040999960387,True,16
A031K23,357,experiment,48,↓,down,↓,0.6177311000064947,True,16
A031K23,358,experiment,72,↑,up,↑,0.6107692000077805,True,16
A031K23,359,experiment,48,→,right,→,0.556726200011326,True,16
A031K23,360,experiment,120,←,left,←,0.7743119999940973,True,16
A031K23,361,experiment,132,←,left,←,0.77699389999907,True,16
A031K23,362,experiment,84,→,right,→,0.7939756999985548,True,16
A031K23,363,experiment,12,↓,down,↓,0.6991886999894632,True,16
A031K23,364,experiment,156,←,left,←,0.6951659000042127,True,16
A031K23,365,experiment,60,→,right,→,0.776720199995907,True,16
A031K23,366,experiment,144,↑,up,↑,0.7613542000035523,True,16
A031K23,367,experiment,144,↑,up,↑,0.8572815999941668,True,16
A031K23,368,experiment,108,↓,no_key,no_letter,-1.0,False,16
A031K23,369,experiment,72,↑,up,↑,0.7323475999874063,True,16
A031K23,370,experiment,180,→,right,→,0.7083767000003718,True,16
A031K23,371,experiment,180,↑,no_key,no_letter,-1.0,False,16
A031K23,372,experiment,84,←,left,←,0.8612737999937963,True,16
A031K23,373,experiment,72,↑,up,↑,0.6271802999981446,True,16
A031K23,374,experiment,144,←,no_key,no_letter,-1.0,False,16
A031K23,375,experiment,12,←,left,←,0.7000395000068238,True,16
A031K23,376,experiment,96,↓,down,↓,0.8365912000008393,True,16
A031K23,377,experiment,12,↑,up,↑,0.803330199996708,True,16
A031K23,378,experiment,132,↓,down,↓,0.8914296999864746,True,16
A031K23,379,experiment,36,←,left,←,0.7905277000099886,True,16
A031K23,380,experiment,120,→,left,←,1.0143698000028962,False,16
A031K23,381,experiment,60,↑,down,↓,1.1503116999956546,False,16
A031K23,382,experiment,132,↑,up,↑,0.7045893000031356,True,16
A031K23,383,experiment,144,←,left,←,0.6208008999965386,True,16
A031K23,384,experiment,24,↓,down,↓,0.7332462000049418,True,16
A031K23,385,experiment,108,→,right,→,0.6687246000074083,True,16
A031K23,386,experiment,12,↑,no_key,no_letter,-1.0,False,16
A031K23,387,experiment,180,↑,up,↑,0.9219567999971332,True,16
A031K23,388,experiment,24,→,right,→,0.7117786000017077,True,16
A031K23,389,experiment,168,↓,up,↑,0.7421823000040604,False,16
A031K23,390,experiment,156,↑,up,↑,0.6034645000036107,True,16
A031K23,391,experiment,36,↑,no_key,no_letter,-1.0,False,16
A031K23,392,experiment,180,↓,down,↓,0.6737085999920964,True,16
A031K23,393,experiment,36,←,left,←,0.5951488999999128,True,16
A031K23,394,experiment,108,→,right,→,0.6274804999993648,True,16
A031K23,395,experiment,96,↓,down,↓,0.7427504999941448,True,16
A031K23,396,experiment,168,←,left,←,0.8039004999882309,True,16
A031K23,397,experiment,120,←,left,←,0.5853449999995064,True,16
A031K23,398,experiment,48,←,left,←,0.7805984000005992,True,16
A031K23,399,experiment,48,→,right,→,0.6637057999905664,True,16
A031K23,400,experiment,168,↓,down,↓,0.7111079000023892,True,16
A031K23,401,experiment,96,↓,down,↓,1.0748402000026545,True,16
A031K23,402,experiment,120,↑,down,↓,0.8768275000038557,False,16
A031K23,403,experiment,84,↑,up,↑,0.8812049999978626,True,16
A031K23,404,experiment,72,→,right,→,0.6537917000096058,True,16
A031K23,405,experiment,84,↑,up,↑,0.7949243999901228,True,16
A031K23,406,experiment,156,↓,down,↓,0.7042641000007279,True,16
A031K23,407,experiment,96,←,left,←,1.358212299994193,True,16
A031K23,408,experiment,24,→,right,→,0.8465068999939831,True,16
A031K23,409,training,84,←,right,→,0.9108884000015678,False,16
A031K23,410,training,144,↑,up,↑,0.6037129000033019,True,16
A031K23,411,training,36,↑,down,↓,1.0068103999947198,False,16
A031K23,412,experiment,12,→,right,→,0.6958763000002364,True,16
A031K23,413,experiment,60,↓,down,↓,0.696857100003399,True,16
A031K23,414,experiment,180,↑,up,↑,0.648620399995707,True,16
A031K23,415,experiment,96,↓,down,↓,0.7692669999960344,True,16
A031K23,416,experiment,72,→,no_key,no_letter,-1.0,False,16
A031K23,417,experiment,180,←,left,←,1.0729684999969322,True,16
A031K23,418,experiment,144,→,right,→,0.7257437000080245,True,16
A031K23,419,experiment,96,←,down,↓,0.9182739000098081,False,16
A031K23,420,experiment,84,→,left,←,0.7873445000004722,False,16
A031K23,421,experiment,84,←,left,←,0.6343507999990834,True,16
A031K23,422,experiment,96,↑,down,↓,1.0290964000014355,False,16
A031K23,423,experiment,12,→,up,↑,0.7235358000034466,False,16
A031K23,424,experiment,108,←,left,←,0.6177822000026936,True,16
A031K23,425,experiment,120,→,right,→,0.620113199998741,True,16
A031K23,426,experiment,24,→,right,→,0.6641558000119403,True,16
A031K23,427,experiment,168,←,left,←,0.6563680999970529,True,16
A031K23,428,experiment,24,→,left,←,0.7665855000086594,False,16
A031K23,429,experiment,132,←,left,←,0.7917971999995643,True,16
A031K23,430,experiment,132,↑,up,↑,0.8705676000099629,True,16
A031K23,431,experiment,144,←,left,←,0.8386708999896655,True,16
A031K23,432,experiment,12,↑,down,↓,0.6312086999969324,False,16
A031K23,433,experiment,168,→,left,←,1.1458830000046873,False,16
A031K23,434,experiment,48,→,right,→,0.6694187999964925,True,16
A031K23,435,experiment,60,←,left,←,0.6177730000053998,True,16
A031K23,436,experiment,108,↑,no_key,no_letter,-1.0,False,16
A031K23,437,experiment,108,←,left,←,0.7199262999929488,True,16
A031K23,438,experiment,72,↑,up,↑,0.637802900004317,True,16
A031K23,439,experiment,168,↓,down,↓,0.7099006000062218,True,16
A031K23,440,experiment,156,↓,down,↓,0.7025417000113521,True,16
A031K23,441,experiment,168,→,right,→,0.7046513999957824,True,16
A031K23,442,experiment,60,↑,up,↑,0.7865165999974124,True,16
A031K23,443,experiment,12,→,left,←,0.7596076000045286,False,16
A031K23,444,experiment,72,↑,up,↑,0.711835100009921,True,16
A031K23,445,experiment,144,↓,up,↑,0.8710776999942027,False,16
A031K23,446,experiment,24,←,right,→,0.9233120999997482,False,16
A031K23,447,experiment,120,←,left,←,0.6786336000077426,True,16
A031K23,448,experiment,84,→,right,→,0.8927540000004228,True,16
A031K23,449,experiment,180,→,right,→,0.5136700000002747,True,16
A031K23,450,experiment,120,←,left,←,0.5067619999899762,True,16
A031K23,451,experiment,144,→,left,←,1.060515300006955,False,16
A031K23,452,experiment,60,→,up,↑,1.1361529999994673,False,16
A031K23,453,experiment,180,→,right,→,0.6341969999921275,True,16
A031K23,454,experiment,36,↓,left,←,1.0063375000027008,False,16
A031K23,455,experiment,132,↓,up,↑,0.7197088999964762,False,16
A031K23,456,experiment,84,↓,up,↑,0.6219655999884708,False,16
A031K23,457,experiment,96,→,no_key,no_letter,-1.0,False,16
A031K23,458,experiment,120,→,right,→,0.584108399998513,True,16
A031K23,459,experiment,156,→,left,←,0.7219995000050403,False,16
A031K23,460,experiment,48,↑,up,↑,0.6635989000060363,True,16
A031K23,461,experiment,156,←,left,←,0.6710052999987965,True,16
A031K23,462,experiment,36,←,right,→,0.614807899997686,False,16
A031K23,463,experiment,36,←,left,←,0.838894500004244,True,16
A031K23,464,experiment,132,←,up,↑,0.7984773999924073,False,16
A031K23,465,experiment,48,→,right,→,1.1087932999944314,True,16
A031K23,466,experiment,36,→,no_key,no_letter,-1.0,False,16
A031K23,467,experiment,24,←,left,←,0.8961360000103014,True,16
A031K23,468,experiment,48,←,left,←,0.5955998999997973,True,16
A031K23,469,experiment,156,←,left,←,0.6537688999960665,True,16
A031K23,470,experiment,108,↓,down,↓,0.8458532000076957,True,16
A031K23,471,experiment,72,→,down,↓,1.1529571000137366,False,16
A031K23,472,training,168,←,left,←,0.8836401000007754,True,16
A031K23,473,training,120,↑,up,↑,0.6453394999989541,True,16
A031K23,474,training,72,→,right,→,0.6424459999980172,True,16
A031K23,475,experiment,36,↓,up,↑,0.803694500005804,False,16
A031K23,476,experiment,144,←,left,←,1.0139579000097,True,16
A031K23,477,experiment,60,←,left,←,1.151455499988515,True,16
A031K23,478,experiment,12,↓,down,↓,0.8055995000031544,True,16
A031K23,479,experiment,132,↑,up,↑,0.7911865000060061,True,16
A031K23,480,experiment,12,↑,no_key,no_letter,-1.0,False,16
A031K23,481,experiment,84,→,no_key,no_letter,-1.0,False,16
A031K23,482,experiment,156,→,no_key,no_letter,-1.0,False,16
A031K23,483,experiment,36,←,left,←,0.611135800005286,True,16
A031K23,484,experiment,144,↑,left,←,0.7362215000030119,False,16
A031K23,485,experiment,72,↓,down,↓,0.6489764999860199,True,16
A031K23,486,experiment,168,←,left,←,0.665622100001201,True,16
A031K23,487,experiment,48,↑,up,↑,0.5836051000078442,True,16
A031K23,488,experiment,168,↓,down,↓,0.8227691999927629,True,16
A031K23,489,experiment,96,↑,up,↑,0.5324346999987029,True,16
A031K23,490,experiment,120,→,right,→,0.6114393000025302,True,16
A031K23,491,experiment,48,↑,up,↑,0.5481336999946507,True,16
A031K23,492,experiment,108,→,right,→,0.6730072000063956,True,16
A031K23,493,experiment,24,↑,up,↑,0.8720388999936404,True,16
A031K23,494,experiment,144,↑,right,→,0.7202486000023782,False,16
A031K23,495,experiment,156,←,right,→,0.7224722999962978,False,16
A031K23,496,experiment,72,←,right,→,0.8284762999974191,False,16
A031K23,497,experiment,72,←,no_key,no_letter,-1.0,False,16
A031K23,498,experiment,84,↑,no_key,no_letter,-1.0,False,16
A031K23,499,experiment,72,←,left,←,0.8115525000030175,True,16
A031K23,500,experiment,180,→,right,→,0.6478664000023855,True,16
A031K23,501,experiment,96,←,left,←,0.7188910999975633,True,16
A031K23,502,experiment,108,←,left,←,0.773650400005863,True,16
A031K23,503,experiment,48,↓,down,↓,0.8048894999956246,True,16
A031K23,504,experiment,12,↑,up,↑,0.7728987000009511,True,16
A031K23,505,experiment,24,→,right,→,0.5425676999875577,True,16
A031K23,506,experiment,84,↑,up,↑,0.6780483999900753,True,16
A031K23,507,experiment,60,↓,down,↓,0.7041537000040989,True,16
A031K23,508,experiment,120,→,right,→,0.5530089999956544,True,16
A031K23,509,experiment,36,↓,down,↓,0.9139601999922888,True,16
A031K23,510,experiment,60,→,right,→,0.522479100007331,True,16
A031K23,511,experiment,156,↑,up,↑,0.6251118000072893,True,16
A031K23,512,experiment,180,←,left,←,0.5755784000066342,True,16
A031K23,513,experiment,156,↑,up,↑,0.7289509999973234,True,16
A031K23,514,experiment,168,↓,down,↓,0.5761118999944301,True,16
A031K23,515,experiment,132,←,left,←,0.6863355000095908,True,16
A031K23,516,experiment,96,←,left,←,0.610783199997968,True,16
A031K23,517,experiment,24,←,left,←,0.5535151999938535,True,16
A031K23,518,experiment,168,↑,up,↑,0.5937214000005042,True,16
A031K23,519,experiment,36,↓,up,↑,0.6939754000050016,False,16
A031K23,520,experiment,108,↑,up,↑,0.6283471000060672,True,16
A031K23,521,experiment,132,↓,down,↓,0.6430898999969941,True,16
A031K23,522,experiment,120,↑,up,↑,0.4807295000064187,True,16
A031K23,523,experiment,60,←,left,←,0.6243410000024596,True,16
A031K23,524,experiment,108,→,right,→,0.6555604000022868,True,16
A031K23,525,experiment,12,↑,up,↑,0.5493236999900546,True,16
A031K23,526,experiment,132,↑,up,↑,0.6133664999942994,True,16
A031K23,527,experiment,180,←,left,←,0.45850480000081006,True,16
A031K23,528,experiment,180,↓,down,↓,0.47059479999006726,True,16
A031K23,529,experiment,120,↓,down,↓,0.8096214999968652,True,16
A031K23,530,experiment,48,←,left,←,0.45188780000898987,True,16
A031K23,531,experiment,24,↑,up,↑,0.649197799997637,True,16
A031K23,532,experiment,96,→,no_key,no_letter,-1.0,False,16
A031K23,533,experiment,144,↓,down,↓,0.6206766999966931,True,16
A031K23,534,experiment,84,↓,down,↓,0.7378229000023566,True,16
A031K23,535,training,12,→,right,→,1.4997691000025952,True,16
A031K23,536,training,108,←,left,←,0.5507553000061307,True,16
A031K23,537,training,156,→,left,←,0.761326799998642,False,16
A031K23,538,experiment,120,→,right,→,0.47981470001104753,True,16
A031K23,539,experiment,60,←,right,→,0.7054745000059484,False,16
A031K23,540,experiment,180,↓,down,↓,0.7100165000010747,True,16
A031K23,541,experiment,156,←,left,←,0.7897455999918748,True,16
A031K23,542,experiment,24,→,right,→,0.5210981999989599,True,16
A031K23,543,experiment,60,←,left,←,0.7245088999916334,True,16
A031K23,544,experiment,48,↑,up,↑,0.5754087000095751,True,16
A031K23,545,experiment,84,→,right,→,0.6515252999961376,True,16
A031K23,546,experiment,168,↓,down,↓,0.6550828000035835,True,16
A031K23,547,experiment,24,←,left,←,0.6271227999968687,True,16
A031K23,548,experiment,96,←,left,←,0.6506306999945082,True,16
A031K23,549,experiment,144,→,right,→,0.6888954000023659,True,16
A031K23,550,experiment,36,↑,up,↑,0.5519348000088939,True,16
A031K23,551,experiment,84,←,left,←,0.5668084000062663,True,16
A031K23,552,experiment,48,↓,down,↓,0.6620107000053395,True,16
A031K23,553,experiment,72,→,left,←,0.6879208000027575,False,16
A031K23,554,experiment,12,→,right,→,0.7955232999956934,True,16
A031K23,555,experiment,132,↑,up,↑,1.516002300006221,True,16
A031K23,556,experiment,108,↑,up,↑,0.9943184000003384,True,16
A031K23,557,experiment,48,→,down,↓,1.3646030000090832,False,16
A031K23,558,experiment,132,↓,down,↓,0.5940826000005472,True,16
A031K23,559,experiment,180,←,right,→,0.9620390000054613,False,16
A031K23,560,experiment,168,↑,down,↓,0.881261500006076,False,16
A031K23,561,experiment,120,←,left,←,0.757938099995954,True,16
A031K23,562,experiment,108,←,left,←,0.5399235999939265,True,16
A031K23,563,experiment,144,↓,down,↓,0.7137146999884862,True,16
A031K23,564,experiment,156,↑,up,↑,1.2069424000073923,True,16
A031K23,565,experiment,72,→,left,←,0.8139096000086283,False,16
A031K23,566,experiment,168,↑,up,↑,0.8543442999944091,True,16
A031K23,567,experiment,96,→,left,←,0.7491059000021778,False,16
A031K23,568,experiment,72,→,right,→,0.6329576999996789,True,16
A031K23,569,experiment,156,→,right,→,0.7966343000007328,True,16
A031K23,570,experiment,132,→,right,→,0.6116077000042424,True,16
A031K23,571,experiment,36,→,right,→,0.7291752000019187,True,16
A031K23,572,experiment,108,↑,up,↑,0.6211727999907453,True,16
A031K23,573,experiment,144,↑,up,↑,0.4867616999981692,True,16
A031K23,574,experiment,180,←,left,←,0.6147513000032632,True,16
A031K23,575,experiment,84,←,left,←,0.504831500002183,True,16
A031K23,576,experiment,168,←,left,←,0.7176776999986032,True,16
A031K23,577,experiment,108,→,left,←,0.7488610000000335,False,16
A031K23,578,experiment,84,←,left,←,0.7608219999965513,True,16
A031K23,579,experiment,120,↑,up,↑,0.486642000003485,True,16
A031K23,580,experiment,132,→,right,→,0.6921054999984335,True,16
A031K23,581,experiment,12,←,left,←,0.5719277000025613,True,16
A031K23,582,experiment,72,←,left,←,0.6642294000048423,True,16
A031K23,583,experiment,120,↑,up,↑,0.6661654999916209,True,16
A031K23,584,experiment,24,→,up,↑,0.8351699000049848,False,16
A031K23,585,experiment,36,↑,up,↑,0.8064731000049505,True,16
A031K23,586,experiment,36,←,no_key,no_letter,-1.0,False,16
A031K23,587,experiment,24,←,no_key,no_letter,-1.0,False,16
A031K23,588,experiment,60,→,right,→,0.5154608999873744,True,16
A031K23,589,experiment,12,←,no_key,no_letter,-1.0,False,16
A031K23,590,experiment,156,←,left,←,1.0465221000049496,True,16
A031K23,591,experiment,96,↑,up,↑,0.5386660000076517,True,16
A031K23,592,experiment,48,←,left,←,1.1124950000084937,True,16
A031K23,593,experiment,60,↓,down,↓,0.5329062999953749,True,16
A031K23,594,experiment,96,↓,right,→,1.1485303999943426,False,16
A031K23,595,experiment,144,↑,up,↑,0.6059079999977257,True,16
A031K23,596,experiment,180,←,left,←,0.577393800005666,True,16
A031K23,597,experiment,12,↓,left,←,0.8668590000015683,False,16
A031K23,598,training,144,↑,up,↑,0.8109574999980396,True,16
A031K23,599,training,84,↑,up,↑,0.6033280000119703,True,16
A031K23,600,training,60,→,right,→,0.5965499000012642,True,16
A031K23,601,experiment,120,↑,down,↓,0.8757552000024589,False,16
A031K23,602,experiment,60,←,left,←,0.5601426000066567,True,16
A031K23,603,experiment,144,←,no_key,no_letter,-1.0,False,16
A031K23,604,experiment,168,↑,no_key,no_letter,-1.0,False,16
A031K23,605,experiment,60,↓,down,↓,0.6517821000015829,True,16
A031K23,606,experiment,180,↑,up,↑,0.6450771999952849,True,16
A031K23,607,experiment,12,←,right,→,1.2851951999909943,False,16
A031K23,608,experiment,36,↓,down,↓,0.702960599999642,True,16
A031K23,609,experiment,84,↑,up,↑,0.599432600007276,True,16
A031K23,610,experiment,156,→,right,→,0.5941897000011522,True,16
A031K23,611,experiment,108,↑,up,↑,0.6491432999901008,True,16
A031K23,612,experiment,84,↓,down,↓,0.6469936000066809,True,16
A031K23,613,experiment,60,↑,up,↑,0.5761538999940967,True,16
A031K23,614,experiment,72,→,left,←,0.5673398000071757,False,16
A031K23,615,experiment,144,→,up,↑,0.7714898999984143,False,16
A031K23,616,experiment,132,↓,down,↓,0.6431316999951378,True,16
A031K23,617,experiment,24,→,down,↓,0.7213745999906678,False,16
A031K23,618,experiment,96,↓,right,→,0.6625452000007499,False,16
A031K23,619,experiment,132,↑,down,↓,0.8981857999897329,False,16
A031K23,620,experiment,156,↑,up,↑,0.6359170000068843,True,16
A031K23,621,experiment,24,↓,down,↓,1.2018186000059359,True,16
A031K23,622,experiment,36,↑,down,↓,0.9222901000030106,False,16
A031K23,623,experiment,168,←,up,↑,0.6525515999965137,False,16
A031K23,624,experiment,168,↑,up,↑,1.0709880000067642,True,16
A031K23,625,experiment,12,←,right,→,0.7272262999904342,False,16
A031K23,626,experiment,24,→,left,←,0.6836153000040213,False,16
A031K23,627,experiment,96,↓,down,↓,0.7854501000110758,True,16
A031K23,628,experiment,84,↓,down,↓,0.6079681999981403,True,16
A031K23,629,experiment,48,↑,up,↑,0.5623663000005763,True,16
A031K23,630,experiment,72,↑,up,↑,0.632392899991828,True,16
A031K23,631,experiment,84,↓,down,↓,0.6233458999922732,True,16
A031K23,632,experiment,48,↑,down,↓,1.0279540000046836,False,16
A031K23,633,experiment,144,↓,down,↓,0.4975235000019893,True,16
A031K23,634,experiment,180,↓,down,↓,0.4879895000049146,True,16
A031K23,635,experiment,168,←,left,←,0.4745260999916354,True,16
A031K23,636,experiment,180,→,right,→,0.7836431000032462,True,16
A031K23,637,experiment,24,←,left,←,0.634387300000526,True,16
A031K23,638,experiment,48,→,left,←,0.7317613000050187,False,16
A031K23,639,experiment,72,←,left,←,0.609648700003163,True,16
A031K23,640,experiment,144,↑,up,↑,0.5104218999913428,True,16
A031K23,641,experiment,108,←,down,↓,1.177010400002473,False,16
A031K23,642,experiment,120,↑,left,←,1.1087718999915523,False,16
A031K23,643,experiment,12,→,right,→,0.8888283999986015,True,16
A031K23,644,experiment,156,↑,up,↑,0.5764557000075001,True,16
A031K23,645,experiment,96,↓,down,↓,0.7244759999884991,True,16
A031K23,646,experiment,132,→,right,→,0.8331465000082972,True,16
A031K23,647,experiment,36,→,right,→,0.6920281000057003,True,16
A031K23,648,experiment,120,→,right,→,0.8002847000025213,True,16
A031K23,649,experiment,120,↓,down,↓,0.7590503999963403,True,16
A031K23,650,experiment,60,←,left,←,0.6885665000008885,True,16
A031K23,651,experiment,96,→,right,→,0.6778467999974964,True,16
A031K23,652,experiment,36,→,right,→,0.5695359999954235,True,16
A031K23,653,experiment,108,→,left,←,0.5433176000078674,False,16
A031K23,654,experiment,180,→,right,→,0.6787405000068247,True,16
A031K23,655,experiment,48,↓,down,↓,0.6666263999941293,True,16
A031K23,656,experiment,12,↑,down,↓,0.6174175000051036,False,16
A031K23,657,experiment,156,←,down,↓,0.8392881999898236,False,16
A031K23,658,experiment,132,→,right,→,0.6682471000094665,True,16
A031K23,659,experiment,72,→,down,↓,0.9500918999983696,False,16
A031K23,660,experiment,108,↑,up,↑,0.5922578000026988,True,16
A031K23,661,training,12,→,left,←,0.7564635000017006,False,16
A031K23,662,training,180,←,left,←,0.7147779999941122,True,16
A031K23,663,training,72,↓,up,↑,0.7060579999961192,False,16
A031K23,664,experiment,120,↓,down,↓,0.5147796999954153,True,16
A031K23,665,experiment,132,→,right,→,0.5935536000033608,True,16
A031K23,666,experiment,24,↑,up,↑,0.6035588999948232,True,16
A031K23,667,experiment,156,←,left,←,0.6509892000030959,True,16
A031K23,668,experiment,168,↑,left,←,0.8981537999934517,False,16
A031K23,669,experiment,96,←,left,←,0.5789509000023827,True,16
A031K23,670,experiment,12,←,no_key,no_letter,-1.0,False,16
A031K23,671,experiment,96,←,left,←,0.5214445000019623,True,16
A031K23,672,experiment,84,↑,up,↑,0.5909113999950932,True,16
A031K23,673,experiment,108,↓,down,↓,0.5456134999985807,True,16
A031K23,674,experiment,84,↓,down,↓,0.5415850999997929,True,16
A031K23,675,experiment,72,←,left,←,0.7434508000005735,True,16
A031K23,676,experiment,24,↑,up,↑,0.9119578999961959,True,16
A031K23,677,experiment,36,→,left,←,0.6225821999978507,False,16
A031K23,678,experiment,60,→,left,←,0.7006357999925967,False,16
A031K23,679,experiment,156,↓,up,↑,0.8776516999932937,False,16
A031K23,680,experiment,96,←,left,←,0.7006628000090132,True,16
A031K23,681,experiment,60,←,left,←,0.6239577000087593,True,16
A031K23,682,experiment,180,↑,up,↑,0.7117771999910474,True,16
A031K23,683,experiment,120,↓,down,↓,0.7349871000042185,True,16
A031K23,684,experiment,12,↓,down,↓,0.7040679999918211,True,16
A031K23,685,experiment,120,↑,up,↑,0.6110814999992726,True,16
A031K23,686,experiment,24,→,right,→,0.8452267999964533,True,16
A031K23,687,experiment,144,↑,up,↑,0.627539599998272,True,16
A031K23,688,experiment,120,↓,no_key,no_letter,-1.0,False,16
A031K23,689,experiment,36,→,left,←,0.8064903000049526,False,16
A031K23,690,experiment,180,↑,up,↑,0.5164403000089806,True,16
A031K23,691,experiment,60,←,left,←,0.5937990999955218,True,16
A031K23,692,experiment,60,↓,left,←,1.0119695000030333,False,16
A031K23,693,experiment,144,←,left,←,0.605140699990443,True,16
A031K23,694,experiment,108,↓,down,↓,0.729753299994627,True,16
A031K23,695,experiment,144,↓,down,↓,0.776812099997187,True,16
A031K23,696,experiment,12,←,right,→,1.077973399995244,False,16
A031K23,697,experiment,156,←,left,←,0.7061313000012888,True,16
A031K23,698,experiment,72,↓,down,↓,0.780407300000661,True,16
A031K23,699,experiment,168,→,right,→,0.9827866000123322,True,16
A031K23,700,experiment,84,↓,down,↓,0.6872968000097899,True,16
A031K23,701,experiment,180,↑,up,↑,0.7908941000059713,True,16
A031K23,702,experiment,108,↓,down,↓,0.831887700012885,True,16
A031K23,703,experiment,72,↓,down,↓,0.6386242000007769,True,16
A031K23,704,experiment,24,↓,down,↓,0.6885044999944512,True,16
A031K23,705,experiment,12,↑,down,↓,0.865782599998056,False,16
A031K23,706,experiment,48,↓,down,↓,1.2766307999991113,True,16
A031K23,707,experiment,180,↓,down,↓,0.5353803000034532,True,16
A031K23,708,experiment,132,↓,right,→,1.1586158999998588,False,16
A031K23,709,experiment,36,←,left,←,0.9193361999932677,True,16
A031K23,710,experiment,48,↑,up,↑,1.401413200001116,True,16
A031K23,711,experiment,156,↓,down,↓,0.6546864999982063,True,16
A031K23,712,experiment,132,↑,up,↑,0.7925000999966869,True,16
A031K23,713,experiment,168,→,right,→,0.62679229999776,True,16
A031K23,714,experiment,168,↑,up,↑,0.789442000008421,True,16
A031K23,715,experiment,144,↑,up,↑,0.7041218999947887,True,16
A031K23,716,experiment,48,↑,up,↑,0.6490426000091247,True,16
A031K23,717,experiment,132,←,right,→,0.8289635999972234,False,16
A031K23,718,experiment,36,↑,down,↓,1.0850790999975288,False,16
A031K23,719,experiment,72,←,left,←,0.7018573000095785,True,16
A031K23,720,experiment,96,↓,no_key,no_letter,-1.0,False,16
A031K23,721,experiment,84,↑,no_key,no_letter,-1.0,False,16
A031K23,722,experiment,108,→,left,←,0.7752623999986099,False,16
A031K23,723,experiment,48,→,left,←,0.5415187999897171,False,16
A031K23,724,training,180,→,right,→,0.9881273999926634,True,16
A031K23,725,training,96,→,right,→,0.6522969000070589,True,16
A031K23,726,training,60,↑,up,↑,0.6020180000050459,True,16
A031K23,727,experiment,120,↑,left,←,0.7424577999918256,False,16
A031K23,728,experiment,48,↓,down,↓,0.6362483999982942,True,16
A031K23,729,experiment,84,↑,up,↑,0.6703281999944011,True,16
A031K23,730,experiment,168,↓,down,↓,0.6650523999996949,True,16
A031K23,731,experiment,132,→,right,→,0.5819634000072256,True,16
A031K23,732,experiment,96,↑,up,↑,0.5589132999884896,True,16
A031K23,733,experiment,120,←,left,←,0.6227747999946587,True,16
A031K23,734,experiment,168,←,left,←,0.6673480999888852,True,16
A031K23,735,experiment,156,→,right,→,0.641038399990066,True,16
A031K23,736,experiment,156,↓,no_key,no_letter,-1.0,False,16
A031K23,737,experiment,168,↓,down,↓,0.6787261999998009,True,16
A031K23,738,experiment,36,←,left,←,0.5390392999979667,True,16
A031K23,739,experiment,144,↓,down,↓,0.6215988000039943,True,16
A031K23,740,experiment,36,↑,up,↑,0.6209518000105163,True,16
A031K23,741,experiment,12,↑,down,↓,0.7759791999997105,False,16
A031K23,742,experiment,180,←,left,←,0.5303244999959134,True,16
A031K23,743,experiment,48,↓,down,↓,0.6089532999903895,True,16
A031K23,744,experiment,132,↓,down,↓,0.4543532999960007,True,16
A031K23,745,experiment,96,↑,down,↓,0.6807254999876022,False,16
A031K23,746,experiment,144,↓,down,↓,0.6179107000061776,True,16
A031K23,747,experiment,180,↓,down,↓,0.6669734999886714,True,16
A031K23,748,experiment,144,↑,up,↑,0.7409497999906307,True,16
A031K23,749,experiment,180,↓,down,↓,0.739747300001909,True,16
A031K23,750,experiment,144,↑,no_key,no_letter,-1.0,False,16
A031K23,751,experiment,60,↓,down,↓,0.7519195000058971,True,16
A031K23,752,experiment,12,←,right,→,0.9110457000060705,False,16
A031K23,753,experiment,48,←,left,←,0.6038183999917237,True,16
A031K23,754,experiment,108,→,right,→,0.6524322000041138,True,16
A031K23,755,experiment,168,↑,up,↑,0.5771882999979425,True,16
A031K23,756,experiment,108,↓,down,↓,0.6124206000095,True,16
A031K23,757,experiment,60,↑,up,↑,0.5386541000043508,True,16
A031K23,758,experiment,36,←,left,←,0.6447397000010824,True,16
A031K23,759,experiment,180,←,left,←,0.6481045999971684,True,16
A031K23,760,experiment,108,↓,down,↓,0.6310053999914089,True,16
A031K23,761,experiment,60,→,no_key,no_letter,-1.0,False,16
A031K23,762,experiment,84,→,right,→,0.5237990000023274,True,16
A031K23,763,experiment,84,→,no_key,no_letter,-1.0,False,16
A031K23,764,experiment,12,→,right,→,0.6061888999975054,True,16
A031K23,765,experiment,108,↑,up,↑,0.5810191000055056,True,16
A031K23,766,experiment,156,↑,left,←,0.9429066000011517,False,16
A031K23,767,experiment,72,↑,up,↑,0.6793981000082567,True,16
A031K23,768,experiment,72,↑,up,↑,0.5159610999980941,True,16
A031K23,769,experiment,48,↑,up,↑,0.546697600002517,True,16
A031K23,770,experiment,84,↑,up,↑,0.46739229999366216,True,16
A031K23,771,experiment,36,←,left,←,0.5647797999990871,True,16
A031K23,772,experiment,120,→,right,→,0.47666850000678096,True,16
A031K23,773,experiment,72,↑,left,←,0.9996269999974174,False,16
A031K23,774,experiment,24,←,right,→,1.0940795999922557,False,16
A031K23,775,experiment,72,←,left,←,0.6950903999968432,True,16
A031K23,776,experiment,132,↑,up,↑,0.7726216000010027,True,16
A031K23,777,experiment,120,↑,up,↑,0.5594573999987915,True,16
A031K23,778,experiment,24,←,left,←,0.6226249000028474,True,16
A031K23,779,experiment,96,↓,up,↑,0.6720740999880945,False,16
A031K23,780,experiment,156,↓,down,↓,1.2137461999955121,True,16
A031K23,781,experiment,132,↑,left,←,0.9007273000024725,False,16
A031K23,782,experiment,60,→,right,→,0.7086524999904213,True,16
A031K23,783,experiment,12,↓,down,↓,0.771295899990946,True,16
A031K23,784,experiment,24,↓,down,↓,0.7877760999981547,True,16
A031K23,785,experiment,24,↑,down,↓,0.8117897000047378,False,16
A031K23,786,experiment,96,↓,down,↓,0.7806488000060199,True,16
A031K23,787,training,144,→,right,→,0.7053611000010278,True,16
A031K23,788,training,156,↑,up,↑,0.6660550999949919,True,16
A031K23,789,training,36,↓,down,↓,0.688674799996079,True,16
A031K23,790,experiment,72,←,left,←,0.6955100000050152,True,16
A031K23,791,experiment,12,↑,up,↑,0.5594991999969352,True,16
A031K23,792,experiment,180,←,left,←,0.6063705999986269,True,16
A031K23,793,experiment,24,←,left,←,0.5864139999903273,True,16
A031K23,794,experiment,84,↓,down,↓,0.707609200006118,True,16
A031K23,795,experiment,84,↑,up,↑,0.6109689000004437,True,16
A031K23,796,experiment,96,→,right,→,0.7259811999974772,True,16
A031K23,797,experiment,144,←,left,←,0.6229982000077143,True,16
A031K23,798,experiment,60,→,left,←,0.5826199000002816,False,16
A031K23,799,experiment,84,↑,up,↑,0.7983927000022959,True,16
A031K23,800,experiment,144,←,left,←,0.5114304000017,True,16
A031K23,801,experiment,12,←,left,←,0.6389187000022503,True,16
A031K23,802,experiment,120,↓,down,↓,0.7448091999976896,True,16
A031K23,803,experiment,36,↓,down,↓,0.7227697999915108,True,16
A031K23,804,experiment,108,→,right,→,0.7297322999947937,True,16
A031K23,805,experiment,72,→,up,↑,0.8350046999985352,False,16
A031K23,806,experiment,72,↓,down,↓,0.6438041000074008,True,16
A031K23,807,experiment,132,↑,up,↑,0.8417002000060165,True,16
A031K23,808,experiment,180,→,right,→,0.6867720000009285,True,16
A031K23,809,experiment,12,→,left,←,0.5976853999891318,False,16
A031K23,810,experiment,144,↑,up,↑,0.5848339999938617,True,16
A031K23,811,experiment,156,↓,down,↓,0.7433358999987831,True,16
A031K23,812,experiment,132,↓,down,↓,0.6001506000029622,True,16
A031K23,813,experiment,60,↓,down,↓,0.7390286000008928,True,16
A031K23,814,experiment,96,↑,up,↑,0.7523031000018818,True,16
A031K23,815,experiment,156,→,right,→,0.47786790000100154,True,16
A031K23,816,experiment,132,←,left,←,0.811775399997714,True,16
A031K23,817,experiment,24,↑,up,↑,0.5529973999946378,True,16
A031K23,818,experiment,156,↑,up,↑,0.5641393000114476,True,16
A031K23,819,experiment,168,←,right,→,0.4824513999919873,False,16
A031K23,820,experiment,120,←,left,←,0.5164915000059409,True,16
A031K23,821,experiment,120,↓,down,↓,0.690333799997461,True,16
A031K23,822,experiment,60,↓,down,↓,0.6706300000078045,True,16
A031K23,823,experiment,108,→,right,→,0.6032126999925822,True,16
A031K23,824,experiment,84,↓,down,↓,0.7464847000082955,True,16
A031K23,825,experiment,180,←,left,←,0.47663819999434054,True,16
A031K23,826,experiment,48,→,right,→,0.5521710000029998,True,16
A031K23,827,experiment,168,←,left,←,0.5622116000013193,True,16
A031K23,828,experiment,180,←,left,←,0.6022280999895884,True,16
A031K23,829,experiment,108,↓,left,←,0.7373243999900296,False,16
A031K23,830,experiment,48,↓,down,↓,0.7655956000089645,True,16
A031K23,831,experiment,120,→,right,→,0.6132282000035048,True,16
A031K23,832,experiment,144,→,right,→,0.468373600000632,True,16
A031K23,833,experiment,72,→,right,→,0.5029164000006858,True,16
A031K23,834,experiment,36,↓,down,↓,0.9226917999912985,True,16
A031K23,835,experiment,156,→,right,→,0.5097694000141928,True,16
A031K23,836,experiment,108,↑,left,←,0.8795223000051919,False,16
A031K23,837,experiment,24,←,left,←,0.6938695999997435,True,16
A031K23,838,experiment,48,→,right,→,0.6032749000005424,True,16
A031K23,839,experiment,36,←,right,→,0.7785108999960357,False,16
A031K23,840,experiment,168,←,left,←,0.7099084999936167,True,16
A031K23,841,experiment,36,→,no_key,no_letter,-1.0,False,16
A031K23,842,experiment,132,←,left,←,0.6154940999986138,True,16
A031K23,843,experiment,48,↑,up,↑,0.6066680999938399,True,16
A031K23,844,experiment,96,↓,up,↑,0.852100000003702,False,16
A031K23,845,experiment,24,←,left,←,0.7946254999988014,True,16
A031K23,846,experiment,96,↓,down,↓,0.773740300006466,True,16
A031K23,847,experiment,60,→,right,→,0.723359800002072,True,16
A031K23,848,experiment,12,←,right,→,1.0919337999948766,False,16
A031K23,849,experiment,168,←,left,←,0.5340572999994038,True,16
