PART_ID,Trial_no,Trial_type,PDI,Stim_letter,Key_pressed,letter_choose,Rt,Corr,Stimulus Time
A034K24,1,training,10,↓,down,↓,0.8872506999759935,True,30
A034K24,2,training,10,→,right,→,1.1183682999690063,True,30
A034K24,3,training,10,↓,down,↓,0.8513595000258647,True,30
A034K24,4,training,10,↑,up,↑,1.0195633000112139,True,30
A034K24,5,training,10,↑,up,↑,0.9541873999987729,True,30
A034K24,6,training,10,←,left,←,0.601093600038439,True,30
A034K24,7,training,10,↑,up,↑,1.2549893999821506,True,30
A034K24,8,training,10,→,right,→,1.3508617000188679,True,30
A034K24,9,training,10,→,right,→,0.6338580000447109,True,30
A034K24,10,training,10,↓,down,↓,0.8651590999797918,True,30
A034K24,11,training,10,←,left,←,1.7460889000212774,True,30
A034K24,12,training,10,↓,down,↓,0.8689060000469908,True,30
A034K24,13,training,10,←,left,←,0.7584808999672532,True,30
A034K24,14,training,10,←,left,←,0.5337063000188209,True,30
A034K24,15,training,10,↓,down,↓,0.8121575999539346,True,30
A034K24,16,training,10,←,left,←,0.5172105000237934,True,30
A034K24,17,training,10,→,right,→,0.6907730000093579,True,30
A034K24,18,training,10,↓,down,↓,0.8319236999959685,True,30
A034K24,19,training,10,↓,down,↓,1.3825180000276305,True,30
A034K24,20,training,10,→,left,←,0.5172028999659233,False,30
A034K24,21,training,10,→,right,→,0.6127252000151202,True,18
A034K24,22,training,10,→,right,→,0.5530844000168145,True,18
A034K24,23,training,10,↑,up,↑,0.8571332999854349,True,18
A034K24,24,training,10,→,right,→,0.6699741999618709,True,18
A034K24,25,training,10,←,left,←,0.6749896000255831,True,18
A034K24,26,training,10,↓,down,↓,0.627830500015989,True,18
A034K24,27,training,10,↑,up,↑,0.8810054000350647,True,18
A034K24,28,training,10,↑,down,↓,0.6561162000289187,False,18
A034K24,29,training,10,↑,up,↑,0.7759863999672234,True,18
A034K24,30,training,10,←,left,←,0.5305791000137106,True,18
A034K24,31,training,36,→,up,↑,1.0463769999914803,False,15
A034K24,32,training,60,↑,up,↑,1.629261200025212,True,15
A034K24,33,training,72,↑,up,↑,0.7768953999620862,True,15
A034K24,34,experiment,108,↑,down,↓,1.3619122999953106,False,15
A034K24,35,experiment,108,↓,down,↓,0.5137509999913163,True,15
A034K24,36,experiment,180,↑,up,↑,0.7419927000300959,True,15
A034K24,37,experiment,36,↑,up,↑,1.2642591000185348,True,15
A034K24,38,experiment,120,↑,up,↑,0.6027568000135943,True,15
A034K24,39,experiment,48,←,right,→,0.8468833999941126,False,15
A034K24,40,experiment,144,←,left,←,0.5046078999876045,True,15
A034K24,41,experiment,72,→,right,→,0.4973842999897897,True,15
A034K24,42,experiment,132,←,left,←,0.5551094000111334,True,15
A034K24,43,experiment,96,↓,down,↓,0.5722659000311978,True,15
A034K24,44,experiment,168,←,left,←,0.4730828999890946,True,15
A034K24,45,experiment,24,↓,down,↓,0.586678399995435,True,15
A034K24,46,experiment,60,→,right,→,0.5644027999951504,True,15
A034K24,47,experiment,72,↓,down,↓,0.7772010000189766,True,15
A034K24,48,experiment,168,→,left,←,0.8046459999750368,False,15
A034K24,49,experiment,132,←,left,←,1.0422026999876834,True,15
A034K24,50,experiment,156,↑,up,↑,0.7221843000152148,True,15
A034K24,51,experiment,48,↓,left,←,0.9896106999949552,False,15
A034K24,52,experiment,144,←,left,←,0.46592009998857975,True,15
A034K24,53,experiment,84,↑,up,↑,0.770929399994202,True,15
A034K24,54,experiment,156,→,right,→,0.4465876999893226,True,15
A034K24,55,experiment,48,↓,down,↓,0.6353830999578349,True,15
A034K24,56,experiment,168,←,left,←,1.1320471999933943,True,15
A034K24,57,experiment,60,→,right,→,1.4070325000211596,True,15
A034K24,58,experiment,36,←,left,←,0.6878734999918379,True,15
A034K24,59,experiment,132,←,left,←,0.45674709999002516,True,15
A034K24,60,experiment,180,←,left,←,0.8733611999778077,True,15
A034K24,61,experiment,36,↑,down,↓,1.0803827000199817,False,15
A034K24,62,experiment,180,←,right,→,1.0731830000295304,False,15
A034K24,63,experiment,96,→,right,→,0.4414118999848142,True,15
A034K24,64,experiment,120,→,right,→,0.8557952999835834,True,15
A034K24,65,experiment,144,→,right,→,0.4481999000418,True,15
A034K24,66,experiment,120,←,left,←,0.4225315999938175,True,15
A034K24,67,experiment,12,↑,up,↑,1.052426900016144,True,15
A034K24,68,experiment,132,→,left,←,0.8214157000184059,False,15
A034K24,69,experiment,84,→,down,↓,0.7353164999512956,False,15
A034K24,70,experiment,168,→,right,→,0.6537173999822699,True,15
A034K24,71,experiment,84,↑,up,↑,0.7337341000093147,True,15
A034K24,72,experiment,12,→,right,→,0.865191999997478,True,15
A034K24,73,experiment,24,←,left,←,0.49819239997304976,True,15
A034K24,74,experiment,96,↑,up,↑,0.8485668000066653,True,15
A034K24,75,experiment,120,→,right,→,0.4502732999972068,True,15
A034K24,76,experiment,180,↑,up,↑,0.7939689000486396,True,15
A034K24,77,experiment,12,↑,right,→,1.1843185999896377,False,15
A034K24,78,experiment,48,↑,up,↑,1.2802835999755189,True,15
A034K24,79,experiment,36,←,down,↓,0.8784293999779038,False,15
A034K24,80,experiment,156,→,right,→,0.5673092000070028,True,15
A034K24,81,experiment,60,↓,left,←,0.8639837999944575,False,15
A034K24,82,experiment,72,→,right,→,0.6356797000044025,True,15
A034K24,83,experiment,60,→,right,→,0.3838166000205092,True,15
A034K24,84,experiment,108,↓,left,←,1.1710593999596313,False,15
A034K24,85,experiment,96,←,left,←,0.51916710002115,True,15
A034K24,86,experiment,24,↓,down,↓,0.6695342999882996,True,15
A034K24,87,experiment,156,→,right,→,1.223101100011263,True,15
A034K24,88,experiment,144,←,left,←,0.6813122000312433,True,15
A034K24,89,experiment,24,→,right,→,0.4282260999898426,True,15
A034K24,90,experiment,12,←,left,←,0.7194183000246994,True,15
A034K24,91,experiment,72,←,left,←,0.42774710000958294,True,15
A034K24,92,experiment,84,→,right,→,0.38376190001145005,True,15
A034K24,93,experiment,108,↑,up,↑,0.7855746999848634,True,15
A034K24,94,training,120,↑,up,↑,0.945365599996876,True,15
A034K24,95,training,72,↑,up,↑,0.6646560999797657,True,15
A034K24,96,training,84,→,left,←,0.6733637000434101,False,15
A034K24,97,experiment,36,←,left,←,0.5977312999893911,True,15
A034K24,98,experiment,84,→,right,→,1.2597971000359394,True,15
A034K24,99,experiment,168,→,left,←,0.6293126000091434,False,15
A034K24,100,experiment,84,←,left,←,0.42328000004636124,True,15
A034K24,101,experiment,132,←,left,←,0.4234672000166029,True,15
A034K24,102,experiment,144,↓,right,→,0.7147042999858968,False,15
A034K24,103,experiment,24,→,left,←,0.6573741000029258,False,15
A034K24,104,experiment,72,↑,up,↑,0.8325983999529853,True,15
A034K24,105,experiment,48,↑,up,↑,0.7125342999934219,True,15
A034K24,106,experiment,60,↓,down,↓,0.7966329999617301,True,15
A034K24,107,experiment,72,↓,left,←,0.640632499998901,False,15
A034K24,108,experiment,144,←,left,←,0.5070514000253752,True,15
A034K24,109,experiment,72,↑,left,←,0.8973878999822773,False,15
A034K24,110,experiment,48,←,left,←,0.42559900000924245,True,15
A034K24,111,experiment,48,↑,up,↑,0.7833018999663182,True,15
A034K24,112,experiment,168,←,left,←,0.7103418000042439,True,15
A034K24,113,experiment,12,↓,down,↓,0.6329059000127017,True,15
A034K24,114,experiment,96,←,left,←,0.4393061000155285,True,15
A034K24,115,experiment,96,↑,up,↑,0.6577725999522954,True,15
A034K24,116,experiment,108,→,left,←,0.720185499987565,False,15
A034K24,117,experiment,144,←,left,←,0.6434149999986403,True,15
A034K24,118,experiment,168,↓,left,←,0.9931854999740608,False,15
A034K24,119,experiment,108,↑,up,↑,0.778733600047417,True,15
A034K24,120,experiment,36,↓,left,←,0.8667119999881834,False,15
A034K24,121,experiment,12,↑,left,←,0.9876584999728948,False,15
A034K24,122,experiment,144,↓,down,↓,0.6469802999636158,True,15
A034K24,123,experiment,84,←,left,←,0.45433540001977235,True,15
A034K24,124,experiment,36,↑,left,←,0.7390665999846533,False,15
A034K24,125,experiment,24,↑,left,←,0.8960647000349127,False,15
A034K24,126,experiment,132,↑,up,↑,0.8013360999757424,True,15
A034K24,127,experiment,12,→,right,→,0.5582262999960221,True,15
A034K24,128,experiment,24,←,right,→,1.0568448000121862,False,15
A034K24,129,experiment,156,↑,down,↓,1.0354538999963552,False,15
A034K24,130,experiment,48,→,right,→,0.42794789996696636,True,15
A034K24,131,experiment,60,→,left,←,0.7556051999563351,False,15
A034K24,132,experiment,156,↑,up,↑,0.8951973000075668,True,15
A034K24,133,experiment,108,↑,up,↑,0.6240999000146985,True,15
A034K24,134,experiment,60,↑,up,↑,0.6293911000248045,True,15
A034K24,135,experiment,180,←,left,←,0.46955629996955395,True,15
A034K24,136,experiment,132,←,left,←,1.279397600039374,True,15
A034K24,137,experiment,84,←,left,←,1.0652456000098027,True,15
A034K24,138,experiment,96,↑,left,←,0.7022759999963455,False,15
A034K24,139,experiment,72,→,right,→,0.4559548000106588,True,15
A034K24,140,experiment,180,→,left,←,0.7882012999616563,False,15
A034K24,141,experiment,120,↓,down,↓,0.7057584999711253,True,15
A034K24,142,experiment,156,→,left,←,0.7399802000145428,False,15
A034K24,143,experiment,24,↑,up,↑,0.961786600004416,True,15
A034K24,144,experiment,60,←,down,↓,0.8579673999920487,False,15
A034K24,145,experiment,36,←,left,←,0.7531558999908157,True,15
A034K24,146,experiment,12,→,right,→,0.6006264999741688,True,15
A034K24,147,experiment,156,→,left,←,0.6093287999974564,False,15
A034K24,148,experiment,168,→,right,→,0.4546908999909647,True,15
A034K24,149,experiment,132,←,left,←,0.6202856000163592,True,15
A034K24,150,experiment,120,←,left,←,0.6091767999459989,True,15
A034K24,151,experiment,108,↑,left,←,0.6301990999490954,False,15
A034K24,152,experiment,120,←,left,←,0.7541570999892429,True,15
A034K24,153,experiment,180,↓,right,→,1.717454000026919,False,15
A034K24,154,experiment,96,←,right,→,0.9178418000228703,False,15
A034K24,155,experiment,120,↓,right,→,0.5449006999842823,False,15
A034K24,156,experiment,180,↑,left,←,0.8453098000027239,False,15
A034K24,157,training,96,←,left,←,0.4383222999749705,True,15
A034K24,158,training,24,↓,down,↓,0.7039699999731965,True,15
A034K24,159,training,12,→,right,→,0.5003855000250041,True,15
A034K24,160,experiment,156,→,right,→,0.7889383000438102,True,15
A034K24,161,experiment,96,↓,right,→,1.0666549999732524,False,15
A034K24,162,experiment,84,←,left,←,0.62028219999047,True,15
A034K24,163,experiment,156,←,left,←,0.4214925999986008,True,15
A034K24,164,experiment,132,↑,left,←,0.5689988999511115,False,15
A034K24,165,experiment,48,→,left,←,0.7667934999917634,False,15
A034K24,166,experiment,156,→,right,→,0.5273365000030026,True,15
A034K24,167,experiment,180,↓,down,↓,0.7822576999897137,True,15
A034K24,168,experiment,144,→,down,↓,1.800829400017392,False,15
A034K24,169,experiment,72,↑,up,↑,0.7606853999895975,True,15
A034K24,170,experiment,72,←,left,←,0.9609400000190362,True,15
A034K24,171,experiment,12,↑,up,↑,0.7859236000222154,True,15
A034K24,172,experiment,120,↑,up,↑,0.9647989000077359,True,15
A034K24,173,experiment,60,↓,down,↓,0.7171198999858461,True,15
A034K24,174,experiment,60,↑,left,←,1.1249308999977075,False,15
A034K24,175,experiment,72,→,right,→,0.6680034999735653,True,15
A034K24,176,experiment,120,←,left,←,0.6515675999689847,True,15
A034K24,177,experiment,168,↓,down,↓,0.8092134000035003,True,15
A034K24,178,experiment,180,↓,down,↓,0.9530712999985553,True,15
A034K24,179,experiment,36,→,right,→,0.7920346999890171,True,15
A034K24,180,experiment,180,↓,down,↓,0.8512545999838039,True,15
A034K24,181,experiment,108,↓,down,↓,0.7335736000095494,True,15
A034K24,182,experiment,144,↑,up,↑,0.8141155000193976,True,15
A034K24,183,experiment,132,↑,up,↑,0.9061356000020169,True,15
A034K24,184,experiment,108,←,left,←,0.6168629999738187,True,15
A034K24,185,experiment,60,↓,down,↓,0.6139447999885306,True,15
A034K24,186,experiment,144,→,right,→,0.595890500000678,True,15
A034K24,187,experiment,24,→,right,→,1.4476277999929152,True,15
A034K24,188,experiment,96,→,right,→,0.4350337000214495,True,15
A034K24,189,experiment,24,↑,up,↑,0.9645047999802046,True,15
A034K24,190,experiment,72,↓,down,↓,0.5756771000451408,True,15
A034K24,191,experiment,48,→,right,→,0.546328199969139,True,15
A034K24,192,experiment,108,↓,right,→,0.9212217000313103,False,15
A034K24,193,experiment,48,→,right,→,0.7307316999649629,True,15
A034K24,194,experiment,168,←,left,←,0.5288645999971777,True,15
A034K24,195,experiment,144,↑,left,←,0.7519014000426978,False,15
A034K24,196,experiment,96,↓,up,↑,1.5137769999564625,False,15
A034K24,197,experiment,12,↑,right,→,1.7308261999860406,False,15
A034K24,198,experiment,24,←,left,←,0.5159457999980077,True,15
A034K24,199,experiment,108,→,right,→,0.7080764999845996,True,15
A034K24,200,experiment,84,←,left,←,0.4331106999889016,True,15
A034K24,201,experiment,36,←,left,←,0.4464416999835521,True,15
A034K24,202,experiment,168,↑,right,→,1.0518697999650612,False,15
A034K24,203,experiment,48,←,left,←,0.45253889996092767,True,15
A034K24,204,experiment,180,→,right,→,0.4442014999804087,True,15
A034K24,205,experiment,36,←,down,↓,1.7188303000293672,False,15
A034K24,206,experiment,12,←,right,→,0.9089300999767147,False,15
A034K24,207,experiment,120,↓,down,↓,0.6142039999831468,True,15
A034K24,208,experiment,84,↑,right,→,0.9963552000117488,False,15
A034K24,209,experiment,156,↑,down,↓,1.4566482999944128,False,15
A034K24,210,experiment,96,→,right,→,0.43764989997725934,True,15
A034K24,211,experiment,60,↑,up,↑,1.0736595999915153,True,15
A034K24,212,experiment,132,←,left,←,0.5098099999595433,True,15
A034K24,213,experiment,168,↑,up,↑,0.6977774000260979,True,15
A034K24,214,experiment,12,→,right,→,1.0549737000255845,True,15
A034K24,215,experiment,36,↓,down,↓,0.5867186000104994,True,15
A034K24,216,experiment,120,↓,down,↓,0.5327331000007689,True,15
A034K24,217,experiment,84,←,left,←,0.4333888999535702,True,15
A034K24,218,experiment,132,↑,right,→,0.621779199980665,False,15
A034K24,219,experiment,24,↑,left,←,1.1389848999679089,False,15
A034K24,220,training,120,↑,up,↑,1.2803551999968477,True,15
A034K24,221,training,12,→,left,←,0.8336196000454947,False,15
A034K24,222,training,120,→,right,→,0.7280683999997564,True,15
A034K24,223,experiment,180,↑,up,↑,0.6895979999681003,True,15
A034K24,224,experiment,60,↑,up,↑,1.0293071999913082,True,15
A034K24,225,experiment,180,↓,down,↓,0.5642834999598563,True,15
A034K24,226,experiment,12,↓,down,↓,0.5643936000415124,True,15
A034K24,227,experiment,156,↑,down,↓,0.7304778000107035,False,15
A034K24,228,experiment,168,←,left,←,0.8153715999796987,True,15
A034K24,229,experiment,108,→,left,←,0.879222400020808,False,15
A034K24,230,experiment,144,↑,up,↑,1.1663785999990068,True,15
A034K24,231,experiment,156,↑,up,↑,0.7236324999830686,True,15
A034K24,232,experiment,144,→,right,→,0.5006301000248641,True,15
A034K24,233,experiment,156,↑,up,↑,0.8358591999858618,True,15
A034K24,234,experiment,12,→,right,→,0.6631988000008278,True,15
A034K24,235,experiment,60,←,up,↑,1.1158210000139661,False,15
A034K24,236,experiment,48,↑,left,←,1.197052400035318,False,15
A034K24,237,experiment,96,↑,up,↑,0.8440301999798976,True,15
A034K24,238,experiment,36,→,right,→,0.6949867999646813,True,15
A034K24,239,experiment,84,↓,up,↑,0.907993400003761,False,15
A034K24,240,experiment,36,→,left,←,0.8789892999920994,False,15
A034K24,241,experiment,168,→,right,→,0.5414762000436895,True,15
A034K24,242,experiment,168,→,right,→,0.3839338999823667,True,15
A034K24,243,experiment,36,↓,up,↑,1.5098988999961875,False,15
A034K24,244,experiment,132,↑,left,←,1.0860470000188798,False,15
A034K24,245,experiment,48,↓,down,↓,0.6025875000050291,True,15
A034K24,246,experiment,72,↑,up,↑,0.7790820000227541,True,15
A034K24,247,experiment,120,↑,up,↑,0.6746678999625146,True,15
A034K24,248,experiment,96,→,left,←,0.7989461999968626,False,15
A034K24,249,experiment,48,→,right,→,0.4619568000198342,True,15
A034K24,250,experiment,84,↑,up,↑,0.9083838000078686,True,15
A034K24,251,experiment,132,←,left,←,0.47656460001599044,True,15
A034K24,252,experiment,72,↓,down,↓,0.640990599989891,True,15
A034K24,253,experiment,60,↑,up,↑,0.6968281999579631,True,15
A034K24,254,experiment,168,↓,down,↓,0.5221811999799684,True,15
A034K24,255,experiment,84,→,right,→,0.5107952000107616,True,15
A034K24,256,experiment,180,←,right,→,0.7726075000246055,False,15
A034K24,257,experiment,24,↑,up,↑,0.6958768999902532,True,15
A034K24,258,experiment,24,←,left,←,0.7938633000012487,True,15
A034K24,259,experiment,60,→,right,→,0.3837328999652527,True,15
A034K24,260,experiment,120,↓,down,↓,0.5463020000024699,True,15
A034K24,261,experiment,48,→,right,→,0.43347709998488426,True,15
A034K24,262,experiment,72,←,left,←,1.4699355000047944,True,15
A034K24,263,experiment,108,↑,down,↓,0.7294051999924704,False,15
A034K24,264,experiment,180,←,right,→,0.8979434000211768,False,15
A034K24,265,experiment,96,→,left,←,0.9201699999975972,False,15
A034K24,266,experiment,12,↓,left,←,0.7610290999873541,False,15
A034K24,267,experiment,108,↑,left,←,0.7158410000265576,False,15
A034K24,268,experiment,12,↑,up,↑,0.8844577999552712,True,15
A034K24,269,experiment,144,↓,down,↓,0.6042405999614857,True,15
A034K24,270,experiment,156,→,right,→,0.8070122000062838,True,15
A034K24,271,experiment,24,→,right,→,0.43132899998454377,True,15
A034K24,272,experiment,108,←,left,←,0.4634544000145979,True,15
A034K24,273,experiment,132,↓,down,↓,0.6852555000223219,True,15
A034K24,274,experiment,72,↑,up,↑,0.7306455000070855,True,15
A034K24,275,experiment,144,→,right,→,0.38389689999166876,True,15
A034K24,276,experiment,84,↓,down,↓,0.5366813999717124,True,15
A034K24,277,experiment,132,→,right,→,0.42595710000023246,True,15
A034K24,278,experiment,96,↑,up,↑,0.6850600999896415,True,15
A034K24,279,experiment,120,→,right,→,0.42424849997041747,True,15
A034K24,280,experiment,120,↑,up,↑,0.6123972999630496,True,15
A034K24,281,experiment,24,↑,up,↑,0.601568199985195,True,15
A034K24,282,experiment,36,↑,up,↑,0.5983772999607027,True,15
A034K24,283,training,12,↑,no_key,no_letter,-1.0,False,15
A034K24,284,training,108,↑,up,↑,0.648086900007911,True,15
A034K24,285,training,180,←,up,↑,0.9243688999558799,False,15
A034K24,286,experiment,180,↑,left,←,0.6951386000146158,False,15
A034K24,287,experiment,108,↓,down,↓,1.2186464000260457,True,15
A034K24,288,experiment,48,←,left,←,0.5191161000402644,True,15
A034K24,289,experiment,156,←,left,←,0.45827050000661984,True,15
A034K24,290,experiment,36,↑,up,↑,0.6642097000149079,True,15
A034K24,291,experiment,168,↓,left,←,0.814068799954839,False,15
A034K24,292,experiment,180,←,left,←,0.6119519000058062,True,15
A034K24,293,experiment,60,←,right,→,0.7734447999973781,False,15
A034K24,294,experiment,24,↑,left,←,0.6737701999954879,False,15
A034K24,295,experiment,24,→,left,←,0.8017261999775656,False,15
A034K24,296,experiment,168,↓,up,↑,0.9598502999870107,False,15
A034K24,297,experiment,132,←,right,→,0.9104933000053279,False,15
A034K24,298,experiment,108,←,left,←,0.908326200034935,True,15
A034K24,299,experiment,60,↓,down,↓,0.708640800032299,True,15
A034K24,300,experiment,84,←,left,←,0.4242468999582343,True,15
A034K24,301,experiment,96,↓,left,←,0.6275730999768712,False,15
A034K24,302,experiment,144,→,up,↑,1.7665488000493497,False,15
A034K24,303,experiment,120,↑,up,↑,0.6268730000010692,True,15
A034K24,304,experiment,108,↑,up,↑,0.6645118999877013,True,15
A034K24,305,experiment,108,↑,left,←,1.0797595000476576,False,15
A034K24,306,experiment,60,↑,up,↑,1.057298899977468,True,15
A034K24,307,experiment,156,↑,left,←,0.7744664999772795,False,15
A034K24,308,experiment,120,←,up,↑,1.495330500009004,False,15
A034K24,309,experiment,96,→,right,→,0.4978477000258863,True,15
A034K24,310,experiment,84,←,left,←,0.810653300024569,True,15
A034K24,311,experiment,168,↓,left,←,0.6772890000138432,False,15
A034K24,312,experiment,132,→,right,→,0.7786077000200748,True,15
A034K24,313,experiment,12,↓,up,↑,1.5411858999868855,False,15
A034K24,314,experiment,96,↑,up,↑,0.9217288999934681,True,15
A034K24,315,experiment,168,↓,up,↑,1.261501299974043,False,15
A034K24,316,experiment,144,↑,left,←,0.6671025000396185,False,15
A034K24,317,experiment,120,→,right,→,0.4762239999836311,True,15
A034K24,318,experiment,180,↑,left,←,1.313905999995768,False,15
A034K24,319,experiment,156,←,right,→,0.7131838999921456,False,15
A034K24,320,experiment,48,↑,up,↑,0.699185999983456,True,15
A034K24,321,experiment,132,↓,right,→,1.0070041000144556,False,15
A034K24,322,experiment,60,←,left,←,1.316546300018672,True,15
A034K24,323,experiment,84,↓,right,→,0.7154056000290439,False,15
A034K24,324,experiment,144,↓,right,→,0.5938327999901958,False,15
A034K24,325,experiment,120,←,left,←,0.3838497000397183,True,15
A034K24,326,experiment,72,←,right,→,0.6593560999608599,False,15
A034K24,327,experiment,12,→,right,→,0.7803859999985434,True,15
A034K24,328,experiment,72,←,left,←,0.44055700005264953,True,15
A034K24,329,experiment,96,←,left,←,0.4250148000428453,True,15
A034K24,330,experiment,156,↑,up,↑,0.5562890999717638,True,15
A034K24,331,experiment,180,↓,up,↑,0.781156400043983,False,15
A034K24,332,experiment,12,↑,up,↑,0.48540499998489395,True,15
A034K24,333,experiment,72,↑,up,↑,0.3671165000414476,True,15
A034K24,334,experiment,132,→,right,→,0.46065089997136965,True,15
A034K24,335,experiment,36,↓,up,↑,0.8932510000304319,False,15
A034K24,336,experiment,24,↑,up,↑,0.42684500000905246,True,15
A034K24,337,experiment,144,↓,left,←,1.1982832999783568,False,15
A034K24,338,experiment,24,←,left,←,0.49118640000233427,True,15
A034K24,339,experiment,72,↑,up,↑,0.5147787999594584,True,15
A034K24,340,experiment,36,←,right,→,0.6304833000176586,False,15
A034K24,341,experiment,48,↑,up,↑,0.7342260000295937,True,15
A034K24,342,experiment,48,↓,down,↓,0.7499222999904305,True,15
A034K24,343,experiment,12,←,left,←,0.5265753000276163,True,15
A034K24,344,experiment,36,↑,up,↑,0.8693085999693722,True,15
A034K24,345,experiment,84,←,left,←,0.7249662000103854,True,15
A034K24,346,training,84,↑,up,↑,0.7361390999867581,True,16
A034K24,347,training,60,→,right,→,0.8086810000240803,True,16
A034K24,348,training,132,↑,up,↑,0.7890033000148833,True,16
A034K24,349,experiment,180,←,left,←,0.5018385999719612,True,16
A034K24,350,experiment,120,→,right,→,0.4854770000092685,True,16
A034K24,351,experiment,72,↓,down,↓,1.1818312999675982,True,16
A034K24,352,experiment,144,↑,right,→,0.7856245000148192,False,16
A034K24,353,experiment,60,→,right,→,0.44484080001711845,True,16
A034K24,354,experiment,96,↓,down,↓,1.1363360999966972,True,16
A034K24,355,experiment,72,←,left,←,0.3838782999664545,True,16
A034K24,356,experiment,36,←,left,←,0.5205215999740176,True,16
A034K24,357,experiment,72,↓,down,↓,1.0251019999850541,True,16
A034K24,358,experiment,48,↑,up,↑,0.5847238000133075,True,16
A034K24,359,experiment,144,↑,down,↓,1.0579661999945529,False,16
A034K24,360,experiment,12,←,right,→,0.7260932000353932,False,16
A034K24,361,experiment,168,↓,down,↓,0.9147180000436492,True,16
A034K24,362,experiment,132,←,left,←,0.6268365000141785,True,16
A034K24,363,experiment,60,↓,down,↓,1.189039499964565,True,16
A034K24,364,experiment,72,→,left,←,0.6863633000175469,False,16
A034K24,365,experiment,24,↓,down,↓,0.5117167999851517,True,16
A034K24,366,experiment,36,→,left,←,0.5894332999596372,False,16
A034K24,367,experiment,180,→,right,→,0.6622375999577343,True,16
A034K24,368,experiment,156,↑,up,↑,1.0420934000285342,True,16
A034K24,369,experiment,84,→,right,→,0.9493919999804348,True,16
A034K24,370,experiment,144,→,right,→,0.38381819997448474,True,16
A034K24,371,experiment,108,→,right,→,0.5269580000312999,True,16
A034K24,372,experiment,168,↓,down,↓,0.9866915999446064,True,16
A034K24,373,experiment,132,→,right,→,1.0164116999949329,True,16
A034K24,374,experiment,96,→,right,→,0.5718108000000939,True,16
A034K24,375,experiment,120,←,right,→,0.8310837000026368,False,16
A034K24,376,experiment,156,↑,up,↑,0.5799426999874413,True,16
A034K24,377,experiment,144,←,left,←,0.5381707000196911,True,16
A034K24,378,experiment,132,↑,down,↓,1.4316825999994762,False,16
A034K24,379,experiment,48,→,right,→,0.44392240000888705,True,16
A034K24,380,experiment,96,←,left,←,0.4379742000019178,True,16
A034K24,381,experiment,108,↑,up,↑,0.6982211000286043,True,16
A034K24,382,experiment,180,→,right,→,0.40043339994736016,True,16
A034K24,383,experiment,24,↑,left,←,1.7977771000005305,False,16
A034K24,384,experiment,48,→,right,→,1.163146200007759,True,16
A034K24,385,experiment,60,←,left,←,0.7084866999648511,True,16
A034K24,386,experiment,168,→,left,←,1.0112477000220679,False,16
A034K24,387,experiment,108,←,left,←,0.5252985000261106,True,16
A034K24,388,experiment,120,←,left,←,0.5661221999907866,True,16
A034K24,389,experiment,132,←,left,←,0.7452825999935158,True,16
A034K24,390,experiment,12,↑,down,↓,1.743262899981346,False,16
A034K24,391,experiment,180,↓,up,↑,1.0935838999575935,False,16
A034K24,392,experiment,36,↑,up,↑,1.5488163999980316,True,16
A034K24,393,experiment,84,↑,up,↑,0.7195316000143066,True,16
A034K24,394,experiment,48,←,left,←,0.577376400004141,True,16
A034K24,395,experiment,96,→,right,→,0.6462801999878138,True,16
A034K24,396,experiment,12,→,left,←,0.5557624999783002,False,16
A034K24,397,experiment,60,↓,down,↓,0.7378104000235908,True,16
A034K24,398,experiment,108,→,left,←,0.6328183000441641,False,16
A034K24,399,experiment,168,→,right,→,1.3683056000154465,True,16
A034K24,400,experiment,24,↓,down,↓,0.9398071999894455,True,16
A034K24,401,experiment,24,↑,up,↑,1.0452495000208728,True,16
A034K24,402,experiment,156,←,right,→,0.6329444000148214,False,16
A034K24,403,experiment,156,→,right,→,0.7561364999855869,True,16
A034K24,404,experiment,84,→,right,→,0.542530299979262,True,16
A034K24,405,experiment,12,↓,right,→,0.7259072999586351,False,16
A034K24,406,experiment,36,↑,up,↑,0.9895345999975689,True,16
A034K24,407,experiment,120,→,right,→,0.6132836999604478,True,16
A034K24,408,experiment,84,←,left,←,0.452028599975165,True,16
A034K24,409,training,120,↓,down,↓,0.6770300000207499,True,16
A034K24,410,training,36,→,down,↓,0.8541908000479452,False,16
A034K24,411,training,48,↑,up,↑,0.5928653000155464,True,16
A034K24,412,experiment,132,←,left,←,0.46498190000420436,True,16
A034K24,413,experiment,180,↑,up,↑,1.4357079000328667,True,16
A034K24,414,experiment,60,→,left,←,0.659769200021401,False,16
A034K24,415,experiment,108,←,left,←,0.49679800000740215,True,16
A034K24,416,experiment,48,←,left,←,0.5851150999660604,True,16
A034K24,417,experiment,156,→,left,←,0.4777951999567449,False,16
A034K24,418,experiment,120,↓,left,←,0.5931759999948554,False,16
A034K24,419,experiment,168,←,left,←,0.4426594999968074,True,16
A034K24,420,experiment,168,←,left,←,0.6518967999727465,True,16
A034K24,421,experiment,24,←,right,→,0.8583478999789804,False,16
A034K24,422,experiment,108,↓,down,↓,0.7268214999930933,True,16
A034K24,423,experiment,60,↓,down,↓,0.6908018999965861,True,16
A034K24,424,experiment,48,←,left,←,0.6383276000269689,True,16
A034K24,425,experiment,132,↓,down,↓,0.5943076999974437,True,16
A034K24,426,experiment,36,↓,down,↓,0.4443715999950655,True,16
A034K24,427,experiment,96,←,left,←,0.5432988999527879,True,16
A034K24,428,experiment,72,↑,up,↑,1.2292860000161454,True,16
A034K24,429,experiment,12,→,right,→,0.808340199990198,True,16
A034K24,430,experiment,180,↓,down,↓,0.46604349999688566,True,16
A034K24,431,experiment,96,↑,up,↑,0.7498466999968514,True,16
A034K24,432,experiment,168,←,left,←,0.838402799970936,True,16
A034K24,433,experiment,168,↑,down,↓,1.3075342999654822,False,16
A034K24,434,experiment,36,↓,down,↓,0.4975779000087641,True,16
A034K24,435,experiment,144,←,left,←,0.6693717999733053,True,16
A034K24,436,experiment,48,↓,down,↓,0.4759541000239551,True,16
A034K24,437,experiment,84,↓,down,↓,0.8362809999962337,True,16
A034K24,438,experiment,120,↓,down,↓,0.6111428000149317,True,16
A034K24,439,experiment,156,↓,down,↓,1.0415132000343874,True,16
A034K24,440,experiment,132,←,left,←,0.6729135000496171,True,16
A034K24,441,experiment,96,←,left,←,0.47551859996747226,True,16
A034K24,442,experiment,84,↓,down,↓,0.4399220999912359,True,16
A034K24,443,experiment,144,↑,down,↓,0.8282465999945998,False,16
A034K24,444,experiment,144,←,left,←,0.5243167000007816,True,16
A034K24,445,experiment,24,→,down,↓,1.1374091999605298,False,16
A034K24,446,experiment,156,→,right,→,0.6351546999649145,True,16
A034K24,447,experiment,96,←,down,↓,1.0721596999792382,False,16
A034K24,448,experiment,12,→,left,←,1.0029047999996692,False,16
A034K24,449,experiment,12,→,right,→,0.5064167999662459,True,16
A034K24,450,experiment,60,↓,left,←,0.5768436000216752,False,16
A034K24,451,experiment,36,↓,down,↓,0.5339420000091195,True,16
A034K24,452,experiment,72,↑,down,↓,0.6281621999805793,False,16
A034K24,453,experiment,24,→,right,→,0.6204172999714501,True,16
A034K24,454,experiment,132,↑,up,↑,0.9170688999583945,True,16
A034K24,455,experiment,72,→,right,→,0.5986071999650449,True,16
A034K24,456,experiment,72,←,left,←,0.6664483000058681,True,16
A034K24,457,experiment,84,←,left,←,0.5899157000239938,True,16
A034K24,458,experiment,24,→,left,←,0.7671472000074573,False,16
A034K24,459,experiment,84,↑,up,↑,0.7677233999711461,True,16
A034K24,460,experiment,48,←,right,→,0.5687570000300184,False,16
A034K24,461,experiment,36,←,left,←,0.46738509996794164,True,16
A034K24,462,experiment,60,↓,down,↓,0.5085337000200525,True,16
A034K24,463,experiment,180,↑,right,→,0.8972295999992639,False,16
A034K24,464,experiment,156,→,right,→,0.6344884000136517,True,16
A034K24,465,experiment,144,↑,right,→,0.6128988999989815,False,16
A034K24,466,experiment,120,←,right,→,0.8053267999785021,False,16
A034K24,467,experiment,108,←,left,←,0.613846399995964,True,16
A034K24,468,experiment,108,←,left,←,0.6284348999615759,True,16
A034K24,469,experiment,180,↓,down,↓,0.8825800999766216,True,16
A034K24,470,experiment,12,→,right,→,0.8173787000123411,True,16
A034K24,471,experiment,120,→,right,→,0.5148428999818861,True,16
A034K24,472,training,60,→,right,→,0.6453366000205278,True,16
A034K24,473,training,24,→,right,→,0.8652258000220172,True,16
A034K24,474,training,36,→,right,→,0.4004428000189364,True,16
A034K24,475,experiment,108,←,left,←,1.1956632999936119,True,16
A034K24,476,experiment,132,←,left,←,0.6596164999646135,True,16
A034K24,477,experiment,48,↑,left,←,0.59144180000294,False,16
A034K24,478,experiment,168,↑,up,↑,1.1177487000240944,True,16
A034K24,479,experiment,36,↑,up,↑,0.5630920000257902,True,16
A034K24,480,experiment,108,↓,down,↓,0.7995362000074238,True,16
A034K24,481,experiment,12,↓,no_key,no_letter,-1.0,False,16
A034K24,482,experiment,156,↓,down,↓,0.5501416000188328,True,16
A034K24,483,experiment,180,→,right,→,0.46339099999750033,True,16
A034K24,484,experiment,144,→,right,→,0.44557059998624027,True,16
A034K24,485,experiment,96,→,right,→,0.8008257000474259,True,16
A034K24,486,experiment,180,→,right,→,0.4940095000201836,True,16
A034K24,487,experiment,24,→,right,→,0.7934756000177003,True,16
A034K24,488,experiment,48,↓,down,↓,0.48076140001649037,True,16
A034K24,489,experiment,60,→,right,→,0.769908599962946,True,16
A034K24,490,experiment,36,↑,down,↓,0.8461695000296459,False,16
A034K24,491,experiment,60,↑,up,↑,1.5036879999679513,True,16
A034K24,492,experiment,84,←,left,←,0.7574505999800749,True,16
A034K24,493,experiment,168,→,down,↓,0.8495654999860562,False,16
A034K24,494,experiment,108,→,right,→,0.6700683000381105,True,16
A034K24,495,experiment,12,←,left,←,0.7592653000028804,True,16
A034K24,496,experiment,144,→,right,→,1.8418864999548532,True,16
A034K24,497,experiment,84,↓,up,↑,1.1358739000279456,False,16
A034K24,498,experiment,96,→,right,→,0.6227522999979556,True,16
A034K24,499,experiment,144,→,right,→,0.6476220000186004,True,16
A034K24,500,experiment,168,←,left,←,1.4890012000105344,True,16
A034K24,501,experiment,72,↓,up,↑,1.5359041999909095,False,16
A034K24,502,experiment,132,←,left,←,1.069784499995876,True,16
A034K24,503,experiment,84,→,right,→,1.1632823999971151,True,16
A034K24,504,experiment,72,↑,right,→,0.6457255000132136,False,16
A034K24,505,experiment,72,↓,right,→,0.8436701000318862,False,16
A034K24,506,experiment,12,↑,up,↑,1.5937923000310548,True,16
A034K24,507,experiment,48,↓,no_key,no_letter,-1.0,False,16
A034K24,508,experiment,24,←,left,←,0.8388762999675237,True,16
A034K24,509,experiment,72,↑,up,↑,1.538887100003194,True,16
A034K24,510,experiment,24,↑,up,↑,1.109176199999638,True,16
A034K24,511,experiment,108,↓,down,↓,0.7043937999987975,True,16
A034K24,512,experiment,60,→,right,→,0.5543755000107922,True,16
A034K24,513,experiment,36,←,left,←,0.6322671000380069,True,16
A034K24,514,experiment,96,←,left,←,0.6328043999965303,True,16
A034K24,515,experiment,168,↓,up,↑,0.8533845999627374,False,16
A034K24,516,experiment,132,↓,down,↓,0.7642561999964528,True,16
A034K24,517,experiment,120,←,left,←,1.8833656000206247,True,16
A034K24,518,experiment,96,←,down,↓,1.392497299995739,False,16
A034K24,519,experiment,120,←,left,←,0.6294646000023931,True,16
A034K24,520,experiment,48,←,down,↓,1.664894399989862,False,16
A034K24,521,experiment,84,↓,down,↓,0.8664408000186086,True,16
A034K24,522,experiment,156,↓,down,↓,0.8115993000101298,True,16
A034K24,523,experiment,156,↓,down,↓,1.6573614999651909,True,16
A034K24,524,experiment,36,←,up,↑,1.276101000024937,False,16
A034K24,525,experiment,120,→,left,←,1.3756280000088736,False,16
A034K24,526,experiment,24,→,up,↑,0.8546662000007927,False,16
A034K24,527,experiment,144,→,right,→,1.6381537000415847,True,16
A034K24,528,experiment,120,←,left,←,0.7090563999954611,True,16
A034K24,529,experiment,180,→,right,→,0.7635887999786064,True,16
A034K24,530,experiment,180,←,left,←,0.493903299968224,True,16
A034K24,531,experiment,12,←,no_key,no_letter,-1.0,False,16
A034K24,532,experiment,132,→,right,→,1.4894483999814838,True,16
A034K24,533,experiment,156,→,right,→,0.6208930999855511,True,16
A034K24,534,experiment,60,←,left,←,0.8409905000007711,True,16
A034K24,535,training,132,←,left,←,0.7299023999948986,True,16
A034K24,536,training,108,↓,up,↑,0.8937557000317611,False,16
A034K24,537,training,108,↑,up,↑,0.7456832000170834,True,16
A034K24,538,experiment,108,↓,down,↓,0.5056578000076115,True,16
A034K24,539,experiment,132,↑,down,↓,0.6643808999797329,False,16
A034K24,540,experiment,96,←,left,←,0.4699387999717146,True,16
A034K24,541,experiment,84,→,left,←,0.7205004999996163,False,16
A034K24,542,experiment,108,→,right,→,0.9085512000019662,True,16
A034K24,543,experiment,144,→,right,→,0.9150688999798149,True,16
A034K24,544,experiment,84,↑,up,↑,1.1694981000036933,True,16
A034K24,545,experiment,144,→,right,→,0.6735533999744803,True,16
A034K24,546,experiment,60,↑,up,↑,1.0242238999926485,True,16
A034K24,547,experiment,180,→,up,↑,0.8317433000192977,False,16
A034K24,548,experiment,132,←,down,↓,1.6444009999977425,False,16
A034K24,549,experiment,48,→,left,←,1.2863863999955356,False,16
A034K24,550,experiment,84,↑,up,↑,0.6954499999992549,True,16
A034K24,551,experiment,12,↑,down,↓,1.3038097000098787,False,16
A034K24,552,experiment,156,↑,up,↑,0.5847760000033304,True,16
A034K24,553,experiment,108,↑,up,↑,0.7767408000072464,True,16
A034K24,554,experiment,24,↑,down,↓,1.4062072999658994,False,16
A034K24,555,experiment,48,←,right,→,0.7375040999613702,False,16
A034K24,556,experiment,120,↓,down,↓,0.7205820999806747,True,16
A034K24,557,experiment,72,↑,right,→,1.2860512000042945,False,16
A034K24,558,experiment,156,→,down,↓,0.7120174000156112,False,16
A034K24,559,experiment,144,↓,down,↓,0.5356722000287846,True,16
A034K24,560,experiment,120,→,up,↑,1.3366984000313096,False,16
A034K24,561,experiment,72,↑,up,↑,0.5148088000132702,True,16
A034K24,562,experiment,132,←,left,←,0.6637539999792352,True,16
A034K24,563,experiment,12,→,right,→,1.1482089000055566,True,16
A034K24,564,experiment,132,↑,down,↓,0.5838507000007667,False,16
A034K24,565,experiment,108,←,left,←,0.6865956999827176,True,16
A034K24,566,experiment,60,↓,up,↑,1.592862299992703,False,16
A034K24,567,experiment,48,←,down,↓,0.5688500999822281,False,16
A034K24,568,experiment,12,↓,up,↑,0.744287500041537,False,16
A034K24,569,experiment,180,↑,right,→,1.0665090999682434,False,16
A034K24,570,experiment,36,→,left,←,0.9006691999966279,False,16
A034K24,571,experiment,24,↑,up,↑,1.062370200001169,True,16
A034K24,572,experiment,168,←,down,↓,0.6170618000323884,False,16
A034K24,573,experiment,36,↓,right,→,1.2559203000273556,False,16
A034K24,574,experiment,24,→,left,←,1.5041774000274017,False,16
A034K24,575,experiment,36,↑,up,↑,0.7505439999513328,True,16
A034K24,576,experiment,96,←,left,←,0.7288593000266701,True,16
A034K24,577,experiment,120,←,left,←,0.7272101999842562,True,16
A034K24,578,experiment,12,↓,up,↑,0.9902246000128798,False,16
A034K24,579,experiment,60,→,right,→,0.7796109999762848,True,16
A034K24,580,experiment,120,→,right,→,0.6165567999705672,True,16
A034K24,581,experiment,96,→,right,→,0.4600370000116527,True,16
A034K24,582,experiment,60,↓,up,↑,0.9877696000039577,False,16
A034K24,583,experiment,24,↓,no_key,no_letter,-1.0,False,16
A034K24,584,experiment,96,←,up,↑,1.2535457000485621,False,16
A034K24,585,experiment,168,↓,right,→,0.8895177000085823,False,16
A034K24,586,experiment,168,→,right,→,0.7515988000086509,True,16
A034K24,587,experiment,156,→,right,→,0.5918051999760792,True,16
A034K24,588,experiment,36,←,right,→,0.6694431999931112,False,16
A034K24,589,experiment,72,↑,right,→,0.592491700022947,False,16
A034K24,590,experiment,180,↑,up,↑,0.9832255999790505,True,16
A034K24,591,experiment,180,↓,up,↑,1.091009399970062,False,16
A034K24,592,experiment,156,→,left,←,0.333836900012102,False,16
A034K24,593,experiment,84,↓,down,↓,0.6461353999911807,True,16
A034K24,594,experiment,144,↑,up,↑,0.7475419000256807,True,16
A034K24,595,experiment,48,→,right,→,0.6153154000057839,True,16
A034K24,596,experiment,168,→,right,→,0.6740311000030488,True,16
A034K24,597,experiment,72,↑,up,↑,0.5589204999851063,True,16
A034K24,598,training,84,→,right,→,0.7464412999688648,True,17
A034K24,599,training,108,↑,up,↑,0.8183734000194818,True,17
A034K24,600,training,120,↑,down,↓,0.9431484999950044,False,17
A034K24,601,experiment,72,↓,up,↑,1.0958545000175945,False,17
A034K24,602,experiment,180,↓,down,↓,0.5733270000200719,True,17
A034K24,603,experiment,168,→,right,→,0.7681491000112146,True,17
A034K24,604,experiment,120,←,up,↑,0.7803725000121631,False,17
A034K24,605,experiment,60,→,down,↓,0.5409199999994598,False,17
A034K24,606,experiment,48,←,right,→,0.7090119000058621,False,17
A034K24,607,experiment,144,→,right,→,0.6448004000121728,True,17
A034K24,608,experiment,108,←,right,→,0.6423397999606095,False,17
A034K24,609,experiment,48,↑,up,↑,0.7459269000100903,True,17
A034K24,610,experiment,168,→,right,→,0.756169400003273,True,17
A034K24,611,experiment,156,↑,up,↑,0.7451465000049211,True,17
A034K24,612,experiment,156,→,left,←,0.8611807000124827,False,17
A034K24,613,experiment,96,↓,right,→,1.1680002000066452,False,17
A034K24,614,experiment,12,←,left,←,0.732998600054998,True,17
A034K24,615,experiment,24,←,left,←,0.7385123000130989,True,17
A034K24,616,experiment,120,←,left,←,0.6037203000159934,True,17
A034K24,617,experiment,156,↓,right,→,0.6423076000064611,False,17
A034K24,618,experiment,132,←,up,↑,1.2330741999903694,False,17
A034K24,619,experiment,12,←,right,→,0.4774910000269301,False,17
A034K24,620,experiment,24,←,left,←,0.866888899996411,True,17
A034K24,621,experiment,72,→,up,↑,0.5430368999950588,False,17
A034K24,622,experiment,72,↑,down,↓,0.7311736999545246,False,17
A034K24,623,experiment,180,↑,down,↓,0.746355900017079,False,17
A034K24,624,experiment,156,→,up,↑,0.5651565999723971,False,17
A034K24,625,experiment,96,←,up,↑,0.6138045000261627,False,17
A034K24,626,experiment,48,↑,up,↑,1.1215516999945976,True,17
A034K24,627,experiment,96,↓,down,↓,0.8422075000125915,True,17
A034K24,628,experiment,24,↑,right,→,1.294431500020437,False,17
A034K24,629,experiment,144,→,left,←,0.7581667000195011,False,17
A034K24,630,experiment,36,↓,down,↓,1.3209082999965176,True,17
A034K24,631,experiment,108,↑,up,↑,0.6787282999721356,True,17
A034K24,632,experiment,120,↓,up,↑,0.9971490000025369,False,17
A034K24,633,experiment,36,→,right,→,0.8632046999991871,True,17
A034K24,634,experiment,168,→,no_key,no_letter,-1.0,False,17
A034K24,635,experiment,132,↑,up,↑,0.8105058000073768,True,17
A034K24,636,experiment,132,↓,down,↓,1.5685653000255115,True,17
A034K24,637,experiment,12,↑,down,↓,0.6677094999467954,False,17
A034K24,638,experiment,180,↓,no_key,no_letter,-1.0,False,17
A034K24,639,experiment,60,↓,left,←,0.7173770999652334,False,17
A034K24,640,experiment,84,→,right,→,1.4947317999904044,True,17
A034K24,641,experiment,84,↓,up,↑,0.7781030000187457,False,17
A034K24,642,experiment,120,←,left,←,1.158545900019817,True,17
A034K24,643,experiment,72,↓,down,↓,0.6630087000085041,True,17
A034K24,644,experiment,84,←,left,←,0.8123880000202917,True,17
A034K24,645,experiment,84,→,right,→,0.7939434999716468,True,17
A034K24,646,experiment,60,↑,up,↑,0.8414281999575906,True,17
A034K24,647,experiment,24,←,left,←,1.191508400021121,True,17
A034K24,648,experiment,36,←,left,←,0.6385503000346944,True,17
A034K24,649,experiment,12,↑,up,↑,1.7725924999685958,True,17
A034K24,650,experiment,36,↑,up,↑,0.7522173000033945,True,17
A034K24,651,experiment,96,↓,down,↓,0.5802784999832511,True,17
A034K24,652,experiment,132,→,right,→,0.9654698999947868,True,17
A034K24,653,experiment,144,→,up,↑,1.1528651000116952,False,17
A034K24,654,experiment,144,↑,up,↑,1.1358977999771014,True,17
A034K24,655,experiment,108,←,down,↓,1.183702500013169,False,17
A034K24,656,experiment,108,↓,down,↓,0.5727937999763526,True,17
A034K24,657,experiment,180,↑,down,↓,0.9465971000026911,False,17
A034K24,658,experiment,48,←,left,←,0.7289103000075556,True,17
A034K24,659,experiment,60,←,left,←,0.5634472999954596,True,17
A034K24,660,experiment,168,←,left,←,0.5429735000361688,True,17
A034K24,661,training,24,↓,down,↓,1.11232650000602,True,18
A034K24,662,training,96,↑,up,↑,0.8981003999942914,True,18
A034K24,663,training,168,→,right,→,0.6316696999710985,True,18
A034K24,664,experiment,120,←,left,←,0.4342002999619581,True,18
A034K24,665,experiment,108,↓,down,↓,0.8519260999746621,True,18
A034K24,666,experiment,60,→,right,→,0.41720080003142357,True,18
A034K24,667,experiment,60,→,right,→,0.40051489998586476,True,18
A034K24,668,experiment,108,←,left,←,1.081964299955871,True,18
A034K24,669,experiment,96,→,up,↑,0.9254896999918856,False,18
A034K24,670,experiment,72,↑,down,↓,0.8440174999996088,False,18
A034K24,671,experiment,24,←,left,←,0.5938748000189662,True,18
A034K24,672,experiment,72,↓,down,↓,0.6132657999987714,True,18
A034K24,673,experiment,12,←,up,↑,0.7683612999971956,False,18
A034K24,674,experiment,180,←,left,←,0.5430204000440426,True,18
A034K24,675,experiment,96,↓,left,←,0.5678494999883696,False,18
A034K24,676,experiment,156,↑,left,←,0.47448769997572526,False,18
A034K24,677,experiment,48,→,right,→,0.4338522999896668,True,18
A034K24,678,experiment,120,←,left,←,0.4918798999860883,True,18
A034K24,679,experiment,168,↑,up,↑,0.7152887000120245,True,18
A034K24,680,experiment,36,←,left,←,0.6109800999984145,True,18
A034K24,681,experiment,180,←,down,↓,0.8129599000094458,False,18
A034K24,682,experiment,60,↑,up,↑,0.7787602999596857,True,18
A034K24,683,experiment,132,↑,up,↑,0.5779599000234157,True,18
A034K24,684,experiment,36,←,down,↓,1.4031751999864355,False,18
A034K24,685,experiment,120,↑,up,↑,0.8939031999907456,True,18
A034K24,686,experiment,84,→,up,↑,0.871667500003241,False,18
A034K24,687,experiment,156,↑,up,↑,0.8928406999912113,True,18
A034K24,688,experiment,12,←,left,←,0.8012461999896914,True,18
A034K24,689,experiment,156,→,right,→,0.6550648999982513,True,18
A034K24,690,experiment,84,←,up,↑,0.6940299999550916,False,18
A034K24,691,experiment,12,→,right,→,0.5242934999987483,True,18
A034K24,692,experiment,168,↑,right,→,1.1792108000372536,False,18
A034K24,693,experiment,180,↓,down,↓,0.9692858000053093,True,18
A034K24,694,experiment,108,←,down,↓,1.0011416000197642,False,18
A034K24,695,experiment,48,→,right,→,1.2094960999675095,True,18
A034K24,696,experiment,36,↓,down,↓,0.591079699981492,True,18
A034K24,697,experiment,132,↓,down,↓,0.6068091000197455,True,18
A034K24,698,experiment,144,↓,down,↓,0.5241943000000902,True,18
A034K24,699,experiment,144,↑,up,↑,0.6272923999931663,True,18
A034K24,700,experiment,48,←,left,←,0.6001031999476254,True,18
A034K24,701,experiment,120,←,right,→,0.7787267999956384,False,18
A034K24,702,experiment,24,→,right,→,1.572798800014425,True,18
A034K24,703,experiment,72,→,left,←,1.076192899956368,False,18
A034K24,704,experiment,144,←,left,←,0.741765699989628,True,18
A034K24,705,experiment,48,→,right,→,0.9269702000310645,True,18
A034K24,706,experiment,96,→,right,→,1.148734999995213,True,18
A034K24,707,experiment,84,↓,down,↓,0.710074300004635,True,18
A034K24,708,experiment,96,←,left,←,0.43390639999415725,True,18
A034K24,709,experiment,84,↓,down,↓,0.6708059000084177,True,18
A034K24,710,experiment,60,↑,up,↑,0.6164431999786757,True,18
A034K24,711,experiment,180,←,no_key,no_letter,-1.0,False,18
A034K24,712,experiment,108,↑,right,→,1.0157580999657512,False,18
A034K24,713,experiment,72,←,right,→,1.6309459999902174,False,18
A034K24,714,experiment,156,↑,up,↑,0.6286314000026323,True,18
A034K24,715,experiment,168,←,up,↑,0.6181862999801524,False,18
A034K24,716,experiment,144,↑,up,↑,0.7924231999786571,True,18
A034K24,717,experiment,24,↑,up,↑,0.48186070000519976,True,18
A034K24,718,experiment,132,↑,up,↑,0.9452531000133604,True,18
A034K24,719,experiment,12,↓,up,↑,0.6542457999894395,False,18
A034K24,720,experiment,36,←,left,←,0.6656770000117831,True,18
A034K24,721,experiment,132,←,left,←,0.5555365000036545,True,18
A034K24,722,experiment,24,↓,down,↓,1.1588742000167258,True,18
A034K24,723,experiment,168,↓,down,↓,0.8420276999822818,True,18
A034K24,724,training,12,↑,left,←,1.0856607999885455,False,18
A034K24,725,training,48,←,left,←,1.8742655999958515,True,18
A034K24,726,training,132,↑,up,↑,0.5392705000122078,True,18
A034K24,727,experiment,24,↑,right,→,0.6270018999930471,False,18
A034K24,728,experiment,144,←,right,→,0.6393577000126243,False,18
A034K24,729,experiment,108,→,left,←,0.38386269996408373,False,18
A034K24,730,experiment,144,↑,right,→,0.7339572999626398,False,18
A034K24,731,experiment,84,↑,right,→,1.0795922999968752,False,18
A034K24,732,experiment,72,↓,down,↓,0.7510190000175498,True,18
A034K24,733,experiment,132,←,left,←,0.7406264000455849,True,18
A034K24,734,experiment,48,↑,right,→,0.7566622999729589,False,18
A034K24,735,experiment,144,←,right,→,0.6328810999984853,False,18
A034K24,736,experiment,36,↓,down,↓,0.6235325000016019,True,18
A034K24,737,experiment,48,→,right,→,0.6988894999958575,True,18
A034K24,738,experiment,12,↓,left,←,1.185982699971646,False,18
A034K24,739,experiment,108,↑,up,↑,0.7533139000297524,True,18
A034K24,740,experiment,156,↓,up,↑,1.0704230000264943,False,18
A034K24,741,experiment,180,↑,up,↑,0.7005521000246517,True,18
A034K24,742,experiment,36,→,up,↑,0.7840013999957591,False,18
A034K24,743,experiment,36,←,left,←,0.7247379999607801,True,18
A034K24,744,experiment,156,↓,up,↑,1.0029019000357948,False,18
A034K24,745,experiment,60,←,right,→,0.5997969000018202,False,18
A034K24,746,experiment,24,↑,down,↓,1.029683800006751,False,18
A034K24,747,experiment,156,→,right,→,0.6750394999980927,True,18
A034K24,748,experiment,168,↓,up,↑,1.522144200047478,False,18
A034K24,749,experiment,120,→,right,→,0.6758037999970838,True,18
A034K24,750,experiment,168,↑,up,↑,0.622451200033538,True,18
A034K24,751,experiment,12,↑,right,→,1.2424684999859892,False,18
A034K24,752,experiment,72,↑,up,↑,0.8738798000267707,True,18
A034K24,753,experiment,144,↑,down,↓,0.8575392000493594,False,18
A034K24,754,experiment,12,←,down,↓,1.3423614999628626,False,18
A034K24,755,experiment,156,↑,no_key,no_letter,-1.0,False,18
A034K24,756,experiment,96,↑,up,↑,0.5794648000155576,True,18
A034K24,757,experiment,72,→,down,↓,0.9061183000449091,False,18
A034K24,758,experiment,24,→,right,→,0.4769990000058897,True,18
A034K24,759,experiment,96,→,right,→,0.4699589000083506,True,18
A034K24,760,experiment,48,↓,right,→,0.7541426999960095,False,18
A034K24,761,experiment,132,↓,down,↓,0.6018405999639072,True,18
A034K24,762,experiment,96,↓,no_key,no_letter,-1.0,False,18
A034K24,763,experiment,132,←,right,→,0.898393000010401,False,18
A034K24,764,experiment,84,→,right,→,0.5491459000040777,True,18
A034K24,765,experiment,84,↓,down,↓,1.3522115999949165,True,18
A034K24,766,experiment,120,↓,down,↓,0.8732868999941275,True,18
A034K24,767,experiment,168,↑,up,↑,0.7031644000089727,True,18
A034K24,768,experiment,84,↓,up,↑,0.8121935999952257,False,18
A034K24,769,experiment,72,←,down,↓,0.7489066999987699,False,18
A034K24,770,experiment,180,←,no_key,no_letter,-1.0,False,18
A034K24,771,experiment,12,↑,up,↑,1.0923484999802895,True,18
A034K24,772,experiment,108,←,right,→,0.817018800007645,False,18
A034K24,773,experiment,48,↑,up,↑,0.8606462000170723,True,18
A034K24,774,experiment,24,→,right,→,0.7237099999911152,True,18
A034K24,775,experiment,120,↑,up,↑,0.5936675000120886,True,18
A034K24,776,experiment,60,→,right,→,0.7602531999582425,True,18
A034K24,777,experiment,60,→,right,→,0.43374230002518743,True,18
A034K24,778,experiment,120,↓,down,↓,0.6415724999969825,True,18
A034K24,779,experiment,36,←,left,←,1.0788065000087954,True,18
A034K24,780,experiment,180,↓,right,→,0.5883156999479979,False,18
A034K24,781,experiment,168,↓,down,↓,0.8199713000212796,True,18
A034K24,782,experiment,108,↓,right,→,0.8410000000149012,False,18
A034K24,783,experiment,96,↑,up,↑,0.5822470000130124,True,18
A034K24,784,experiment,60,↓,down,↓,1.0250694999704137,True,18
A034K24,785,experiment,180,←,left,←,1.1261245000059716,True,18
A034K24,786,experiment,132,→,right,→,0.8432573999743909,True,18
A034K24,787,training,168,→,right,→,0.6768591000000015,True,18
A034K24,788,training,132,→,right,→,0.5732657000189647,True,18
A034K24,789,training,96,↑,up,↑,1.3391329000005499,True,18
A034K24,790,experiment,12,→,right,→,0.6185041000135243,True,18
A034K24,791,experiment,36,→,left,←,0.8158847000449896,False,18
A034K24,792,experiment,180,↓,down,↓,0.6107566999853589,True,18
A034K24,793,experiment,48,→,right,→,0.5940823999699205,True,18
A034K24,794,experiment,180,→,left,←,0.4692098000086844,False,18
A034K24,795,experiment,132,→,right,→,0.6017886000336148,True,18
A034K24,796,experiment,180,↑,left,←,0.6362374000018463,False,18
A034K24,797,experiment,84,↑,up,↑,0.5370110999792814,True,18
A034K24,798,experiment,168,←,left,←,0.5282539000036195,True,18
A034K24,799,experiment,60,↓,right,→,0.7832265999750234,False,18
A034K24,800,experiment,60,↓,down,↓,0.708226700022351,True,18
A034K24,801,experiment,180,→,right,→,1.5386489999946207,True,18
A034K24,802,experiment,120,↑,up,↑,0.5556407999829389,True,18
A034K24,803,experiment,156,→,right,→,0.4759440000052564,True,18
A034K24,804,experiment,72,→,left,←,0.6929789999849163,False,18
A034K24,805,experiment,96,→,right,→,1.0908879000344314,True,18
A034K24,806,experiment,60,→,right,→,0.4338069999939762,True,18
A034K24,807,experiment,108,↓,up,↑,0.8355593000305817,False,18
A034K24,808,experiment,96,↑,up,↑,0.4881593000027351,True,18
A034K24,809,experiment,120,↑,up,↑,1.235413399990648,True,18
A034K24,810,experiment,120,→,right,→,0.7824047000030987,True,18
A034K24,811,experiment,24,←,left,←,1.01023349998286,True,18
A034K24,812,experiment,48,→,right,→,0.673037700005807,True,18
A034K24,813,experiment,108,↓,down,↓,1.5290163999889046,True,18
A034K24,814,experiment,108,↓,down,↓,0.9892382000107318,True,18
A034K24,815,experiment,168,↑,up,↑,0.5808450999902561,True,18
A034K24,816,experiment,96,↑,up,↑,1.4877998000010848,True,18
A034K24,817,experiment,108,→,right,→,0.7104874000069685,True,18
A034K24,818,experiment,156,→,right,→,0.41701500001363456,True,18
A034K24,819,experiment,84,↑,left,←,1.3625375999836251,False,18
A034K24,820,experiment,168,↓,down,↓,0.742452000034973,True,18
A034K24,821,experiment,36,↓,right,→,0.49376340000890195,False,18
A034K24,822,experiment,72,→,right,→,0.5640712000313215,True,18
A034K24,823,experiment,132,→,right,→,0.5227480999892578,True,18
A034K24,824,experiment,48,↓,down,↓,0.8310342999757268,True,18
A034K24,825,experiment,24,→,right,→,1.0825148999574594,True,18
A034K24,826,experiment,36,←,left,←,1.7175739000085741,True,18
A034K24,827,experiment,12,↓,down,↓,0.6514815000118688,True,18
A034K24,828,experiment,96,→,right,→,0.9357843999750912,True,18
A034K24,829,experiment,120,↑,right,→,0.7890085999970324,False,18
A034K24,830,experiment,12,→,right,→,0.5790006999741308,True,18
A034K24,831,experiment,60,→,right,→,0.739154500013683,True,18
A034K24,832,experiment,72,←,right,→,0.6424738999921829,False,18
A034K24,833,experiment,156,←,left,←,0.9862572000129148,True,18
A034K24,834,experiment,156,↑,left,←,0.4171164999715984,False,18
A034K24,835,experiment,72,←,right,→,0.5253635999979451,False,18
A034K24,836,experiment,24,↑,up,↑,0.7350880999583751,True,18
A034K24,837,experiment,84,↑,up,↑,0.4811601999681443,True,18
A034K24,838,experiment,144,→,right,→,0.6138465999974869,True,18
A034K24,839,experiment,144,↑,left,←,0.5022433000267483,False,18
A034K24,840,experiment,12,←,down,↓,1.4137492000008933,False,18
A034K24,841,experiment,24,↓,down,↓,0.6823518999735825,True,18
A034K24,842,experiment,132,←,right,→,0.675480600039009,False,18
A034K24,843,experiment,48,→,right,→,0.5571165999863297,True,18
A034K24,844,experiment,144,↑,up,↑,0.9082989000016823,True,18
A034K24,845,experiment,84,→,right,→,0.5420512999990024,True,18
A034K24,846,experiment,168,↑,up,↑,1.0427054000319913,True,18
A034K24,847,experiment,36,→,right,→,0.5136777999578044,True,18
A034K24,848,experiment,132,→,right,→,0.5636515999794938,True,18
A034K24,849,experiment,144,←,right,→,0.46887809998588637,False,18
