PART_ID,Trial_no,Trial_type,PDI,Stim_letter,Key_pressed,letter_choose,Rt,Corr,Stimulus Time
AO033K23,1,training,10,↑,left,←,2.0983540999004617,False,30
AO033K23,2,training,10,↓,down,↓,2.1250307000009343,True,30
AO033K23,3,training,10,→,right,→,1.7884001000784338,True,30
AO033K23,4,training,10,→,right,→,1.406604400021024,True,30
AO033K23,5,training,10,←,left,←,1.5123980999924242,True,30
AO033K23,6,training,10,→,right,→,1.2584259000141174,True,30
AO033K23,7,training,10,↓,down,↓,1.2642720000585541,True,30
AO033K23,8,training,10,↑,up,↑,1.2667085999855772,True,30
AO033K23,9,training,10,↑,up,↑,1.2771417999174446,True,30
AO033K23,10,training,10,↓,down,↓,1.2664519000099972,True,30
AO033K23,11,training,10,→,right,→,1.3270589000312611,True,30
AO033K23,12,training,10,→,right,→,1.250858600018546,True,30
AO033K23,13,training,10,←,left,←,1.2278754999861121,True,30
AO033K23,14,training,10,↑,up,↑,1.2438445999287069,True,30
AO033K23,15,training,10,↓,down,↓,1.1430717000039294,True,30
AO033K23,16,training,10,←,left,←,1.2680967999622226,True,30
AO033K23,17,training,10,↑,up,↑,1.1511156999040395,True,30
AO033K23,18,training,10,↑,up,↑,0.9351679000537843,True,30
AO033K23,19,training,10,←,left,←,1.1641610000515357,True,30
AO033K23,20,training,10,→,right,→,1.133230400038883,True,30
AO033K23,21,training,10,→,right,→,1.0909399999072775,True,18
AO033K23,22,training,10,→,right,→,1.1381880000699311,True,18
AO033K23,23,training,10,→,left,←,1.3384222000604495,False,18
AO033K23,24,training,10,↑,up,↑,0.986391199985519,True,18
AO033K23,25,training,10,↑,up,↑,1.083523100009188,True,18
AO033K23,26,training,10,←,left,←,1.160642599919811,True,18
AO033K23,27,training,10,→,up,↑,1.3530518000479788,False,18
AO033K23,28,training,10,→,left,←,1.1862247999524698,False,18
AO033K23,29,training,10,↓,down,↓,0.9981157999718562,True,18
AO033K23,30,training,10,↑,up,↑,0.8026814000913873,True,18
AO033K23,31,training,108,↓,left,←,1.2651412000413984,False,15
AO033K23,32,training,48,→,no_key,no_letter,-1.0,False,15
AO033K23,33,training,48,←,left,←,0.8456479000160471,True,15
AO033K23,34,experiment,120,←,left,←,1.7967969999881461,True,15
AO033K23,35,experiment,96,←,left,←,1.1259458999847993,True,15
AO033K23,36,experiment,180,→,right,→,0.8775867000222206,True,15
AO033K23,37,experiment,24,↑,right,→,0.8761307001113892,False,15
AO033K23,38,experiment,132,←,no_key,no_letter,-1.0,False,15
AO033K23,39,experiment,132,←,right,→,0.9337194000836462,False,15
AO033K23,40,experiment,48,←,no_key,no_letter,-1.0,False,15
AO033K23,41,experiment,24,↑,left,←,0.6234036000678316,False,15
AO033K23,42,experiment,24,↑,right,→,1.127501399954781,False,15
AO033K23,43,experiment,72,←,left,←,0.6025439999066293,True,15
AO033K23,44,experiment,120,←,left,←,0.6776232999982312,True,15
AO033K23,45,experiment,12,↑,up,↑,1.3063259000191465,True,15
AO033K23,46,experiment,156,→,right,→,0.8379322999389842,True,15
AO033K23,47,experiment,108,↑,right,→,0.789970799931325,False,15
AO033K23,48,experiment,36,↑,left,←,0.7899841000325978,False,15
AO033K23,49,experiment,180,↑,right,→,0.7602707999758422,False,15
AO033K23,50,experiment,48,←,right,→,0.968504499993287,False,15
AO033K23,51,experiment,60,→,left,←,0.8105861999792978,False,15
AO033K23,52,experiment,144,←,down,↓,1.0325021999888122,False,15
AO033K23,53,experiment,84,←,right,→,0.7978916000574827,False,15
AO033K23,54,experiment,156,←,right,→,0.7249964000657201,False,15
AO033K23,55,experiment,12,↓,no_key,no_letter,-1.0,False,15
AO033K23,56,experiment,108,→,right,→,0.4758134000003338,True,15
AO033K23,57,experiment,84,←,right,→,1.017986600054428,False,15
AO033K23,58,experiment,24,↓,down,↓,0.6722378999693319,True,15
AO033K23,59,experiment,120,↑,down,↓,0.7055064000887796,False,15
AO033K23,60,experiment,96,↓,right,→,0.9969978999579325,False,15
AO033K23,61,experiment,132,↓,down,↓,0.7002951999893412,True,15
AO033K23,62,experiment,60,←,left,←,0.5399471999844536,True,15
AO033K23,63,experiment,72,→,right,→,1.142643200000748,True,15
AO033K23,64,experiment,96,↓,down,↓,0.7107502999715507,True,15
AO033K23,65,experiment,156,↑,right,→,1.1753185000270605,False,15
AO033K23,66,experiment,144,→,right,→,0.7771865999093279,True,15
AO033K23,67,experiment,180,↓,down,↓,0.7935178999323398,True,15
AO033K23,68,experiment,60,↑,down,↓,0.7164578000083566,False,15
AO033K23,69,experiment,180,↓,right,→,1.0180006000446156,False,15
AO033K23,70,experiment,96,←,left,←,1.1969882000703365,True,15
AO033K23,71,experiment,36,←,right,→,1.0733334000688046,False,15
AO033K23,72,experiment,36,→,right,→,1.6217811999376863,True,15
AO033K23,73,experiment,36,→,right,→,0.9091744000324979,True,15
AO033K23,74,experiment,144,←,right,→,1.125977999996394,False,15
AO033K23,75,experiment,84,↑,down,↓,1.7222183999838307,False,15
AO033K23,76,experiment,12,←,right,→,1.5629202000563964,False,15
AO033K23,77,experiment,132,→,no_key,no_letter,-1.0,False,15
AO033K23,78,experiment,168,↓,right,→,0.8025210000341758,False,15
AO033K23,79,experiment,72,↑,right,→,1.4416397999739274,False,15
AO033K23,80,experiment,48,↓,right,→,1.2544534000335261,False,15
AO033K23,81,experiment,156,↓,right,→,1.293113199993968,False,15
AO033K23,82,experiment,144,↑,left,←,1.7943170999642462,False,15
AO033K23,83,experiment,120,←,down,↓,1.3045022999867797,False,15
AO033K23,84,experiment,108,→,right,→,0.9800060000270605,True,15
AO033K23,85,experiment,84,←,left,←,0.8424829998984933,True,15
AO033K23,86,experiment,168,←,right,→,1.0197883000364527,False,15
AO033K23,87,experiment,168,←,right,→,0.8424804999958724,False,15
AO033K23,88,experiment,72,↑,down,↓,1.174047000007704,False,15
AO033K23,89,experiment,108,←,left,←,0.9813235000474378,True,15
AO033K23,90,experiment,60,↑,up,↑,0.9062662000069395,True,15
AO033K23,91,experiment,12,←,left,←,1.161863200017251,True,15
AO033K23,92,experiment,168,↓,down,↓,0.739862099988386,True,15
AO033K23,93,experiment,48,↑,up,↑,0.57505639991723,True,15
AO033K23,94,training,132,←,right,→,0.9904331000288948,False,16
AO033K23,95,training,24,←,down,↓,1.0135792000219226,False,16
AO033K23,96,training,48,←,right,→,1.0482027999823913,False,16
AO033K23,97,experiment,72,→,right,→,0.8451685999752954,True,16
AO033K23,98,experiment,12,→,right,→,0.7953936000121757,True,16
AO033K23,99,experiment,96,→,right,→,1.0094867999432608,True,16
AO033K23,100,experiment,132,↓,right,→,0.8985085000749677,False,16
AO033K23,101,experiment,108,↑,up,↑,1.130071800085716,True,16
AO033K23,102,experiment,48,↓,down,↓,0.7750907000154257,True,16
AO033K23,103,experiment,60,↓,down,↓,0.8936078000115231,True,16
AO033K23,104,experiment,24,←,right,→,0.8451189999468625,False,16
AO033K23,105,experiment,60,↑,up,↑,0.5076303000096232,True,16
AO033K23,106,experiment,36,↓,down,↓,1.1340964999981225,True,16
AO033K23,107,experiment,96,←,left,←,0.5982018000213429,True,16
AO033K23,108,experiment,24,←,left,←,0.46938210004009306,True,16
AO033K23,109,experiment,12,↓,down,↓,0.6117345000384375,True,16
AO033K23,110,experiment,132,↑,down,↓,0.8834836999885738,False,16
AO033K23,111,experiment,84,↓,down,↓,0.9184968000045046,True,16
AO033K23,112,experiment,144,↓,down,↓,0.809008099953644,True,16
AO033K23,113,experiment,72,↑,up,↑,0.5047318999422714,True,16
AO033K23,114,experiment,108,↓,down,↓,0.9562991000711918,True,16
AO033K23,115,experiment,72,→,right,→,0.6336563999066129,True,16
AO033K23,116,experiment,96,→,left,←,0.9980755998985842,False,16
AO033K23,117,experiment,144,→,right,→,0.8844375000335276,True,16
AO033K23,118,experiment,156,↓,left,←,0.5974788999883458,False,16
AO033K23,119,experiment,132,→,right,→,0.6722317999228835,True,16
AO033K23,120,experiment,120,←,right,→,0.8738789999624714,False,16
AO033K23,121,experiment,108,↑,right,→,0.8851030999794602,False,16
AO033K23,122,experiment,180,↑,up,↑,0.6984140001004562,True,16
AO033K23,123,experiment,48,→,down,↓,1.6098992000333965,False,16
AO033K23,124,experiment,84,←,right,→,0.6965794999850914,False,16
AO033K23,125,experiment,180,↑,up,↑,0.6066612000577152,True,16
AO033K23,126,experiment,180,→,right,→,1.0141786000458524,True,16
AO033K23,127,experiment,144,←,left,←,0.6544116999721155,True,16
AO033K23,128,experiment,120,→,right,→,0.5677422999870032,True,16
AO033K23,129,experiment,84,←,right,→,0.8346428000368178,False,16
AO033K23,130,experiment,60,→,right,→,0.8982440999243408,True,16
AO033K23,131,experiment,48,↓,left,←,1.5989528000354767,False,16
AO033K23,132,experiment,84,→,right,→,0.7199475000379607,True,16
AO033K23,133,experiment,120,↓,down,↓,0.7064152000239119,True,16
AO033K23,134,experiment,12,↓,down,↓,0.9278699998976663,True,16
AO033K23,135,experiment,168,↑,down,↓,0.7777874999446794,False,16
AO033K23,136,experiment,156,←,left,←,0.6744890999980271,True,16
AO033K23,137,experiment,24,→,down,↓,0.8357605999335647,False,16
AO033K23,138,experiment,12,↓,up,↑,1.8376430000644177,False,16
AO033K23,139,experiment,36,↑,up,↑,1.2096792999655008,True,16
AO033K23,140,experiment,144,→,right,→,0.7175258999923244,True,16
AO033K23,141,experiment,72,←,down,↓,0.9697156000183895,False,16
AO033K23,142,experiment,168,→,right,→,0.9951665999833494,True,16
AO033K23,143,experiment,168,↑,left,←,1.2407979000126943,False,16
AO033K23,144,experiment,36,↑,right,→,0.7631557000568137,False,16
AO033K23,145,experiment,180,↑,right,→,1.0376034000655636,False,16
AO033K23,146,experiment,36,←,left,←,0.7130714999511838,True,16
AO033K23,147,experiment,156,↓,down,↓,0.599506700062193,True,16
AO033K23,148,experiment,108,←,down,↓,0.7681388999335468,False,16
AO033K23,149,experiment,120,←,left,←,1.203075799974613,True,16
AO033K23,150,experiment,96,↑,right,→,1.212594800046645,False,16
AO033K23,151,experiment,24,←,no_key,no_letter,-1.0,False,16
AO033K23,152,experiment,48,→,right,→,0.965344600030221,True,16
AO033K23,153,experiment,132,←,left,←,0.6722002000315115,True,16
AO033K23,154,experiment,60,→,right,→,0.5327190000098199,True,16
AO033K23,155,experiment,156,←,left,←,0.8672585000749677,True,16
AO033K23,156,experiment,168,↑,down,↓,1.236506100045517,False,16
AO033K23,157,training,84,↑,up,↑,1.1840151000069454,True,16
AO033K23,158,training,120,↓,left,←,1.1306003000354394,False,16
AO033K23,159,training,108,←,left,←,0.6850201000925153,True,16
AO033K23,160,experiment,24,↑,down,↓,1.1380709999939427,False,16
AO033K23,161,experiment,108,→,left,←,0.7994288000045344,False,16
AO033K23,162,experiment,156,←,left,←,0.9609148000599816,True,16
AO033K23,163,experiment,36,←,left,←,1.1192860000301152,True,16
AO033K23,164,experiment,144,↑,up,↑,0.5820650999667123,True,16
AO033K23,165,experiment,180,→,right,→,1.0761766999494284,True,16
AO033K23,166,experiment,72,←,left,←,1.078649399918504,True,16
AO033K23,167,experiment,72,←,up,↑,1.1360452000517398,False,16
AO033K23,168,experiment,156,→,right,→,0.676155099994503,True,16
AO033K23,169,experiment,36,↑,down,↓,1.2305678999982774,False,16
AO033K23,170,experiment,120,↑,left,←,1.0797982999356464,False,16
AO033K23,171,experiment,36,→,left,←,0.9487661001039669,False,16
AO033K23,172,experiment,24,↑,up,↑,0.957254400011152,True,16
AO033K23,173,experiment,168,↑,right,→,0.9627381999744102,False,16
AO033K23,174,experiment,96,↓,left,←,0.9280467999633402,False,16
AO033K23,175,experiment,24,→,left,←,0.6187549999449402,False,16
AO033K23,176,experiment,132,↓,down,↓,0.8471130999969319,True,16
AO033K23,177,experiment,168,↓,down,↓,0.8826054000528529,True,16
AO033K23,178,experiment,132,→,left,←,0.47657890000846237,False,16
AO033K23,179,experiment,24,←,up,↑,0.48098200000822544,False,16
AO033K23,180,experiment,156,↑,right,→,0.47332059999462217,False,16
AO033K23,181,experiment,84,↓,down,↓,0.4476981000043452,True,16
AO033K23,182,experiment,48,↓,up,↑,0.8435577999334782,False,16
AO033K23,183,experiment,144,→,no_key,no_letter,-1.0,False,16
AO033K23,184,experiment,48,←,down,↓,0.6864875999744982,False,16
AO033K23,185,experiment,108,↑,down,↓,0.81777800002601,False,16
AO033K23,186,experiment,144,→,down,↓,0.25059730000793934,False,16
AO033K23,187,experiment,180,←,left,←,0.8951448999578133,True,16
AO033K23,188,experiment,72,→,right,→,0.7287951000034809,True,16
AO033K23,189,experiment,180,↓,up,↑,0.6735394999850541,False,16
AO033K23,190,experiment,12,↓,down,↓,0.8578892999794334,True,16
AO033K23,191,experiment,96,↓,down,↓,0.6367430000100285,True,16
AO033K23,192,experiment,60,→,down,↓,0.8545607000123709,False,16
AO033K23,193,experiment,120,→,left,←,0.8313143999548629,False,16
AO033K23,194,experiment,132,↑,up,↑,0.6198435999685898,True,16
AO033K23,195,experiment,144,→,right,→,0.6916679999558255,True,16
AO033K23,196,experiment,132,↓,up,↑,0.835090099950321,False,16
AO033K23,197,experiment,120,→,right,→,0.5120477000018582,True,16
AO033K23,198,experiment,168,↓,down,↓,0.6257182999979705,True,16
AO033K23,199,experiment,48,↓,left,←,1.0136771999532357,False,16
AO033K23,200,experiment,96,↓,up,↑,0.8567093000747263,False,16
AO033K23,201,experiment,60,↑,up,↑,0.5007869000546634,True,16
AO033K23,202,experiment,84,→,down,↓,0.5658815000206232,False,16
AO033K23,203,experiment,12,←,up,↑,0.5926922999788076,False,16
AO033K23,204,experiment,48,↓,down,↓,0.7057698999997228,True,16
AO033K23,205,experiment,60,↑,left,←,1.2500054000411183,False,16
AO033K23,206,experiment,12,→,up,↑,1.017025199951604,False,16
AO033K23,207,experiment,168,↓,down,↓,0.6375980000011623,True,16
AO033K23,208,experiment,120,→,right,→,1.4263362000929192,True,16
AO033K23,209,experiment,12,↓,up,↑,1.7708543000044301,False,16
AO033K23,210,experiment,72,↑,up,↑,0.621613800060004,True,16
AO033K23,211,experiment,108,↓,down,↓,0.6291066999547184,True,16
AO033K23,212,experiment,156,→,right,→,0.5302043999545276,True,16
AO033K23,213,experiment,84,↑,up,↑,0.614881300018169,True,16
AO033K23,214,experiment,108,↓,down,↓,0.6517779000569135,True,16
AO033K23,215,experiment,180,←,left,←,0.6237835000501946,True,16
AO033K23,216,experiment,36,→,up,↑,0.801218600012362,False,16
AO033K23,217,experiment,60,↓,down,↓,0.8804682999616489,True,16
AO033K23,218,experiment,84,↑,up,↑,0.6868376000784338,True,16
AO033K23,219,experiment,96,→,right,→,0.5404540000017732,True,16
AO033K23,220,training,108,→,no_key,no_letter,-1.0,False,17
AO033K23,221,training,96,←,left,←,0.6281691000331193,True,17
AO033K23,222,training,132,←,left,←,0.636177200009115,True,17
AO033K23,223,experiment,96,→,right,→,0.8081720999907702,True,17
AO033K23,224,experiment,108,→,right,→,0.9129343000240624,True,17
AO033K23,225,experiment,108,↑,up,↑,1.1318605999695137,True,17
AO033K23,226,experiment,120,↓,down,↓,0.9710454000160098,True,17
AO033K23,227,experiment,180,→,left,←,1.6414016000926495,False,17
AO033K23,228,experiment,156,→,right,→,0.6378279000055045,True,17
AO033K23,229,experiment,12,→,left,←,1.065871199942194,False,17
AO033K23,230,experiment,96,↑,down,↓,0.8657124999444932,False,17
AO033K23,231,experiment,72,↑,right,→,0.9498702000128105,False,17
AO033K23,232,experiment,132,←,left,←,0.9273505000164732,True,17
AO033K23,233,experiment,12,←,left,←,0.9805663999868557,True,17
AO033K23,234,experiment,168,↑,left,←,0.5175693000201136,False,17
AO033K23,235,experiment,84,←,left,←,0.8553995999973267,True,17
AO033K23,236,experiment,180,←,left,←,0.6303211000049487,True,17
AO033K23,237,experiment,120,↑,left,←,0.7009892000351101,False,17
AO033K23,238,experiment,48,→,left,←,0.6685157999163494,False,17
AO033K23,239,experiment,60,↑,left,←,1.1955129000125453,False,17
AO033K23,240,experiment,144,→,right,→,0.9600150999613106,True,17
AO033K23,241,experiment,168,↓,down,↓,0.6606597999343649,True,17
AO033K23,242,experiment,12,↑,up,↑,0.5568582999985665,True,17
AO033K23,243,experiment,156,↓,down,↓,0.514836199930869,True,17
AO033K23,244,experiment,132,↑,up,↑,0.5515083000063896,True,17
AO033K23,245,experiment,144,↓,left,←,0.8795638000592589,False,17
AO033K23,246,experiment,24,←,right,→,0.979326399974525,False,17
AO033K23,247,experiment,36,↓,down,↓,0.6452611000277102,True,17
AO033K23,248,experiment,60,→,left,←,1.144031499978155,False,17
AO033K23,249,experiment,144,←,left,←,0.7967697000131011,True,17
AO033K23,250,experiment,96,←,left,←,0.6191704999655485,True,17
AO033K23,251,experiment,36,↓,left,←,1.673031600075774,False,17
AO033K23,252,experiment,168,↓,right,→,0.5584773999871686,False,17
AO033K23,253,experiment,132,↑,left,←,0.9788742000237107,False,17
AO033K23,254,experiment,72,↑,left,←,0.7739575000014156,False,17
AO033K23,255,experiment,156,↓,no_key,no_letter,-1.0,False,17
AO033K23,256,experiment,168,↓,left,←,0.5770457000471652,False,17
AO033K23,257,experiment,60,←,left,←,0.48253660008776933,True,17
AO033K23,258,experiment,96,→,up,↑,0.26709340000525117,False,17
AO033K23,259,experiment,108,↓,down,↓,0.5652597999433056,True,17
AO033K23,260,experiment,12,←,left,←,0.5229238000465557,True,17
AO033K23,261,experiment,120,←,left,←,0.4172235999722034,True,17
AO033K23,262,experiment,84,↓,down,↓,1.1177930000703782,True,17
AO033K23,263,experiment,108,←,left,←,0.548078199964948,True,17
AO033K23,264,experiment,36,→,right,→,0.5511140000307932,True,17
AO033K23,265,experiment,84,↓,left,←,0.4778671000385657,False,17
AO033K23,266,experiment,24,→,left,←,0.5362075999146327,False,17
AO033K23,267,experiment,180,↓,down,↓,0.614327699993737,True,17
AO033K23,268,experiment,84,→,up,↑,1.0736422000918537,False,17
AO033K23,269,experiment,24,→,right,→,0.760172100039199,True,17
AO033K23,270,experiment,72,←,left,←,0.5247742999345064,True,17
AO033K23,271,experiment,72,←,no_key,no_letter,-1.0,False,17
AO033K23,272,experiment,48,→,right,→,0.8705603999551386,True,17
AO033K23,273,experiment,120,→,up,↑,0.6558165999595076,False,17
AO033K23,274,experiment,132,↑,up,↑,0.5561500999610871,True,17
AO033K23,275,experiment,144,↑,up,↑,0.49951100000180304,True,17
AO033K23,276,experiment,24,←,down,↓,0.8862718000309542,False,17
AO033K23,277,experiment,36,←,left,←,0.5839786999858916,True,17
AO033K23,278,experiment,60,→,right,→,0.5116757999639958,True,17
AO033K23,279,experiment,156,↓,no_key,no_letter,-1.0,False,17
AO033K23,280,experiment,180,↓,left,←,0.5080291000194848,False,17
AO033K23,281,experiment,48,↑,up,↑,0.5005917000817135,True,17
AO033K23,282,experiment,48,↑,down,↓,0.5724999000085518,False,17
AO033K23,283,training,48,↑,right,→,1.1995157999917865,False,18
AO033K23,284,training,180,←,left,←,0.9333122000098228,True,18
AO033K23,285,training,108,↓,down,↓,0.8538732000160962,True,18
AO033K23,286,experiment,60,↓,down,↓,0.6222710000583902,True,18
AO033K23,287,experiment,156,→,right,→,0.7364079999970272,True,18
AO033K23,288,experiment,132,←,left,←,0.6616088999435306,True,18
AO033K23,289,experiment,84,↓,up,↑,1.2628690000856295,False,18
AO033K23,290,experiment,144,→,right,→,0.6625595000805333,True,18
AO033K23,291,experiment,108,←,left,←,0.6630413999082521,True,18
AO033K23,292,experiment,120,←,up,↑,0.6217854999704286,False,18
AO033K23,293,experiment,144,↓,left,←,0.5085836000507697,False,18
AO033K23,294,experiment,132,←,up,↑,0.7324955000076443,False,18
AO033K23,295,experiment,24,←,right,→,0.7947055000113323,False,18
AO033K23,296,experiment,168,←,right,→,0.5989776001079008,False,18
AO033K23,297,experiment,120,←,left,←,0.7738052000058815,True,18
AO033K23,298,experiment,48,←,right,→,1.169887900003232,False,18
AO033K23,299,experiment,84,←,left,←,0.5928859999403358,True,18
AO033K23,300,experiment,168,↑,up,↑,0.4851749000372365,True,18
AO033K23,301,experiment,48,↓,down,↓,0.6958261999534443,True,18
AO033K23,302,experiment,36,↑,up,↑,0.5658211000263691,True,18
AO033K23,303,experiment,36,→,down,↓,1.087453700019978,False,18
AO033K23,304,experiment,108,→,right,→,0.43380620004609227,True,18
AO033K23,305,experiment,156,↓,left,←,0.5583625000435859,False,18
AO033K23,306,experiment,132,←,right,→,0.634437800035812,False,18
AO033K23,307,experiment,72,↑,left,←,1.2535944000119343,False,18
AO033K23,308,experiment,36,↑,up,↑,0.5858543999493122,True,18
AO033K23,309,experiment,96,↓,down,↓,0.6952417999273166,True,18
AO033K23,310,experiment,12,↑,up,↑,0.777576299966313,True,18
AO033K23,311,experiment,48,↓,up,↑,0.7102896000724286,False,18
AO033K23,312,experiment,60,→,right,→,0.630855800001882,True,18
AO033K23,313,experiment,72,↓,left,←,1.0243441999191418,False,18
AO033K23,314,experiment,144,↓,down,↓,0.880708200042136,True,18
AO033K23,315,experiment,96,→,down,↓,0.7674602000042796,False,18
AO033K23,316,experiment,120,←,right,→,1.1674270000075921,False,18
AO033K23,317,experiment,12,←,no_key,no_letter,-1.0,False,18
AO033K23,318,experiment,156,→,right,→,1.2741879998939112,True,18
AO033K23,319,experiment,24,↑,up,↑,0.9167548000114039,True,18
AO033K23,320,experiment,60,↑,up,↑,0.5494543000822887,True,18
AO033K23,321,experiment,96,↓,down,↓,0.6966834999620914,True,18
AO033K23,322,experiment,168,←,left,←,0.5255758999846876,True,18
AO033K23,323,experiment,108,↓,left,←,1.2425575000233948,False,18
AO033K23,324,experiment,24,↑,up,↑,0.8945255000144243,True,18
AO033K23,325,experiment,72,↓,down,↓,0.6668124999850988,True,18
AO033K23,326,experiment,120,←,left,←,0.6721142999595031,True,18
AO033K23,327,experiment,180,→,right,→,0.7134348000399768,True,18
AO033K23,328,experiment,180,←,left,←,0.6608875999227166,True,18
AO033K23,329,experiment,12,←,left,←,0.8084750999696553,True,18
AO033K23,330,experiment,132,↑,right,→,0.9316270000999793,False,18
AO033K23,331,experiment,84,←,left,←,0.6372716999612749,True,18
AO033K23,332,experiment,36,→,right,→,1.1842963999370113,True,18
AO033K23,333,experiment,84,→,right,→,0.6435301000019535,True,18
AO033K23,334,experiment,12,→,left,←,0.809135299990885,False,18
AO033K23,335,experiment,144,←,right,→,0.9700078999157995,False,18
AO033K23,336,experiment,24,←,left,←,0.7658963000867516,True,18
AO033K23,337,experiment,72,→,right,→,0.7747072000056505,True,18
AO033K23,338,experiment,108,↓,down,↓,1.3474900000728667,True,18
AO033K23,339,experiment,180,↓,right,→,1.1088209999725223,False,18
AO033K23,340,experiment,168,↑,up,↑,0.6722392999799922,True,18
AO033K23,341,experiment,48,↑,up,↑,0.5164473000913858,True,18
AO033K23,342,experiment,180,↑,up,↑,1.1649997999193147,True,18
AO033K23,343,experiment,156,↓,down,↓,0.847008999902755,True,18
AO033K23,344,experiment,60,←,right,→,1.1070858000312,False,18
AO033K23,345,experiment,96,→,right,→,0.6710802000015974,True,18
AO033K23,346,training,84,↑,right,→,0.934214000008069,False,18
AO033K23,347,training,36,↓,down,↓,0.661679899902083,True,18
AO033K23,348,training,12,→,right,→,0.6107578000519425,True,18
AO033K23,349,experiment,12,↑,right,→,1.2151249999878928,False,18
AO033K23,350,experiment,156,↓,down,↓,1.242576300050132,True,18
AO033K23,351,experiment,24,↑,right,→,1.0630716000450775,False,18
AO033K23,352,experiment,120,↑,right,→,0.8438189999433234,False,18
AO033K23,353,experiment,120,→,right,→,0.685190899996087,True,18
AO033K23,354,experiment,48,←,down,↓,1.2086396999657154,False,18
AO033K23,355,experiment,144,↓,right,→,0.8498609000816941,False,18
AO033K23,356,experiment,144,↑,up,↑,0.7308027999242768,True,18
AO033K23,357,experiment,156,↑,up,↑,0.8228963000001386,True,18
AO033K23,358,experiment,84,←,left,←,0.6486777999671176,True,18
AO033K23,359,experiment,24,↓,down,↓,0.6799686999293044,True,18
AO033K23,360,experiment,36,→,right,→,0.5585065999766812,True,18
AO033K23,361,experiment,108,←,left,←,1.24971739994362,True,18
AO033K23,362,experiment,180,↓,up,↑,0.8577265000203624,False,18
AO033K23,363,experiment,12,→,right,→,0.9332393000368029,True,18
AO033K23,364,experiment,156,↑,up,↑,0.6284613000461832,True,18
AO033K23,365,experiment,132,→,right,→,0.7847811999963596,True,18
AO033K23,366,experiment,180,↑,right,→,0.848963699885644,False,18
AO033K23,367,experiment,84,→,right,→,0.5585120000177994,True,18
AO033K23,368,experiment,180,↑,right,→,0.5981807999778539,False,18
AO033K23,369,experiment,60,→,up,↑,0.6442376000341028,False,18
AO033K23,370,experiment,36,→,down,↓,0.5401370999170467,False,18
AO033K23,371,experiment,60,←,left,←,0.5623133999761194,True,18
AO033K23,372,experiment,36,↓,right,→,0.7461968999123201,False,18
AO033K23,373,experiment,168,↓,down,↓,0.8072511999635026,True,18
AO033K23,374,experiment,132,↓,left,←,0.5321107000345364,False,18
AO033K23,375,experiment,168,↑,up,↑,0.6243054999504238,True,18
AO033K23,376,experiment,48,↑,down,↓,0.7688073999015614,False,18
AO033K23,377,experiment,84,←,right,→,0.5833195999730378,False,18
AO033K23,378,experiment,108,←,left,←,0.5554954000981525,True,18
AO033K23,379,experiment,108,→,right,→,0.755061800009571,True,18
AO033K23,380,experiment,120,←,left,←,0.5400840999791399,True,18
AO033K23,381,experiment,96,→,right,→,0.6167999999597669,True,18
AO033K23,382,experiment,156,↓,down,↓,0.6442543000448495,True,18
AO033K23,383,experiment,108,↓,left,←,1.0225578000536188,False,18
AO033K23,384,experiment,12,↓,left,←,0.653740799985826,False,18
AO033K23,385,experiment,36,←,left,←,0.4806048000464216,True,18
AO033K23,386,experiment,168,←,up,↑,0.7522760999854654,False,18
AO033K23,387,experiment,72,→,down,↓,0.9665720999473706,False,18
AO033K23,388,experiment,96,→,right,→,0.41709100001025945,True,18
AO033K23,389,experiment,84,→,right,→,0.6240498999832198,True,18
AO033K23,390,experiment,72,↓,left,←,1.1594105999683961,False,18
AO033K23,391,experiment,96,↑,right,→,1.0368860000744462,False,18
AO033K23,392,experiment,60,↓,down,↓,0.8388311999151483,True,18
AO033K23,393,experiment,144,↑,down,↓,0.9299445000942796,False,18
AO033K23,394,experiment,60,→,right,→,0.6970367999747396,True,18
AO033K23,395,experiment,168,←,left,←,0.6998394000111148,True,18
AO033K23,396,experiment,24,←,left,←,0.9308151999721304,True,18
AO033K23,397,experiment,120,←,left,←,0.6344676000298932,True,18
AO033K23,398,experiment,72,↑,left,←,1.0927363999653608,False,18
AO033K23,399,experiment,180,→,right,→,0.6147885000100359,True,18
AO033K23,400,experiment,96,←,right,→,0.9442085999762639,False,18
AO033K23,401,experiment,48,↓,left,←,1.4602519000181928,False,18
AO033K23,402,experiment,132,→,right,→,0.8713079000590369,True,18
AO033K23,403,experiment,12,←,left,←,0.5976948000025004,True,18
AO033K23,404,experiment,72,←,left,←,0.9554815000155941,True,18
AO033K23,405,experiment,48,←,left,←,0.5635525999823585,True,18
AO033K23,406,experiment,132,←,left,←,0.6474764000158757,True,18
AO033K23,407,experiment,24,↑,up,↑,0.6032893999945372,True,18
AO033K23,408,experiment,144,↑,up,↑,1.0122650999110192,True,18
AO033K23,409,training,144,↑,up,↑,0.5894624000648037,True,18
AO033K23,410,training,60,↑,up,↑,0.43397240003105253,True,18
AO033K23,411,training,12,↓,left,←,1.1182121000019833,False,18
AO033K23,412,experiment,84,↓,down,↓,0.6736864999402314,True,18
AO033K23,413,experiment,168,↓,down,↓,0.8242235999787226,True,18
AO033K23,414,experiment,180,↑,up,↑,0.8788584999274462,True,18
AO033K23,415,experiment,84,↑,up,↑,1.0323646999895573,True,18
AO033K23,416,experiment,156,←,left,←,0.8155661999480799,True,18
AO033K23,417,experiment,36,↑,up,↑,0.7219576999777928,True,18
AO033K23,418,experiment,60,←,left,←,0.9665920999832451,True,18
AO033K23,419,experiment,48,↑,up,↑,0.7089662000071257,True,18
AO033K23,420,experiment,48,↓,down,↓,0.8865394000895321,True,18
AO033K23,421,experiment,144,↑,up,↑,1.104744500014931,True,18
AO033K23,422,experiment,60,↓,down,↓,1.0086594999302179,True,18
AO033K23,423,experiment,144,↓,left,←,1.1242410000413656,False,18
AO033K23,424,experiment,180,←,up,↑,1.2930491999723017,False,18
AO033K23,425,experiment,36,←,left,←,0.7703673000214621,True,18
AO033K23,426,experiment,12,→,right,→,0.6756810999941081,True,18
AO033K23,427,experiment,108,↑,up,↑,0.5238200000021607,True,18
AO033K23,428,experiment,168,→,down,↓,0.9006389999995008,False,18
AO033K23,429,experiment,24,↓,down,↓,0.882645700010471,True,18
AO033K23,430,experiment,24,↑,left,←,1.1131160000804812,False,18
AO033K23,431,experiment,84,↑,up,↑,1.0849462999030948,True,18
AO033K23,432,experiment,108,←,down,↓,0.8616838000016287,False,18
AO033K23,433,experiment,84,↑,up,↑,0.983958600088954,True,18
AO033K23,434,experiment,72,↑,up,↑,0.5612926000030711,True,18
AO033K23,435,experiment,108,↓,down,↓,0.9371307999826968,True,18
AO033K23,436,experiment,60,→,right,→,0.5483960999408737,True,18
AO033K23,437,experiment,36,↓,down,↓,0.6237106999615207,True,18
AO033K23,438,experiment,96,←,down,↓,0.712593000032939,False,18
AO033K23,439,experiment,180,→,right,→,0.542220399947837,True,18
AO033K23,440,experiment,108,←,left,←,0.5415357999736443,True,18
AO033K23,441,experiment,168,↑,left,←,0.6739091000054032,False,18
AO033K23,442,experiment,96,↑,up,↑,0.9019547000061721,True,18
AO033K23,443,experiment,24,↓,down,↓,0.7495469999266788,True,18
AO033K23,444,experiment,144,←,up,↑,0.685022099991329,False,18
AO033K23,445,experiment,72,→,no_key,no_letter,-1.0,False,18
AO033K23,446,experiment,72,→,left,←,0.2841035999590531,False,18
AO033K23,447,experiment,36,→,right,→,0.7239508000202477,True,18
AO033K23,448,experiment,12,←,left,←,0.5573859000578523,True,18
AO033K23,449,experiment,156,↑,up,↑,0.5049764999421313,True,18
AO033K23,450,experiment,180,←,left,←,0.48391890001948923,True,18
AO033K23,451,experiment,168,↓,left,←,0.4836665999609977,False,18
AO033K23,452,experiment,144,↓,right,→,0.731705499929376,False,18
AO033K23,453,experiment,120,↓,down,↓,0.569663199945353,True,18
AO033K23,454,experiment,96,→,right,→,0.4857886000536382,True,18
AO033K23,455,experiment,48,←,left,←,0.5338695999234915,True,18
AO033K23,456,experiment,48,←,left,←,1.0702563999220729,True,18
AO033K23,457,experiment,120,→,left,←,0.5502024999586865,False,18
AO033K23,458,experiment,72,↑,left,←,0.5707712000003085,False,18
AO033K23,459,experiment,96,→,right,→,0.4171319000888616,True,18
AO033K23,460,experiment,60,↓,down,↓,1.0269724999088794,True,18
AO033K23,461,experiment,12,←,left,←,0.8154967000009492,True,18
AO033K23,462,experiment,120,↓,down,↓,0.5582982999039814,True,18
AO033K23,463,experiment,120,→,up,↑,0.9049217000138015,False,18
AO033K23,464,experiment,12,↑,down,↓,0.6589325000531971,False,18
AO033K23,465,experiment,132,↓,right,→,1.1928057000041008,False,18
AO033K23,466,experiment,156,↑,no_key,no_letter,-1.0,False,18
AO033K23,467,experiment,132,↑,no_key,no_letter,-1.0,False,18
AO033K23,468,experiment,132,←,left,←,0.581784600042738,True,18
AO033K23,469,experiment,24,→,right,→,0.5093241999857128,True,18
AO033K23,470,experiment,132,←,left,←,0.5599983000429347,True,18
AO033K23,471,experiment,156,→,up,↑,0.8001264000777155,False,18
AO033K23,472,training,132,↑,left,←,1.192484900006093,False,18
AO033K23,473,training,168,↑,up,↑,0.6443515999708325,True,18
AO033K23,474,training,84,↓,down,↓,0.6027264000149444,True,18
AO033K23,475,experiment,144,↓,down,↓,0.6030068000545725,True,18
AO033K23,476,experiment,144,↑,down,↓,0.6778621999546885,False,18
AO033K23,477,experiment,36,→,right,→,0.5778127000667155,True,18
AO033K23,478,experiment,12,→,right,→,0.5029857999179512,True,18
AO033K23,479,experiment,12,←,left,←,0.5988448000280187,True,18
AO033K23,480,experiment,108,←,left,←,0.5817147999769077,True,18
AO033K23,481,experiment,144,←,right,→,1.0037187000270933,False,18
AO033K23,482,experiment,96,↑,up,↑,0.8249254000838846,True,18
AO033K23,483,experiment,168,↑,up,↑,0.6353428999427706,True,18
AO033K23,484,experiment,96,↓,up,↑,0.6006204000441357,False,18
AO033K23,485,experiment,36,↑,right,→,1.0952674000291154,False,18
AO033K23,486,experiment,108,↓,down,↓,0.5528745000483468,True,18
AO033K23,487,experiment,60,↓,down,↓,0.7622392000630498,True,18
AO033K23,488,experiment,120,→,up,↑,0.5862790999235585,False,18
AO033K23,489,experiment,84,↑,left,←,0.6232587000122294,False,18
AO033K23,490,experiment,36,↓,down,↓,0.7259743000613526,True,18
AO033K23,491,experiment,168,↓,down,↓,0.7333568999310955,True,18
AO033K23,492,experiment,24,↑,up,↑,0.5857382999965921,True,18
AO033K23,493,experiment,180,↑,left,←,0.7932623999658972,False,18
AO033K23,494,experiment,180,↑,up,↑,0.6829813000513241,True,18
AO033K23,495,experiment,72,→,right,→,0.5355248999549076,True,18
AO033K23,496,experiment,180,→,no_key,no_letter,-1.0,False,18
AO033K23,497,experiment,84,↓,down,↓,0.5654999000253156,True,18
AO033K23,498,experiment,168,↓,down,↓,0.6156355000566691,True,18
AO033K23,499,experiment,96,→,left,←,0.7959684999659657,False,18
AO033K23,500,experiment,60,←,left,←,0.5639318000758067,True,18
AO033K23,501,experiment,72,→,right,→,0.5065740999998525,True,18
AO033K23,502,experiment,168,↓,down,↓,0.6311863000737503,True,18
AO033K23,503,experiment,120,←,right,→,0.9988085000077263,False,18
AO033K23,504,experiment,144,↑,up,↑,0.5187425999902189,True,18
AO033K23,505,experiment,132,←,left,←,0.5425646000076085,True,18
AO033K23,506,experiment,48,←,right,→,1.141308799968101,False,18
AO033K23,507,experiment,156,↓,down,↓,0.6144332999829203,True,18
AO033K23,508,experiment,72,↓,down,↓,0.6175111000193283,True,18
AO033K23,509,experiment,120,↓,right,→,0.8956444000359625,False,18
AO033K23,510,experiment,84,↓,down,↓,0.8107189000584185,True,18
AO033K23,511,experiment,60,←,down,↓,0.6468683000421152,False,18
AO033K23,512,experiment,24,→,right,→,0.5450382999842986,True,18
AO033K23,513,experiment,180,↓,down,↓,0.5832196000264958,True,18
AO033K23,514,experiment,132,→,right,→,0.6917739999480546,True,18
AO033K23,515,experiment,48,←,left,←,0.7264184999512509,True,18
AO033K23,516,experiment,120,↑,up,↑,0.5145205999724567,True,18
AO033K23,517,experiment,108,→,right,→,0.5817058000247926,True,18
AO033K23,518,experiment,24,←,left,←,0.5964446999132633,True,18
AO033K23,519,experiment,48,→,right,→,0.6593459999421611,True,18
AO033K23,520,experiment,60,↑,up,↑,0.6419630999444053,True,18
AO033K23,521,experiment,72,↑,no_key,no_letter,-1.0,False,18
AO033K23,522,experiment,36,↓,down,↓,0.6966180000454187,True,18
AO033K23,523,experiment,108,↓,down,↓,0.6952636999776587,True,18
AO033K23,524,experiment,12,↓,right,→,0.9868532000109553,False,18
AO033K23,525,experiment,24,↓,right,→,0.7283538000192493,False,18
AO033K23,526,experiment,156,→,right,→,0.74224900000263,True,18
AO033K23,527,experiment,96,←,right,→,0.49946750001981854,False,18
AO033K23,528,experiment,84,←,left,←,0.7035818999866024,True,18
AO033K23,529,experiment,132,↓,left,←,0.6705391999566928,False,18
AO033K23,530,experiment,156,←,right,→,0.5333110999781638,False,18
AO033K23,531,experiment,132,→,right,→,0.35043830005452037,True,18
AO033K23,532,experiment,156,↑,no_key,no_letter,-1.0,False,18
AO033K23,533,experiment,12,↑,right,→,0.910263599944301,False,18
AO033K23,534,experiment,48,↑,right,→,0.5304784999461845,False,18
AO033K23,535,training,132,↓,down,↓,0.6170858999248594,True,18
AO033K23,536,training,132,↑,up,↑,0.843758900067769,True,18
AO033K23,537,training,36,←,up,↑,0.6440029999939725,False,18
AO033K23,538,experiment,144,↓,down,↓,0.6413528999546543,True,18
AO033K23,539,experiment,60,↑,up,↑,0.5774506999878213,True,18
AO033K23,540,experiment,168,↓,down,↓,0.5519419000484049,True,18
AO033K23,541,experiment,132,←,right,→,0.7811862999806181,False,18
AO033K23,542,experiment,36,←,down,↓,0.6711764000356197,False,18
AO033K23,543,experiment,24,→,down,↓,0.5558841000311077,False,18
AO033K23,544,experiment,60,←,left,←,0.5880160999950022,True,18
AO033K23,545,experiment,132,↓,down,↓,0.6326889001065865,True,18
AO033K23,546,experiment,36,↓,right,→,0.7435390000464395,False,18
AO033K23,547,experiment,132,↑,right,→,0.7965662999777123,False,18
AO033K23,548,experiment,120,↑,up,↑,0.631685100030154,True,18
AO033K23,549,experiment,144,↓,down,↓,0.676890300004743,True,18
AO033K23,550,experiment,180,↑,down,↓,0.8476142999716103,False,18
AO033K23,551,experiment,168,←,down,↓,0.596868299995549,False,18
AO033K23,552,experiment,48,↓,right,→,0.935645200079307,False,18
AO033K23,553,experiment,156,→,right,→,0.4844461000757292,True,18
AO033K23,554,experiment,120,↓,up,↑,0.7176039000041783,False,18
AO033K23,555,experiment,48,←,left,←,0.5373954999959096,True,18
AO033K23,556,experiment,72,↓,down,↓,0.6137533999281004,True,18
AO033K23,557,experiment,84,→,right,→,0.6941131000639871,True,18
AO033K23,558,experiment,108,←,left,←,0.7722518000518903,True,18
AO033K23,559,experiment,96,←,left,←,0.7160524000646546,True,18
AO033K23,560,experiment,24,↑,up,↑,0.7100026999833062,True,18
AO033K23,561,experiment,96,↑,up,↑,0.656211500056088,True,18
AO033K23,562,experiment,108,↑,up,↑,0.5454114999156445,True,18
AO033K23,563,experiment,96,→,up,↑,0.6227524999994785,False,18
AO033K23,564,experiment,72,←,left,←,0.6598104999866337,True,18
AO033K23,565,experiment,132,→,right,→,0.6350048000458628,True,18
AO033K23,566,experiment,60,↓,down,↓,0.712372999987565,True,18
AO033K23,567,experiment,12,→,left,←,0.7000919000711292,False,18
AO033K23,568,experiment,120,↓,up,↑,0.7286289000185207,False,18
AO033K23,569,experiment,96,←,left,←,0.41713189997244626,True,18
AO033K23,570,experiment,84,←,down,↓,0.18485419999342412,False,18
AO033K23,571,experiment,72,↑,left,←,0.4817621000111103,False,18
AO033K23,572,experiment,84,↑,up,↑,0.5396533999592066,True,18
AO033K23,573,experiment,84,→,left,←,1.4038626999827102,False,18
AO033K23,574,experiment,48,↓,left,←,0.6813376001082361,False,18
AO033K23,575,experiment,180,←,down,↓,1.229730499908328,False,18
AO033K23,576,experiment,144,↓,up,↑,1.1594325000187382,False,18
AO033K23,577,experiment,156,→,right,→,0.5970201999880373,True,18
AO033K23,578,experiment,36,→,left,←,0.8618659999920055,False,18
AO033K23,579,experiment,12,→,right,→,0.4749549999833107,True,18
AO033K23,580,experiment,180,→,left,←,0.5447396000381559,False,18
AO033K23,581,experiment,156,←,left,←,0.7953213999280706,True,18
AO033K23,582,experiment,108,←,left,←,0.5610349000198767,True,18
AO033K23,583,experiment,156,←,no_key,no_letter,-1.0,False,18
AO033K23,584,experiment,72,←,right,→,0.6596915000118315,False,18
AO033K23,585,experiment,168,↑,up,↑,0.6012479000492021,True,18
AO033K23,586,experiment,12,→,left,←,0.9373314999975264,False,18
AO033K23,587,experiment,48,↑,up,↑,0.5583104999968782,True,18
AO033K23,588,experiment,36,↓,right,→,0.7492913999594748,False,18
AO033K23,589,experiment,60,←,left,←,0.5695521000307053,True,18
AO033K23,590,experiment,120,↑,up,↑,0.5766073000850156,True,18
AO033K23,591,experiment,180,↓,down,↓,0.6685877999989316,True,18
AO033K23,592,experiment,168,→,right,→,0.9530385999241844,True,18
AO033K23,593,experiment,12,↓,right,→,1.0593269999371842,False,18
AO033K23,594,experiment,108,→,no_key,no_letter,-1.0,False,18
AO033K23,595,experiment,144,↑,up,↑,0.5681551999878138,True,18
AO033K23,596,experiment,24,←,left,←,0.5454584000399336,True,18
AO033K23,597,experiment,24,↓,right,→,0.9032897000433877,False,18
AO033K23,598,training,24,↓,left,←,0.7570308999856934,False,18
AO033K23,599,training,168,→,right,→,0.5316495998995379,True,18
AO033K23,600,training,24,←,right,→,0.8366133000236005,False,18
AO033K23,601,experiment,132,↓,down,↓,0.7878479999490082,True,18
AO033K23,602,experiment,120,←,down,↓,0.6188847000012174,False,18
AO033K23,603,experiment,84,↑,right,→,0.8055423999903724,False,18
AO033K23,604,experiment,108,↓,down,↓,0.6411641000304371,True,18
AO033K23,605,experiment,60,↑,up,↑,0.544648400042206,True,18
AO033K23,606,experiment,108,↑,up,↑,0.49369899998418987,True,18
AO033K23,607,experiment,72,←,down,↓,0.6798153000418097,False,18
AO033K23,608,experiment,24,↓,down,↓,0.6339342000428587,True,18
AO033K23,609,experiment,12,↓,up,↑,0.600639900076203,False,18
AO033K23,610,experiment,96,↓,down,↓,0.5872038999805227,True,18
AO033K23,611,experiment,36,←,left,←,0.6273820999776945,True,18
AO033K23,612,experiment,60,↑,up,↑,0.5071610999293625,True,18
AO033K23,613,experiment,144,↓,up,↑,0.4840635999571532,False,18
AO033K23,614,experiment,96,←,left,←,0.48727299994789064,True,18
AO033K23,615,experiment,36,↑,up,↑,0.5090183999855071,True,18
AO033K23,616,experiment,156,←,up,↑,0.5940425000153482,False,18
AO033K23,617,experiment,144,↑,left,←,0.5505750000011176,False,18
AO033K23,618,experiment,108,→,down,↓,0.2511442999821156,False,18
AO033K23,619,experiment,48,↓,down,↓,0.6137082999339327,True,18
AO033K23,620,experiment,12,→,no_key,no_letter,-1.0,False,18
AO033K23,621,experiment,180,←,left,←,0.6922147999284789,True,18
AO033K23,622,experiment,12,→,right,→,0.7005250999936834,True,18
AO033K23,623,experiment,180,↑,up,↑,0.48995199997443706,True,18
AO033K23,624,experiment,168,→,right,→,0.5671222999226302,True,18
AO033K23,625,experiment,144,↓,left,←,0.4710956000490114,False,18
AO033K23,626,experiment,96,←,right,→,0.5991858000634238,False,18
AO033K23,627,experiment,168,↑,up,↑,0.5272946000332013,True,18
AO033K23,628,experiment,60,←,left,←,0.506695399992168,True,18
AO033K23,629,experiment,132,←,up,↑,0.5279359000269324,False,18
AO033K23,630,experiment,36,→,up,↑,0.43393910001032054,False,18
AO033K23,631,experiment,24,→,right,→,0.8531871000304818,True,18
AO033K23,632,experiment,24,↓,down,↓,0.5972647999878973,True,18
AO033K23,633,experiment,72,↑,up,↑,0.5297184000955895,True,18
AO033K23,634,experiment,108,←,right,→,0.4800781999947503,False,18
AO033K23,635,experiment,120,→,right,→,0.5411122000077739,True,18
AO033K23,636,experiment,156,↓,down,↓,0.6290461999597028,True,18
AO033K23,637,experiment,72,↓,right,→,0.8561986000277102,False,18
AO033K23,638,experiment,180,↓,down,↓,0.6396918999962509,True,18
AO033K23,639,experiment,84,←,left,←,0.5957689000060782,True,18
AO033K23,640,experiment,120,→,right,→,0.5048986999318004,True,18
AO033K23,641,experiment,12,→,right,→,0.9703080999897793,True,18
AO033K23,642,experiment,168,→,right,→,0.6624546999810264,True,18
AO033K23,643,experiment,48,↑,right,→,0.6222709999419749,False,18
AO033K23,644,experiment,180,→,right,→,0.6144827000098303,True,18
AO033K23,645,experiment,48,↑,up,↑,0.611601100070402,True,18
AO033K23,646,experiment,132,↓,down,↓,0.7329903999343514,True,18
AO033K23,647,experiment,132,↓,down,↓,0.6629350999137387,True,18
AO033K23,648,experiment,48,↑,right,→,0.5216905999695882,False,18
AO033K23,649,experiment,84,←,up,↑,0.5579004000173882,False,18
AO033K23,650,experiment,24,↑,down,↓,1.063174199895002,False,18
AO033K23,651,experiment,60,→,down,↓,0.2341824999311939,False,18
AO033K23,652,experiment,72,←,right,→,0.6370979000348598,False,18
AO033K23,653,experiment,156,←,left,←,0.5512381000444293,True,18
AO033K23,654,experiment,120,↓,down,↓,0.5981203999835998,True,18
AO033K23,655,experiment,36,←,left,←,0.5232231999980286,True,18
AO033K23,656,experiment,144,←,left,←,0.4915260999696329,True,18
AO033K23,657,experiment,156,→,left,←,0.47949340008199215,False,18
AO033K23,658,experiment,168,→,right,→,0.7503431000513956,True,18
AO033K23,659,experiment,96,↑,no_key,no_letter,-1.0,False,18
AO033K23,660,experiment,84,↑,right,→,0.4174190000630915,False,18
AO033K23,661,training,96,↑,up,↑,0.623023199965246,True,18
AO033K23,662,training,144,←,no_key,no_letter,-1.0,False,18
AO033K23,663,training,168,←,left,←,0.4170693999622017,True,18
AO033K23,664,experiment,84,→,right,→,0.6964621999068186,True,18
AO033K23,665,experiment,60,↑,left,←,0.5560258999466896,False,18
AO033K23,666,experiment,156,→,up,↑,0.6085816998966038,False,18
AO033K23,667,experiment,96,←,right,→,0.7181926999473944,False,18
AO033K23,668,experiment,96,↓,down,↓,0.5834064999362454,True,18
AO033K23,669,experiment,72,↑,up,↑,0.671428499976173,True,18
AO033K23,670,experiment,96,→,right,→,0.4787885000696406,True,18
AO033K23,671,experiment,60,→,no_key,no_letter,-1.0,False,18
AO033K23,672,experiment,24,←,left,←,0.47369949996937066,True,18
AO033K23,673,experiment,108,→,right,→,0.6999615000095218,True,18
AO033K23,674,experiment,180,←,right,→,0.9400209999876097,False,18
AO033K23,675,experiment,36,←,left,←,0.6103057999862358,True,18
AO033K23,676,experiment,180,↓,down,↓,0.6347202999750152,True,18
AO033K23,677,experiment,12,↑,down,↓,0.8941851999843493,False,18
AO033K23,678,experiment,144,↓,down,↓,1.0389193000737578,True,18
AO033K23,679,experiment,120,→,right,→,0.5454462999477983,True,18
AO033K23,680,experiment,156,←,left,←,0.5644778000423685,True,18
AO033K23,681,experiment,72,↑,down,↓,0.9032318000681698,False,18
AO033K23,682,experiment,132,↓,right,→,0.5588227000553161,False,18
AO033K23,683,experiment,132,↓,down,↓,0.7055266000097618,True,18
AO033K23,684,experiment,108,↑,down,↓,0.7458777000429109,False,18
AO033K23,685,experiment,168,↓,down,↓,0.701482200063765,True,18
AO033K23,686,experiment,168,→,down,↓,0.5678304999601096,False,18
AO033K23,687,experiment,60,↓,down,↓,0.6305092999245971,True,18
AO033K23,688,experiment,48,↑,up,↑,0.7040416999952868,True,18
AO033K23,689,experiment,72,←,left,←,0.6015630000038072,True,18
AO033K23,690,experiment,12,→,right,→,0.514831900014542,True,18
AO033K23,691,experiment,24,←,left,←,0.4929363999981433,True,18
AO033K23,692,experiment,84,→,right,→,0.5203736999537796,True,18
AO033K23,693,experiment,180,←,left,←,0.5365357000846416,True,18
AO033K23,694,experiment,132,↑,left,←,0.5854770999867469,False,18
AO033K23,695,experiment,132,↓,right,→,0.35053669998887926,False,18
AO033K23,696,experiment,96,↑,up,↑,0.607662700000219,True,18
AO033K23,697,experiment,72,↑,up,↑,0.5950371000217274,True,18
AO033K23,698,experiment,84,→,no_key,no_letter,-1.0,False,18
AO033K23,699,experiment,120,↓,down,↓,0.6142255000304431,True,18
AO033K23,700,experiment,156,↑,down,↓,0.601867499994114,False,18
AO033K23,701,experiment,108,←,left,←,0.5800008000805974,True,18
AO033K23,702,experiment,120,→,right,→,0.5066856999183074,True,18
AO033K23,703,experiment,156,↑,left,←,0.5252473999280483,False,18
AO033K23,704,experiment,60,↑,up,↑,0.6690850000595674,True,18
AO033K23,705,experiment,24,→,right,→,0.48074259993154556,True,18
AO033K23,706,experiment,168,←,left,←,0.5394133999943733,True,18
AO033K23,707,experiment,108,→,right,→,0.567538799950853,True,18
AO033K23,708,experiment,36,↓,down,↓,0.6386313000693917,True,18
AO033K23,709,experiment,48,→,right,→,0.5937093999236822,True,18
AO033K23,710,experiment,12,↓,left,←,0.8768977000145242,False,18
AO033K23,711,experiment,24,↑,left,←,0.49245569994673133,False,18
AO033K23,712,experiment,144,←,left,←,0.61548459995538,True,18
AO033K23,713,experiment,120,←,left,←,0.5626783000770956,True,18
AO033K23,714,experiment,144,↑,up,↑,0.563428100082092,True,18
AO033K23,715,experiment,48,←,down,↓,1.123627300024964,False,18
AO033K23,716,experiment,36,↓,no_key,no_letter,-1.0,False,18
AO033K23,717,experiment,168,↑,right,→,0.4964593999320641,False,18
AO033K23,718,experiment,12,←,left,←,0.5540819000452757,True,18
AO033K23,719,experiment,144,↓,down,↓,0.5687335999682546,True,18
AO033K23,720,experiment,84,↓,down,↓,0.8268630000529811,True,18
AO033K23,721,experiment,48,↑,up,↑,0.507534799980931,True,18
AO033K23,722,experiment,36,←,left,←,0.5957922000670806,True,18
AO033K23,723,experiment,180,↓,down,↓,0.5927184999454767,True,18
AO033K23,724,training,144,→,right,→,0.9288925000000745,True,18
AO033K23,725,training,96,←,left,←,0.5250815000617877,True,18
AO033K23,726,training,180,→,left,←,0.5004125999985263,False,18
AO033K23,727,experiment,96,→,right,→,0.41728129994589835,True,18
AO033K23,728,experiment,12,→,right,→,0.4341142999473959,True,18
AO033K23,729,experiment,24,↓,right,→,0.7364793999586254,False,18
AO033K23,730,experiment,156,→,right,→,0.7124502999940887,True,18
AO033K23,731,experiment,36,←,no_key,no_letter,-1.0,False,18
AO033K23,732,experiment,96,→,left,←,0.6256033000536263,False,18
AO033K23,733,experiment,60,↑,left,←,0.5568178000394255,False,18
AO033K23,734,experiment,12,↓,down,↓,0.6228292000014335,True,18
AO033K23,735,experiment,60,↑,up,↑,0.5279246000573039,True,18
AO033K23,736,experiment,84,↑,up,↑,0.8428877999540418,True,18
AO033K23,737,experiment,132,↑,up,↑,0.6117170000215992,True,18
AO033K23,738,experiment,24,→,left,←,0.6667573000304401,False,18
AO033K23,739,experiment,132,←,right,→,0.6747587999561802,False,18
AO033K23,740,experiment,180,←,down,↓,0.6254569999873638,False,18
AO033K23,741,experiment,168,←,left,←,0.8882211999734864,True,18
AO033K23,742,experiment,168,↑,up,↑,0.5911860999185592,True,18
AO033K23,743,experiment,12,↓,down,↓,0.6390891000628471,True,18
AO033K23,744,experiment,72,→,right,→,0.5104484000476077,True,18
AO033K23,745,experiment,180,↑,up,↑,0.6329684000229463,True,18
AO033K23,746,experiment,72,↓,down,↓,0.7099684999557212,True,18
AO033K23,747,experiment,48,←,left,←,0.5431735999882221,True,18
AO033K23,748,experiment,120,→,right,→,0.6974858000176027,True,18
AO033K23,749,experiment,72,↑,up,↑,0.5052938999142498,True,18
AO033K23,750,experiment,48,↑,down,↓,0.8203887999989092,False,18
AO033K23,751,experiment,120,←,left,←,0.6337358000455424,True,18
AO033K23,752,experiment,144,←,right,→,0.5086399000138044,False,18
AO033K23,753,experiment,120,↑,no_key,no_letter,-1.0,False,18
AO033K23,754,experiment,108,→,right,→,0.8188371999422088,True,18
AO033K23,755,experiment,48,↑,right,→,1.3143617999739945,False,18
AO033K23,756,experiment,108,→,no_key,no_letter,-1.0,False,18
AO033K23,757,experiment,96,↑,up,↑,0.7488803999731317,True,18
AO033K23,758,experiment,120,←,left,←,0.9977089000167325,True,18
AO033K23,759,experiment,36,→,right,→,0.7372704999288544,True,18
AO033K23,760,experiment,180,→,left,←,0.6881932000396773,False,18
AO033K23,761,experiment,84,←,left,←,0.6039709000615403,True,18
AO033K23,762,experiment,144,↓,up,↑,0.630526400054805,False,18
AO033K23,763,experiment,72,←,right,→,0.9190133000956848,False,18
AO033K23,764,experiment,132,↓,up,↑,0.9143759999424219,False,18
AO033K23,765,experiment,84,←,left,←,0.5300674999598414,True,18
AO033K23,766,experiment,96,→,right,→,0.6932928999885917,True,18
AO033K23,767,experiment,84,←,right,→,0.908941000001505,False,18
AO033K23,768,experiment,60,↑,left,←,0.587814399972558,False,18
AO033K23,769,experiment,132,←,left,←,0.725603099912405,True,18
AO033K23,770,experiment,168,←,left,←,0.4776701000519097,True,18
AO033K23,771,experiment,108,↓,down,↓,0.7512847000034526,True,18
AO033K23,772,experiment,144,↓,down,↓,0.5427705999463797,True,18
AO033K23,773,experiment,180,←,left,←,0.6007645999779925,True,18
AO033K23,774,experiment,12,↓,down,↓,0.8001162000000477,True,18
AO033K23,775,experiment,156,→,right,→,0.5507887999992818,True,18
AO033K23,776,experiment,24,→,no_key,no_letter,-1.0,False,18
AO033K23,777,experiment,24,←,right,→,0.660347199998796,False,18
AO033K23,778,experiment,168,↓,down,↓,0.6863421000307426,True,18
AO033K23,779,experiment,60,↑,down,↓,0.6032425999874249,False,18
AO033K23,780,experiment,156,←,left,←,0.5035793000133708,True,18
AO033K23,781,experiment,144,→,left,←,0.8595094999764115,False,18
AO033K23,782,experiment,156,→,left,←,0.5924595999531448,False,18
AO033K23,783,experiment,108,↓,down,↓,0.6094057000009343,True,18
AO033K23,784,experiment,36,↑,up,↑,0.6494553999509662,True,18
AO033K23,785,experiment,36,↓,down,↓,0.5377228000434116,True,18
AO033K23,786,experiment,48,←,down,↓,0.8472378000151366,False,18
AO033K23,787,training,180,↑,left,←,0.860933699994348,False,18
AO033K23,788,training,72,→,left,←,0.653894399991259,False,18
AO033K23,789,training,96,→,no_key,no_letter,-1.0,False,18
AO033K23,790,experiment,156,↓,down,↓,0.5858377000549808,True,18
AO033K23,791,experiment,24,←,left,←,0.5926062999060377,True,18
AO033K23,792,experiment,180,←,left,←,0.5441996000008658,True,18
AO033K23,793,experiment,108,←,no_key,no_letter,-1.0,False,18
AO033K23,794,experiment,120,↓,left,←,0.5339588999049738,False,18
AO033K23,795,experiment,168,←,left,←,0.3672971000196412,True,18
AO033K23,796,experiment,48,↑,no_key,no_letter,-1.0,False,18
AO033K23,797,experiment,96,↓,down,↓,0.6813837999943644,True,18
AO033K23,798,experiment,12,←,left,←,1.015493799932301,True,18
AO033K23,799,experiment,144,↓,left,←,0.5367326000705361,False,18
AO033K23,800,experiment,180,↓,left,←,0.6215714000863954,False,18
AO033K23,801,experiment,108,→,right,→,0.8851110000396147,True,18
AO033K23,802,experiment,84,→,right,→,0.4907779999775812,True,18
AO033K23,803,experiment,156,→,left,←,0.7296609999611974,False,18
AO033K23,804,experiment,72,↑,right,→,1.8744341999990866,False,18
AO033K23,805,experiment,60,↑,left,←,1.214300199993886,False,18
AO033K23,806,experiment,36,↓,left,←,0.6958690999308601,False,18
AO033K23,807,experiment,108,←,left,←,0.5779775999253616,True,18
AO033K23,808,experiment,12,↑,left,←,0.5554606000659987,False,18
AO033K23,809,experiment,48,←,left,←,0.48174650000873953,True,18
AO033K23,810,experiment,60,↑,up,↑,0.4004889000207186,True,18
AO033K23,811,experiment,108,↓,up,↑,1.1722320999251679,False,18
AO033K23,812,experiment,84,→,right,→,0.9728959000203758,True,18
AO033K23,813,experiment,180,←,left,←,0.6125547999981791,True,18
AO033K23,814,experiment,132,↑,up,↑,0.889890699996613,True,18
AO033K23,815,experiment,144,↑,up,↑,0.5025198000948876,True,18
AO033K23,816,experiment,72,→,down,↓,0.8498372999019921,False,18
AO033K23,817,experiment,24,↓,up,↑,0.7108038000296801,False,18
AO033K23,818,experiment,36,→,right,→,0.7720319000072777,True,18
AO033K23,819,experiment,168,→,no_key,no_letter,-1.0,False,18
AO033K23,820,experiment,24,↓,up,↑,0.6969486000016332,False,18
AO033K23,821,experiment,12,→,right,→,0.6089363000355661,True,18
AO033K23,822,experiment,132,↓,down,↓,0.6887738999212161,True,18
AO033K23,823,experiment,84,→,down,↓,0.6883078999817371,False,18
AO033K23,824,experiment,156,↑,left,←,0.5685328999534249,False,18
AO033K23,825,experiment,48,→,up,↑,0.560472400044091,False,18
AO033K23,826,experiment,96,←,right,→,0.6011503000045195,False,18
AO033K23,827,experiment,120,→,right,→,0.502352699986659,True,18
AO033K23,828,experiment,120,←,right,→,0.7497558000031859,False,18
AO033K23,829,experiment,24,→,right,→,0.40040140005294234,True,18
AO033K23,830,experiment,132,←,right,→,0.6490215000230819,False,18
AO033K23,831,experiment,168,←,right,→,0.6083784999791533,False,18
AO033K23,832,experiment,84,↓,down,↓,0.7292527999961749,True,18
AO033K23,833,experiment,48,↑,down,↓,1.2254076999379322,False,18
AO033K23,834,experiment,36,↓,right,→,0.9709363000001758,False,18
AO033K23,835,experiment,144,←,left,←,0.678522799978964,True,18
AO033K23,836,experiment,96,↓,down,↓,0.8747344999574125,True,18
AO033K23,837,experiment,180,←,right,→,0.7071446999907494,False,18
AO033K23,838,experiment,96,→,no_key,no_letter,-1.0,False,18
AO033K23,839,experiment,12,←,left,←,1.0309161999030039,True,18
AO033K23,840,experiment,168,↑,up,↑,0.6951035999227315,True,18
AO033K23,841,experiment,60,↑,down,↓,1.0237854000879452,False,18
AO033K23,842,experiment,60,→,up,↑,0.642807999975048,False,18
AO033K23,843,experiment,120,↑,up,↑,0.6378774999175221,True,18
AO033K23,844,experiment,156,↓,right,→,0.3837542999535799,False,18
AO033K23,845,experiment,72,↑,up,↑,0.55252060003113,True,18
AO033K23,846,experiment,72,↓,down,↓,0.4006131000351161,True,18
AO033K23,847,experiment,36,↑,up,↑,0.6634504999965429,True,18
AO033K23,848,experiment,132,↑,no_key,no_letter,-1.0,False,18
AO033K23,849,experiment,144,↓,down,↓,0.6524022000376135,True,18
