PART_ID,Trial_no,Trial_type,PDI,Stim_letter,Key_pressed,letter_choose,Rt,Corr,Stimulus Time
X002K21,1,training,10,↑,up,↑,0.7153495999518782,True,30
X002K21,2,training,10,→,right,→,0.92597970017232,True,30
X002K21,3,training,10,↓,down,↓,1.4944458999671042,True,30
X002K21,4,training,10,↑,up,↑,0.8938830001279712,True,30
X002K21,5,training,10,→,right,→,0.8271976998075843,True,30
X002K21,6,training,10,↑,up,↑,0.5837216000072658,True,30
X002K21,7,training,10,↑,up,↑,0.5339999001007527,True,30
X002K21,8,training,10,→,right,→,0.5171075998805463,True,30
X002K21,9,training,10,↓,down,↓,0.567185000050813,True,30
X002K21,10,training,10,↑,up,↑,0.8554571999702603,True,30
X002K21,11,training,10,←,left,←,0.7508739999029785,True,30
X002K21,12,training,10,↑,up,↑,0.6338694000151008,True,30
X002K21,13,training,10,↑,up,↑,0.6338245999068022,True,30
X002K21,14,training,10,←,left,←,0.6005804999731481,True,30
X002K21,15,training,10,↓,down,↓,0.7127882000058889,True,30
X002K21,16,training,10,↑,up,↑,0.7406872001010925,True,30
X002K21,17,training,10,→,right,→,0.6005776000674814,True,30
X002K21,18,training,10,→,right,→,0.5171229999978095,True,30
X002K21,19,training,10,→,right,→,0.4169880000408739,True,30
X002K21,20,training,10,←,left,←,0.7394326999783516,True,30
X002K21,21,training,10,↑,up,↑,0.5367432001512498,True,18
X002K21,22,training,10,↑,up,↑,0.5053381000179797,True,18
X002K21,23,training,10,→,right,→,1.9664435000158846,True,18
X002K21,24,training,10,↓,down,↓,0.8278337002266198,True,18
X002K21,25,training,10,←,left,←,0.7088920997921377,True,18
X002K21,26,training,10,←,left,←,0.499282400123775,True,18
X002K21,27,training,10,↑,up,↑,0.49323530006222427,True,18
X002K21,28,training,10,←,left,←,0.47059889999218285,True,18
X002K21,29,training,10,→,right,→,0.6174691000487655,True,18
X002K21,30,training,10,←,left,←,0.4785090000368655,True,18
X002K21,31,training,168,→,left,←,0.8924354000482708,False,15
X002K21,32,training,60,←,left,←,0.48954580002464354,True,15
X002K21,33,training,72,↓,down,↓,0.7621941000688821,True,15
X002K21,34,experiment,108,→,right,→,0.6387670000549406,True,15
X002K21,35,experiment,84,↑,up,↑,0.7027976999524981,True,15
X002K21,36,experiment,12,←,left,←,0.563956799916923,True,15
X002K21,37,experiment,156,↑,up,↑,0.8000019998289645,True,15
X002K21,38,experiment,84,↓,down,↓,0.6296854000538588,True,15
X002K21,39,experiment,168,←,left,←,0.5362883000634611,True,15
X002K21,40,experiment,144,←,left,←,0.6337014001328498,True,15
X002K21,41,experiment,180,←,left,←,0.35037590004503727,True,15
X002K21,42,experiment,132,↓,down,↓,0.6587847999762744,True,15
X002K21,43,experiment,180,→,left,←,0.4611827000044286,False,15
X002K21,44,experiment,48,→,left,←,0.38379540015012026,False,15
X002K21,45,experiment,132,→,left,←,0.7332629000302404,False,15
X002K21,46,experiment,48,↓,down,↓,0.7849500000011176,True,15
X002K21,47,experiment,12,←,left,←,0.7586385998874903,True,15
X002K21,48,experiment,108,←,left,←,0.6437367999460548,True,15
X002K21,49,experiment,168,←,left,←,0.6052747999783605,True,15
X002K21,50,experiment,96,↓,up,↑,1.2656922999303788,False,15
X002K21,51,experiment,12,↑,up,↑,0.8571291000116616,True,15
X002K21,52,experiment,132,↓,down,↓,1.3003006000071764,True,15
X002K21,53,experiment,36,↓,down,↓,0.9002689998596907,True,15
X002K21,54,experiment,36,↓,down,↓,0.8552137000951916,True,15
X002K21,55,experiment,84,←,left,←,0.5704956999979913,True,15
X002K21,56,experiment,60,←,left,←,0.7967473000753671,True,15
X002K21,57,experiment,144,↓,down,↓,0.6835364999715239,True,15
X002K21,58,experiment,180,←,left,←,0.6739203999750316,True,15
X002K21,59,experiment,144,→,right,→,0.5620929000433534,True,15
X002K21,60,experiment,36,←,left,←,1.0537105998955667,True,15
X002K21,61,experiment,72,←,left,←,0.5800948000978678,True,15
X002K21,62,experiment,72,→,right,→,0.606627699919045,True,15
X002K21,63,experiment,84,←,left,←,0.45208640000782907,True,15
X002K21,64,experiment,120,←,left,←,0.5526345998514444,True,15
X002K21,65,experiment,132,↓,down,↓,1.143047499936074,True,15
X002K21,66,experiment,60,↑,up,↑,0.7739983999636024,True,15
X002K21,67,experiment,168,←,left,←,0.7542073000222445,True,15
X002K21,68,experiment,144,→,right,→,0.5960478000342846,True,15
X002K21,69,experiment,24,↑,down,↓,0.880569800036028,False,15
X002K21,70,experiment,48,←,left,←,0.7038189999293536,True,15
X002K21,71,experiment,120,←,left,←,0.624280699994415,True,15
X002K21,72,experiment,180,→,right,→,0.604784999974072,True,15
X002K21,73,experiment,60,↑,up,↑,0.5632446999661624,True,15
X002K21,74,experiment,156,→,left,←,0.7673212999943644,False,15
X002K21,75,experiment,108,←,right,→,0.6977822999469936,False,15
X002K21,76,experiment,24,↓,down,↓,1.020689600147307,True,15
X002K21,77,experiment,24,↓,down,↓,1.0885728998109698,True,15
X002K21,78,experiment,60,↑,up,↑,0.4456086999271065,True,15
X002K21,79,experiment,24,↑,up,↑,0.5361941999290138,True,15
X002K21,80,experiment,36,↓,down,↓,1.1829095999710262,True,15
X002K21,81,experiment,156,→,right,→,0.8151904998812824,True,15
X002K21,82,experiment,96,←,left,←,0.740138900000602,True,15
X002K21,83,experiment,96,↓,down,↓,1.140818899963051,True,15
X002K21,84,experiment,72,↑,up,↑,0.7891865000128746,True,15
X002K21,85,experiment,96,→,right,→,0.7335882999468595,True,15
X002K21,86,experiment,12,←,left,←,0.7234372000675648,True,15
X002K21,87,experiment,72,→,left,←,0.6561720001045614,False,15
X002K21,88,experiment,120,←,left,←,0.5673015001229942,True,15
X002K21,89,experiment,48,←,left,←,0.5327257001772523,True,15
X002K21,90,experiment,156,→,left,←,0.5918729000259191,False,15
X002K21,91,experiment,168,→,left,←,0.8459405000321567,False,15
X002K21,92,experiment,108,←,left,←,0.6042935999576002,True,15
X002K21,93,experiment,120,↓,down,↓,0.8520608998369426,True,15
X002K21,94,training,144,→,right,→,0.8434633000288159,True,15
X002K21,95,training,96,→,left,←,0.44637209991924465,False,15
X002K21,96,training,48,←,left,←,0.7155455998145044,True,15
X002K21,97,experiment,132,↑,up,↑,0.7475402001291513,True,15
X002K21,98,experiment,144,↓,down,↓,1.2935135001316667,True,15
X002K21,99,experiment,180,→,left,←,0.9905274000484496,False,15
X002K21,100,experiment,48,→,right,→,0.7523546000011265,True,15
X002K21,101,experiment,12,↓,down,↓,1.0158442000392824,True,15
X002K21,102,experiment,12,↑,down,↓,0.858619200065732,False,15
X002K21,103,experiment,120,↓,down,↓,0.7482820998411626,True,15
X002K21,104,experiment,96,↓,down,↓,0.7654386998619884,True,15
X002K21,105,experiment,156,↑,down,↓,0.7196698999032378,False,15
X002K21,106,experiment,96,↑,right,→,1.035742700099945,False,15
X002K21,107,experiment,12,↓,down,↓,0.7187910999637097,True,15
X002K21,108,experiment,168,↓,down,↓,0.7394403999205679,True,15
X002K21,109,experiment,156,↑,up,↑,0.7161324999760836,True,15
X002K21,110,experiment,96,↑,up,↑,1.0509406998753548,True,15
X002K21,111,experiment,48,↑,down,↓,0.7858959999866784,False,15
X002K21,112,experiment,120,↑,down,↓,0.7860520000103861,False,15
X002K21,113,experiment,48,→,right,→,0.6551779999863356,True,15
X002K21,114,experiment,24,←,left,←,0.798853199928999,True,15
X002K21,115,experiment,72,↑,up,↑,0.7476451999973506,True,15
X002K21,116,experiment,132,←,left,←,0.6822170000523329,True,15
X002K21,117,experiment,108,→,left,←,0.5962680999655277,False,15
X002K21,118,experiment,156,↓,up,↑,0.6528318000491709,False,15
X002K21,119,experiment,168,↓,down,↓,0.7902177998330444,True,15
X002K21,120,experiment,120,↓,down,↓,0.6829947999212891,True,15
X002K21,121,experiment,180,↓,down,↓,0.5982904001139104,True,15
X002K21,122,experiment,48,←,left,←,0.7693751000333577,True,15
X002K21,123,experiment,60,→,right,→,0.5681797999422997,True,15
X002K21,124,experiment,120,→,left,←,0.6222349999006838,False,15
X002K21,125,experiment,60,↓,down,↓,0.7971869001630694,True,15
X002K21,126,experiment,24,↑,up,↑,0.7054742998443544,True,15
X002K21,127,experiment,156,→,left,←,0.6567194999661297,False,15
X002K21,128,experiment,60,↑,up,↑,0.8573745000176132,True,15
X002K21,129,experiment,168,↓,down,↓,0.6268919000867754,True,15
X002K21,130,experiment,72,→,right,→,0.5793928999919444,True,15
X002K21,131,experiment,84,↑,up,↑,0.6286702998913825,True,15
X002K21,132,experiment,144,↑,up,↑,0.5530596999451518,True,15
X002K21,133,experiment,36,→,right,→,0.4645289999898523,True,15
X002K21,134,experiment,108,↑,up,↑,0.4440125001128763,True,15
X002K21,135,experiment,24,↑,up,↑,0.5580996000207961,True,15
X002K21,136,experiment,72,↓,down,↓,0.7185105001553893,True,15
X002K21,137,experiment,132,↓,down,↓,0.8056136998347938,True,15
X002K21,138,experiment,132,←,left,←,0.670096900081262,True,15
X002K21,139,experiment,84,↓,down,↓,0.7959414001088589,True,15
X002K21,140,experiment,84,→,right,→,0.4783297998365015,True,15
X002K21,141,experiment,96,→,right,→,0.549804599955678,True,15
X002K21,142,experiment,60,↑,up,↑,0.5538665000349283,True,15
X002K21,143,experiment,84,↑,up,↑,0.75248680007644,True,15
X002K21,144,experiment,180,←,right,→,0.4463108000345528,False,15
X002K21,145,experiment,12,↓,up,↑,0.8185924999415874,False,15
X002K21,146,experiment,36,→,right,→,0.44162729987874627,True,15
X002K21,147,experiment,144,↑,up,↑,0.6162475999444723,True,15
X002K21,148,experiment,36,→,right,→,0.6472825999371707,True,15
X002K21,149,experiment,108,↓,right,→,0.5351189998909831,False,15
X002K21,150,experiment,108,↓,down,↓,0.667818299960345,True,15
X002K21,151,experiment,24,←,left,←,0.75868139998056,True,15
X002K21,152,experiment,180,↓,down,↓,0.7791748000308871,True,15
X002K21,153,experiment,144,←,left,←,0.5639190999791026,True,15
X002K21,154,experiment,72,←,right,→,0.6188739000353962,False,15
X002K21,155,experiment,168,←,right,→,0.787347000092268,False,15
X002K21,156,experiment,36,↑,up,↑,0.8220393001101911,True,15
X002K21,157,training,120,→,right,→,0.4776847001630813,True,15
X002K21,158,training,180,←,left,←,0.6597191002219915,True,15
X002K21,159,training,84,→,left,←,0.6757294998969883,False,15
X002K21,160,experiment,132,↑,up,↑,0.5696586999110878,True,15
X002K21,161,experiment,84,↑,up,↑,0.66315110004507,True,15
X002K21,162,experiment,168,←,left,←,0.9407689999789,True,15
X002K21,163,experiment,48,←,left,←,0.6011310000903904,True,15
X002K21,164,experiment,12,→,left,←,0.8496324999723583,False,15
X002K21,165,experiment,84,→,right,→,1.0773527999408543,True,15
X002K21,166,experiment,180,↓,left,←,0.6017851999495178,False,15
X002K21,167,experiment,48,↓,up,↑,0.6189550999552011,False,15
X002K21,168,experiment,12,↑,up,↑,0.5516564999707043,True,15
X002K21,169,experiment,48,→,left,←,0.4816787000745535,False,15
X002K21,170,experiment,120,→,left,←,0.4191421999130398,False,15
X002K21,171,experiment,156,↑,left,←,0.7816455001011491,False,15
X002K21,172,experiment,84,←,left,←,0.5562534998171031,True,15
X002K21,173,experiment,144,→,left,←,0.6155517001170665,False,15
X002K21,174,experiment,168,→,right,→,0.654098899802193,True,15
X002K21,175,experiment,132,↑,up,↑,0.697415699949488,True,15
X002K21,176,experiment,96,↑,left,←,0.49434600002132356,False,15
X002K21,177,experiment,60,↑,up,↑,0.5329930000007153,True,15
X002K21,178,experiment,24,↓,down,↓,0.6720830998383462,True,15
X002K21,179,experiment,180,↑,down,↓,0.8537608999758959,False,15
X002K21,180,experiment,156,↓,down,↓,0.8203434001188725,True,15
X002K21,181,experiment,144,↓,down,↓,0.6607291998807341,True,15
X002K21,182,experiment,36,←,left,←,0.5612459001131356,True,15
X002K21,183,experiment,180,→,left,←,0.6471052998676896,False,15
X002K21,184,experiment,24,→,right,→,0.48707190016284585,True,15
X002K21,185,experiment,120,←,left,←,0.5242560999467969,True,15
X002K21,186,experiment,36,→,right,→,0.5977771999314427,True,15
X002K21,187,experiment,60,↑,up,↑,0.613068199949339,True,15
X002K21,188,experiment,144,↓,left,←,0.8295865000691265,False,15
X002K21,189,experiment,144,↑,up,↑,0.5303060000296682,True,15
X002K21,190,experiment,96,↓,up,↑,0.5690405000932515,False,15
X002K21,191,experiment,48,→,left,←,0.5246170999016613,False,15
X002K21,192,experiment,96,→,right,→,0.6064045000821352,True,15
X002K21,193,experiment,156,↑,up,↑,0.5732133998535573,True,15
X002K21,194,experiment,108,→,right,→,0.6208800999447703,True,15
X002K21,195,experiment,180,←,left,←,0.5807059998624027,True,15
X002K21,196,experiment,72,↑,left,←,0.9177562999539077,False,15
X002K21,197,experiment,168,↑,up,↑,0.49492530012503266,True,15
X002K21,198,experiment,60,→,left,←,0.5837006000801921,False,15
X002K21,199,experiment,108,↓,up,↑,0.6264019999653101,False,15
X002K21,200,experiment,132,↓,left,←,0.7182406999636441,False,15
X002K21,201,experiment,96,↓,up,↑,0.5443543998990208,False,15
X002K21,202,experiment,84,↑,up,↑,0.5314593000803143,True,15
X002K21,203,experiment,72,↑,left,←,0.6616489998996258,False,15
X002K21,204,experiment,12,→,right,→,0.7153205000795424,True,15
X002K21,205,experiment,120,→,right,→,0.48463630001060665,True,15
X002K21,206,experiment,36,↓,up,↑,0.5895096000749618,False,15
X002K21,207,experiment,36,↑,up,↑,0.5569650998804718,True,15
X002K21,208,experiment,108,↓,right,→,0.744670599931851,False,15
X002K21,209,experiment,168,↓,left,←,0.6356404998805374,False,15
X002K21,210,experiment,120,→,right,→,0.5801423999946564,True,15
X002K21,211,experiment,132,↑,up,↑,0.6815156999509782,True,15
X002K21,212,experiment,72,↓,up,↑,0.5871367000509053,False,15
X002K21,213,experiment,24,↑,up,↑,0.6391207000706345,True,15
X002K21,214,experiment,24,↓,right,→,0.6615436999127269,False,15
X002K21,215,experiment,108,↓,up,↑,0.6669608999509364,False,15
X002K21,216,experiment,60,↓,up,↑,0.7603123001754284,False,15
X002K21,217,experiment,72,↓,down,↓,0.6276346000377089,True,15
X002K21,218,experiment,12,←,right,→,0.5215310999192297,False,15
X002K21,219,experiment,156,←,right,→,0.6211570999585092,False,15
X002K21,220,training,24,→,right,→,0.4465776002034545,True,16
X002K21,221,training,12,←,left,←,0.6631461000069976,True,16
X002K21,222,training,60,←,left,←,0.7036137999966741,True,16
X002K21,223,experiment,72,↓,down,↓,0.8768786999862641,True,16
X002K21,224,experiment,144,→,right,→,0.8854142997879535,True,16
X002K21,225,experiment,84,↓,down,↓,0.9742192002013326,True,16
X002K21,226,experiment,168,↑,down,↓,0.9505759000312537,False,16
X002K21,227,experiment,156,↓,down,↓,0.8074295001570135,True,16
X002K21,228,experiment,60,↓,down,↓,0.7830759999342263,True,16
X002K21,229,experiment,108,↓,down,↓,0.8457876001484692,True,16
X002K21,230,experiment,12,↓,down,↓,0.7539810000453144,True,16
X002K21,231,experiment,108,↑,down,↓,0.7581269000656903,False,16
X002K21,232,experiment,12,↑,up,↑,0.7644964000210166,True,16
X002K21,233,experiment,36,→,right,→,0.6787163999397308,True,16
X002K21,234,experiment,144,↓,down,↓,0.8033932000398636,True,16
X002K21,235,experiment,156,→,right,→,0.6388887998182327,True,16
X002K21,236,experiment,132,↑,down,↓,0.8264994001947343,False,16
X002K21,237,experiment,108,↑,up,↑,0.8353124000132084,True,16
X002K21,238,experiment,144,→,right,→,0.7119970999192446,True,16
X002K21,239,experiment,12,←,left,←,0.7385992000345141,True,16
X002K21,240,experiment,180,↑,up,↑,0.6627191000152379,True,16
X002K21,241,experiment,84,→,right,→,0.5468228000681847,True,16
X002K21,242,experiment,24,←,left,←,0.7028710001613945,True,16
X002K21,243,experiment,168,↓,down,↓,0.7361813001334667,True,16
X002K21,244,experiment,24,←,left,←,0.6178230000659823,True,16
X002K21,245,experiment,72,←,left,←,0.602784699993208,True,16
X002K21,246,experiment,132,↑,up,↑,0.5405300001148134,True,16
X002K21,247,experiment,180,→,right,→,0.4919139000121504,True,16
X002K21,248,experiment,48,←,left,←,0.5373983001336455,True,16
X002K21,249,experiment,72,←,left,←,0.5763689000159502,True,16
X002K21,250,experiment,108,↑,up,↑,0.6265483999159187,True,16
X002K21,251,experiment,180,←,left,←,0.716030899900943,True,16
X002K21,252,experiment,96,→,left,←,0.520663799950853,False,16
X002K21,253,experiment,120,→,right,→,0.5281991998199373,True,16
X002K21,254,experiment,96,↓,down,↓,0.7924301000311971,True,16
X002K21,255,experiment,60,←,left,←,0.577985999872908,True,16
X002K21,256,experiment,48,→,right,→,0.4612147998996079,True,16
X002K21,257,experiment,12,↓,up,↑,0.6276943001430482,False,16
X002K21,258,experiment,132,↑,up,↑,0.6249340998474509,True,16
X002K21,259,experiment,60,↑,up,↑,0.7613667000550777,True,16
X002K21,260,experiment,24,←,left,←,0.5254334001801908,True,16
X002K21,261,experiment,36,↑,up,↑,0.7362615000456572,True,16
X002K21,262,experiment,120,→,left,←,0.6776274999137968,False,16
X002K21,263,experiment,120,↑,up,↑,0.5673555999528617,True,16
X002K21,264,experiment,156,↑,up,↑,0.6337061999365687,True,16
X002K21,265,experiment,120,↑,up,↑,0.6005679999943823,True,16
X002K21,266,experiment,180,→,right,→,0.6199896999169141,True,16
X002K21,267,experiment,84,→,right,→,0.6814808999188244,True,16
X002K21,268,experiment,156,→,right,→,0.49591040005907416,True,16
X002K21,269,experiment,84,→,left,←,0.6489897000137717,False,16
X002K21,270,experiment,132,↑,up,↑,0.5267963001970202,True,16
X002K21,271,experiment,48,↓,down,↓,0.8239545000251383,True,16
X002K21,272,experiment,144,←,left,←,0.6423712000250816,True,16
X002K21,273,experiment,36,←,left,←,0.7425844999961555,True,16
X002K21,274,experiment,60,↓,down,↓,0.7114715001080185,True,16
X002K21,275,experiment,168,←,left,←,0.5962630000431091,True,16
X002K21,276,experiment,96,↑,up,↑,0.6552947000600398,True,16
X002K21,277,experiment,36,←,left,←,0.5108218998648226,True,16
X002K21,278,experiment,72,←,left,←,0.5897772999014705,True,16
X002K21,279,experiment,96,←,left,←,0.7422631999943405,True,16
X002K21,280,experiment,24,↓,down,↓,0.7611275999806821,True,16
X002K21,281,experiment,168,↑,up,↑,0.6497828001156449,True,16
X002K21,282,experiment,48,←,left,←,0.6491670000832528,True,16
X002K21,283,training,120,→,right,→,0.5645883001852781,True,16
X002K21,284,training,132,↓,down,↓,0.6855052001774311,True,16
X002K21,285,training,48,↑,up,↑,0.5552203000988811,True,16
X002K21,286,experiment,108,←,left,←,0.5177875000517815,True,16
X002K21,287,experiment,24,→,left,←,0.7236085999757051,False,16
X002K21,288,experiment,48,↓,down,↓,0.7323727000039071,True,16
X002K21,289,experiment,72,↓,down,↓,0.662644799798727,True,16
X002K21,290,experiment,12,↓,down,↓,0.9921023000497371,True,16
X002K21,291,experiment,36,↑,up,↑,0.628283099969849,True,16
X002K21,292,experiment,144,→,right,→,0.7513220000546426,True,16
X002K21,293,experiment,24,↑,down,↓,0.7019080000463873,False,16
X002K21,294,experiment,24,→,right,→,0.5645680001471192,True,16
X002K21,295,experiment,168,↓,down,↓,0.6720402999781072,True,16
X002K21,296,experiment,84,↓,down,↓,0.6026403999421746,True,16
X002K21,297,experiment,96,↓,down,↓,0.9997866000048816,True,16
X002K21,298,experiment,108,→,right,→,0.5107587000820786,True,16
X002K21,299,experiment,72,↓,down,↓,0.6734990000259131,True,16
X002K21,300,experiment,144,↓,down,↓,0.6655759999994189,True,16
X002K21,301,experiment,156,↑,up,↑,0.6851123999804258,True,16
X002K21,302,experiment,108,→,right,→,0.4857884000521153,True,16
X002K21,303,experiment,84,↑,up,↑,0.5236128000542521,True,16
X002K21,304,experiment,144,↑,up,↑,0.5247892998158932,True,16
X002K21,305,experiment,168,→,right,→,0.6782824001275003,True,16
X002K21,306,experiment,180,↑,up,↑,0.4804603001102805,True,16
X002K21,307,experiment,36,↓,down,↓,0.6878628002014011,True,16
X002K21,308,experiment,168,↓,up,↑,0.6474426998756826,False,16
X002K21,309,experiment,12,↑,up,↑,0.9610661999322474,True,16
X002K21,310,experiment,84,↓,down,↓,0.7140279999002814,True,16
X002K21,311,experiment,48,↓,down,↓,0.6914264999795705,True,16
X002K21,312,experiment,156,←,right,→,0.5723834000527859,False,16
X002K21,313,experiment,120,→,right,→,0.5744390001054853,True,16
X002K21,314,experiment,60,↓,down,↓,0.7170410000253469,True,16
X002K21,315,experiment,156,←,right,→,0.5022626998834312,False,16
X002K21,316,experiment,120,↓,down,↓,0.6606036999728531,True,16
X002K21,317,experiment,60,↓,down,↓,0.6532370001077652,True,16
X002K21,318,experiment,60,↑,up,↑,0.6452397999819368,True,16
X002K21,319,experiment,36,↑,up,↑,0.7859405998606235,True,16
X002K21,320,experiment,120,↓,down,↓,0.6330468999221921,True,16
X002K21,321,experiment,144,↓,down,↓,0.5353740998543799,True,16
X002K21,322,experiment,12,↓,up,↑,0.694693700177595,False,16
X002K21,323,experiment,108,→,right,→,0.4937748999800533,True,16
X002K21,324,experiment,84,→,right,→,0.6136000000406057,True,16
X002K21,325,experiment,36,↑,down,↓,0.7696640000212938,False,16
X002K21,326,experiment,72,↑,up,↑,0.5738913000095636,True,16
X002K21,327,experiment,96,↑,up,↑,0.7108714999631047,True,16
X002K21,328,experiment,96,↑,up,↑,0.5516274000983685,True,16
X002K21,329,experiment,12,↓,down,↓,0.6508452000562102,True,16
X002K21,330,experiment,132,→,left,←,0.9194843000732362,False,16
X002K21,331,experiment,168,→,right,→,0.6308784000575542,True,16
X002K21,332,experiment,132,←,up,↑,0.6597168000880629,False,16
X002K21,333,experiment,60,↓,down,↓,0.7644960000179708,True,16
X002K21,334,experiment,132,↑,up,↑,0.5805234999861568,True,16
X002K21,335,experiment,96,↑,up,↑,0.7557944001164287,True,16
X002K21,336,experiment,24,←,left,←,0.4823727000039071,True,16
X002K21,337,experiment,180,↓,right,→,0.6192093000281602,False,16
X002K21,338,experiment,48,↑,down,↓,0.7539662998169661,False,16
X002K21,339,experiment,72,→,right,→,0.5402371999807656,True,16
X002K21,340,experiment,156,→,left,←,0.7680969999637455,False,16
X002K21,341,experiment,180,→,right,→,0.5339254001155496,True,16
X002K21,342,experiment,120,↑,up,↑,0.6513159999158233,True,16
X002K21,343,experiment,48,↑,up,↑,0.5662484001368284,True,16
X002K21,344,experiment,132,→,right,→,0.491098300088197,True,16
X002K21,345,experiment,180,↑,up,↑,1.8895384999923408,True,16
X002K21,346,training,96,→,right,→,0.4750598999671638,True,16
X002K21,347,training,144,↓,up,↑,0.6970665000844747,False,16
X002K21,348,training,108,↓,down,↓,0.6999298001173884,True,16
X002K21,349,experiment,132,→,right,→,0.8401851998642087,True,16
X002K21,350,experiment,60,←,left,←,0.5715942999813706,True,16
X002K21,351,experiment,48,↓,down,↓,0.6224867000710219,True,16
X002K21,352,experiment,120,↑,up,↑,0.594341300195083,True,16
X002K21,353,experiment,72,←,left,←,0.6154533000662923,True,16
X002K21,354,experiment,180,←,left,←,0.5016775000840425,True,16
X002K21,355,experiment,24,→,right,→,0.5341223001014441,True,16
X002K21,356,experiment,72,→,right,→,0.5663454998284578,True,16
X002K21,357,experiment,72,←,right,→,0.47296010004356503,False,16
X002K21,358,experiment,12,↑,down,↓,0.7578215999528766,False,16
X002K21,359,experiment,120,←,left,←,0.5061319000087678,True,16
X002K21,360,experiment,168,→,left,←,0.6603107000701129,False,16
X002K21,361,experiment,144,→,right,→,0.46376570011489093,True,16
X002K21,362,experiment,156,↓,down,↓,0.8519303998909891,True,16
X002K21,363,experiment,84,→,right,→,0.6304879998788238,True,16
X002K21,364,experiment,96,→,left,←,0.6703749999869615,False,16
X002K21,365,experiment,108,↑,up,↑,0.36724129994399846,True,16
X002K21,366,experiment,156,↓,down,↓,0.6663397999946028,True,16
X002K21,367,experiment,84,↓,down,↓,0.8234491001348943,True,16
X002K21,368,experiment,48,↓,down,↓,0.58399170008488,True,16
X002K21,369,experiment,180,←,left,←,0.636174000101164,True,16
X002K21,370,experiment,132,→,right,→,0.4633212999906391,True,16
X002K21,371,experiment,96,↑,up,↑,0.5698349000886083,True,16
X002K21,372,experiment,24,←,left,←,0.6929047999437898,True,16
X002K21,373,experiment,48,→,right,→,0.6585528000723571,True,16
X002K21,374,experiment,48,←,left,←,1.8816921999678016,True,16
X002K21,375,experiment,12,→,right,→,0.5813897999469191,True,16
X002K21,376,experiment,72,→,left,←,0.5484988000243902,False,16
X002K21,377,experiment,36,↓,down,↓,0.6814687999431044,True,16
X002K21,378,experiment,36,→,right,→,0.606585199944675,True,16
X002K21,379,experiment,144,→,right,→,0.49619029997847974,True,16
X002K21,380,experiment,96,→,right,→,0.50308070005849,True,16
X002K21,381,experiment,108,←,right,→,0.5273009000811726,False,16
X002K21,382,experiment,24,↓,down,↓,0.8535642998758703,True,16
X002K21,383,experiment,36,↑,up,↑,0.46117629995569587,True,16
X002K21,384,experiment,144,↑,down,↓,0.7454381000716239,False,16
X002K21,385,experiment,168,↑,down,↓,0.5724231998901814,False,16
X002K21,386,experiment,108,↓,down,↓,0.5513934998307377,True,16
X002K21,387,experiment,180,↑,up,↑,0.6987769999541342,True,16
X002K21,388,experiment,84,↑,up,↑,0.9149891999550164,True,16
X002K21,389,experiment,168,→,right,→,0.6543791999574751,True,16
X002K21,390,experiment,144,↓,down,↓,0.758168299915269,True,16
X002K21,391,experiment,168,↓,down,↓,0.8444254000205547,True,16
X002K21,392,experiment,36,←,left,←,0.5761412000283599,True,16
X002K21,393,experiment,12,←,left,←,0.5690953000448644,True,16
X002K21,394,experiment,108,↑,up,↑,0.6468545999377966,True,16
X002K21,395,experiment,24,←,left,←,0.6982405998278409,True,16
X002K21,396,experiment,120,←,left,←,0.6845139001961797,True,16
X002K21,397,experiment,96,↓,right,→,0.8956363000907004,False,16
X002K21,398,experiment,132,↑,up,↑,0.5870330000761896,True,16
X002K21,399,experiment,60,→,left,←,0.6034025999251753,False,16
X002K21,400,experiment,60,↑,up,↑,0.718220999930054,True,16
X002K21,401,experiment,120,→,left,←,0.5162001999560744,False,16
X002K21,402,experiment,180,←,left,←,0.5842333999462426,True,16
X002K21,403,experiment,12,←,left,←,0.665809900034219,True,16
X002K21,404,experiment,84,→,right,→,0.46057539992034435,True,16
X002K21,405,experiment,156,↑,up,↑,0.48486110009253025,True,16
X002K21,406,experiment,156,→,left,←,0.6813401998952031,False,16
X002K21,407,experiment,132,↑,up,↑,0.5125945000909269,True,16
X002K21,408,experiment,60,↑,up,↑,0.5570161000359803,True,16
X002K21,409,training,132,→,left,←,0.5465545000042766,False,16
X002K21,410,training,48,←,left,←,0.5804204000160098,True,16
X002K21,411,training,36,↑,up,↑,0.4860900000203401,True,16
X002K21,412,experiment,48,↓,down,↓,0.7598434998653829,True,16
X002K21,413,experiment,180,↓,down,↓,0.8209689999930561,True,16
X002K21,414,experiment,168,↑,up,↑,0.7398126998450607,True,16
X002K21,415,experiment,72,→,right,→,0.5316715000662953,True,16
X002K21,416,experiment,60,→,left,←,0.6786934998817742,False,16
X002K21,417,experiment,60,↓,right,→,0.7557311998680234,False,16
X002K21,418,experiment,36,↑,up,↑,0.5402632001787424,True,16
X002K21,419,experiment,60,←,left,←,0.6824309001676738,True,16
X002K21,420,experiment,12,←,left,←,0.38378509995527565,True,16
X002K21,421,experiment,84,→,left,←,0.47873379988595843,False,16
X002K21,422,experiment,132,↓,down,↓,0.7496960998978466,True,16
X002K21,423,experiment,84,→,left,←,0.6311858000699431,False,16
X002K21,424,experiment,180,→,right,→,0.7920578001067042,True,16
X002K21,425,experiment,120,←,left,←,0.5828472999855876,True,16
X002K21,426,experiment,108,↓,down,↓,0.6827673998195678,True,16
X002K21,427,experiment,24,↑,up,↑,0.5905738000292331,True,16
X002K21,428,experiment,168,→,right,→,0.5034404001198709,True,16
X002K21,429,experiment,72,→,right,→,0.46796809998340905,True,16
X002K21,430,experiment,156,↓,down,↓,0.7139204000122845,True,16
X002K21,431,experiment,144,→,right,→,0.4418421001173556,True,16
X002K21,432,experiment,84,↑,up,↑,0.4981420999392867,True,16
X002K21,433,experiment,48,→,right,→,0.8051919999998063,True,16
X002K21,434,experiment,36,←,up,↑,0.7489140999969095,False,16
X002K21,435,experiment,120,↓,down,↓,0.6637405999936163,True,16
X002K21,436,experiment,156,↑,up,↑,0.5362523999065161,True,16
X002K21,437,experiment,120,↓,down,↓,0.7477895999327302,True,16
X002K21,438,experiment,36,←,left,←,0.5461670998483896,True,16
X002K21,439,experiment,96,←,left,←,0.6138198999688029,True,16
X002K21,440,experiment,12,↓,down,↓,0.5695122999604791,True,16
X002K21,441,experiment,120,↑,up,↑,0.6524292998947203,True,16
X002K21,442,experiment,24,↑,up,↑,0.3839276998769492,True,16
X002K21,443,experiment,180,↑,up,↑,0.4860410001128912,True,16
X002K21,444,experiment,96,↓,down,↓,0.6985462999437004,True,16
X002K21,445,experiment,168,→,right,→,0.6400749001186341,True,16
X002K21,446,experiment,48,↑,up,↑,0.7801858999300748,True,16
X002K21,447,experiment,132,↑,up,↑,0.4903078000061214,True,16
X002K21,448,experiment,168,↓,down,↓,0.6543781000655144,True,16
X002K21,449,experiment,12,↓,up,↑,0.6785288001410663,False,16
X002K21,450,experiment,180,↓,down,↓,0.738149399869144,True,16
X002K21,451,experiment,96,→,right,→,0.5363844998646528,True,16
X002K21,452,experiment,144,→,right,→,0.4715690000448376,True,16
X002K21,453,experiment,48,←,down,↓,0.8214864998590201,False,16
X002K21,454,experiment,156,←,left,←,0.45151880010962486,True,16
X002K21,455,experiment,132,←,right,→,0.7791740000247955,False,16
X002K21,456,experiment,72,↑,down,↓,0.6835179999470711,False,16
X002K21,457,experiment,84,↑,up,↑,0.49296370008960366,True,16
X002K21,458,experiment,72,→,right,→,0.5135967000387609,True,16
X002K21,459,experiment,60,↑,up,↑,0.5663415000308305,True,16
X002K21,460,experiment,24,←,left,←,0.7104815999045968,True,16
X002K21,461,experiment,144,→,right,→,0.5808568000793457,True,16
X002K21,462,experiment,24,→,right,→,0.6080167000181973,True,16
X002K21,463,experiment,108,←,left,←,0.6495727000292391,True,16
X002K21,464,experiment,108,←,left,←,0.6332121999002993,True,16
X002K21,465,experiment,108,→,left,←,0.5083689999300987,False,16
X002K21,466,experiment,156,→,right,→,0.4634839999489486,True,16
X002K21,467,experiment,132,→,right,→,0.6005128999240696,True,16
X002K21,468,experiment,12,→,right,→,0.8372124000452459,True,16
X002K21,469,experiment,144,→,right,→,0.44085359992459416,True,16
X002K21,470,experiment,96,↑,up,↑,0.576864899834618,True,16
X002K21,471,experiment,36,←,right,→,0.5591918998397887,False,16
X002K21,472,training,60,↑,up,↑,0.6153990000020713,True,16
X002K21,473,training,60,↑,up,↑,0.46075910003855824,True,16
X002K21,474,training,96,↓,left,←,0.7035435000434518,False,16
X002K21,475,experiment,108,↓,up,↑,0.5444697998464108,False,16
X002K21,476,experiment,36,↑,up,↑,0.6368773998692632,True,16
X002K21,477,experiment,60,↓,down,↓,0.6918140999041498,True,16
X002K21,478,experiment,180,↑,up,↑,0.6571106999181211,True,16
X002K21,479,experiment,168,↑,down,↓,0.7436190000735223,False,16
X002K21,480,experiment,96,↓,down,↓,0.7169907002244145,True,16
X002K21,481,experiment,108,←,left,←,0.7132687999401242,True,16
X002K21,482,experiment,156,↑,up,↑,0.662783200154081,True,16
X002K21,483,experiment,12,→,right,→,0.5613675999920815,True,16
X002K21,484,experiment,96,←,left,←,0.8281125999055803,True,16
X002K21,485,experiment,96,↓,down,↓,1.1183245999272913,True,16
X002K21,486,experiment,36,←,left,←,0.5124695999547839,True,16
X002K21,487,experiment,84,→,right,→,1.183366899844259,True,16
X002K21,488,experiment,60,↓,down,↓,0.809847200056538,True,16
X002K21,489,experiment,132,↓,down,↓,1.091982000041753,True,16
X002K21,490,experiment,132,↓,down,↓,0.9247725999448448,True,16
X002K21,491,experiment,108,↑,up,↑,0.7973327001091093,True,16
X002K21,492,experiment,132,←,left,←,0.6240191000979394,True,16
X002K21,493,experiment,60,←,left,←,0.620052200043574,True,16
X002K21,494,experiment,84,←,left,←,0.5035560000687838,True,16
X002K21,495,experiment,72,↑,left,←,0.6144655998796225,False,16
X002K21,496,experiment,180,↓,down,↓,0.8226733000483364,True,16
X002K21,497,experiment,24,←,left,←,0.5603673998266459,True,16
X002K21,498,experiment,60,↑,up,↑,0.4484457999933511,True,16
X002K21,499,experiment,156,←,left,←,0.5705496000591666,True,16
X002K21,500,experiment,96,↓,up,↑,0.5793425000738353,False,16
X002K21,501,experiment,12,↑,down,↓,0.7318000001832843,False,16
X002K21,502,experiment,156,↑,up,↑,0.44701170013286173,True,16
X002K21,503,experiment,48,↑,up,↑,0.5246376998256892,True,16
X002K21,504,experiment,168,↓,down,↓,0.7802567000035197,True,16
X002K21,505,experiment,48,↑,up,↑,0.46337559982202947,True,16
X002K21,506,experiment,108,↑,up,↑,0.8811617998871952,True,16
X002K21,507,experiment,120,←,left,←,0.676432500127703,True,16
X002K21,508,experiment,168,→,right,→,0.6907928001601249,True,16
X002K21,509,experiment,36,→,right,→,0.6526929999236017,True,16
X002K21,510,experiment,24,↑,up,↑,0.8559055998921394,True,16
X002K21,511,experiment,144,→,left,←,0.6654779000673443,False,16
X002K21,512,experiment,180,←,left,←,0.5516568999737501,True,16
X002K21,513,experiment,36,→,left,←,0.7308360000606626,False,16
X002K21,514,experiment,120,↓,down,↓,0.9853782001882792,True,16
X002K21,515,experiment,168,→,right,→,0.6505829999223351,True,16
X002K21,516,experiment,120,←,right,→,0.7980271000415087,False,16
X002K21,517,experiment,144,→,right,→,0.5986033999361098,True,16
X002K21,518,experiment,180,←,left,←,0.5795075998175889,True,16
X002K21,519,experiment,24,→,right,→,0.7240724000148475,True,16
X002K21,520,experiment,120,←,right,→,0.6131772000808269,False,16
X002K21,521,experiment,84,→,left,←,0.528318400029093,False,16
X002K21,522,experiment,48,→,right,→,0.44497159984894097,True,16
X002K21,523,experiment,12,←,left,←,0.6255931998603046,True,16
X002K21,524,experiment,12,→,right,→,0.5629316000267863,True,16
X002K21,525,experiment,72,↓,left,←,0.5941818000283092,False,16
X002K21,526,experiment,144,↓,down,↓,1.0382158998399973,True,16
X002K21,527,experiment,132,→,right,→,0.5528059999924153,True,16
X002K21,528,experiment,72,←,left,←,0.54985860013403,True,16
X002K21,529,experiment,84,↓,down,↓,0.8004443000536412,True,16
X002K21,530,experiment,156,→,right,→,0.5274561999831349,True,16
X002K21,531,experiment,48,↑,left,←,0.5577626000158489,False,16
X002K21,532,experiment,24,↓,down,↓,0.7182867999654263,True,16
X002K21,533,experiment,144,→,right,→,0.8084085998125374,True,16
X002K21,534,experiment,72,↓,down,↓,0.8087245000060648,True,16
X002K21,535,training,72,→,left,←,0.8932630999479443,False,16
X002K21,536,training,72,←,left,←,0.5020261998288333,True,16
X002K21,537,training,156,←,right,→,0.5299517000094056,False,16
X002K21,538,experiment,48,↓,down,↓,0.7671212998684496,True,16
X002K21,539,experiment,48,←,right,→,0.72207530005835,False,16
X002K21,540,experiment,168,↑,up,↑,0.6837988998740911,True,16
X002K21,541,experiment,132,←,right,→,0.5521030998788774,False,16
X002K21,542,experiment,144,↓,down,↓,0.851382500026375,True,16
X002K21,543,experiment,156,↑,up,↑,0.7959000000264496,True,16
X002K21,544,experiment,96,←,right,→,0.7951501999050379,False,16
X002K21,545,experiment,144,↓,down,↓,0.8466884000226855,True,16
X002K21,546,experiment,12,↑,up,↑,1.1160267000086606,True,16
X002K21,547,experiment,96,↑,down,↓,0.786100999917835,False,16
X002K21,548,experiment,120,↓,down,↓,0.8846549999434501,True,16
X002K21,549,experiment,84,↓,right,→,0.9318324001505971,False,16
X002K21,550,experiment,60,←,right,→,0.8886631999630481,False,16
X002K21,551,experiment,24,→,up,↑,0.7776750999037176,False,16
X002K21,552,experiment,180,↑,up,↑,0.5878569998312742,True,16
X002K21,553,experiment,132,↓,down,↓,0.760058999992907,True,16
X002K21,554,experiment,120,←,left,←,1.4667771998792887,True,16
X002K21,555,experiment,120,→,left,←,0.5529334000311792,False,16
X002K21,556,experiment,108,→,right,→,0.6080483000259846,True,16
X002K21,557,experiment,156,→,right,→,0.6509553000796586,True,16
X002K21,558,experiment,108,←,left,←,0.5436491998843849,True,16
X002K21,559,experiment,12,→,right,→,0.45823099999688566,True,16
X002K21,560,experiment,48,←,right,→,0.7937394001055509,False,16
X002K21,561,experiment,60,→,left,←,0.9030433997977525,False,16
X002K21,562,experiment,36,←,right,→,0.634570199996233,False,16
X002K21,563,experiment,168,↑,up,↑,0.5623729999642819,True,16
X002K21,564,experiment,24,←,left,←,0.5639414000324905,True,16
X002K21,565,experiment,24,→,right,→,0.4559003000613302,True,16
X002K21,566,experiment,168,←,left,←,0.45210830005817115,True,16
X002K21,567,experiment,156,↓,down,↓,0.9336250000633299,True,16
X002K21,568,experiment,72,←,left,←,0.5803573001176119,True,16
X002K21,569,experiment,132,↑,right,→,0.7183761999476701,False,16
X002K21,570,experiment,24,↓,down,↓,0.8697858999948949,True,16
X002K21,571,experiment,72,↑,right,→,0.731352600036189,False,16
X002K21,572,experiment,12,←,left,←,0.5555000000167638,True,16
X002K21,573,experiment,144,↓,right,→,0.5459614999126643,False,16
X002K21,574,experiment,72,↓,up,↑,0.6569819999858737,False,16
X002K21,575,experiment,132,↓,down,↓,0.9195164002012461,True,16
X002K21,576,experiment,156,←,right,→,0.45701829995959997,False,16
X002K21,577,experiment,84,↓,down,↓,1.144049699883908,True,16
X002K21,578,experiment,84,→,right,→,0.7338648999575526,True,16
X002K21,579,experiment,48,→,left,←,0.6449242001399398,False,16
X002K21,580,experiment,180,↓,down,↓,0.8875857999082655,True,16
X002K21,581,experiment,72,←,left,←,0.6339269001036882,True,16
X002K21,582,experiment,168,→,right,→,0.6626482999417931,True,16
X002K21,583,experiment,96,↓,down,↓,0.7449878000188619,True,16
X002K21,584,experiment,12,↑,up,↑,0.8051652000285685,True,16
X002K21,585,experiment,36,←,left,←,0.6019941999111325,True,16
X002K21,586,experiment,60,→,right,→,0.6719920001924038,True,16
X002K21,587,experiment,108,←,left,←,0.4704460999928415,True,16
X002K21,588,experiment,36,↓,down,↓,0.8032394999172539,True,16
X002K21,589,experiment,144,→,right,→,0.4398877997882664,True,16
X002K21,590,experiment,180,→,left,←,0.5603114999830723,False,16
X002K21,591,experiment,120,↑,up,↑,0.7325108998920768,True,16
X002K21,592,experiment,180,↑,right,→,0.5562734000850469,False,16
X002K21,593,experiment,36,→,right,→,0.7742115999571979,True,16
X002K21,594,experiment,60,↓,up,↑,0.5564989000558853,False,16
X002K21,595,experiment,84,←,left,←,0.4696094000246376,True,16
X002K21,596,experiment,108,↓,right,→,0.6373707999009639,False,16
X002K21,597,experiment,96,↓,down,↓,0.9547206000424922,True,16
X002K21,598,training,60,→,right,→,0.5214363001286983,True,16
X002K21,599,training,108,↓,down,↓,0.6051718001253903,True,16
X002K21,600,training,180,↑,up,↑,0.6247014000546187,True,16
X002K21,601,experiment,132,↑,down,↓,0.725429099984467,False,16
X002K21,602,experiment,84,→,right,→,0.48731669993139803,True,16
X002K21,603,experiment,36,↑,up,↑,0.722635599784553,True,16
X002K21,604,experiment,84,→,right,→,0.5549933998845518,True,16
X002K21,605,experiment,84,↑,up,↑,0.9415947000961751,True,16
X002K21,606,experiment,12,↓,up,↑,0.7226334000006318,False,16
X002K21,607,experiment,132,↓,down,↓,0.9429820999503136,True,16
X002K21,608,experiment,96,←,left,←,0.54668949986808,True,16
X002K21,609,experiment,132,↓,up,↑,0.6702560998965055,False,16
X002K21,610,experiment,132,↓,down,↓,0.769152499968186,True,16
X002K21,611,experiment,96,←,left,←,0.5131237001623958,True,16
X002K21,612,experiment,156,←,right,→,0.465260999975726,False,16
X002K21,613,experiment,120,→,right,→,0.5488197999075055,True,16
X002K21,614,experiment,24,↓,right,→,1.1465672000776976,False,16
X002K21,615,experiment,24,←,left,←,0.5380055999848992,True,16
X002K21,616,experiment,72,→,right,→,0.4848219999112189,True,16
X002K21,617,experiment,108,↓,up,↑,0.5836332999169827,False,16
X002K21,618,experiment,180,→,right,→,0.5309637000318617,True,16
X002K21,619,experiment,168,↓,down,↓,0.8364236000925303,True,16
X002K21,620,experiment,24,←,left,←,0.5498128000181168,True,16
X002K21,621,experiment,36,←,left,←,0.674883000086993,True,16
X002K21,622,experiment,180,→,right,→,0.9565184998791665,True,16
X002K21,623,experiment,180,↑,up,↑,0.469778599916026,True,16
X002K21,624,experiment,144,↑,up,↑,0.5673275999724865,True,16
X002K21,625,experiment,72,↑,down,↓,0.8554220001678914,False,16
X002K21,626,experiment,108,←,left,←,0.553178200032562,True,16
X002K21,627,experiment,144,←,right,→,0.6505879000760615,False,16
X002K21,628,experiment,108,←,left,←,0.5663236998952925,True,16
X002K21,629,experiment,60,←,left,←,0.8950223999563605,True,16
X002K21,630,experiment,144,↑,left,←,0.5636201000306755,False,16
X002K21,631,experiment,180,↓,down,↓,0.6536656999960542,True,16
X002K21,632,experiment,96,↑,up,↑,0.6004637000150979,True,16
X002K21,633,experiment,120,↑,up,↑,0.5044597999658436,True,16
X002K21,634,experiment,48,↓,up,↑,0.6965457999613136,False,16
X002K21,635,experiment,156,→,right,→,0.4942635998595506,True,16
X002K21,636,experiment,48,↓,down,↓,0.6997778001241386,True,16
X002K21,637,experiment,108,←,left,←,0.6249033000785857,True,16
X002K21,638,experiment,96,↑,left,←,1.472408500034362,False,16
X002K21,639,experiment,12,←,left,←,0.5407468001358211,True,16
X002K21,640,experiment,60,→,right,→,0.6808861000463367,True,16
X002K21,641,experiment,156,↓,up,↑,0.658340800087899,False,16
X002K21,642,experiment,48,←,left,←,0.7813707999885082,True,16
X002K21,643,experiment,12,↓,left,←,0.8799729000311345,False,16
X002K21,644,experiment,120,→,right,→,0.6424662000499666,True,16
X002K21,645,experiment,72,↓,up,↑,0.7767519999761134,False,16
X002K21,646,experiment,120,→,left,←,0.5472287000156939,False,16
X002K21,647,experiment,144,↑,right,→,0.7192250001244247,False,16
X002K21,648,experiment,36,←,left,←,0.5930821001529694,True,16
X002K21,649,experiment,168,←,right,→,0.5547139002010226,False,16
X002K21,650,experiment,60,↓,up,↑,0.5664075999520719,False,16
X002K21,651,experiment,24,←,left,←,0.6540821001399308,True,16
X002K21,652,experiment,168,→,right,→,0.4745755000039935,True,16
X002K21,653,experiment,168,↑,up,↑,0.596566200023517,True,16
X002K21,654,experiment,12,↓,down,↓,0.9689100999385118,True,16
X002K21,655,experiment,48,→,right,→,0.4673650998156518,True,16
X002K21,656,experiment,156,↓,down,↓,0.8300588999409229,True,16
X002K21,657,experiment,60,↑,up,↑,0.6496486000251025,True,16
X002K21,658,experiment,72,↓,down,↓,0.5861978000029922,True,16
X002K21,659,experiment,36,↓,down,↓,0.6314030999783427,True,16
X002K21,660,experiment,84,↓,down,↓,0.6735822001937777,True,16
X002K21,661,training,72,↓,down,↓,0.6398245999589562,True,16
X002K21,662,training,132,↓,down,↓,0.6270450998563319,True,16
X002K21,663,training,72,←,left,←,0.5652167999651283,True,16
X002K21,664,experiment,72,↑,down,↓,0.7827121999580413,False,16
X002K21,665,experiment,24,↓,down,↓,0.6306803999468684,True,16
X002K21,666,experiment,120,→,right,→,0.451941299950704,True,16
X002K21,667,experiment,72,↑,up,↑,0.5324856999795884,True,16
X002K21,668,experiment,180,↓,down,↓,0.5134248998947442,True,16
X002K21,669,experiment,36,↓,up,↑,0.6052983000408858,False,16
X002K21,670,experiment,144,→,right,→,0.573084200033918,True,16
X002K21,671,experiment,156,←,left,←,0.6805241999682039,True,16
X002K21,672,experiment,12,↓,left,←,1.4609278000425547,False,16
X002K21,673,experiment,144,→,right,→,0.6883165000472218,True,16
X002K21,674,experiment,24,←,left,←,0.6950918000657111,True,16
X002K21,675,experiment,24,←,left,←,0.5743785998784006,True,16
X002K21,676,experiment,96,←,left,←,0.5482830998953432,True,16
X002K21,677,experiment,168,→,right,→,0.5926122001837939,True,16
X002K21,678,experiment,12,→,left,←,0.5829661001916975,False,16
X002K21,679,experiment,72,→,right,→,0.5002190000377595,True,16
X002K21,680,experiment,96,↑,up,↑,0.5264747000765055,True,16
X002K21,681,experiment,36,↓,down,↓,0.865652599837631,True,16
X002K21,682,experiment,156,→,right,→,0.6662880999501795,True,16
X002K21,683,experiment,48,↓,down,↓,0.676584400003776,True,16
X002K21,684,experiment,48,↓,up,↑,0.7953973000403494,False,16
X002K21,685,experiment,12,↑,up,↑,0.6558391000144184,True,16
X002K21,686,experiment,156,→,right,→,0.5400413998868316,True,16
X002K21,687,experiment,12,→,right,→,0.582549300044775,True,16
X002K21,688,experiment,132,↑,up,↑,0.5534130001906306,True,16
X002K21,689,experiment,60,↓,down,↓,0.7984323999844491,True,16
X002K21,690,experiment,96,→,right,→,0.4925161001738161,True,16
X002K21,691,experiment,168,←,left,←,0.551226899959147,True,16
X002K21,692,experiment,144,↓,no_key,no_letter,-1.0,False,16
X002K21,693,experiment,24,→,up,↑,1.0743958000093699,False,16
X002K21,694,experiment,72,↓,up,↑,0.5472365999594331,False,16
X002K21,695,experiment,48,→,left,←,0.6490635999944061,False,16
X002K21,696,experiment,120,↓,down,↓,0.7691807998344302,True,16
X002K21,697,experiment,60,↓,down,↓,0.6557275999803096,True,16
X002K21,698,experiment,108,↑,right,→,0.7173651999328285,False,16
X002K21,699,experiment,84,←,left,←,0.5992177999578416,True,16
X002K21,700,experiment,132,←,left,←,0.5284327999688685,True,16
X002K21,701,experiment,132,←,right,→,0.6334320001769811,False,16
X002K21,702,experiment,168,←,left,←,0.5994272001553327,True,16
X002K21,703,experiment,84,←,left,←,1.2181338998489082,True,16
X002K21,704,experiment,120,←,left,←,0.5200076000764966,True,16
X002K21,705,experiment,120,↑,right,→,0.5284188000950962,False,16
X002K21,706,experiment,96,↓,down,↓,0.9887744998559356,True,16
X002K21,707,experiment,108,→,right,→,0.6468460001051426,True,16
X002K21,708,experiment,108,↓,down,↓,1.0646055000834167,True,16
X002K21,709,experiment,48,↑,right,→,0.5026901001110673,False,16
X002K21,710,experiment,108,↓,down,↓,0.7791575000155717,True,16
X002K21,711,experiment,36,←,left,←,0.735385499894619,True,16
X002K21,712,experiment,36,↓,right,→,0.5642991999629885,False,16
X002K21,713,experiment,84,←,left,←,0.6886726000811905,True,16
X002K21,714,experiment,132,↑,up,↑,0.6258786998223513,True,16
X002K21,715,experiment,180,←,left,←,0.6256207001861185,True,16
X002K21,716,experiment,84,↓,down,↓,0.5901985000818968,True,16
X002K21,717,experiment,60,↑,down,↓,0.6172206001356244,False,16
X002K21,718,experiment,60,→,up,↑,0.6410225001163781,False,16
X002K21,719,experiment,168,→,right,→,0.6399071000050753,True,16
X002K21,720,experiment,180,→,right,→,0.4516045998316258,True,16
X002K21,721,experiment,156,↑,up,↑,0.592442600056529,True,16
X002K21,722,experiment,144,↑,right,→,0.5667156998533756,False,16
X002K21,723,experiment,180,↓,right,→,0.5605395000893623,False,16
X002K21,724,training,180,→,right,→,0.721994899911806,True,16
X002K21,725,training,180,↓,up,↑,0.5630926000885665,False,16
X002K21,726,training,84,←,left,←,0.5282652999740094,True,16
X002K21,727,experiment,12,→,left,←,0.5935624002013355,False,16
X002K21,728,experiment,36,→,right,→,0.44390589999966323,True,16
X002K21,729,experiment,60,↑,up,↑,0.6691743999253958,True,16
X002K21,730,experiment,156,↓,down,↓,0.7166458000428975,True,16
X002K21,731,experiment,180,←,left,←,0.6371856001205742,True,16
X002K21,732,experiment,132,←,left,←,0.49388540000654757,True,16
X002K21,733,experiment,120,↓,down,↓,0.7307580001652241,True,16
X002K21,734,experiment,72,↓,down,↓,0.6235037001315504,True,16
X002K21,735,experiment,108,↑,up,↑,0.6762905998621136,True,16
X002K21,736,experiment,108,↑,up,↑,0.9864452998153865,True,16
X002K21,737,experiment,96,↓,down,↓,0.7206336001399904,True,16
X002K21,738,experiment,156,↓,down,↓,0.7355733001604676,True,16
X002K21,739,experiment,156,→,left,←,0.6946798998396844,False,16
X002K21,740,experiment,84,←,left,←,0.6166513001080602,True,16
X002K21,741,experiment,180,↓,right,→,0.5091905000153929,False,16
X002K21,742,experiment,60,→,right,→,0.6160053999628872,True,16
X002K21,743,experiment,132,→,left,←,0.5701202000491321,False,16
X002K21,744,experiment,72,↑,right,→,0.5862996999640018,False,16
X002K21,745,experiment,108,→,right,→,0.911512800026685,True,16
X002K21,746,experiment,48,←,left,←,0.5135147001128644,True,16
X002K21,747,experiment,84,↓,right,→,0.5904536000452936,False,16
X002K21,748,experiment,168,←,left,←,0.6048810000065714,True,16
X002K21,749,experiment,120,↓,down,↓,0.8184256998356432,True,16
X002K21,750,experiment,36,↑,up,↑,0.6194788001012057,True,16
X002K21,751,experiment,24,←,left,←,0.5354488999582827,True,16
X002K21,752,experiment,132,↑,left,←,0.8104931998532265,False,16
X002K21,753,experiment,48,↑,up,↑,0.6982646998949349,True,16
X002K21,754,experiment,96,↓,down,↓,0.7047542999498546,True,16
X002K21,755,experiment,72,↓,down,↓,0.7800553999841213,True,16
X002K21,756,experiment,180,←,left,←,0.6362016000784934,True,16
X002K21,757,experiment,108,→,left,←,0.4822715998161584,False,16
X002K21,758,experiment,168,↑,down,↓,0.6941956002265215,False,16
X002K21,759,experiment,96,↑,right,→,0.9093313999474049,False,16
X002K21,760,experiment,36,↑,up,↑,0.5404596000444144,True,16
X002K21,761,experiment,144,←,left,←,0.5756655998993665,True,16
X002K21,762,experiment,60,↑,right,→,0.6861866000108421,False,16
X002K21,763,experiment,48,←,left,←,0.949878899846226,True,16
X002K21,764,experiment,156,←,left,←,0.4978714999742806,True,16
X002K21,765,experiment,144,←,left,←,0.5408012999687344,True,16
X002K21,766,experiment,12,→,up,↑,0.935350899817422,False,16
X002K21,767,experiment,24,→,left,←,0.753268500091508,False,16
X002K21,768,experiment,72,↓,up,↑,0.6334983000997454,False,16
X002K21,769,experiment,24,→,left,←,0.5042477999813855,False,16
X002K21,770,experiment,84,←,left,←,0.483304199995473,True,16
X002K21,771,experiment,144,↓,left,←,0.6869207001291215,False,16
X002K21,772,experiment,24,→,left,←,0.6139301999937743,False,16
X002K21,773,experiment,180,↑,up,↑,0.5919100001920015,True,16
X002K21,774,experiment,96,→,right,→,0.535322800045833,True,16
X002K21,775,experiment,168,→,left,←,0.4648826001212001,False,16
X002K21,776,experiment,12,→,right,→,0.5404856000095606,True,16
X002K21,777,experiment,120,↓,down,↓,0.6881088998634368,True,16
X002K21,778,experiment,36,←,left,←,0.5919983999338001,True,16
X002K21,779,experiment,60,↓,down,↓,0.7860638999845833,True,16
X002K21,780,experiment,132,←,left,←,0.5591154999565333,True,16
X002K21,781,experiment,168,↓,down,↓,0.8455070001073182,True,16
X002K21,782,experiment,144,↓,down,↓,0.6892128000035882,True,16
X002K21,783,experiment,84,↓,up,↑,0.6564958998933434,False,16
X002K21,784,experiment,48,→,right,→,0.6181739999447018,True,16
X002K21,785,experiment,12,↓,left,←,0.908627700060606,False,16
X002K21,786,experiment,120,←,left,←,0.5334968999959528,True,16
X002K21,787,training,84,→,left,←,0.5249479999765754,False,16
X002K21,788,training,120,↓,down,↓,0.6418779999949038,True,16
X002K21,789,training,132,←,left,←,0.6579500001389533,True,16
X002K21,790,experiment,156,→,right,→,0.6168774999678135,True,16
X002K21,791,experiment,60,↑,right,→,0.5860836999490857,False,16
X002K21,792,experiment,144,↓,left,←,0.5566950000356883,False,16
X002K21,793,experiment,132,↑,up,↑,0.5371057000011206,True,16
X002K21,794,experiment,12,↓,up,↑,0.5367973998654634,False,16
X002K21,795,experiment,72,↑,left,←,0.5754255000501871,False,16
X002K21,796,experiment,24,↓,down,↓,0.7402018001303077,True,16
X002K21,797,experiment,48,↓,down,↓,0.6492441000882536,True,16
X002K21,798,experiment,36,↑,up,↑,0.5128538999706507,True,16
X002K21,799,experiment,108,↑,right,→,0.4484226000495255,False,16
X002K21,800,experiment,120,↑,up,↑,1.3706773000303656,True,16
X002K21,801,experiment,60,↓,down,↓,0.6495529999956489,True,16
X002K21,802,experiment,132,↓,down,↓,0.6474593000020832,True,16
X002K21,803,experiment,180,↓,down,↓,0.5445033998694271,True,16
X002K21,804,experiment,72,↓,up,↑,0.8185314000584185,False,16
X002K21,805,experiment,72,↑,down,↓,0.631982599850744,False,16
X002K21,806,experiment,48,→,right,→,0.6694262002129108,True,16
X002K21,807,experiment,108,→,right,→,0.7765929000452161,True,16
X002K21,808,experiment,108,→,right,→,0.44345449982210994,True,16
X002K21,809,experiment,96,↑,up,↑,0.6269014000426978,True,16
X002K21,810,experiment,132,↓,up,↑,0.8202992000151426,False,16
X002K21,811,experiment,60,↑,up,↑,0.7744358000345528,True,16
X002K21,812,experiment,132,↑,up,↑,0.5071696999948472,True,16
X002K21,813,experiment,180,↓,down,↓,0.8035722998902202,True,16
X002K21,814,experiment,96,←,up,↑,0.5234363998752087,False,16
X002K21,815,experiment,72,↓,down,↓,0.5867543998174369,True,16
X002K21,816,experiment,24,←,left,←,0.4792406999040395,True,16
X002K21,817,experiment,12,↓,right,→,0.7489021001383662,False,16
X002K21,818,experiment,84,←,up,↑,0.7067948000039905,False,16
X002K21,819,experiment,36,↑,right,→,0.535334600135684,False,16
X002K21,820,experiment,24,→,right,→,0.6113633001223207,True,16
X002K21,821,experiment,12,↓,down,↓,0.7428144000004977,True,16
X002K21,822,experiment,156,↓,up,↑,0.6799506000243127,False,16
X002K21,823,experiment,120,↓,down,↓,0.76334029994905,True,16
X002K21,824,experiment,120,↓,down,↓,1.004370499867946,True,16
X002K21,825,experiment,168,→,right,→,0.563094399869442,True,16
X002K21,826,experiment,84,↓,up,↑,0.5770564000122249,False,16
X002K21,827,experiment,156,↓,right,→,0.5006315000355244,False,16
X002K21,828,experiment,144,↓,up,↑,0.8095843000337481,False,16
X002K21,829,experiment,48,←,left,←,0.6909982000943273,True,16
X002K21,830,experiment,144,→,right,→,0.5105024001095444,True,16
X002K21,831,experiment,12,↑,up,↑,0.6592957999091595,True,16
X002K21,832,experiment,84,→,left,←,0.6835851999931037,False,16
X002K21,833,experiment,36,→,left,←,0.8057103001046926,False,16
X002K21,834,experiment,108,↑,up,↑,0.5470801000483334,True,16
X002K21,835,experiment,168,←,right,→,0.5638564999680966,False,16
X002K21,836,experiment,24,→,right,→,0.5201185001060367,True,16
X002K21,837,experiment,60,←,left,←,0.6672529000788927,True,16
X002K21,838,experiment,36,↑,up,↑,0.6414925998542458,True,16
X002K21,839,experiment,168,←,left,←,0.5637307001743466,True,16
X002K21,840,experiment,84,→,right,→,0.6809106001164764,True,16
X002K21,841,experiment,96,→,left,←,0.6489508000668138,False,16
X002K21,842,experiment,48,↓,down,↓,0.6233474002219737,True,16
X002K21,843,experiment,120,←,right,→,1.1351848000194877,False,16
X002K21,844,experiment,180,←,right,→,0.5316926001105458,False,16
X002K21,845,experiment,180,↓,up,↑,1.4791456998791546,False,16
X002K21,846,experiment,156,↑,up,↑,0.5314551999326795,True,16
X002K21,847,experiment,168,↓,left,←,0.5826115000527352,False,16
X002K21,848,experiment,144,→,left,←,0.5622994001023471,False,16
X002K21,849,experiment,96,↑,up,↑,0.5574479999486357,True,16
