PART_ID,Trial_no,Trial_type,PDI,Stim_letter,Key_pressed,letter_choose,Rt,Corr,Stimulus Time
X005K23,1,training,10,↑,no_key,no_letter,-1.0,False,30
X005K23,2,training,10,↑,left,←,0.38355379994027317,False,30
X005K23,3,training,10,←,right,→,0.4506403000559658,False,30
X005K23,4,training,10,←,left,←,0.3837845001835376,True,30
X005K23,5,training,10,↓,left,←,0.6801877999678254,False,30
X005K23,6,training,10,→,right,→,0.6696720998734236,True,30
X005K23,7,training,10,↓,right,→,0.5337861001025885,False,30
X005K23,8,training,10,←,left,←,0.6175556001253426,True,30
X005K23,9,training,10,→,left,←,0.7292859998997301,False,30
X005K23,10,training,10,↑,right,→,0.3671556001063436,False,30
X005K23,11,training,10,→,left,←,0.30051130009815097,False,30
X005K23,12,training,10,↓,right,→,0.3171644997783005,False,30
X005K23,13,training,10,←,left,←,0.46721250005066395,True,30
X005K23,14,training,10,←,right,→,0.5503851999528706,False,30
X005K23,15,training,10,↓,left,←,0.35054170014336705,False,30
X005K23,16,training,10,←,right,→,0.4338527999352664,False,30
X005K23,17,training,10,→,left,←,0.50092349993065,False,30
X005K23,18,training,10,↓,down,↓,0.6680886000394821,True,30
X005K23,19,training,10,→,right,→,0.6334863998927176,True,30
X005K23,20,training,10,←,left,←,0.7161006999667734,True,30
X005K23,21,training,10,↓,down,↓,0.9832635999191552,True,18
X005K23,22,training,10,←,left,←,0.8329332999419421,True,18
X005K23,23,training,10,↑,up,↑,0.7485235000494868,True,18
X005K23,24,training,10,↑,up,↑,0.963382099987939,True,18
X005K23,25,training,10,→,right,→,0.6880556000396609,True,18
X005K23,26,training,10,↑,up,↑,0.798338099848479,True,18
X005K23,27,training,10,↑,up,↑,1.39602530002594,True,18
X005K23,28,training,10,↑,up,↑,0.9957701999228448,True,18
X005K23,29,training,10,→,right,→,0.6501603999640793,True,18
X005K23,30,training,10,↓,down,↓,0.7159718000330031,True,18
X005K23,31,training,156,→,left,←,1.1189078998286277,False,15
X005K23,32,training,24,→,left,←,0.5772752999328077,False,15
X005K23,33,training,36,→,down,↓,0.8058980999048799,False,15
X005K23,34,experiment,144,←,left,←,0.8811892999801785,True,15
X005K23,35,experiment,108,←,left,←,0.7458476000465453,True,15
X005K23,36,experiment,108,↓,down,↓,0.6746374000795186,True,15
X005K23,37,experiment,96,←,down,↓,1.0299186001066118,False,15
X005K23,38,experiment,180,↓,down,↓,0.8414620000403374,True,15
X005K23,39,experiment,12,→,right,→,0.4836051999591291,True,15
X005K23,40,experiment,132,↓,down,↓,0.7800853000953794,True,15
X005K23,41,experiment,60,→,right,→,0.785714800003916,True,15
X005K23,42,experiment,84,↑,left,←,0.8596277001779526,False,15
X005K23,43,experiment,48,↓,down,↓,0.6826018998399377,True,15
X005K23,44,experiment,72,↓,down,↓,0.73933030012995,True,15
X005K23,45,experiment,120,↑,left,←,1.176042800070718,False,15
X005K23,46,experiment,48,←,left,←,0.9257193000521511,True,15
X005K23,47,experiment,84,↑,down,↓,0.771613199962303,False,15
X005K23,48,experiment,144,↓,down,↓,0.8929774998687208,True,15
X005K23,49,experiment,72,↓,down,↓,0.6825337000191212,True,15
X005K23,50,experiment,156,↑,left,←,0.8640712001360953,False,15
X005K23,51,experiment,156,→,right,→,0.9380167999770492,True,15
X005K23,52,experiment,36,↓,down,↓,1.2586940000765026,True,15
X005K23,53,experiment,96,←,right,→,1.5769286998547614,False,15
X005K23,54,experiment,108,↑,down,↓,1.4594614000525326,False,15
X005K23,55,experiment,24,↓,right,→,1.625916700111702,False,15
X005K23,56,experiment,84,↓,down,↓,0.897614800138399,True,15
X005K23,57,experiment,48,←,right,→,0.9454252999275923,False,15
X005K23,58,experiment,120,←,no_key,no_letter,-1.0,False,15
X005K23,59,experiment,132,←,left,←,0.7520820999052376,True,15
X005K23,60,experiment,168,→,right,→,0.8229036999400705,True,15
X005K23,61,experiment,12,↑,right,→,0.7351213998626918,False,15
X005K23,62,experiment,24,→,left,←,1.3930300001520663,False,15
X005K23,63,experiment,156,↓,down,↓,0.8969486998394132,True,15
X005K23,64,experiment,168,↑,right,→,1.291122900089249,False,15
X005K23,65,experiment,180,←,left,←,0.9678519999142736,True,15
X005K23,66,experiment,96,←,right,→,1.2711814001668245,False,15
X005K23,67,experiment,24,↑,up,↑,1.0991670999210328,True,15
X005K23,68,experiment,120,→,right,→,0.7049155998975039,True,15
X005K23,69,experiment,144,→,right,→,0.6943449999671429,True,15
X005K23,70,experiment,180,↓,down,↓,0.8853404000401497,True,15
X005K23,71,experiment,12,↓,right,→,1.1364128000568599,False,15
X005K23,72,experiment,96,→,right,→,0.6825250999536365,True,15
X005K23,73,experiment,168,↑,up,↑,0.6914270000997931,True,15
X005K23,74,experiment,36,↓,down,↓,0.8704404998570681,True,15
X005K23,75,experiment,120,←,right,→,1.2403856001328677,False,15
X005K23,76,experiment,24,↑,down,↓,0.8316379000898451,False,15
X005K23,77,experiment,180,↓,right,→,0.8042715000919998,False,15
X005K23,78,experiment,60,→,left,←,1.4175553999375552,False,15
X005K23,79,experiment,132,↓,down,↓,0.8153584999963641,True,15
X005K23,80,experiment,72,↑,down,↓,1.0250572001095861,False,15
X005K23,81,experiment,60,→,right,→,0.7353191999718547,True,15
X005K23,82,experiment,84,→,right,→,1.0289443000219762,True,15
X005K23,83,experiment,72,↑,left,←,1.248680700082332,False,15
X005K23,84,experiment,144,↑,up,↑,0.9450516998767853,True,15
X005K23,85,experiment,48,↑,up,↑,0.6863700998947024,True,15
X005K23,86,experiment,60,↑,up,↑,1.6901557000819594,True,15
X005K23,87,experiment,36,→,right,→,0.7510317000560462,True,15
X005K23,88,experiment,156,↑,up,↑,0.8856014001648873,True,15
X005K23,89,experiment,132,←,right,→,0.7952845001127571,False,15
X005K23,90,experiment,108,↓,up,↑,1.6606514998711646,False,15
X005K23,91,experiment,12,→,right,→,1.1939652999863029,True,15
X005K23,92,experiment,168,→,left,←,1.278627400053665,False,15
X005K23,93,experiment,36,↓,down,↓,0.8291073001455516,True,15
X005K23,94,training,180,←,right,→,0.6962990998290479,False,15
X005K23,95,training,12,→,left,←,0.8153218000661582,False,15
X005K23,96,training,144,←,right,→,0.7108038999140263,False,15
X005K23,97,experiment,36,↓,down,↓,0.6708301000762731,True,15
X005K23,98,experiment,84,←,left,←,1.0430602000560611,True,15
X005K23,99,experiment,168,↑,down,↓,0.8113750999327749,False,15
X005K23,100,experiment,60,↑,down,↓,0.96473029977642,False,15
X005K23,101,experiment,36,↑,down,↓,0.9801768998149782,False,15
X005K23,102,experiment,144,↑,down,↓,0.9207862000912428,False,15
X005K23,103,experiment,36,←,left,←,0.8838845000136644,True,15
X005K23,104,experiment,48,→,right,→,0.7335112001746893,True,15
X005K23,105,experiment,156,↓,down,↓,0.7941972000990063,True,15
X005K23,106,experiment,84,↓,down,↓,0.7789415998850018,True,15
X005K23,107,experiment,168,→,down,↓,1.2304970999248326,False,15
X005K23,108,experiment,156,↓,down,↓,0.7135711000300944,True,15
X005K23,109,experiment,180,→,right,→,0.5707388001028448,True,15
X005K23,110,experiment,48,↓,down,↓,0.5514825000427663,True,15
X005K23,111,experiment,60,↓,right,→,1.7840492001269013,False,15
X005K23,112,experiment,156,↓,no_key,no_letter,-1.0,False,15
X005K23,113,experiment,60,↑,up,↑,0.8347461000084877,True,15
X005K23,114,experiment,120,↑,up,↑,0.9916632000822574,True,15
X005K23,115,experiment,36,→,right,→,0.6086718000005931,True,15
X005K23,116,experiment,12,↓,down,↓,0.698164900066331,True,15
X005K23,117,experiment,48,↑,right,→,1.206319299992174,False,15
X005K23,118,experiment,132,←,left,←,1.6647367998957634,True,15
X005K23,119,experiment,132,↓,down,↓,0.9194971001707017,True,15
X005K23,120,experiment,24,↓,down,↓,1.554455199977383,True,15
X005K23,121,experiment,24,↓,up,↑,1.2338718001265079,False,15
X005K23,122,experiment,12,↑,up,↑,1.1392041000071913,True,15
X005K23,123,experiment,72,↓,left,←,1.4746246000286192,False,15
X005K23,124,experiment,180,↓,no_key,no_letter,-1.0,False,15
X005K23,125,experiment,96,↑,right,→,1.8046770999208093,False,15
X005K23,126,experiment,120,→,right,→,0.48148029996082187,True,15
X005K23,127,experiment,180,←,left,←,0.6380634000524879,True,15
X005K23,128,experiment,168,↓,down,↓,0.7928069999907166,True,15
X005K23,129,experiment,108,↑,down,↓,1.1311117000877857,False,15
X005K23,130,experiment,72,↓,down,↓,0.7055321000516415,True,15
X005K23,131,experiment,168,↓,left,←,1.240011699963361,False,15
X005K23,132,experiment,72,↑,down,↓,0.8813918998930603,False,15
X005K23,133,experiment,84,↑,down,↓,0.6932601002044976,False,15
X005K23,134,experiment,12,↓,down,↓,0.6467810999602079,True,15
X005K23,135,experiment,72,→,left,←,0.9755725001450628,False,15
X005K23,136,experiment,96,←,right,→,1.1506067998707294,False,15
X005K23,137,experiment,108,←,left,←,0.7034730999730527,True,15
X005K23,138,experiment,96,→,right,→,0.7456837000790983,True,15
X005K23,139,experiment,144,↓,down,↓,0.850473599974066,True,15
X005K23,140,experiment,84,←,left,←,0.6658495999872684,True,15
X005K23,141,experiment,48,↑,up,↑,1.1472200998105109,True,15
X005K23,142,experiment,132,↓,up,↑,0.9920288999564946,False,15
X005K23,143,experiment,132,↑,no_key,no_letter,-1.0,False,15
X005K23,144,experiment,24,↓,down,↓,0.7845576000399888,True,15
X005K23,145,experiment,24,→,right,→,0.5326006000395864,True,15
X005K23,146,experiment,108,→,right,→,1.08133940002881,True,15
X005K23,147,experiment,180,←,left,←,0.6190633000805974,True,15
X005K23,148,experiment,108,↓,left,←,1.106371199944988,False,15
X005K23,149,experiment,120,→,right,→,0.6840307000093162,True,15
X005K23,150,experiment,12,←,left,←,1.1393875998910517,True,15
X005K23,151,experiment,156,↓,up,↑,1.0962275001220405,False,15
X005K23,152,experiment,60,→,left,←,0.6820025001652539,False,15
X005K23,153,experiment,120,↑,down,↓,0.7412622000556439,False,15
X005K23,154,experiment,144,←,left,←,0.8320848001167178,True,15
X005K23,155,experiment,96,↑,left,←,0.7547837998718023,False,15
X005K23,156,experiment,144,→,right,→,0.6200429000891745,True,15
X005K23,157,training,48,←,right,→,0.719917600043118,False,16
X005K23,158,training,108,↓,left,←,0.9804736999794841,False,16
X005K23,159,training,120,↑,left,←,1.15396250016056,False,16
X005K23,160,experiment,144,→,left,←,1.2462955999653786,False,16
X005K23,161,experiment,60,←,right,→,1.0049389998894185,False,16
X005K23,162,experiment,156,←,right,→,0.5995248998515308,False,16
X005K23,163,experiment,84,↓,up,↑,1.360080200014636,False,16
X005K23,164,experiment,24,→,left,←,1.2514445998240262,False,16
X005K23,165,experiment,36,↑,right,→,1.2842923998832703,False,16
X005K23,166,experiment,180,→,right,→,1.0915076001547277,True,16
X005K23,167,experiment,156,↑,left,←,1.538730800151825,False,16
X005K23,168,experiment,96,↑,up,↑,0.8353723001200706,True,16
X005K23,169,experiment,120,↓,down,↓,0.8745117001235485,True,16
X005K23,170,experiment,72,↓,down,↓,0.9619150999933481,True,16
X005K23,171,experiment,72,↑,down,↓,1.4438067998271435,False,16
X005K23,172,experiment,96,←,right,→,1.0323069000151008,False,16
X005K23,173,experiment,36,→,up,↑,1.2782187000848353,False,16
X005K23,174,experiment,156,↓,down,↓,0.7165622999891639,True,16
X005K23,175,experiment,108,↓,down,↓,0.7591237998567522,True,16
X005K23,176,experiment,48,←,right,→,0.724235099973157,False,16
X005K23,177,experiment,72,→,down,↓,0.9376534000039101,False,16
X005K23,178,experiment,120,←,left,←,0.7670318000018597,True,16
X005K23,179,experiment,144,←,right,→,1.169267199933529,False,16
X005K23,180,experiment,180,↓,right,→,0.7548397001810372,False,16
X005K23,181,experiment,12,←,left,←,0.9031450999900699,True,16
X005K23,182,experiment,96,→,left,←,1.3642585999332368,False,16
X005K23,183,experiment,12,↑,up,↑,0.7582388001028448,True,16
X005K23,184,experiment,108,↑,up,↑,0.7549223999958485,True,16
X005K23,185,experiment,72,↑,up,↑,1.242399699985981,True,16
X005K23,186,experiment,24,↑,up,↑,0.8454384999349713,True,16
X005K23,187,experiment,108,←,right,→,0.6856158999726176,False,16
X005K23,188,experiment,180,↑,up,↑,0.5829892000183463,True,16
X005K23,189,experiment,168,←,left,←,0.950520500075072,True,16
X005K23,190,experiment,108,←,left,←,0.8821823999751359,True,16
X005K23,191,experiment,180,↓,up,↑,1.3322053998708725,False,16
X005K23,192,experiment,96,↓,up,↑,0.6269743000157177,False,16
X005K23,193,experiment,24,↑,up,↑,0.7640446000732481,True,16
X005K23,194,experiment,144,↑,down,↓,1.5264020999893546,False,16
X005K23,195,experiment,168,←,left,←,1.1233024999964982,True,16
X005K23,196,experiment,48,↓,up,↑,0.7044257000088692,False,16
X005K23,197,experiment,168,→,right,→,0.6112144999206066,True,16
X005K23,198,experiment,132,→,left,←,0.6598618999123573,False,16
X005K23,199,experiment,132,↓,left,←,0.8520184000954032,False,16
X005K23,200,experiment,60,↓,left,←,0.5388670999091119,False,16
X005K23,201,experiment,48,↓,right,→,0.9994467999786139,False,16
X005K23,202,experiment,156,←,left,←,0.9729754000436515,True,16
X005K23,203,experiment,12,↓,down,↓,0.9203163001220673,True,16
X005K23,204,experiment,84,←,left,←,1.0106615999247879,True,16
X005K23,205,experiment,132,→,left,←,0.8547030999325216,False,16
X005K23,206,experiment,60,→,right,→,1.0376388998702168,True,16
X005K23,207,experiment,84,↓,down,↓,1.1398630000185221,True,16
X005K23,208,experiment,144,←,right,→,0.749347599921748,False,16
X005K23,209,experiment,60,←,right,→,0.6684880999382585,False,16
X005K23,210,experiment,132,↓,down,↓,0.8105173001531512,True,16
X005K23,211,experiment,36,←,left,←,0.94575299997814,True,16
X005K23,212,experiment,120,↑,down,↓,0.5255111001897603,False,16
X005K23,213,experiment,24,↓,down,↓,0.6627664999105036,True,16
X005K23,214,experiment,120,↑,down,↓,0.8907347000204027,False,16
X005K23,215,experiment,168,↑,up,↑,0.952146700117737,True,16
X005K23,216,experiment,12,→,up,↑,1.1082685999572277,False,16
X005K23,217,experiment,48,↓,down,↓,0.6800671999808401,True,16
X005K23,218,experiment,84,→,right,→,0.649692100007087,True,16
X005K23,219,experiment,36,↓,down,↓,0.6952961999922991,True,16
X005K23,220,training,168,←,left,←,1.1281006000936031,True,17
X005K23,221,training,168,→,right,→,1.0242734998464584,True,17
X005K23,222,training,60,↓,right,→,0.9557640000712126,False,17
X005K23,223,experiment,12,↓,no_key,no_letter,-1.0,False,17
X005K23,224,experiment,144,←,right,→,1.1223037000745535,False,17
X005K23,225,experiment,12,←,left,←,0.7765176000539213,True,17
X005K23,226,experiment,84,↑,left,←,0.7988949997816235,False,17
X005K23,227,experiment,96,↓,down,↓,0.7439894999843091,True,17
X005K23,228,experiment,24,↓,down,↓,0.8846568998415023,True,17
X005K23,229,experiment,156,←,left,←,0.7317347000353038,True,17
X005K23,230,experiment,168,→,left,←,1.426129100145772,False,17
X005K23,231,experiment,144,←,right,→,0.9167317000683397,False,17
X005K23,232,experiment,60,↓,right,→,0.905448199948296,False,17
X005K23,233,experiment,120,↓,down,↓,0.7799559999257326,True,17
X005K23,234,experiment,180,←,left,←,1.295375500107184,True,17
X005K23,235,experiment,132,→,right,→,0.6349473998416215,True,17
X005K23,236,experiment,36,↑,no_key,no_letter,-1.0,False,17
X005K23,237,experiment,108,↓,right,→,0.7991901999339461,False,17
X005K23,238,experiment,60,→,right,→,0.6146128000691533,True,17
X005K23,239,experiment,96,←,left,←,0.6759173998143524,True,17
X005K23,240,experiment,156,→,right,→,0.7160918998997658,True,17
X005K23,241,experiment,72,←,left,←,0.6650165999308228,True,17
X005K23,242,experiment,12,←,left,←,0.6986064999364316,True,17
X005K23,243,experiment,108,↓,down,↓,0.7759420999791473,True,17
X005K23,244,experiment,144,↑,up,↑,0.6760931999888271,True,17
X005K23,245,experiment,132,↓,down,↓,0.7438158998265862,True,17
X005K23,246,experiment,144,→,right,→,0.5516484000254422,True,17
X005K23,247,experiment,96,→,left,←,0.7458536000922322,False,17
X005K23,248,experiment,132,→,right,→,0.5148354999255389,True,17
X005K23,249,experiment,168,→,right,→,0.6123593999072909,True,17
X005K23,250,experiment,180,←,right,→,0.8821532998699695,False,17
X005K23,251,experiment,48,↑,up,↑,0.4905439999420196,True,17
X005K23,252,experiment,120,→,right,→,0.5611976000946015,True,17
X005K23,253,experiment,156,←,right,→,0.6010720999911427,False,17
X005K23,254,experiment,168,↑,up,↑,0.577757699880749,True,17
X005K23,255,experiment,120,←,left,←,0.7129790999460965,True,17
X005K23,256,experiment,60,←,left,←,0.6354152001440525,True,17
X005K23,257,experiment,72,→,right,→,0.6294422999490052,True,17
X005K23,258,experiment,12,←,left,←,0.5428868001326919,True,17
X005K23,259,experiment,24,←,left,←,0.5951369998510927,True,17
X005K23,260,experiment,24,→,left,←,1.0231950001325458,False,17
X005K23,261,experiment,36,↓,up,↑,0.4852535999380052,False,17
X005K23,262,experiment,84,←,right,→,0.8054118000436574,False,17
X005K23,263,experiment,48,→,left,←,0.7729943001177162,False,17
X005K23,264,experiment,180,↑,left,←,1.0203478001058102,False,17
X005K23,265,experiment,96,↑,up,↑,0.6732187999878079,True,17
X005K23,266,experiment,72,→,right,→,0.5923479001503438,True,17
X005K23,267,experiment,24,↑,up,↑,0.5565029000863433,True,17
X005K23,268,experiment,48,←,right,→,0.5698687001131475,False,17
X005K23,269,experiment,36,↓,down,↓,0.7246010999660939,True,17
X005K23,270,experiment,72,←,left,←,0.6296142998617142,True,17
X005K23,271,experiment,84,↑,up,↑,0.4924635998904705,True,17
X005K23,272,experiment,84,→,right,→,0.9848744999617338,True,17
X005K23,273,experiment,156,←,left,←,0.5023501999676228,True,17
X005K23,274,experiment,108,↑,up,↑,0.574484100099653,True,17
X005K23,275,experiment,48,↑,up,↑,0.798450900008902,True,17
X005K23,276,experiment,120,←,left,←,0.5414454999845475,True,17
X005K23,277,experiment,60,→,right,→,0.5604842000175267,True,17
X005K23,278,experiment,180,←,left,←,0.7078637001104653,True,17
X005K23,279,experiment,36,←,left,←,0.6225410997867584,True,17
X005K23,280,experiment,108,→,left,←,1.2167395001742989,False,17
X005K23,281,experiment,132,↑,up,↑,0.45860820007510483,True,17
X005K23,282,experiment,168,↓,down,↓,0.6855923999100924,True,17
X005K23,283,training,48,↓,down,↓,0.6549329000990838,True,17
X005K23,284,training,96,→,right,→,0.41783539997413754,True,17
X005K23,285,training,48,←,no_key,no_letter,-1.0,False,17
X005K23,286,experiment,24,↓,down,↓,0.6904333001002669,True,17
X005K23,287,experiment,60,→,right,→,0.6605378000531346,True,17
X005K23,288,experiment,48,↑,no_key,no_letter,-1.0,False,17
X005K23,289,experiment,120,↓,down,↓,0.6771826997864991,True,17
X005K23,290,experiment,12,↑,up,↑,0.5908844999503344,True,17
X005K23,291,experiment,132,→,no_key,no_letter,-1.0,False,17
X005K23,292,experiment,48,←,left,←,0.708483099937439,True,17
X005K23,293,experiment,24,←,left,←,0.5794740999117494,True,17
X005K23,294,experiment,84,↓,down,↓,0.5171190002001822,True,17
X005K23,295,experiment,156,↑,down,↓,0.960408000042662,False,17
X005K23,296,experiment,144,↓,down,↓,0.7270736999344081,True,17
X005K23,297,experiment,120,↑,up,↑,0.6043858998455107,True,17
X005K23,298,experiment,168,↓,down,↓,0.691940899938345,True,17
X005K23,299,experiment,180,↓,down,↓,0.7162697000894696,True,17
X005K23,300,experiment,72,←,down,↓,0.9655645999591798,False,17
X005K23,301,experiment,24,↑,up,↑,0.9159880999941379,True,17
X005K23,302,experiment,96,→,right,→,0.752363600069657,True,17
X005K23,303,experiment,12,→,right,→,0.7698944001458585,True,17
X005K23,304,experiment,144,↓,down,↓,0.7207418000325561,True,17
X005K23,305,experiment,108,→,left,←,0.7245721998624504,False,17
X005K23,306,experiment,36,↓,down,↓,0.8882463001646101,True,17
X005K23,307,experiment,132,←,left,←,0.8846728999633342,True,17
X005K23,308,experiment,84,↓,down,↓,0.5081166001036763,True,17
X005K23,309,experiment,180,↓,down,↓,0.5398089000955224,True,17
X005K23,310,experiment,168,↑,up,↑,0.7684363999869674,True,17
X005K23,311,experiment,84,→,right,→,0.889620800036937,True,17
X005K23,312,experiment,144,→,right,→,1.5775850999634713,True,17
X005K23,313,experiment,24,→,left,←,0.7669300001580268,False,17
X005K23,314,experiment,72,→,right,→,0.8682314998004586,True,17
X005K23,315,experiment,72,↓,down,↓,0.690651600016281,True,17
X005K23,316,experiment,36,←,left,←,0.6876787000801414,True,17
X005K23,317,experiment,96,←,left,←,1.2379936000797898,True,17
X005K23,318,experiment,12,↓,down,↓,0.8137777000665665,True,17
X005K23,319,experiment,156,↑,up,↑,0.7270025999750942,True,17
X005K23,320,experiment,156,↓,down,↓,0.7164392000995576,True,17
X005K23,321,experiment,60,→,left,←,0.7434501999523491,False,17
X005K23,322,experiment,108,↑,up,↑,0.6607085999567062,True,17
X005K23,323,experiment,96,←,left,←,0.5949200999457389,True,17
X005K23,324,experiment,36,↑,up,↑,0.41705749998800457,True,17
X005K23,325,experiment,168,←,left,←,0.6984522000420839,True,17
X005K23,326,experiment,12,←,left,←,0.5754180999938399,True,17
X005K23,327,experiment,132,↓,down,↓,0.6923760001081973,True,17
X005K23,328,experiment,48,↓,down,↓,0.7714270001742989,True,17
X005K23,329,experiment,84,←,left,←,0.649583299877122,True,17
X005K23,330,experiment,168,↓,down,↓,0.6439936999231577,True,17
X005K23,331,experiment,108,↓,down,↓,0.7284637000411749,True,17
X005K23,332,experiment,180,→,down,↓,0.6851180999074131,False,17
X005K23,333,experiment,60,←,left,←,0.4876784000080079,True,17
X005K23,334,experiment,36,←,left,←,0.48648019996471703,True,17
X005K23,335,experiment,96,←,left,←,0.707048799842596,True,17
X005K23,336,experiment,144,↑,down,↓,0.5863313002046198,False,17
X005K23,337,experiment,120,↓,down,↓,0.5883222999982536,True,17
X005K23,338,experiment,108,←,left,←,0.5798587999306619,True,17
X005K23,339,experiment,48,←,left,←,0.562839400023222,True,17
X005K23,340,experiment,60,↓,down,↓,0.6565555001143366,True,17
X005K23,341,experiment,156,←,no_key,no_letter,-1.0,False,17
X005K23,342,experiment,72,→,right,→,0.6865097000263631,True,17
X005K23,343,experiment,132,←,left,←,0.5563778998330235,True,17
X005K23,344,experiment,120,←,left,←,0.5201924999710172,True,17
X005K23,345,experiment,180,↑,down,↓,0.531296500004828,False,17
X005K23,346,training,48,↑,right,→,0.5974614999722689,False,17
X005K23,347,training,96,←,left,←,0.4829555000178516,True,17
X005K23,348,training,120,↑,up,↑,0.7944050000514835,True,17
X005K23,349,experiment,84,↑,up,↑,0.5118208001367748,True,17
X005K23,350,experiment,180,↑,up,↑,0.4767999001778662,True,17
X005K23,351,experiment,12,←,left,←,0.49645940004847944,True,17
X005K23,352,experiment,36,↓,down,↓,0.8571546000894159,True,17
X005K23,353,experiment,84,↓,up,↑,0.9132467000745237,False,17
X005K23,354,experiment,120,→,right,→,0.5884161998983473,True,17
X005K23,355,experiment,12,→,right,→,0.6087249000556767,True,17
X005K23,356,experiment,72,←,left,←,0.6297263999003917,True,17
X005K23,357,experiment,156,↓,right,→,1.0174858001992106,False,17
X005K23,358,experiment,48,↓,right,→,0.7523970000911504,False,17
X005K23,359,experiment,24,→,right,→,0.5323178998660296,True,17
X005K23,360,experiment,60,↓,right,→,0.7644288998562843,False,17
X005K23,361,experiment,24,→,right,→,0.9372442997992039,True,17
X005K23,362,experiment,108,→,right,→,0.7334494001697749,True,17
X005K23,363,experiment,168,→,right,→,0.5936525999568403,True,17
X005K23,364,experiment,108,↑,right,→,0.7823051998857409,False,17
X005K23,365,experiment,180,→,right,→,0.9709793999791145,True,17
X005K23,366,experiment,108,←,left,←,0.6182279998902231,True,17
X005K23,367,experiment,168,↓,down,↓,0.6441019000485539,True,17
X005K23,368,experiment,132,↓,down,↓,0.7595620001666248,True,17
X005K23,369,experiment,180,←,left,←,0.5205274999607354,True,17
X005K23,370,experiment,120,→,right,→,0.7064541999716312,True,17
X005K23,371,experiment,60,↓,down,↓,0.6270059999078512,True,17
X005K23,372,experiment,144,↑,up,↑,0.7029679999686778,True,17
X005K23,373,experiment,72,→,right,→,0.7472234000451863,True,17
X005K23,374,experiment,156,↑,up,↑,0.7206836000550538,True,17
X005K23,375,experiment,144,↑,up,↑,0.48087799991481006,True,17
X005K23,376,experiment,132,←,left,←,0.704802299849689,True,17
X005K23,377,experiment,72,↑,up,↑,0.5187417999841273,True,17
X005K23,378,experiment,108,↑,up,↑,0.608736600028351,True,17
X005K23,379,experiment,60,↓,down,↓,0.7550824999343604,True,17
X005K23,380,experiment,48,↓,down,↓,0.49857359984889627,True,17
X005K23,381,experiment,84,↑,up,↑,0.6615057000890374,True,17
X005K23,382,experiment,96,←,right,→,0.9059416998643428,False,17
X005K23,383,experiment,12,←,left,←,0.6585715999826789,True,17
X005K23,384,experiment,168,←,left,←,1.202070500003174,True,17
X005K23,385,experiment,156,→,right,→,0.8211294000502676,True,17
X005K23,386,experiment,84,↓,left,←,0.9847834000829607,False,17
X005K23,387,experiment,144,↓,down,↓,0.6980508000124246,True,17
X005K23,388,experiment,36,↓,down,↓,0.6404861998744309,True,17
X005K23,389,experiment,168,↓,down,↓,1.2982326000928879,True,17
X005K23,390,experiment,24,↑,right,→,1.1945164001081139,False,17
X005K23,391,experiment,132,↑,up,↑,0.7345592998899519,True,17
X005K23,392,experiment,144,→,right,→,0.5543468000832945,True,17
X005K23,393,experiment,72,←,left,←,0.47078699991106987,True,17
X005K23,394,experiment,48,←,left,←,0.6261842001695186,True,17
X005K23,395,experiment,96,↑,up,↑,0.6809408001136035,True,17
X005K23,396,experiment,120,←,left,←,0.5872083001304418,True,17
X005K23,397,experiment,96,←,left,←,0.7104674000293016,True,17
X005K23,398,experiment,12,↓,down,↓,0.6694584998767823,True,17
X005K23,399,experiment,96,→,right,→,0.7324282000772655,True,17
X005K23,400,experiment,180,↑,up,↑,0.7096549000125378,True,17
X005K23,401,experiment,36,→,right,→,1.0743925999850035,True,17
X005K23,402,experiment,156,←,right,→,1.1633767001330853,False,17
X005K23,403,experiment,120,→,right,→,0.6862847998272628,True,17
X005K23,404,experiment,24,←,right,→,0.4943184000439942,False,17
X005K23,405,experiment,132,↑,up,↑,0.7562637999653816,True,17
X005K23,406,experiment,48,↑,up,↑,0.5167138997931033,True,17
X005K23,407,experiment,60,←,up,↑,0.8167548000346869,False,17
X005K23,408,experiment,36,←,up,↑,0.8147905000951141,False,17
X005K23,409,training,180,↓,up,↑,0.7168235999997705,False,17
X005K23,410,training,120,↓,down,↓,0.7763855999801308,True,17
X005K23,411,training,132,↑,up,↑,0.5742591000162065,True,17
X005K23,412,experiment,60,→,right,→,0.6908262998331338,True,17
X005K23,413,experiment,144,↑,up,↑,0.47356549999676645,True,17
X005K23,414,experiment,168,↓,down,↓,0.6715720999054611,True,17
X005K23,415,experiment,120,←,left,←,0.631121400045231,True,17
X005K23,416,experiment,180,→,left,←,0.7467994000762701,False,17
X005K23,417,experiment,108,↑,up,↑,0.650583399925381,True,17
X005K23,418,experiment,120,→,right,→,0.6742171999067068,True,17
X005K23,419,experiment,156,→,left,←,0.7204154999926686,False,17
X005K23,420,experiment,120,→,right,→,0.501912800129503,True,17
X005K23,421,experiment,120,←,left,←,0.6026274999603629,True,17
X005K23,422,experiment,84,←,left,←,0.49067379999905825,True,17
X005K23,423,experiment,132,↑,left,←,0.6983928000554442,False,17
X005K23,424,experiment,108,←,left,←,1.513243799796328,True,17
X005K23,425,experiment,72,↑,left,←,0.8034358001314104,False,17
X005K23,426,experiment,36,↓,down,↓,0.6622291998937726,True,17
X005K23,427,experiment,96,→,right,→,0.614656199933961,True,17
X005K23,428,experiment,60,→,no_key,no_letter,-1.0,False,17
X005K23,429,experiment,144,←,left,←,0.6622359999455512,True,17
X005K23,430,experiment,132,↑,up,↑,0.621341799851507,True,17
X005K23,431,experiment,156,→,right,→,0.677901899907738,True,17
X005K23,432,experiment,168,→,right,→,0.8259905998129398,True,17
X005K23,433,experiment,84,←,right,→,1.084523599827662,False,17
X005K23,434,experiment,48,→,right,→,0.6225309998262674,True,17
X005K23,435,experiment,180,←,left,←,0.8180388000328094,True,17
X005K23,436,experiment,24,↓,down,↓,0.7438407998997718,True,17
X005K23,437,experiment,48,←,down,↓,0.8886059999931604,False,17
X005K23,438,experiment,84,↑,up,↑,0.5877088999841362,True,17
X005K23,439,experiment,168,→,right,→,0.7031934000551701,True,17
X005K23,440,experiment,156,↑,no_key,no_letter,-1.0,False,17
X005K23,441,experiment,132,←,left,←,0.6892377000767738,True,17
X005K23,442,experiment,156,↓,down,↓,1.2710850001312792,True,17
X005K23,443,experiment,12,←,left,←,0.7217537998221815,True,17
X005K23,444,experiment,108,↑,up,↑,0.5121913000475615,True,17
X005K23,445,experiment,12,↓,up,↑,0.416941000148654,False,17
X005K23,446,experiment,12,↓,down,↓,0.7009355002082884,True,17
X005K23,447,experiment,96,→,left,←,0.7497101000044495,False,17
X005K23,448,experiment,132,↓,down,↓,1.1849591999780387,True,17
X005K23,449,experiment,36,→,right,→,0.588739899918437,True,17
X005K23,450,experiment,60,↓,down,↓,0.620032100006938,True,17
X005K23,451,experiment,48,←,left,←,0.529755299910903,True,17
X005K23,452,experiment,24,→,left,←,0.7064095998648554,False,17
X005K23,453,experiment,180,→,left,←,0.6911702000070363,False,17
X005K23,454,experiment,180,↓,down,↓,0.6819442000705749,True,17
X005K23,455,experiment,24,→,right,→,0.5017448000144213,True,17
X005K23,456,experiment,72,←,left,←,0.6417146001476794,True,17
X005K23,457,experiment,168,↑,up,↑,0.8602144999895245,True,17
X005K23,458,experiment,24,→,right,→,0.7228850999381393,True,17
X005K23,459,experiment,144,←,left,←,0.6229745000600815,True,17
X005K23,460,experiment,144,→,right,→,0.6589594997931272,True,17
X005K23,461,experiment,84,→,right,→,0.4570006001740694,True,17
X005K23,462,experiment,96,↑,up,↑,0.6471432000398636,True,17
X005K23,463,experiment,72,←,left,←,0.623323799809441,True,17
X005K23,464,experiment,12,→,left,←,0.5182303998153657,False,17
X005K23,465,experiment,72,↓,down,↓,0.7554905998986214,True,17
X005K23,466,experiment,36,←,no_key,no_letter,-1.0,False,17
X005K23,467,experiment,48,↑,up,↑,0.6748385999817401,True,17
X005K23,468,experiment,60,↓,down,↓,0.7295848000794649,True,17
X005K23,469,experiment,96,↑,up,↑,0.6377991999033839,True,17
X005K23,470,experiment,108,←,left,←,0.5535658998414874,True,17
X005K23,471,experiment,36,↓,down,↓,0.5770429000258446,True,17
X005K23,472,training,60,↑,up,↑,0.5821664000395685,True,17
X005K23,473,training,108,←,left,←,0.6208638998214155,True,17
X005K23,474,training,180,←,right,→,0.6094965999945998,False,17
X005K23,475,experiment,36,↓,down,↓,0.7129184999503195,True,17
X005K23,476,experiment,72,→,right,→,0.6084855999797583,True,17
X005K23,477,experiment,144,↑,down,↓,0.6335227999370545,False,17
X005K23,478,experiment,168,↑,up,↑,0.5969837000593543,True,17
X005K23,479,experiment,168,↑,up,↑,0.48916300013661385,True,17
X005K23,480,experiment,60,←,up,↑,0.7897276000585407,False,17
X005K23,481,experiment,24,↑,up,↑,0.5801277998834848,True,17
X005K23,482,experiment,120,↓,down,↓,0.7535943000111729,True,17
X005K23,483,experiment,48,↑,up,↑,0.5112073000054806,True,17
X005K23,484,experiment,48,↓,down,↓,0.6600998998619616,True,17
X005K23,485,experiment,60,↓,down,↓,0.6658648999873549,True,17
X005K23,486,experiment,120,→,right,→,0.7322994999121875,True,17
X005K23,487,experiment,48,←,left,←,0.5088985001202673,True,17
X005K23,488,experiment,60,↓,down,↓,0.7161654999945313,True,17
X005K23,489,experiment,96,↓,down,↓,0.5298196999356151,True,17
X005K23,490,experiment,84,←,left,←,0.6610173999797553,True,17
X005K23,491,experiment,96,↓,down,↓,0.5754649001173675,True,17
X005K23,492,experiment,132,→,right,→,0.5625998999457806,True,17
X005K23,493,experiment,60,↑,down,↓,0.5322465999051929,False,17
X005K23,494,experiment,12,↑,down,↓,0.6102447998709977,False,17
X005K23,495,experiment,48,→,right,→,0.5070877000689507,True,17
X005K23,496,experiment,156,↑,right,→,0.7735377999488264,False,17
X005K23,497,experiment,144,←,left,←,0.6300484999082983,True,17
X005K23,498,experiment,36,↑,up,↑,0.6882309999782592,True,17
X005K23,499,experiment,120,←,left,←,0.7066508000716567,True,17
X005K23,500,experiment,96,↓,down,↓,0.6567035000771284,True,17
X005K23,501,experiment,84,→,right,→,0.7360423998907208,True,17
X005K23,502,experiment,24,←,left,←,0.5795340000186116,True,17
X005K23,503,experiment,132,←,left,←,0.6014870000071824,True,17
X005K23,504,experiment,72,←,left,←,0.7193343001417816,True,17
X005K23,505,experiment,96,↓,down,↓,0.7942739999853075,True,17
X005K23,506,experiment,108,↑,up,↑,0.5959270999301225,True,17
X005K23,507,experiment,108,↓,down,↓,0.7459197998978198,True,17
X005K23,508,experiment,36,↑,up,↑,0.618561000097543,True,17
X005K23,509,experiment,144,↓,down,↓,0.9979384001344442,True,17
X005K23,510,experiment,156,↑,up,↑,0.8143509000074118,True,17
X005K23,511,experiment,12,←,up,↑,0.7540961999911815,False,17
X005K23,512,experiment,180,←,left,←,0.538187500089407,True,17
X005K23,513,experiment,156,↓,down,↓,0.6662212999071926,True,17
X005K23,514,experiment,108,←,left,←,0.4005861999467015,True,17
X005K23,515,experiment,180,→,right,→,0.6096350001171231,True,17
X005K23,516,experiment,84,↓,down,↓,0.5092988999094814,True,17
X005K23,517,experiment,24,↑,no_key,no_letter,-1.0,False,17
X005K23,518,experiment,84,←,right,→,0.8112308999989182,False,17
X005K23,519,experiment,24,→,right,→,0.4709491999819875,True,17
X005K23,520,experiment,72,→,right,→,0.5862355001736432,True,17
X005K23,521,experiment,12,↑,right,→,0.8012619998771697,False,17
X005K23,522,experiment,12,←,right,→,0.7522140999790281,False,17
X005K23,523,experiment,72,←,left,←,0.5932006000075489,True,17
X005K23,524,experiment,156,←,right,→,0.6582182999700308,False,17
X005K23,525,experiment,168,↓,down,↓,1.2967327001970261,True,17
X005K23,526,experiment,132,→,right,→,0.704100799979642,True,17
X005K23,527,experiment,168,←,left,←,0.6997714000754058,True,17
X005K23,528,experiment,120,→,right,→,0.6684085000306368,True,17
X005K23,529,experiment,108,↑,up,↑,0.6565118001308292,True,17
X005K23,530,experiment,144,↑,up,↑,0.6894046999514103,True,17
X005K23,531,experiment,132,↑,up,↑,0.5961720999330282,True,17
X005K23,532,experiment,180,↑,up,↑,0.5344978999346495,True,17
X005K23,533,experiment,36,→,right,→,0.47699439991265535,True,17
X005K23,534,experiment,180,→,right,→,0.46452479995787144,True,17
X005K23,535,training,156,↓,down,↓,0.6265772001352161,True,17
X005K23,536,training,72,↓,down,↓,0.6070505999960005,True,17
X005K23,537,training,156,→,right,→,0.4867205999325961,True,17
X005K23,538,experiment,36,↑,up,↑,0.5736070000566542,True,17
X005K23,539,experiment,84,↓,no_key,no_letter,-1.0,False,17
X005K23,540,experiment,72,→,right,→,0.5916422000154853,True,17
X005K23,541,experiment,168,←,left,←,0.7326666999142617,True,17
X005K23,542,experiment,72,→,right,→,0.5150297998916358,True,17
X005K23,543,experiment,24,↑,up,↑,0.8049230999313295,True,17
X005K23,544,experiment,60,↓,down,↓,0.6559909000061452,True,17
X005K23,545,experiment,180,↑,up,↑,0.4663126999512315,True,17
X005K23,546,experiment,60,↓,down,↓,0.7344478000886738,True,17
X005K23,547,experiment,132,↓,down,↓,0.5733596000354737,True,17
X005K23,548,experiment,156,↓,down,↓,0.7803688000421971,True,17
X005K23,549,experiment,144,↓,down,↓,0.8665572998579592,True,17
X005K23,550,experiment,12,↓,down,↓,1.469259199919179,True,17
X005K23,551,experiment,120,←,left,←,0.7090684999711812,True,17
X005K23,552,experiment,36,↑,up,↑,0.7276068001519889,True,17
X005K23,553,experiment,24,↓,down,↓,0.6246392999310046,True,17
X005K23,554,experiment,132,↑,down,↓,1.0384104999247938,False,17
X005K23,555,experiment,120,→,right,→,0.4854959000367671,True,17
X005K23,556,experiment,156,↓,down,↓,0.5571269998326898,True,17
X005K23,557,experiment,72,↓,down,↓,0.5264341000001878,True,17
X005K23,558,experiment,108,←,left,←,0.6829073000699282,True,17
X005K23,559,experiment,168,↑,no_key,no_letter,-1.0,False,17
X005K23,560,experiment,180,↓,down,↓,0.5766046999488026,True,17
X005K23,561,experiment,132,↓,down,↓,0.48463979992084205,True,17
X005K23,562,experiment,156,→,right,→,0.6590122999623418,True,17
X005K23,563,experiment,24,←,left,←,0.7220744998194277,True,17
X005K23,564,experiment,120,↑,up,↑,0.6897395998239517,True,17
X005K23,565,experiment,48,↓,down,↓,0.490765199996531,True,17
X005K23,566,experiment,96,↓,down,↓,0.5692159000318497,True,17
X005K23,567,experiment,144,↑,up,↑,0.7135324999690056,True,17
X005K23,568,experiment,60,↑,down,↓,0.6928873001597822,False,17
X005K23,569,experiment,108,←,left,←,0.7443752000108361,True,17
X005K23,570,experiment,84,←,left,←,0.668189899995923,True,17
X005K23,571,experiment,36,←,left,←,0.6905328999273479,True,17
X005K23,572,experiment,96,↑,up,↑,0.6300910001154989,True,17
X005K23,573,experiment,144,←,left,←,0.7221015999093652,True,17
X005K23,574,experiment,96,←,left,←,0.5812812000513077,True,17
X005K23,575,experiment,12,←,left,←,0.5797802999150008,True,17
X005K23,576,experiment,180,↓,down,↓,0.6365070999599993,True,17
X005K23,577,experiment,60,↑,up,↑,0.5545051000081003,True,17
X005K23,578,experiment,48,←,left,←,0.6862790000159293,True,17
X005K23,579,experiment,108,↓,left,←,0.611043400131166,False,17
X005K23,580,experiment,36,↓,down,↓,0.6378748000133783,True,17
X005K23,581,experiment,96,→,right,→,0.6192942999769002,True,17
X005K23,582,experiment,180,←,left,←,0.45528230001218617,True,17
X005K23,583,experiment,108,↑,up,↑,0.6626530999783427,True,17
X005K23,584,experiment,144,↑,up,↑,0.598986400058493,True,17
X005K23,585,experiment,84,←,right,→,0.4643898999784142,False,17
X005K23,586,experiment,72,←,left,←,0.6614955000113696,True,17
X005K23,587,experiment,120,↓,down,↓,0.6894283997826278,True,17
X005K23,588,experiment,132,→,down,↓,0.8195470999926329,False,17
X005K23,589,experiment,168,←,left,←,0.7614674000069499,True,17
X005K23,590,experiment,48,↑,left,←,0.6081513001117855,False,17
X005K23,591,experiment,12,↓,left,←,0.655254099983722,False,17
X005K23,592,experiment,48,→,left,←,0.6964793000370264,False,17
X005K23,593,experiment,84,↑,left,←,1.4284061000216752,False,17
X005K23,594,experiment,156,←,left,←,0.6275487998500466,True,17
X005K23,595,experiment,168,←,left,←,0.48973209992982447,True,17
X005K23,596,experiment,12,↑,left,←,0.6803947000298649,False,17
X005K23,597,experiment,24,↓,left,←,0.6871048000175506,False,17
X005K23,598,training,84,→,right,→,0.5129771998617798,True,17
X005K23,599,training,84,←,no_key,no_letter,-1.0,False,17
X005K23,600,training,36,→,left,←,0.4170699000824243,False,17
X005K23,601,experiment,132,←,left,←,0.5659381998702884,True,17
X005K23,602,experiment,144,↓,down,↓,0.7364459000527859,True,17
X005K23,603,experiment,48,↓,down,↓,0.8000719000119716,True,17
X005K23,604,experiment,96,→,right,→,0.7506840000860393,True,17
X005K23,605,experiment,144,←,left,←,0.6621296999510378,True,17
X005K23,606,experiment,132,←,left,←,0.6137109999544919,True,17
X005K23,607,experiment,168,↓,left,←,0.8342959999572486,False,17
X005K23,608,experiment,24,→,left,←,0.6019236999563873,False,17
X005K23,609,experiment,84,↓,left,←,0.6842251000925899,False,17
X005K23,610,experiment,108,↑,left,←,0.7444151998497546,False,17
X005K23,611,experiment,96,↓,down,↓,0.677673100028187,True,17
X005K23,612,experiment,120,↑,left,←,1.073983500013128,False,17
X005K23,613,experiment,96,↓,down,↓,0.7745906999334693,True,17
X005K23,614,experiment,108,↓,down,↓,0.6768006000202149,True,17
X005K23,615,experiment,12,↑,down,↓,0.7464650000911206,False,17
X005K23,616,experiment,48,←,down,↓,0.6816676999442279,False,17
X005K23,617,experiment,168,→,right,→,0.614150800043717,True,17
X005K23,618,experiment,96,↑,up,↑,0.5472583000082523,True,17
X005K23,619,experiment,36,↓,down,↓,0.5741051998920739,True,17
X005K23,620,experiment,180,→,right,→,1.0233336000237614,True,17
X005K23,621,experiment,120,→,right,→,0.9860467000398785,True,17
X005K23,622,experiment,12,→,right,→,1.1549490001052618,True,17
X005K23,623,experiment,48,←,left,←,0.5490429999772459,True,17
X005K23,624,experiment,84,↓,up,↑,1.0119256998877972,False,17
X005K23,625,experiment,144,←,left,←,0.4818968998733908,True,17
X005K23,626,experiment,168,→,right,→,0.6165442999918014,True,17
X005K23,627,experiment,120,↑,up,↑,0.6918166999239475,True,17
X005K23,628,experiment,168,←,left,←,0.5698927000630647,True,17
X005K23,629,experiment,108,→,right,→,0.9016672000288963,True,17
X005K23,630,experiment,180,↑,up,↑,0.5747777000069618,True,17
X005K23,631,experiment,36,→,right,→,0.4895597998984158,True,17
X005K23,632,experiment,84,↑,up,↑,0.5444458001293242,True,17
X005K23,633,experiment,180,→,right,→,0.6653656999114901,True,17
X005K23,634,experiment,108,→,left,←,0.6668124999850988,False,17
X005K23,635,experiment,144,←,left,←,0.5284348998684436,True,17
X005K23,636,experiment,156,↓,down,↓,0.7053545999806374,True,17
X005K23,637,experiment,132,←,left,←,0.5425609000958502,True,17
X005K23,638,experiment,84,↓,down,↓,0.841505799908191,True,17
X005K23,639,experiment,24,←,right,→,0.5112197999842465,False,17
X005K23,640,experiment,48,↑,up,↑,0.7257619998417795,True,17
X005K23,641,experiment,36,←,left,←,0.6462316999677569,True,17
X005K23,642,experiment,12,←,left,←,0.4546008000615984,True,17
X005K23,643,experiment,120,↓,down,↓,0.5762788001447916,True,17
X005K23,644,experiment,72,↑,up,↑,0.778447300195694,True,17
X005K23,645,experiment,60,↑,no_key,no_letter,-1.0,False,17
X005K23,646,experiment,72,←,left,←,0.5915264000650495,True,17
X005K23,647,experiment,72,←,left,←,0.36691900016739964,True,17
X005K23,648,experiment,36,↑,up,↑,0.4688703001011163,True,17
X005K23,649,experiment,156,↓,down,↓,0.8925598999485373,True,17
X005K23,650,experiment,156,←,left,←,0.564896099967882,True,17
X005K23,651,experiment,60,←,no_key,no_letter,-1.0,False,17
X005K23,652,experiment,132,→,right,→,0.7381219000089914,True,17
X005K23,653,experiment,72,↓,up,↑,0.7589932000264525,False,17
X005K23,654,experiment,156,←,left,←,0.7054389000404626,True,17
X005K23,655,experiment,60,←,left,←,0.6567662998568267,True,17
X005K23,656,experiment,180,→,right,→,0.6405837999191135,True,17
X005K23,657,experiment,12,→,right,→,0.6331394999288023,True,17
X005K23,658,experiment,24,↓,down,↓,0.5825430999975652,True,17
X005K23,659,experiment,24,←,left,←,0.7474692999385297,True,17
X005K23,660,experiment,60,↓,down,↓,0.9051460998598486,True,17
X005K23,661,training,36,↑,up,↑,0.5887223999015987,True,17
X005K23,662,training,60,↓,up,↑,0.483655400108546,False,17
X005K23,663,training,168,↑,left,←,0.9710566999856383,False,17
X005K23,664,experiment,168,→,right,→,0.5960021000355482,True,17
X005K23,665,experiment,156,→,right,→,0.717242700047791,True,17
X005K23,666,experiment,60,→,right,→,0.5253107999451458,True,17
X005K23,667,experiment,180,↑,up,↑,0.6390775998588651,True,17
X005K23,668,experiment,132,↓,down,↓,0.7325625000521541,True,17
X005K23,669,experiment,24,←,left,←,0.5073559999000281,True,17
X005K23,670,experiment,96,↓,down,↓,0.6802064999938011,True,17
X005K23,671,experiment,120,←,left,←,0.6413837000727654,True,17
X005K23,672,experiment,72,→,right,→,1.1875466001220047,True,17
X005K23,673,experiment,168,→,right,→,0.6095357998274267,True,17
X005K23,674,experiment,156,↓,down,↓,0.6550755000207573,True,17
X005K23,675,experiment,72,→,right,→,0.7111542001366615,True,17
X005K23,676,experiment,24,↓,right,→,0.9878752001095563,False,17
X005K23,677,experiment,84,←,left,←,0.6254803000483662,True,17
X005K23,678,experiment,84,←,left,←,0.5965537999290973,True,17
X005K23,679,experiment,108,↓,down,↓,0.7115319001022726,True,17
X005K23,680,experiment,72,↓,down,↓,0.5014355001039803,True,17
X005K23,681,experiment,36,→,right,→,0.6050946000032127,True,17
X005K23,682,experiment,168,→,no_key,no_letter,-1.0,False,17
X005K23,683,experiment,120,→,right,→,0.7895551000256091,True,17
X005K23,684,experiment,12,←,right,→,0.6907742999028414,False,17
X005K23,685,experiment,60,↓,no_key,no_letter,-1.0,False,17
X005K23,686,experiment,132,↓,down,↓,0.5720919000450522,True,17
X005K23,687,experiment,180,↓,down,↓,0.6888276999816298,True,17
X005K23,688,experiment,36,↑,down,↓,0.7477652002125978,False,17
X005K23,689,experiment,12,↑,down,↓,0.5080877000000328,False,17
X005K23,690,experiment,12,←,left,←,0.40039369999431074,True,17
X005K23,691,experiment,48,→,right,→,0.5926635998766869,True,17
X005K23,692,experiment,24,↓,down,↓,1.080249800113961,True,17
X005K23,693,experiment,168,↑,up,↑,0.6325088001322001,True,17
X005K23,694,experiment,144,←,left,←,0.38384019979275763,True,17
X005K23,695,experiment,24,←,right,→,0.4538801000453532,False,17
X005K23,696,experiment,48,↑,up,↑,0.5605357000604272,True,17
X005K23,697,experiment,96,←,left,←,0.502507499884814,True,17
X005K23,698,experiment,144,→,right,→,0.9231215000618249,True,17
X005K23,699,experiment,120,→,right,→,0.6002881000749767,True,17
X005K23,700,experiment,180,↑,up,↑,0.5703729998786002,True,17
X005K23,701,experiment,156,←,left,←,0.529110100120306,True,17
X005K23,702,experiment,108,←,left,←,0.6525050001218915,True,17
X005K23,703,experiment,120,↑,up,↑,0.5874998001381755,True,17
X005K23,704,experiment,60,↓,down,↓,0.5545862000435591,True,17
X005K23,705,experiment,144,←,left,←,0.7418995001353323,True,17
X005K23,706,experiment,96,↓,down,↓,0.572043800028041,True,17
X005K23,707,experiment,144,←,left,←,0.7772212999407202,True,17
X005K23,708,experiment,132,←,left,←,0.6387344000395387,True,17
X005K23,709,experiment,108,↓,up,↑,0.603437399957329,False,17
X005K23,710,experiment,180,←,left,←,0.533557599876076,True,17
X005K23,711,experiment,72,↓,right,→,0.8369479000102729,False,17
X005K23,712,experiment,12,↓,right,→,0.7196539000142366,False,17
X005K23,713,experiment,156,↓,down,↓,0.6474037000443786,True,17
X005K23,714,experiment,96,↑,up,↑,0.6116090000141412,True,17
X005K23,715,experiment,36,→,right,→,0.47137479996308684,True,17
X005K23,716,experiment,84,←,left,←,0.6258174001704901,True,17
X005K23,717,experiment,36,↓,right,→,0.8503460998181254,False,17
X005K23,718,experiment,48,→,right,→,0.561942599946633,True,17
X005K23,719,experiment,132,↓,down,↓,0.7616202000062913,True,17
X005K23,720,experiment,84,↓,up,↑,0.8071976001374424,False,17
X005K23,721,experiment,48,→,right,→,0.8072174999397248,True,17
X005K23,722,experiment,108,→,right,→,0.5929698999971151,True,17
X005K23,723,experiment,60,↑,up,↑,0.5682894000783563,True,17
X005K23,724,training,36,↓,down,↓,0.6533216999378055,True,17
X005K23,725,training,12,→,right,→,0.6278067999519408,True,17
X005K23,726,training,84,↓,left,←,0.5699430999811739,False,17
X005K23,727,experiment,156,←,left,←,0.4170037000440061,True,17
X005K23,728,experiment,24,↓,down,↓,0.5757502999622375,True,17
X005K23,729,experiment,156,→,right,→,0.5148747998755425,True,17
X005K23,730,experiment,144,↑,up,↑,0.7957170000299811,True,17
X005K23,731,experiment,60,↓,right,→,0.6702974000945687,False,17
X005K23,732,experiment,36,↑,up,↑,0.6413269001059234,True,17
X005K23,733,experiment,144,↓,down,↓,0.7143411000724882,True,17
X005K23,734,experiment,96,↓,down,↓,0.6570902999956161,True,17
X005K23,735,experiment,24,↓,down,↓,0.6311227001715451,True,17
X005K23,736,experiment,120,↑,down,↓,0.5271069000009447,False,17
X005K23,737,experiment,120,→,down,↓,0.535690899938345,False,17
X005K23,738,experiment,132,↓,right,→,0.7948256998788565,False,17
X005K23,739,experiment,84,↑,up,↑,0.8080876001622528,True,17
X005K23,740,experiment,12,→,right,→,0.6732113000471145,True,17
X005K23,741,experiment,72,←,left,←,0.6062743000220507,True,17
X005K23,742,experiment,180,↑,up,↑,0.515326299937442,True,17
X005K23,743,experiment,72,↓,down,↓,0.7096841000020504,True,17
X005K23,744,experiment,84,→,down,↓,1.1483045001514256,False,17
X005K23,745,experiment,180,↓,down,↓,0.6992938001640141,True,17
X005K23,746,experiment,48,↑,up,↑,0.8520176000893116,True,17
X005K23,747,experiment,168,↓,down,↓,0.7855554001871496,True,17
X005K23,748,experiment,72,←,left,←,0.8719838000833988,True,17
X005K23,749,experiment,12,→,right,→,0.603489900007844,True,17
X005K23,750,experiment,36,↑,up,↑,0.6788633000105619,True,17
X005K23,751,experiment,168,↓,down,↓,0.671220799908042,True,17
X005K23,752,experiment,108,←,left,←,0.6976353998761624,True,17
X005K23,753,experiment,60,→,right,→,0.6542385998181999,True,17
X005K23,754,experiment,12,←,no_key,no_letter,-1.0,False,17
X005K23,755,experiment,96,↑,up,↑,0.7531323998700827,True,17
X005K23,756,experiment,36,→,right,→,0.5697260000742972,True,17
X005K23,757,experiment,24,↑,up,↑,0.4899124000221491,True,17
X005K23,758,experiment,156,↓,down,↓,0.617124899988994,True,17
X005K23,759,experiment,108,↓,down,↓,0.6137216000352055,True,17
X005K23,760,experiment,168,←,left,←,0.9970688000321388,True,17
X005K23,761,experiment,120,←,left,←,0.6115194000303745,True,17
X005K23,762,experiment,156,→,right,→,0.581141599919647,True,17
X005K23,763,experiment,180,→,left,←,0.6162610000465065,False,17
X005K23,764,experiment,12,↑,right,→,1.2145827000495046,False,17
X005K23,765,experiment,84,↓,down,↓,0.5721322998870164,True,17
X005K23,766,experiment,132,↑,up,↑,0.5758866998367012,True,17
X005K23,767,experiment,96,↑,up,↑,0.46602819999679923,True,17
X005K23,768,experiment,48,→,right,→,0.5951494998298585,True,17
X005K23,769,experiment,96,↑,up,↑,0.6517815999686718,True,17
X005K23,770,experiment,48,↓,down,↓,0.8070699998643249,True,17
X005K23,771,experiment,132,↓,down,↓,0.6875773998908699,True,17
X005K23,772,experiment,72,←,left,←,0.5988843999803066,True,17
X005K23,773,experiment,48,←,left,←,0.676790300058201,True,17
X005K23,774,experiment,60,↑,up,↑,0.6781930001452565,True,17
X005K23,775,experiment,180,↓,down,↓,0.7102785999886692,True,17
X005K23,776,experiment,168,←,left,←,0.9383338999468833,True,17
X005K23,777,experiment,108,↑,up,↑,0.7457769000902772,True,17
X005K23,778,experiment,36,↓,right,→,1.5266030998900533,False,17
X005K23,779,experiment,120,→,left,←,0.7148849000222981,False,17
X005K23,780,experiment,24,↓,down,↓,0.6485295000020415,True,17
X005K23,781,experiment,108,→,left,←,0.7299330998212099,False,17
X005K23,782,experiment,132,→,right,→,0.7070415997877717,True,17
X005K23,783,experiment,144,→,right,→,0.6031387001276016,True,17
X005K23,784,experiment,144,↓,right,→,0.7696181999053806,False,17
X005K23,785,experiment,84,←,left,←,0.5605169001501054,True,17
X005K23,786,experiment,60,↓,down,↓,0.6963115001562983,True,17
X005K23,787,training,120,←,left,←,0.6336155000608414,True,17
X005K23,788,training,120,↓,down,↓,0.5971866000909358,True,17
X005K23,789,training,60,↓,down,↓,0.5299017999786884,True,17
X005K23,790,experiment,168,→,left,←,0.9257610000204295,False,17
X005K23,791,experiment,96,→,right,→,0.4609759000595659,True,17
X005K23,792,experiment,144,→,right,→,0.745189799927175,True,17
X005K23,793,experiment,72,←,right,→,0.7267883000895381,False,17
X005K23,794,experiment,144,←,left,←,0.6285443999804556,True,17
X005K23,795,experiment,108,→,right,→,0.6444603998679668,True,17
X005K23,796,experiment,144,→,right,→,0.6693493998609483,True,17
X005K23,797,experiment,60,←,left,←,0.5134384999983013,True,17
X005K23,798,experiment,108,←,left,←,0.7280985000543296,True,17
X005K23,799,experiment,48,←,left,←,0.6167679000645876,True,17
X005K23,800,experiment,120,←,left,←,0.5341983998659998,True,17
X005K23,801,experiment,48,→,left,←,0.6110176001675427,False,17
X005K23,802,experiment,180,↑,up,↑,0.5295283000450581,True,17
X005K23,803,experiment,156,↓,up,↑,0.9096134998835623,False,17
X005K23,804,experiment,96,→,right,→,0.6608339999802411,True,17
X005K23,805,experiment,84,↓,right,→,0.7149671998340636,False,17
X005K23,806,experiment,156,→,left,←,0.6209349997807294,False,17
X005K23,807,experiment,12,←,left,←,0.5521976000163704,True,17
X005K23,808,experiment,156,→,right,→,0.7276229998096824,True,17
X005K23,809,experiment,132,←,left,←,0.5700348999816924,True,17
X005K23,810,experiment,60,↓,down,↓,0.610363099956885,True,17
X005K23,811,experiment,60,↑,up,↑,0.46443550009280443,True,17
X005K23,812,experiment,132,←,left,←,0.5406229998916388,True,17
X005K23,813,experiment,36,→,right,→,0.8503552000038326,True,17
X005K23,814,experiment,180,↑,up,↑,0.5646969999652356,True,17
X005K23,815,experiment,72,↓,up,↑,0.7652688999660313,False,17
X005K23,816,experiment,24,↑,up,↑,0.7510798000730574,True,17
X005K23,817,experiment,72,→,right,→,0.6139581999741495,True,17
X005K23,818,experiment,120,↑,up,↑,0.9453289001248777,True,17
X005K23,819,experiment,96,↑,up,↑,0.6725549001712352,True,17
X005K23,820,experiment,60,→,left,←,0.6935895001515746,False,17
X005K23,821,experiment,12,←,left,←,0.723645499907434,True,17
X005K23,822,experiment,132,↓,down,↓,0.5961133001837879,True,17
X005K23,823,experiment,12,→,right,→,0.9028254000004381,True,17
X005K23,824,experiment,120,→,right,→,0.6047451999038458,True,17
X005K23,825,experiment,120,←,left,←,0.6207082001492381,True,17
X005K23,826,experiment,24,↑,up,↑,0.6922595000360161,True,17
X005K23,827,experiment,108,↑,left,←,0.7559569999575615,False,17
X005K23,828,experiment,72,↓,down,↓,0.6519013000652194,True,17
X005K23,829,experiment,96,↓,down,↓,0.7634062001015991,True,17
X005K23,830,experiment,84,→,right,→,0.5737662001047283,True,17
X005K23,831,experiment,180,←,left,←,0.6173492001835257,True,17
X005K23,832,experiment,36,→,right,→,0.6259125999640673,True,17
X005K23,833,experiment,168,→,right,→,0.6317239999771118,True,17
X005K23,834,experiment,48,↑,no_key,no_letter,-1.0,False,17
X005K23,835,experiment,108,↓,down,↓,0.7595021999441087,True,17
X005K23,836,experiment,144,↑,down,↓,0.7223859000951052,False,17
X005K23,837,experiment,180,→,right,→,0.46679460001178086,True,17
X005K23,838,experiment,84,→,right,→,0.6211846000514925,True,17
X005K23,839,experiment,24,←,left,←,0.7783907998818904,True,17
X005K23,840,experiment,36,←,left,←,0.6167848999612033,True,17
X005K23,841,experiment,24,→,left,←,0.4706160998903215,False,17
X005K23,842,experiment,12,↓,up,↑,0.6185638001188636,False,17
X005K23,843,experiment,48,→,right,→,0.4910918998066336,True,17
X005K23,844,experiment,156,←,left,←,0.49002550006844103,True,17
X005K23,845,experiment,168,←,left,←,0.7249940000474453,True,17
X005K23,846,experiment,132,→,left,←,0.6276893999893218,False,17
X005K23,847,experiment,36,↑,no_key,no_letter,-1.0,False,17
X005K23,848,experiment,84,→,left,←,0.4172071998473257,False,17
X005K23,849,experiment,168,↓,up,↑,1.145325800171122,False,17
