PART_ID,Trial_no,Trial_type,PDI,Stim_letter,Key_pressed,letter_choose,Rt,Corr,Stimulus Time
X006K21,1,training,10,↓,left,←,1.920376499881968,False,30
X006K21,2,training,10,↑,up,↑,1.0264497001189739,True,30
X006K21,3,training,10,←,up,↑,1.3874315000139177,False,30
X006K21,4,training,10,←,left,←,0.8546819998882711,True,30
X006K21,5,training,10,→,right,→,1.0317907000426203,True,30
X006K21,6,training,10,↓,down,↓,0.9719296998810023,True,30
X006K21,7,training,10,↑,up,↑,1.3715139999985695,True,30
X006K21,8,training,10,←,right,→,1.0348028999287635,False,30
X006K21,9,training,10,↑,up,↑,0.550450700102374,True,30
X006K21,10,training,10,↑,up,↑,0.5836305001284927,True,30
X006K21,11,training,10,↑,up,↑,1.0438774998765439,True,30
X006K21,12,training,10,←,right,→,1.2562937999609858,False,30
X006K21,13,training,10,↓,up,↑,1.359892100095749,False,30
X006K21,14,training,10,→,right,→,0.5504836000036448,True,30
X006K21,15,training,10,↑,left,←,1.6464996000286192,False,30
X006K21,16,training,10,↑,up,↑,0.6173906000331044,True,30
X006K21,17,training,10,↓,down,↓,0.7728825998492539,True,30
X006K21,18,training,10,↑,up,↑,0.4836175001692027,True,30
X006K21,19,training,10,←,right,→,0.4837416000664234,False,30
X006K21,20,training,10,↑,no_key,no_letter,-1.0,False,30
X006K21,21,training,10,↑,up,↑,0.5121170000638813,True,18
X006K21,22,training,10,←,no_key,no_letter,-1.0,False,18
X006K21,23,training,10,←,right,→,0.49753700010478497,False,18
X006K21,24,training,10,→,left,←,0.36724389996379614,False,18
X006K21,25,training,10,↑,left,←,1.307927600108087,False,18
X006K21,26,training,10,↓,right,→,1.3435151998419315,False,18
X006K21,27,training,10,↑,up,↑,0.5971437999978662,True,18
X006K21,28,training,10,↓,up,↑,0.43380980007350445,False,18
X006K21,29,training,10,←,left,←,0.43380069988779724,True,18
X006K21,30,training,10,↑,up,↑,0.5207344999071211,True,18
X006K21,31,training,108,←,left,←,1.1126461999956518,True,15
X006K21,32,training,156,→,right,→,1.2594820999074727,True,15
X006K21,33,training,48,←,left,←,0.6334543998818845,True,15
X006K21,34,experiment,180,↓,up,↑,0.5341219000983983,False,15
X006K21,35,experiment,36,↓,down,↓,0.7021626001223922,True,15
X006K21,36,experiment,108,←,right,→,0.6411729999817908,False,15
X006K21,37,experiment,132,↓,left,←,0.7447077999822795,False,15
X006K21,38,experiment,72,→,right,→,0.7361249998211861,True,15
X006K21,39,experiment,156,↑,down,↓,0.9093168000690639,False,15
X006K21,40,experiment,180,→,right,→,0.5705707999877632,True,15
X006K21,41,experiment,132,↑,up,↑,0.7441982000600547,True,15
X006K21,42,experiment,60,↓,down,↓,0.6778841000050306,True,15
X006K21,43,experiment,96,↓,down,↓,0.8191768999677151,True,15
X006K21,44,experiment,36,←,left,←,0.6975304000079632,True,15
X006K21,45,experiment,144,↑,left,←,0.7070390998851508,False,15
X006K21,46,experiment,12,←,right,→,0.5710316000040621,False,15
X006K21,47,experiment,156,→,right,→,0.5993882000911981,True,15
X006K21,48,experiment,180,↓,up,↑,0.9881713001523167,False,15
X006K21,49,experiment,168,↑,no_key,no_letter,-1.0,False,15
X006K21,50,experiment,36,↓,right,→,1.1621986001264304,False,15
X006K21,51,experiment,108,↓,left,←,0.6433158998843282,False,15
X006K21,52,experiment,108,→,left,←,0.6387551999650896,False,15
X006K21,53,experiment,12,↓,down,↓,0.6768839999567717,True,15
X006K21,54,experiment,60,↑,up,↑,0.48931619990617037,True,15
X006K21,55,experiment,144,↓,down,↓,0.5864714998751879,True,15
X006K21,56,experiment,120,↓,down,↓,0.794840999878943,True,15
X006K21,57,experiment,48,←,left,←,0.572948900051415,True,15
X006K21,58,experiment,84,→,right,→,0.4564463999122381,True,15
X006K21,59,experiment,168,→,left,←,0.6754503000993282,False,15
X006K21,60,experiment,96,↑,right,→,0.979968000203371,False,15
X006K21,61,experiment,84,→,right,→,0.5781857999972999,True,15
X006K21,62,experiment,84,↓,down,↓,0.5925654999446124,True,15
X006K21,63,experiment,12,→,left,←,0.8750873999670148,False,15
X006K21,64,experiment,108,←,right,→,0.6436447999440134,False,15
X006K21,65,experiment,24,↓,down,↓,0.6178586999885738,True,15
X006K21,66,experiment,168,→,left,←,1.043533799936995,False,15
X006K21,67,experiment,60,↓,down,↓,0.5052917001303285,True,15
X006K21,68,experiment,120,→,left,←,0.48096229997463524,False,15
X006K21,69,experiment,24,↓,right,→,1.667516700224951,False,15
X006K21,70,experiment,48,←,down,↓,0.6462352001108229,False,15
X006K21,71,experiment,120,→,right,→,0.6046039001084864,True,15
X006K21,72,experiment,24,→,left,←,0.5250230000820011,False,15
X006K21,73,experiment,48,→,left,←,0.6039295999798924,False,15
X006K21,74,experiment,156,↑,right,→,0.5238640999887139,False,15
X006K21,75,experiment,96,↑,down,↓,0.540178099879995,False,15
X006K21,76,experiment,72,↑,left,←,0.6117149998899549,False,15
X006K21,77,experiment,24,↓,down,↓,0.5856536999344826,True,15
X006K21,78,experiment,132,↓,down,↓,0.5489411999005824,True,15
X006K21,79,experiment,132,→,left,←,0.6743286999408156,False,15
X006K21,80,experiment,36,↓,right,→,1.1222473999951035,False,15
X006K21,81,experiment,96,↑,down,↓,0.5380874001421034,False,15
X006K21,82,experiment,12,→,left,←,0.5107897000852972,False,15
X006K21,83,experiment,156,↑,down,↓,0.8391821999102831,False,15
X006K21,84,experiment,180,↓,left,←,0.9104286998044699,False,15
X006K21,85,experiment,120,←,left,←,0.36730160005390644,True,15
X006K21,86,experiment,72,↓,left,←,0.3837125999853015,False,15
X006K21,87,experiment,72,↓,right,→,0.7227093998808414,False,15
X006K21,88,experiment,144,↑,up,↑,0.6880050001200289,True,15
X006K21,89,experiment,168,↑,down,↓,0.8555976001080126,False,15
X006K21,90,experiment,48,→,right,→,0.4621363999322057,True,15
X006K21,91,experiment,60,↓,up,↑,0.6511845998466015,False,15
X006K21,92,experiment,144,↑,up,↑,0.4481156999245286,True,15
X006K21,93,experiment,84,→,left,←,0.6151382999960333,False,15
X006K21,94,training,108,↓,up,↑,0.939993100007996,False,16
X006K21,95,training,180,←,right,→,0.7080275001935661,False,16
X006K21,96,training,168,→,right,→,0.5969467000104487,True,16
X006K21,97,experiment,60,←,right,→,0.6453064000234008,False,16
X006K21,98,experiment,168,↓,down,↓,0.5513498999644071,True,16
X006K21,99,experiment,132,↑,up,↑,0.4003377000335604,True,16
X006K21,100,experiment,96,←,right,→,0.6745138000696898,False,16
X006K21,101,experiment,24,→,left,←,1.228641299996525,False,16
X006K21,102,experiment,120,↓,right,→,0.733344699954614,False,16
X006K21,103,experiment,48,←,left,←,0.511024700012058,True,16
X006K21,104,experiment,120,↓,down,↓,0.7762100000400096,True,16
X006K21,105,experiment,72,→,right,→,0.7717597000300884,True,16
X006K21,106,experiment,144,↑,down,↓,0.616599400062114,False,16
X006K21,107,experiment,96,↓,right,→,0.8641339000314474,False,16
X006K21,108,experiment,132,↑,up,↑,0.8417075001634657,True,16
X006K21,109,experiment,24,↓,down,↓,0.7359352000057697,True,16
X006K21,110,experiment,84,→,right,→,0.6597013000864536,True,16
X006K21,111,experiment,84,↓,down,↓,0.6112925000488758,True,16
X006K21,112,experiment,96,→,left,←,1.1574071999639273,False,16
X006K21,113,experiment,132,←,left,←,0.7154854000546038,True,16
X006K21,114,experiment,36,↓,up,↑,1.0413428000174463,False,16
X006K21,115,experiment,156,↓,down,↓,0.6572821999434382,True,16
X006K21,116,experiment,180,↑,left,←,0.7404553999658674,False,16
X006K21,117,experiment,12,↑,up,↑,0.5731798999477178,True,16
X006K21,118,experiment,60,→,right,→,0.6901012999005616,True,16
X006K21,119,experiment,72,↓,up,↑,0.7258949000388384,False,16
X006K21,120,experiment,156,←,right,→,0.4913739999756217,False,16
X006K21,121,experiment,180,↓,up,↑,1.10493030003272,False,16
X006K21,122,experiment,24,→,right,→,0.6713367002084851,True,16
X006K21,123,experiment,24,→,right,→,0.48124710004776716,True,16
X006K21,124,experiment,108,↓,left,←,0.8946714999619871,False,16
X006K21,125,experiment,180,↓,up,↑,1.3947209999896586,False,16
X006K21,126,experiment,36,→,right,→,0.7734990001190454,True,16
X006K21,127,experiment,144,←,left,←,0.7245387998409569,True,16
X006K21,128,experiment,12,←,left,←,0.7682819999754429,True,16
X006K21,129,experiment,12,←,up,↑,1.3489214999135584,False,16
X006K21,130,experiment,84,↓,down,↓,0.5732967001385987,True,16
X006K21,131,experiment,144,↑,right,→,0.8629666999913752,False,16
X006K21,132,experiment,108,↑,up,↑,0.4918148999568075,True,16
X006K21,133,experiment,48,↑,up,↑,0.5081492001190782,True,16
X006K21,134,experiment,144,←,down,↓,1.6439875999931246,False,16
X006K21,135,experiment,180,←,right,→,0.5528270001523197,False,16
X006K21,136,experiment,108,←,right,→,0.5063146001193672,False,16
X006K21,137,experiment,48,→,right,→,1.7230579999741167,True,16
X006K21,138,experiment,36,→,right,→,0.8296533999964595,True,16
X006K21,139,experiment,156,↓,right,→,1.2564618999604136,False,16
X006K21,140,experiment,60,↑,up,↑,1.0477779998909682,True,16
X006K21,141,experiment,132,↑,up,↑,0.6274684998206794,True,16
X006K21,142,experiment,72,←,right,→,0.52656070003286,False,16
X006K21,143,experiment,48,→,right,→,0.5092515998985618,True,16
X006K21,144,experiment,72,↓,left,←,1.6661049998365343,False,16
X006K21,145,experiment,96,↑,up,↑,0.6854966999962926,True,16
X006K21,146,experiment,168,↓,up,↑,1.0542427999898791,False,16
X006K21,147,experiment,120,↑,up,↑,0.842301599914208,True,16
X006K21,148,experiment,168,←,right,→,1.234544500010088,False,16
X006K21,149,experiment,156,→,right,→,0.9436930997762829,True,16
X006K21,150,experiment,36,←,no_key,no_letter,-1.0,False,16
X006K21,151,experiment,60,←,no_key,no_letter,-1.0,False,16
X006K21,152,experiment,108,→,right,→,0.7089827000163496,True,16
X006K21,153,experiment,12,↓,no_key,no_letter,-1.0,False,16
X006K21,154,experiment,120,←,right,→,0.6397635999601334,False,16
X006K21,155,experiment,168,→,right,→,0.6147628000471741,True,16
X006K21,156,experiment,84,→,right,→,0.49661940010264516,True,16
X006K21,157,training,132,↑,up,↑,1.476877999957651,True,17
X006K21,158,training,72,→,right,→,0.8614340999629349,True,17
X006K21,159,training,96,→,right,→,0.5000953001435846,True,17
X006K21,160,experiment,72,↓,down,↓,0.7756709000095725,True,17
X006K21,161,experiment,36,←,left,←,0.6112399999983609,True,17
X006K21,162,experiment,108,↓,down,↓,0.649013499962166,True,17
X006K21,163,experiment,48,↑,right,→,0.9478593000676483,False,17
X006K21,164,experiment,156,↓,down,↓,1.1765015001874417,True,17
X006K21,165,experiment,120,↓,down,↓,0.5784553999546915,True,17
X006K21,166,experiment,60,←,left,←,0.6514268999453634,True,17
X006K21,167,experiment,72,↑,up,↑,0.6777606999967247,True,17
X006K21,168,experiment,48,↑,up,↑,0.9706987000536174,True,17
X006K21,169,experiment,84,↑,up,↑,0.5774560999125242,True,17
X006K21,170,experiment,84,→,right,→,0.6354253999888897,True,17
X006K21,171,experiment,60,←,right,→,0.6216384000144899,False,17
X006K21,172,experiment,36,→,left,←,0.4601982000749558,False,17
X006K21,173,experiment,120,↑,up,↑,0.6772937001660466,True,17
X006K21,174,experiment,60,←,left,←,0.6403888999484479,True,17
X006K21,175,experiment,60,↑,up,↑,0.5154516999609768,True,17
X006K21,176,experiment,168,↓,up,↑,0.6719623000826687,False,17
X006K21,177,experiment,72,↑,up,↑,0.7283505999948829,True,17
X006K21,178,experiment,156,↓,down,↓,0.6678213998675346,True,17
X006K21,179,experiment,168,←,left,←,0.5997447001282126,True,17
X006K21,180,experiment,24,→,left,←,0.674392799846828,False,17
X006K21,181,experiment,96,→,right,→,0.5998031999915838,True,17
X006K21,182,experiment,48,→,left,←,0.6654518998693675,False,17
X006K21,183,experiment,108,←,left,←,0.48379270010627806,True,17
X006K21,184,experiment,120,←,left,←,0.689423100091517,True,17
X006K21,185,experiment,180,→,right,→,0.6373361998703331,True,17
X006K21,186,experiment,144,↑,up,↑,0.6601076000370085,True,17
X006K21,187,experiment,96,←,left,←,0.6296502999030054,True,17
X006K21,188,experiment,12,←,right,→,0.7304581000935286,False,17
X006K21,189,experiment,132,→,right,→,0.6179884001612663,True,17
X006K21,190,experiment,84,←,left,←,0.5063457998912781,True,17
X006K21,191,experiment,132,↑,up,↑,0.6157108000479639,True,17
X006K21,192,experiment,84,↓,down,↓,0.6177980001084507,True,17
X006K21,193,experiment,180,←,down,↓,0.8122841999866068,False,17
X006K21,194,experiment,168,←,right,→,1.096974299987778,False,17
X006K21,195,experiment,48,→,right,→,0.48458389984443784,True,17
X006K21,196,experiment,96,→,left,←,0.6064763001631945,False,17
X006K21,197,experiment,144,↑,left,←,0.7198590999469161,False,17
X006K21,198,experiment,132,→,right,→,0.5851177999284118,True,17
X006K21,199,experiment,156,↑,up,↑,0.960424599936232,True,17
X006K21,200,experiment,168,↓,down,↓,0.6556869999039918,True,17
X006K21,201,experiment,96,↑,up,↑,0.9111188999377191,True,17
X006K21,202,experiment,24,→,up,↑,1.0017587000038475,False,17
X006K21,203,experiment,108,→,right,→,0.6332280000206083,True,17
X006K21,204,experiment,24,↑,up,↑,0.5406292001716793,True,17
X006K21,205,experiment,12,←,left,←,0.7984096000436693,True,17
X006K21,206,experiment,72,→,right,→,0.6889758000615984,True,17
X006K21,207,experiment,144,→,right,→,1.6977980001829565,True,17
X006K21,208,experiment,12,↓,up,↑,0.7286928999237716,False,17
X006K21,209,experiment,180,↑,up,↑,0.576413800008595,True,17
X006K21,210,experiment,156,←,left,←,1.205168800195679,True,17
X006K21,211,experiment,24,←,left,←,0.6830198001116514,True,17
X006K21,212,experiment,36,↓,up,↑,0.6589403001125902,False,17
X006K21,213,experiment,120,↓,down,↓,0.7313677999190986,True,17
X006K21,214,experiment,132,↓,down,↓,0.8722752002067864,True,17
X006K21,215,experiment,108,↓,down,↓,0.7175715998746455,True,17
X006K21,216,experiment,144,↑,up,↑,0.5700601998250932,True,17
X006K21,217,experiment,12,↑,up,↑,1.3936699000187218,True,17
X006K21,218,experiment,180,→,right,→,0.5944120001513511,True,17
X006K21,219,experiment,36,↓,down,↓,0.6244635998737067,True,17
X006K21,220,training,144,↓,down,↓,0.5975099999923259,True,17
X006K21,221,training,132,←,left,←,0.7788531999103725,True,17
X006K21,222,training,60,←,left,←,0.48839300009422004,True,17
X006K21,223,experiment,96,←,right,→,0.6803629000205547,False,17
X006K21,224,experiment,120,→,no_key,no_letter,-1.0,False,17
X006K21,225,experiment,180,→,right,→,1.542527300072834,True,17
X006K21,226,experiment,132,←,left,←,0.6170873998198658,True,17
X006K21,227,experiment,108,←,left,←,0.5104031998198479,True,17
X006K21,228,experiment,12,←,left,←,1.6470072001684457,True,17
X006K21,229,experiment,108,→,right,→,0.7923194000031799,True,17
X006K21,230,experiment,48,↓,down,↓,0.6252166999038309,True,17
X006K21,231,experiment,120,←,up,↑,1.295768499840051,False,17
X006K21,232,experiment,36,↑,up,↑,0.8255435000173748,True,17
X006K21,233,experiment,12,↑,up,↑,1.3976429000031203,True,17
X006K21,234,experiment,156,↓,down,↓,0.6681202999316156,True,17
X006K21,235,experiment,36,←,left,←,0.528824299806729,True,17
X006K21,236,experiment,96,→,right,→,0.5676057001110166,True,17
X006K21,237,experiment,72,←,left,←,0.6428631998132914,True,17
X006K21,238,experiment,60,↑,up,↑,0.8645843998529017,True,17
X006K21,239,experiment,96,↓,down,↓,0.557117500109598,True,17
X006K21,240,experiment,144,↑,down,↓,0.649451999925077,False,17
X006K21,241,experiment,120,→,right,→,0.6169393002055585,True,17
X006K21,242,experiment,168,↑,up,↑,0.5930615998804569,True,17
X006K21,243,experiment,144,↓,down,↓,0.5844032999593765,True,17
X006K21,244,experiment,84,→,down,↓,0.7123895999975502,False,17
X006K21,245,experiment,48,↓,down,↓,1.3292896999046206,True,17
X006K21,246,experiment,168,↓,down,↓,0.573349199956283,True,17
X006K21,247,experiment,60,↑,up,↑,0.5842454000376165,True,17
X006K21,248,experiment,96,←,up,↑,0.7596904998645186,False,17
X006K21,249,experiment,180,←,left,←,0.645648900186643,True,17
X006K21,250,experiment,144,↓,down,↓,0.5887001999653876,True,17
X006K21,251,experiment,60,↓,down,↓,0.5450269000139087,True,17
X006K21,252,experiment,84,↑,up,↑,0.6436803000979125,True,17
X006K21,253,experiment,132,↓,right,→,1.3562785999383777,False,17
X006K21,254,experiment,72,↓,down,↓,0.5574252000078559,True,17
X006K21,255,experiment,12,↑,up,↑,0.7407973001245409,True,17
X006K21,256,experiment,84,←,left,←,0.6429840999189764,True,17
X006K21,257,experiment,36,←,right,→,0.9109062999486923,False,17
X006K21,258,experiment,108,←,left,←,0.5161751999985427,True,17
X006K21,259,experiment,24,←,left,←,0.6468861000612378,True,17
X006K21,260,experiment,48,↓,down,↓,0.6520591999869794,True,17
X006K21,261,experiment,108,→,right,→,0.6337173997890204,True,17
X006K21,262,experiment,12,↓,down,↓,0.5675242999568582,True,17
X006K21,263,experiment,48,←,left,←,0.590869199950248,True,17
X006K21,264,experiment,156,←,left,←,0.5540591001044959,True,17
X006K21,265,experiment,60,↓,down,↓,0.5790788999293,True,17
X006K21,266,experiment,24,→,right,→,0.6520183000247926,True,17
X006K21,267,experiment,180,↑,right,→,1.4254991998896003,False,17
X006K21,268,experiment,168,↑,up,↑,0.7867734001483768,True,17
X006K21,269,experiment,156,→,right,→,0.5592912000138313,True,17
X006K21,270,experiment,72,→,right,→,0.3839801999274641,True,17
X006K21,271,experiment,120,↓,down,↓,0.6604391001164913,True,17
X006K21,272,experiment,24,←,left,←,0.7941701000090688,True,17
X006K21,273,experiment,132,→,right,→,0.6697201000060886,True,17
X006K21,274,experiment,84,→,right,→,0.7160819000564516,True,17
X006K21,275,experiment,132,←,left,←,0.5724492999725044,True,17
X006K21,276,experiment,72,↓,right,→,0.5096158999949694,False,17
X006K21,277,experiment,36,↑,left,←,0.6583698000758886,False,17
X006K21,278,experiment,144,↓,down,↓,1.2384504000656307,True,17
X006K21,279,experiment,156,↓,left,←,1.0926051998976618,False,17
X006K21,280,experiment,168,→,right,→,0.6700032998342067,True,17
X006K21,281,experiment,24,→,right,→,1.4915222998242825,True,17
X006K21,282,experiment,180,←,right,→,0.8082773999776691,False,17
X006K21,283,training,12,↓,right,→,1.3338635000400245,False,17
X006K21,284,training,36,↓,down,↓,0.933348200051114,True,17
X006K21,285,training,156,←,left,←,0.5235711999703199,True,17
X006K21,286,experiment,60,↓,down,↓,0.5962154001463205,True,17
X006K21,287,experiment,12,↑,up,↑,0.7355541000142694,True,17
X006K21,288,experiment,156,↑,up,↑,0.5593892000615597,True,17
X006K21,289,experiment,60,↑,up,↑,0.7390334000810981,True,17
X006K21,290,experiment,24,↓,down,↓,0.6133340999949723,True,17
X006K21,291,experiment,132,↓,down,↓,0.652187499916181,True,17
X006K21,292,experiment,24,↓,down,↓,0.8613336000125855,True,17
X006K21,293,experiment,168,↓,down,↓,0.649252399802208,True,17
X006K21,294,experiment,120,↑,up,↑,0.6000228999182582,True,17
X006K21,295,experiment,144,↓,down,↓,1.0574993998743594,True,17
X006K21,296,experiment,12,↑,down,↓,0.887186799896881,False,17
X006K21,297,experiment,84,↑,up,↑,0.7528243998531252,True,17
X006K21,298,experiment,168,←,left,←,0.796204200014472,True,17
X006K21,299,experiment,84,→,right,→,0.5479160000104457,True,17
X006K21,300,experiment,132,↑,left,←,0.769738599890843,False,17
X006K21,301,experiment,12,↓,up,↑,1.298846999881789,False,17
X006K21,302,experiment,108,↑,left,←,0.78994349995628,False,17
X006K21,303,experiment,12,←,left,←,0.48909880011342466,True,17
X006K21,304,experiment,180,←,left,←,0.6237916999962181,True,17
X006K21,305,experiment,96,↑,up,↑,0.9530671001411974,True,17
X006K21,306,experiment,144,↓,left,←,0.7778336999472231,False,17
X006K21,307,experiment,48,↑,up,↑,0.5979589000344276,True,17
X006K21,308,experiment,84,←,left,←,0.5542331000324339,True,17
X006K21,309,experiment,72,↑,left,←,0.6869531001430005,False,17
X006K21,310,experiment,24,←,left,←,0.601259500021115,True,17
X006K21,311,experiment,48,←,left,←,0.5189958999399096,True,17
X006K21,312,experiment,132,↑,up,↑,0.9121393000241369,True,17
X006K21,313,experiment,168,←,left,←,0.49800559994764626,True,17
X006K21,314,experiment,36,←,left,←,1.5977376999799162,True,17
X006K21,315,experiment,72,↓,down,↓,0.8350583000574261,True,17
X006K21,316,experiment,96,←,left,←,0.5138342999853194,True,17
X006K21,317,experiment,108,↑,up,↑,0.713939500041306,True,17
X006K21,318,experiment,120,→,right,→,0.6611456000246108,True,17
X006K21,319,experiment,180,←,no_key,no_letter,-1.0,False,17
X006K21,320,experiment,36,→,right,→,0.8961207000538707,True,17
X006K21,321,experiment,96,←,left,←,0.490829800022766,True,17
X006K21,322,experiment,120,←,left,←,0.5256760998163372,True,17
X006K21,323,experiment,60,←,left,←,0.7768029000144452,True,17
X006K21,324,experiment,132,↑,up,↑,0.9671605001203716,True,17
X006K21,325,experiment,72,→,no_key,no_letter,-1.0,False,17
X006K21,326,experiment,48,↓,right,→,1.5082048999611288,False,17
X006K21,327,experiment,96,←,left,←,0.6596921000164002,True,17
X006K21,328,experiment,156,←,left,←,0.6506101000122726,True,17
X006K21,329,experiment,180,↓,down,↓,0.7176717999391258,True,17
X006K21,330,experiment,108,↓,down,↓,0.6314664999954402,True,17
X006K21,331,experiment,156,←,right,→,0.5743130999617279,False,17
X006K21,332,experiment,168,↑,up,↑,0.6424296000041068,True,17
X006K21,333,experiment,108,↓,down,↓,0.5905444999225438,True,17
X006K21,334,experiment,156,↑,up,↑,0.5911350999958813,True,17
X006K21,335,experiment,120,→,right,→,0.6410762001760304,True,17
X006K21,336,experiment,144,→,right,→,0.5075026000849903,True,17
X006K21,337,experiment,144,→,right,→,0.7144822000991553,True,17
X006K21,338,experiment,60,←,left,←,0.7431582999415696,True,17
X006K21,339,experiment,36,↑,up,↑,0.7712157000787556,True,17
X006K21,340,experiment,84,↑,up,↑,0.6822255000006407,True,17
X006K21,341,experiment,180,↑,up,↑,0.647467999951914,True,17
X006K21,342,experiment,48,→,right,→,0.5414679001551121,True,17
X006K21,343,experiment,72,←,right,→,0.5558520001359284,False,17
X006K21,344,experiment,36,↓,down,↓,0.915135300019756,True,17
X006K21,345,experiment,24,↓,down,↓,0.8143521000165492,True,17
X006K21,346,training,24,↓,right,→,1.9130500999744982,False,17
X006K21,347,training,48,↑,no_key,no_letter,-1.0,False,17
X006K21,348,training,168,→,left,←,0.9269205001182854,False,17
X006K21,349,experiment,144,→,right,→,1.7610129001550376,True,17
X006K21,350,experiment,156,←,right,→,0.5838453001342714,False,17
X006K21,351,experiment,12,↑,no_key,no_letter,-1.0,False,17
X006K21,352,experiment,84,↓,down,↓,0.9340407999698073,True,17
X006K21,353,experiment,36,→,left,←,0.8980101000051945,False,17
X006K21,354,experiment,24,↑,up,↑,0.8732119000051171,True,17
X006K21,355,experiment,24,→,right,→,0.6217570998705924,True,17
X006K21,356,experiment,156,←,left,←,0.5755376999732107,True,17
X006K21,357,experiment,168,↓,up,↑,0.5591458999551833,False,17
X006K21,358,experiment,24,↑,right,→,1.3536686999723315,False,17
X006K21,359,experiment,168,↑,up,↑,0.5312475999817252,True,17
X006K21,360,experiment,60,←,left,←,0.5422005001455545,True,17
X006K21,361,experiment,48,→,right,→,0.6712406000588089,True,17
X006K21,362,experiment,36,↑,up,↑,0.49719799985177815,True,17
X006K21,363,experiment,108,←,left,←,0.655823600012809,True,17
X006K21,364,experiment,12,↑,up,↑,0.667725200066343,True,17
X006K21,365,experiment,96,←,left,←,0.7567502001766115,True,17
X006K21,366,experiment,84,↓,left,←,0.9963431998621672,False,17
X006K21,367,experiment,60,↓,no_key,no_letter,-1.0,False,17
X006K21,368,experiment,72,↓,down,↓,0.6892486000433564,True,17
X006K21,369,experiment,156,←,left,←,0.7186387998517603,True,17
X006K21,370,experiment,180,↓,up,↑,0.5963654001243412,False,17
X006K21,371,experiment,84,←,right,→,0.7287775001022965,False,17
X006K21,372,experiment,168,↑,up,↑,0.5920580001547933,True,17
X006K21,373,experiment,84,→,right,→,0.6613618000410497,True,17
X006K21,374,experiment,144,↓,right,→,1.1846814998425543,False,17
X006K21,375,experiment,132,←,left,←,0.6522053999360651,True,17
X006K21,376,experiment,24,←,left,←,0.9057565999682993,True,17
X006K21,377,experiment,180,→,left,←,0.5390999999362975,False,17
X006K21,378,experiment,72,↓,left,←,0.986710999859497,False,17
X006K21,379,experiment,60,←,left,←,0.541343100136146,True,17
X006K21,380,experiment,48,↑,left,←,0.7795678998809308,False,17
X006K21,381,experiment,96,↑,no_key,no_letter,-1.0,False,17
X006K21,382,experiment,72,↑,left,←,0.9945576000027359,False,17
X006K21,383,experiment,48,→,right,→,0.5339522999711335,True,17
X006K21,384,experiment,132,↓,no_key,no_letter,-1.0,False,17
X006K21,385,experiment,180,←,right,→,0.7073133999947459,False,17
X006K21,386,experiment,12,↓,left,←,0.8297184000257403,False,17
X006K21,387,experiment,12,←,left,←,0.7174764999654144,True,17
X006K21,388,experiment,132,→,right,→,0.5847738001029938,True,17
X006K21,389,experiment,36,↓,left,←,0.6532109999097884,False,17
X006K21,390,experiment,180,↑,up,↑,0.7579079000279307,True,17
X006K21,391,experiment,108,→,right,→,0.732983099995181,True,17
X006K21,392,experiment,120,↑,up,↑,0.8337701000273228,True,17
X006K21,393,experiment,144,←,left,←,0.6903365000616759,True,17
X006K21,394,experiment,108,↓,no_key,no_letter,-1.0,False,17
X006K21,395,experiment,144,→,right,→,0.785314799984917,True,17
X006K21,396,experiment,156,→,left,←,0.5936075001955032,False,17
X006K21,397,experiment,96,→,right,→,0.7016522998455912,True,17
X006K21,398,experiment,60,←,right,→,0.5983680000063032,False,17
X006K21,399,experiment,72,→,up,↑,1.2491701000835747,False,17
X006K21,400,experiment,96,↑,up,↑,0.6675551999360323,True,17
X006K21,401,experiment,120,↑,up,↑,0.5304587997961789,True,17
X006K21,402,experiment,132,←,down,↓,1.141479599988088,False,17
X006K21,403,experiment,120,↓,down,↓,0.7400103001855314,True,17
X006K21,404,experiment,120,↓,down,↓,0.5747465998865664,True,17
X006K21,405,experiment,36,↑,up,↑,0.7056299999821931,True,17
X006K21,406,experiment,108,↑,up,↑,0.522936400026083,True,17
X006K21,407,experiment,48,↑,up,↑,1.2736003999598324,True,17
X006K21,408,experiment,168,↓,down,↓,0.6114111000206321,True,17
X006K21,409,training,108,→,right,→,0.611522699939087,True,17
X006K21,410,training,132,→,right,→,0.7091022999957204,True,17
X006K21,411,training,132,←,left,←,0.5574284000322223,True,17
X006K21,412,experiment,84,→,right,→,0.5987817000132054,True,17
X006K21,413,experiment,168,↑,left,←,0.8463733000680804,False,17
X006K21,414,experiment,108,↑,up,↑,0.6084039001725614,True,17
X006K21,415,experiment,24,←,left,←,0.8912020998541266,True,17
X006K21,416,experiment,48,↓,down,↓,0.6853141998872161,True,17
X006K21,417,experiment,132,→,right,→,0.5293785999529064,True,17
X006K21,418,experiment,96,→,right,→,0.75115150003694,True,17
X006K21,419,experiment,72,←,left,←,0.66769909998402,True,17
X006K21,420,experiment,180,←,left,←,0.5879339000675827,True,17
X006K21,421,experiment,120,↑,no_key,no_letter,-1.0,False,17
X006K21,422,experiment,120,↓,right,→,1.4138613999821246,False,17
X006K21,423,experiment,12,←,left,←,1.0633449000306427,True,17
X006K21,424,experiment,96,↓,down,↓,0.643572999862954,True,17
X006K21,425,experiment,84,→,right,→,0.8724830998107791,True,17
X006K21,426,experiment,120,→,right,→,0.5098802999127656,True,17
X006K21,427,experiment,108,↓,down,↓,0.6662506000138819,True,17
X006K21,428,experiment,156,↓,down,↓,0.7961842999793589,True,17
X006K21,429,experiment,12,→,right,→,0.7041503000073135,True,17
X006K21,430,experiment,24,↑,up,↑,1.8048743999097496,True,17
X006K21,431,experiment,144,←,right,→,0.654199699871242,False,17
X006K21,432,experiment,72,↓,right,→,0.8525029998272657,False,17
X006K21,433,experiment,144,→,right,→,0.527033600024879,True,17
X006K21,434,experiment,144,↓,right,→,0.6447467000689358,False,17
X006K21,435,experiment,156,↓,down,↓,0.8014400000683963,True,17
X006K21,436,experiment,60,↑,down,↓,0.7708250000141561,False,17
X006K21,437,experiment,60,↓,down,↓,0.7257733000442386,True,17
X006K21,438,experiment,48,←,right,→,0.8556346998084337,False,17
X006K21,439,experiment,168,←,right,→,0.5328615000471473,False,17
X006K21,440,experiment,96,←,left,←,0.6614063000306487,True,17
X006K21,441,experiment,144,↓,right,→,0.5974236999172717,False,17
X006K21,442,experiment,48,↓,left,←,0.7922284000087529,False,17
X006K21,443,experiment,180,↑,left,←,0.6453972000163049,False,17
X006K21,444,experiment,72,→,right,→,0.5673404999542981,True,17
X006K21,445,experiment,168,→,right,→,0.5784507999196649,True,17
X006K21,446,experiment,108,←,right,→,0.6814234999474138,False,17
X006K21,447,experiment,24,←,right,→,0.7205787000712007,False,17
X006K21,448,experiment,12,←,right,→,0.598679699935019,False,17
X006K21,449,experiment,60,↓,down,↓,0.6872262000106275,True,17
X006K21,450,experiment,12,↑,up,↑,1.1664420999586582,True,17
X006K21,451,experiment,84,←,left,←,0.6527036998886615,True,17
X006K21,452,experiment,180,↑,up,↑,0.615753100020811,True,17
X006K21,453,experiment,180,↑,up,↑,0.7323529999703169,True,17
X006K21,454,experiment,72,←,left,←,0.576608199859038,True,17
X006K21,455,experiment,108,↑,left,←,0.6285145001020283,False,17
X006K21,456,experiment,24,↓,up,↑,1.013475799933076,False,17
X006K21,457,experiment,132,←,left,←,0.5833175999578089,True,17
X006K21,458,experiment,132,→,left,←,0.7391860999632627,False,17
X006K21,459,experiment,36,←,up,↑,0.8686224999837577,False,17
X006K21,460,experiment,36,←,left,←,0.5706547999288887,True,17
X006K21,461,experiment,168,←,left,←,0.7497376000974327,True,17
X006K21,462,experiment,36,←,left,←,0.6723945999983698,True,17
X006K21,463,experiment,156,↓,no_key,no_letter,-1.0,False,17
X006K21,464,experiment,96,↓,no_key,no_letter,-1.0,False,17
X006K21,465,experiment,36,→,left,←,0.637315799947828,False,17
X006K21,466,experiment,84,↑,up,↑,0.5802519998978823,True,17
X006K21,467,experiment,156,→,right,→,0.5376684998627752,True,17
X006K21,468,experiment,120,↑,up,↑,0.6090573999099433,True,17
X006K21,469,experiment,48,→,right,→,0.5932815000414848,True,17
X006K21,470,experiment,132,→,right,→,0.5119626999367028,True,17
X006K21,471,experiment,60,←,left,←,0.6868338000494987,True,17
X006K21,472,training,60,↓,no_key,no_letter,-1.0,False,17
X006K21,473,training,96,↑,up,↑,0.8795358000788838,True,17
X006K21,474,training,84,↑,up,↑,0.581636399962008,True,17
X006K21,475,experiment,12,←,left,←,0.794569400139153,True,17
X006K21,476,experiment,120,↑,up,↑,0.4591994001530111,True,17
X006K21,477,experiment,168,↑,no_key,no_letter,-1.0,False,17
X006K21,478,experiment,12,←,left,←,0.6679428999777883,True,17
X006K21,479,experiment,96,→,right,→,0.6088767999317497,True,17
X006K21,480,experiment,144,↑,up,↑,0.6247976999729872,True,17
X006K21,481,experiment,24,↑,up,↑,0.5390202000271529,True,17
X006K21,482,experiment,36,↓,down,↓,0.6440954999998212,True,17
X006K21,483,experiment,84,→,right,→,0.7227366999723017,True,17
X006K21,484,experiment,144,←,left,←,0.6021611001342535,True,17
X006K21,485,experiment,132,→,right,→,0.475390600040555,True,17
X006K21,486,experiment,48,↓,down,↓,0.7983893000055104,True,17
X006K21,487,experiment,72,←,left,←,0.6805294000077993,True,17
X006K21,488,experiment,36,↑,up,↑,1.02787009999156,True,17
X006K21,489,experiment,48,←,left,←,0.702496400102973,True,17
X006K21,490,experiment,72,→,left,←,0.6985230999998748,False,17
X006K21,491,experiment,156,→,right,→,0.5021581000182778,True,17
X006K21,492,experiment,48,→,right,→,0.580622399924323,True,17
X006K21,493,experiment,156,↓,no_key,no_letter,-1.0,False,17
X006K21,494,experiment,144,↑,up,↑,0.5678238000255078,True,17
X006K21,495,experiment,36,↓,down,↓,0.7154245998244733,True,17
X006K21,496,experiment,24,←,left,←,0.5222079001832753,True,17
X006K21,497,experiment,132,↑,up,↑,0.5568662001751363,True,17
X006K21,498,experiment,108,↓,left,←,0.6999908001162112,False,17
X006K21,499,experiment,108,←,right,→,0.5249254000373185,False,17
X006K21,500,experiment,120,→,left,←,0.5823902999982238,False,17
X006K21,501,experiment,24,←,left,←,0.623420599848032,True,17
X006K21,502,experiment,84,↓,down,↓,1.64180860016495,True,17
X006K21,503,experiment,168,←,left,←,0.5643728999421,True,17
X006K21,504,experiment,168,↓,down,↓,0.7449741999153048,True,17
X006K21,505,experiment,84,↓,down,↓,0.7021039000246674,True,17
X006K21,506,experiment,132,↓,up,↑,1.3943371998611838,False,17
X006K21,507,experiment,156,↓,down,↓,0.725289200199768,True,17
X006K21,508,experiment,96,←,left,←,0.4818076000083238,True,17
X006K21,509,experiment,108,↓,down,↓,0.6146042998880148,True,17
X006K21,510,experiment,108,↓,down,↓,0.5637884000316262,True,17
X006K21,511,experiment,60,↑,down,↓,0.645405599847436,False,17
X006K21,512,experiment,180,↑,left,←,1.2237614998593926,False,17
X006K21,513,experiment,12,↑,left,←,0.8284312000032514,False,17
X006K21,514,experiment,72,↑,left,←,0.8912156999576837,False,17
X006K21,515,experiment,96,→,right,→,0.6599441000726074,True,17
X006K21,516,experiment,60,↓,down,↓,0.5806992000434548,True,17
X006K21,517,experiment,60,→,right,→,0.6167856999672949,True,17
X006K21,518,experiment,180,←,right,→,0.5458655999973416,False,17
X006K21,519,experiment,180,↑,down,↓,0.8282973000314087,False,17
X006K21,520,experiment,168,←,right,→,0.6289926001336426,False,17
X006K21,521,experiment,156,↓,down,↓,0.6063711000606418,True,17
X006K21,522,experiment,120,↓,down,↓,0.619589600013569,True,17
X006K21,523,experiment,144,→,right,→,0.6596083000767976,True,17
X006K21,524,experiment,48,↑,left,←,0.9449264998547733,False,17
X006K21,525,experiment,180,↑,down,↓,0.8206674999091774,False,17
X006K21,526,experiment,120,↓,no_key,no_letter,-1.0,False,17
X006K21,527,experiment,96,→,no_key,no_letter,-1.0,False,17
X006K21,528,experiment,132,→,right,→,0.6581160000059754,True,17
X006K21,529,experiment,24,↑,down,↓,0.6641220999881625,False,17
X006K21,530,experiment,84,→,right,→,0.601397399790585,True,17
X006K21,531,experiment,72,↓,up,↑,0.6965381999034435,False,17
X006K21,532,experiment,36,←,right,→,0.5755030999425799,False,17
X006K21,533,experiment,12,↑,right,→,0.8913900000043213,False,17
X006K21,534,experiment,60,←,left,←,0.5824472000822425,True,17
X006K21,535,training,60,→,left,←,0.7902512999717146,False,17
X006K21,536,training,36,→,left,←,0.844293599948287,False,17
X006K21,537,training,36,→,left,←,0.7887149997986853,False,17
X006K21,538,experiment,48,←,left,←,0.6756521000061184,True,17
X006K21,539,experiment,180,↓,right,→,0.6317410999909043,False,17
X006K21,540,experiment,180,→,left,←,0.5661331999581307,False,17
X006K21,541,experiment,168,→,right,→,0.5716734998859465,True,17
X006K21,542,experiment,96,←,right,→,0.47365309996530414,False,17
X006K21,543,experiment,144,↑,up,↑,1.0793382998090237,True,17
X006K21,544,experiment,144,→,right,→,0.4921606001444161,True,17
X006K21,545,experiment,48,↓,down,↓,0.9196876999922097,True,17
X006K21,546,experiment,72,↑,up,↑,0.556144499918446,True,17
X006K21,547,experiment,96,→,right,→,0.4647286001127213,True,17
X006K21,548,experiment,84,↑,up,↑,0.8657490001060069,True,17
X006K21,549,experiment,120,↑,up,↑,1.003810300026089,True,17
X006K21,550,experiment,180,↑,up,↑,1.3197887998539954,True,17
X006K21,551,experiment,108,←,right,→,1.0362666000146419,False,17
X006K21,552,experiment,120,←,right,→,1.007139900000766,False,17
X006K21,553,experiment,36,←,right,→,1.1092386001255363,False,17
X006K21,554,experiment,120,→,right,→,0.4908688000869006,True,17
X006K21,555,experiment,60,↓,down,↓,0.6982522001489997,True,17
X006K21,556,experiment,72,←,down,↓,0.8676336999051273,False,17
X006K21,557,experiment,60,↑,down,↓,0.5699734000954777,False,17
X006K21,558,experiment,156,←,right,→,0.6263492000289261,False,17
X006K21,559,experiment,168,←,left,←,0.6403143999632448,True,17
X006K21,560,experiment,84,↑,down,↓,0.6897720999550074,False,17
X006K21,561,experiment,132,↓,left,←,0.6302631001453847,False,17
X006K21,562,experiment,24,↓,down,↓,0.6880389000289142,True,17
X006K21,563,experiment,60,→,left,←,0.5230976999737322,False,17
X006K21,564,experiment,168,↓,right,→,0.8729550999123603,False,17
X006K21,565,experiment,48,↑,up,↑,0.7457673000171781,True,17
X006K21,566,experiment,96,→,right,→,0.45629459992051125,True,17
X006K21,567,experiment,12,↓,down,↓,0.6385160000063479,True,17
X006K21,568,experiment,84,←,right,→,0.5166599999647588,False,17
X006K21,569,experiment,36,↑,up,↑,0.6109629001002759,True,17
X006K21,570,experiment,36,←,right,→,0.8432612998876721,False,17
X006K21,571,experiment,24,↑,up,↑,0.6912930000107735,True,17
X006K21,572,experiment,132,←,left,←,0.6417650999501348,True,17
X006K21,573,experiment,156,←,left,←,1.241793500026688,True,17
X006K21,574,experiment,36,←,right,→,0.9445940000005066,False,17
X006K21,575,experiment,108,↑,no_key,no_letter,-1.0,False,17
X006K21,576,experiment,108,←,left,←,0.6511047999374568,True,17
X006K21,577,experiment,12,↑,up,↑,1.4836571000050753,True,17
X006K21,578,experiment,120,→,right,→,0.602629299974069,True,17
X006K21,579,experiment,12,←,right,→,0.5664484999142587,False,17
X006K21,580,experiment,60,→,right,→,0.7187675999011844,True,17
X006K21,581,experiment,144,↑,up,↑,0.7419098999816924,True,17
X006K21,582,experiment,72,↑,up,↑,0.6123426998965442,True,17
X006K21,583,experiment,96,←,right,→,1.3308053000364453,False,17
X006K21,584,experiment,108,→,right,→,0.6157087997999042,True,17
X006K21,585,experiment,48,↓,down,↓,0.6670144000090659,True,17
X006K21,586,experiment,132,→,right,→,0.5664099999703467,True,17
X006K21,587,experiment,156,↓,down,↓,0.8483325000852346,True,17
X006K21,588,experiment,180,→,right,→,0.5339612001553178,True,17
X006K21,589,experiment,156,↓,right,→,0.8928110999986529,False,17
X006K21,590,experiment,72,↓,down,↓,0.6898528998717666,True,17
X006K21,591,experiment,144,→,right,→,0.5472553998697549,True,17
X006K21,592,experiment,84,↑,down,↓,0.671212499961257,False,17
X006K21,593,experiment,132,↑,down,↓,0.6699163001030684,False,17
X006K21,594,experiment,24,→,right,→,0.5201944999862462,True,17
X006K21,595,experiment,12,↓,down,↓,0.6160557998809963,True,17
X006K21,596,experiment,168,←,right,→,0.5953794999513775,False,17
X006K21,597,experiment,24,←,left,←,0.573219700017944,True,17
X006K21,598,training,12,↑,right,→,0.7608842998743057,False,17
X006K21,599,training,36,→,right,→,0.5120418001897633,True,17
X006K21,600,training,24,↓,up,↑,0.8101486000232399,False,17
X006K21,601,experiment,84,→,right,→,0.5098778000101447,True,17
X006K21,602,experiment,168,←,right,→,0.642380400095135,False,17
X006K21,603,experiment,24,↓,up,↑,0.8646988999098539,False,17
X006K21,604,experiment,84,←,right,→,0.47985040000639856,False,17
X006K21,605,experiment,180,↓,left,←,0.822619799990207,False,17
X006K21,606,experiment,60,↓,left,←,1.165420199977234,False,17
X006K21,607,experiment,36,↑,up,↑,0.5958653998095542,True,17
X006K21,608,experiment,168,←,right,→,0.9921029000543058,False,17
X006K21,609,experiment,144,→,right,→,0.8308292999863625,True,17
X006K21,610,experiment,120,→,right,→,0.489203599980101,True,17
X006K21,611,experiment,84,↑,up,↑,0.4822039999999106,True,17
X006K21,612,experiment,24,←,right,→,0.7143075000494719,False,17
X006K21,613,experiment,108,←,left,←,0.625672800000757,True,17
X006K21,614,experiment,36,↓,up,↑,1.2487550000660121,False,17
X006K21,615,experiment,48,↑,no_key,no_letter,-1.0,False,17
X006K21,616,experiment,96,↓,down,↓,0.6951466000173241,True,17
X006K21,617,experiment,12,←,right,→,0.682974100112915,False,17
X006K21,618,experiment,96,→,right,→,0.6873763001058251,True,17
X006K21,619,experiment,144,↑,right,→,0.7033667000941932,False,17
X006K21,620,experiment,72,←,left,←,0.4943806999363005,True,17
X006K21,621,experiment,48,←,right,→,0.45188519987277687,False,17
X006K21,622,experiment,60,←,left,←,1.2241615999955684,True,17
X006K21,623,experiment,36,↓,no_key,no_letter,-1.0,False,17
X006K21,624,experiment,156,←,left,←,0.5489950999617577,True,17
X006K21,625,experiment,156,←,left,←,0.8055946999229491,True,17
X006K21,626,experiment,60,↓,up,↑,1.1025791999418288,False,17
X006K21,627,experiment,180,←,left,←,0.5201674001291394,True,17
X006K21,628,experiment,96,←,left,←,0.843976000091061,True,17
X006K21,629,experiment,132,→,left,←,0.5823041000403464,False,17
X006K21,630,experiment,12,↓,up,↑,0.5991547999437898,False,17
X006K21,631,experiment,168,←,left,←,0.6933710998855531,True,17
X006K21,632,experiment,24,→,left,←,0.8329609001521021,False,17
X006K21,633,experiment,120,↓,no_key,no_letter,-1.0,False,17
X006K21,634,experiment,72,↓,up,↑,0.7968814000487328,False,17
X006K21,635,experiment,120,→,left,←,0.6235107998363674,False,17
X006K21,636,experiment,132,←,left,←,0.5228590001352131,True,17
X006K21,637,experiment,108,→,left,←,0.5815403999295086,False,17
X006K21,638,experiment,60,↑,up,↑,0.73136269999668,True,17
X006K21,639,experiment,48,↑,up,↑,0.6995941000059247,True,17
X006K21,640,experiment,156,→,right,→,0.6869910999666899,True,17
X006K21,641,experiment,132,→,right,→,0.6364777002017945,True,17
X006K21,642,experiment,12,↑,right,→,0.5567212000023574,False,17
X006K21,643,experiment,132,↓,down,↓,0.6651756998617202,True,17
X006K21,644,experiment,36,←,left,←,1.039159799925983,True,17
X006K21,645,experiment,72,→,left,←,0.8511739999521524,False,17
X006K21,646,experiment,24,↑,up,↑,0.9413926000706851,True,17
X006K21,647,experiment,108,↓,down,↓,0.8279926998075098,True,17
X006K21,648,experiment,144,↓,down,↓,0.6073957998305559,True,17
X006K21,649,experiment,180,↑,up,↑,0.7023537999484688,True,17
X006K21,650,experiment,12,←,down,↓,0.7669315999373794,False,17
X006K21,651,experiment,84,↑,up,↑,0.7499263999052346,True,17
X006K21,652,experiment,108,↑,up,↑,0.671620300039649,True,17
X006K21,653,experiment,180,←,left,←,0.6321682000998408,True,17
X006K21,654,experiment,96,→,right,→,0.5948317998554558,True,17
X006K21,655,experiment,72,↑,up,↑,0.5078868002165109,True,17
X006K21,656,experiment,144,↓,up,↑,0.5239286001306027,False,17
X006K21,657,experiment,156,→,left,←,0.5076067999470979,False,17
X006K21,658,experiment,48,←,right,→,0.5770505999680609,False,17
X006K21,659,experiment,120,↓,up,↑,0.6296528000384569,False,17
X006K21,660,experiment,168,↓,down,↓,0.747662500012666,True,17
X006K21,661,training,96,↓,down,↓,0.6899091999512166,True,18
X006K21,662,training,168,←,right,→,0.6147427000105381,False,18
X006K21,663,training,132,↑,no_key,no_letter,-1.0,False,18
X006K21,664,experiment,36,↑,no_key,no_letter,-1.0,False,18
X006K21,665,experiment,24,↓,up,↑,0.8410527999512851,False,18
X006K21,666,experiment,180,←,left,←,0.645813100039959,True,18
X006K21,667,experiment,180,←,right,→,0.6546480997931212,False,18
X006K21,668,experiment,156,↓,left,←,1.450908500002697,False,18
X006K21,669,experiment,84,↑,up,↑,1.615908700041473,True,18
X006K21,670,experiment,60,↓,up,↑,0.5224983999505639,False,18
X006K21,671,experiment,12,↑,down,↓,1.0625094000715762,False,18
X006K21,672,experiment,156,↑,up,↑,0.7981132999993861,True,18
X006K21,673,experiment,60,←,left,←,0.6381111000664532,True,18
X006K21,674,experiment,168,↑,up,↑,0.6293367999605834,True,18
X006K21,675,experiment,156,→,left,←,0.6562533001415431,False,18
X006K21,676,experiment,84,↓,down,↓,0.9948554998263717,True,18
X006K21,677,experiment,108,↑,up,↑,0.5104598000179976,True,18
X006K21,678,experiment,168,→,right,→,0.5676565999165177,True,18
X006K21,679,experiment,60,↓,right,→,1.5838617000263184,False,18
X006K21,680,experiment,72,↑,up,↑,0.6985028998460621,True,18
X006K21,681,experiment,168,→,left,←,0.5857592998072505,False,18
X006K21,682,experiment,144,↓,up,↑,0.6811402998864651,False,18
X006K21,683,experiment,48,↑,up,↑,0.5361689999699593,True,18
X006K21,684,experiment,120,↑,up,↑,0.6260655000805855,True,18
X006K21,685,experiment,168,↑,down,↓,0.8892163001000881,False,18
X006K21,686,experiment,144,↓,left,←,1.6006851999554783,False,18
X006K21,687,experiment,24,←,right,→,0.48192259995266795,False,18
X006K21,688,experiment,120,←,right,→,0.9881056000012904,False,18
X006K21,689,experiment,96,→,right,→,0.5596483999397606,True,18
X006K21,690,experiment,180,←,right,→,0.5114819998852909,False,18
X006K21,691,experiment,108,↓,left,←,1.1082796999253333,False,18
X006K21,692,experiment,84,→,right,→,0.4922537000384182,True,18
X006K21,693,experiment,24,↓,down,↓,0.47724179993383586,True,18
X006K21,694,experiment,132,↓,down,↓,0.5140396999195218,True,18
X006K21,695,experiment,36,↑,right,→,0.9823718001134694,False,18
X006K21,696,experiment,132,←,no_key,no_letter,-1.0,False,18
X006K21,697,experiment,72,←,left,←,0.6444790998939425,True,18
X006K21,698,experiment,12,↓,left,←,1.9296017999295145,False,18
X006K21,699,experiment,108,→,right,→,0.4839719000738114,True,18
X006K21,700,experiment,132,→,right,→,0.4960084999911487,True,18
X006K21,701,experiment,120,↓,left,←,0.7204575999639928,False,18
X006K21,702,experiment,144,→,right,→,1.0164777000900358,True,18
X006K21,703,experiment,180,↑,right,→,0.6850775999482721,False,18
X006K21,704,experiment,48,↑,up,↑,0.6161982999183238,True,18
X006K21,705,experiment,96,→,left,←,0.6192612000741065,False,18
X006K21,706,experiment,36,↑,up,↑,0.6632391000166535,True,18
X006K21,707,experiment,48,↑,up,↑,0.5966209000907838,True,18
X006K21,708,experiment,156,→,left,←,0.5203785998746753,False,18
X006K21,709,experiment,84,→,right,→,0.5749283998738974,True,18
X006K21,710,experiment,72,→,right,→,0.6081391999032348,True,18
X006K21,711,experiment,12,↓,down,↓,0.8142291000112891,True,18
X006K21,712,experiment,132,↑,down,↓,0.6282029000576586,False,18
X006K21,713,experiment,48,←,left,←,0.7157896000426263,True,18
X006K21,714,experiment,36,↓,down,↓,0.6995145999826491,True,18
X006K21,715,experiment,24,←,left,←,0.5217295000329614,True,18
X006K21,716,experiment,120,↑,right,→,0.6741020001936704,False,18
X006K21,717,experiment,144,↓,down,↓,0.7425223998725414,True,18
X006K21,718,experiment,72,↑,down,↓,0.6211154002230614,False,18
X006K21,719,experiment,96,↓,down,↓,0.5999519999604672,True,18
X006K21,720,experiment,108,↓,down,↓,0.6843806998804212,True,18
X006K21,721,experiment,12,↓,down,↓,0.646459300071001,True,18
X006K21,722,experiment,60,←,left,←,0.5422434001229703,True,18
X006K21,723,experiment,96,←,right,→,0.5616343000438064,False,18
X006K21,724,training,144,↑,left,←,1.3477909001521766,False,18
X006K21,725,training,168,↑,down,↓,0.5763846000190824,False,18
X006K21,726,training,84,↑,down,↓,0.48682070011273026,False,18
X006K21,727,experiment,36,←,left,←,0.47954669990576804,True,18
X006K21,728,experiment,180,↑,up,↑,0.6851013000123203,True,18
X006K21,729,experiment,132,↑,down,↓,0.6952670000027865,False,18
X006K21,730,experiment,108,↑,up,↑,1.1146658000070602,True,18
X006K21,731,experiment,96,←,left,←,0.726025199983269,True,18
X006K21,732,experiment,12,←,left,←,0.4861093999352306,True,18
X006K21,733,experiment,168,↑,up,↑,0.7224993999116123,True,18
X006K21,734,experiment,12,→,right,→,0.6446267000865191,True,18
X006K21,735,experiment,96,←,right,→,0.5849263998679817,False,18
X006K21,736,experiment,156,→,right,→,0.49628950003534555,True,18
X006K21,737,experiment,12,↓,right,→,0.7827237998135388,False,18
X006K21,738,experiment,144,↓,no_key,no_letter,-1.0,False,18
X006K21,739,experiment,72,→,right,→,0.6040885001420975,True,18
X006K21,740,experiment,180,→,right,→,0.5282078001182526,True,18
X006K21,741,experiment,48,→,right,→,0.47479730006307364,True,18
X006K21,742,experiment,144,→,no_key,no_letter,-1.0,False,18
X006K21,743,experiment,48,↑,up,↑,0.5999137000180781,True,18
X006K21,744,experiment,120,↓,down,↓,0.7379730001557618,True,18
X006K21,745,experiment,84,→,right,→,0.4935236999299377,True,18
X006K21,746,experiment,120,↓,down,↓,0.9198475999291986,True,18
X006K21,747,experiment,36,↓,up,↑,0.8195279000792652,False,18
X006K21,748,experiment,12,↑,up,↑,0.5771411000750959,True,18
X006K21,749,experiment,144,→,right,→,0.5756663999054581,True,18
X006K21,750,experiment,24,↓,left,←,1.790167799917981,False,18
X006K21,751,experiment,72,↑,up,↑,0.6172956000082195,True,18
X006K21,752,experiment,156,↓,no_key,no_letter,-1.0,False,18
X006K21,753,experiment,156,↑,down,↓,0.8422166998498142,False,18
X006K21,754,experiment,180,↑,up,↑,0.557180600007996,True,18
X006K21,755,experiment,168,↑,up,↑,0.7624350998084992,True,18
X006K21,756,experiment,120,→,right,→,0.6200615998823196,True,18
X006K21,757,experiment,132,→,right,→,0.613914699992165,True,18
X006K21,758,experiment,36,↑,up,↑,0.6540865998249501,True,18
X006K21,759,experiment,144,↑,up,↑,0.6360190999694169,True,18
X006K21,760,experiment,48,↓,up,↑,0.5299589999485761,False,18
X006K21,761,experiment,60,←,right,→,0.5472456999123096,False,18
X006K21,762,experiment,24,→,right,→,1.3014277000911534,True,18
X006K21,763,experiment,156,↓,left,←,0.7884367001242936,False,18
X006K21,764,experiment,36,↑,up,↑,0.5670476001687348,True,18
X006K21,765,experiment,60,↓,down,↓,0.7201241999864578,True,18
X006K21,766,experiment,72,←,left,←,0.5630077000241727,True,18
X006K21,767,experiment,96,←,right,→,0.5147178000770509,False,18
X006K21,768,experiment,108,↓,down,↓,0.7645831000991166,True,18
X006K21,769,experiment,168,↓,left,←,0.544151599984616,False,18
X006K21,770,experiment,168,←,left,←,1.1171008998062462,True,18
X006K21,771,experiment,24,↓,left,←,0.5500235001090914,False,18
X006K21,772,experiment,84,↑,up,↑,0.6077417000196874,True,18
X006K21,773,experiment,60,→,left,←,0.5624180999584496,False,18
X006K21,774,experiment,132,↓,down,↓,0.7647010998334736,True,18
X006K21,775,experiment,84,↑,down,↓,0.7065469000954181,False,18
X006K21,776,experiment,60,←,left,←,0.9584105999674648,True,18
X006K21,777,experiment,84,↑,down,↓,0.7206626997794956,False,18
X006K21,778,experiment,48,↑,down,↓,0.6517042999621481,False,18
X006K21,779,experiment,96,→,right,→,0.6434329999610782,True,18
X006K21,780,experiment,24,↓,down,↓,0.6676131000276655,True,18
X006K21,781,experiment,132,←,left,←,1.1550135998986661,True,18
X006K21,782,experiment,120,←,left,←,0.695922400103882,True,18
X006K21,783,experiment,72,→,left,←,0.7696375001687557,False,18
X006K21,784,experiment,108,←,left,←,0.6616136999800801,True,18
X006K21,785,experiment,180,←,right,→,1.3890423001721501,False,18
X006K21,786,experiment,108,↓,up,↑,1.300842700060457,False,18
X006K21,787,training,108,→,left,←,0.7663665001746267,False,18
X006K21,788,training,144,←,left,←,0.6056393999606371,True,18
X006K21,789,training,60,↑,left,←,0.621722900075838,False,18
X006K21,790,experiment,60,←,left,←,0.7734737999271601,True,18
X006K21,791,experiment,84,←,left,←,0.5633490001782775,True,18
X006K21,792,experiment,144,↓,left,←,0.657506899908185,False,18
X006K21,793,experiment,180,←,right,→,0.6309476001188159,False,18
X006K21,794,experiment,156,↓,down,↓,0.7604164001531899,True,18
X006K21,795,experiment,132,←,left,←,0.5955078999977559,True,18
X006K21,796,experiment,96,→,left,←,0.5468809001613408,False,18
X006K21,797,experiment,72,↑,down,↓,0.6331305000931025,False,18
X006K21,798,experiment,144,←,right,→,0.647570600034669,False,18
X006K21,799,experiment,156,↓,left,←,0.5849162000231445,False,18
X006K21,800,experiment,12,↑,up,↑,0.7307883999310434,True,18
X006K21,801,experiment,144,↓,down,↓,0.7113884999416769,True,18
X006K21,802,experiment,12,→,right,→,0.5388634998816997,True,18
X006K21,803,experiment,108,↑,down,↓,0.5609150000382215,False,18
X006K21,804,experiment,168,←,left,←,0.562051200075075,True,18
X006K21,805,experiment,12,↑,down,↓,0.6849940000101924,False,18
X006K21,806,experiment,48,↑,down,↓,0.7287725999485701,False,18
X006K21,807,experiment,168,→,right,→,0.6760229000356048,True,18
X006K21,808,experiment,180,→,right,→,0.6015973999164999,True,18
X006K21,809,experiment,168,→,right,→,0.5356064999941736,True,18
X006K21,810,experiment,156,↑,up,↑,0.7423278000205755,True,18
X006K21,811,experiment,36,↓,up,↑,1.1604456000495702,False,18
X006K21,812,experiment,84,↑,up,↑,0.7970736999996006,True,18
X006K21,813,experiment,96,↑,up,↑,0.8299037001561373,True,18
X006K21,814,experiment,72,↓,up,↑,1.4918130000587553,False,18
X006K21,815,experiment,168,→,right,→,0.5720433001406491,True,18
X006K21,816,experiment,132,↓,down,↓,0.8009548000991344,True,18
X006K21,817,experiment,72,↓,down,↓,0.7039099000394344,True,18
X006K21,818,experiment,120,↑,down,↓,0.8628400000743568,False,18
X006K21,819,experiment,84,↑,up,↑,0.8125575000885874,True,18
X006K21,820,experiment,108,↓,down,↓,0.7406375999562442,True,18
X006K21,821,experiment,24,→,right,→,0.6130887002218515,True,18
X006K21,822,experiment,96,↑,no_key,no_letter,-1.0,False,18
X006K21,823,experiment,180,↑,up,↑,0.7320789999794215,True,18
X006K21,824,experiment,84,↑,up,↑,0.5463896999135613,True,18
X006K21,825,experiment,120,→,right,→,0.5954360999166965,True,18
X006K21,826,experiment,120,↓,right,→,1.1165144999977201,False,18
X006K21,827,experiment,48,←,left,←,0.5780980999115855,True,18
X006K21,828,experiment,60,→,right,→,0.6261481998953968,True,18
X006K21,829,experiment,36,↑,up,↑,0.9670560001395643,True,18
X006K21,830,experiment,48,→,right,→,0.5390729000791907,True,18
X006K21,831,experiment,60,↑,left,←,1.150018900167197,False,18
X006K21,832,experiment,108,↓,down,↓,0.5550999999977648,True,18
X006K21,833,experiment,36,→,left,←,0.6590315001085401,False,18
X006K21,834,experiment,108,←,left,←,0.9396394998766482,True,18
X006K21,835,experiment,156,←,left,←,0.7313993000425398,True,18
X006K21,836,experiment,72,→,right,→,0.5009413999505341,True,18
X006K21,837,experiment,96,↓,right,→,0.8519924997817725,False,18
X006K21,838,experiment,144,→,right,→,0.5600447999313474,True,18
X006K21,839,experiment,120,←,right,→,0.5199345001019537,False,18
X006K21,840,experiment,24,↓,down,↓,0.753496800083667,True,18
X006K21,841,experiment,24,→,right,→,0.6808335999958217,True,18
X006K21,842,experiment,12,←,left,←,0.682833299972117,True,18
X006K21,843,experiment,24,←,right,→,0.5799394000787288,False,18
X006K21,844,experiment,132,↓,down,↓,0.6923855999484658,True,18
X006K21,845,experiment,48,↑,down,↓,0.8510284000076354,False,18
X006K21,846,experiment,36,←,left,←,0.6436755999457091,True,18
X006K21,847,experiment,60,→,left,←,0.6004425000865012,False,18
X006K21,848,experiment,180,←,left,←,0.5262400999199599,True,18
X006K21,849,experiment,132,↓,left,←,0.5111724999733269,False,18
