PART_ID,Trial_no,Trial_type,PDI,Stim_letter,Key_pressed,letter_choose,Rt,Corr,Stimulus Time
X008K22,1,training,10,→,no_key,no_letter,-1.0,False,30
X008K22,2,training,10,↓,no_key,no_letter,-1.0,False,30
X008K22,3,training,10,↓,right,→,1.0968247996643186,False,30
X008K22,4,training,10,↑,up,↑,1.5096885999664664,True,30
X008K22,5,training,10,↑,up,↑,1.238860999699682,True,30
X008K22,6,training,10,↑,right,→,0.9063042001798749,False,30
X008K22,7,training,10,↑,no_key,no_letter,-1.0,False,30
X008K22,8,training,10,↓,no_key,no_letter,-1.0,False,30
X008K22,9,training,10,←,no_key,no_letter,-1.0,False,30
X008K22,10,training,10,↓,up,↑,1.5462038996629417,False,30
X008K22,11,training,10,→,up,↑,1.492002199869603,False,30
X008K22,12,training,10,↑,up,↑,0.9902089000679553,True,30
X008K22,13,training,10,→,right,→,1.143162399996072,True,30
X008K22,14,training,10,↑,up,↑,1.3477269997820258,True,30
X008K22,15,training,10,←,left,←,1.337277999613434,True,30
X008K22,16,training,10,↓,down,↓,1.157048700377345,True,30
X008K22,17,training,10,→,right,→,0.8912105998024344,True,30
X008K22,18,training,10,←,left,←,0.9000518000684679,True,30
X008K22,19,training,10,↑,no_key,no_letter,-1.0,False,30
X008K22,20,training,10,↑,up,↑,1.1126218000426888,True,30
X008K22,21,training,10,↓,down,↓,0.8905857997015119,True,18
X008K22,22,training,10,↓,down,↓,0.6780214002355933,True,18
X008K22,23,training,10,↑,up,↑,0.7151027000509202,True,18
X008K22,24,training,10,←,right,→,0.7373848999850452,False,18
X008K22,25,training,10,↓,down,↓,0.6862885998561978,True,18
X008K22,26,training,10,→,right,→,0.8207239997573197,True,18
X008K22,27,training,10,↑,down,↓,0.9689412000589073,False,18
X008K22,28,training,10,↓,down,↓,0.6893885997124016,True,18
X008K22,29,training,10,↑,up,↑,0.686413099989295,True,18
X008K22,30,training,10,↑,up,↑,0.8157271002419293,True,18
X008K22,31,training,144,←,up,↑,0.821168000344187,False,15
X008K22,32,training,96,←,up,↑,1.0762816001661122,False,15
X008K22,33,training,48,↑,down,↓,1.0666343998163939,False,15
X008K22,34,experiment,168,↓,up,↑,1.2851836001500487,False,15
X008K22,35,experiment,168,→,right,→,0.7866807002574205,True,15
X008K22,36,experiment,144,→,up,↑,1.0132916998118162,False,15
X008K22,37,experiment,24,←,left,←,1.4262025002390146,True,15
X008K22,38,experiment,132,↓,down,↓,0.7558055003173649,True,15
X008K22,39,experiment,36,→,left,←,0.8988067000173032,False,15
X008K22,40,experiment,36,→,right,→,0.7520074001513422,True,15
X008K22,41,experiment,120,↑,down,↓,0.9642841001041234,False,15
X008K22,42,experiment,12,↑,left,←,1.0047554997727275,False,15
X008K22,43,experiment,120,→,right,→,0.8830538000911474,True,15
X008K22,44,experiment,168,→,left,←,0.8350549000315368,False,15
X008K22,45,experiment,48,↓,down,↓,0.6623388002626598,True,15
X008K22,46,experiment,180,↑,right,→,0.9214693997055292,False,15
X008K22,47,experiment,180,↑,down,↓,0.8052524998784065,False,15
X008K22,48,experiment,96,→,right,→,0.8335359999909997,True,15
X008K22,49,experiment,156,↑,right,→,1.0411038002930582,False,15
X008K22,50,experiment,60,↓,down,↓,0.7398415999487042,True,15
X008K22,51,experiment,24,→,right,→,0.8410215000621974,True,15
X008K22,52,experiment,60,↑,down,↓,0.7991454000584781,False,15
X008K22,53,experiment,144,→,right,→,0.8719436000101268,True,15
X008K22,54,experiment,156,←,down,↓,0.9284274997189641,False,15
X008K22,55,experiment,120,↑,up,↑,0.7042701998725533,True,15
X008K22,56,experiment,108,↑,down,↓,0.8594180000945926,False,15
X008K22,57,experiment,180,↑,right,→,1.118825700134039,False,15
X008K22,58,experiment,132,←,right,→,1.0049470998346806,False,15
X008K22,59,experiment,72,↓,down,↓,0.8816282995976508,True,15
X008K22,60,experiment,96,↓,left,←,1.2514361999928951,False,15
X008K22,61,experiment,72,←,down,↓,1.0527236997149885,False,15
X008K22,62,experiment,12,→,right,→,0.5926411999389529,True,15
X008K22,63,experiment,72,↓,down,↓,0.6850662003271282,True,15
X008K22,64,experiment,60,←,left,←,1.0310060000047088,True,15
X008K22,65,experiment,36,→,up,↑,0.7242457000538707,False,15
X008K22,66,experiment,168,→,left,←,0.8724797000177205,False,15
X008K22,67,experiment,96,←,right,→,0.8651230996474624,False,15
X008K22,68,experiment,120,→,right,→,1.1063434001989663,True,15
X008K22,69,experiment,60,↓,down,↓,0.680905600078404,True,15
X008K22,70,experiment,84,←,left,←,1.3269943003542721,True,15
X008K22,71,experiment,180,↓,left,←,0.9506591996178031,False,15
X008K22,72,experiment,84,←,up,↑,1.4610840999521315,False,15
X008K22,73,experiment,84,←,right,→,1.1691555003635585,False,15
X008K22,74,experiment,24,→,left,←,1.2674782001413405,False,15
X008K22,75,experiment,12,→,right,→,1.5599524998106062,True,15
X008K22,76,experiment,108,↓,no_key,no_letter,-1.0,False,15
X008K22,77,experiment,36,↑,left,←,1.0778756998479366,False,15
X008K22,78,experiment,108,↓,right,→,1.3452385999262333,False,15
X008K22,79,experiment,144,←,no_key,no_letter,-1.0,False,15
X008K22,80,experiment,48,→,left,←,0.9782266998663545,False,15
X008K22,81,experiment,132,→,right,→,0.8411694997921586,True,15
X008K22,82,experiment,48,↑,down,↓,1.898883800022304,False,15
X008K22,83,experiment,96,←,left,←,0.7640463002026081,True,15
X008K22,84,experiment,156,→,right,→,1.0896340999752283,True,15
X008K22,85,experiment,144,←,right,→,1.0513015002943575,False,15
X008K22,86,experiment,12,←,up,↑,1.156944100279361,False,15
X008K22,87,experiment,48,←,left,←,0.8415891998447478,True,15
X008K22,88,experiment,132,↓,down,↓,0.9033005996607244,True,15
X008K22,89,experiment,24,→,no_key,no_letter,-1.0,False,15
X008K22,90,experiment,84,←,left,←,0.8433754001744092,True,15
X008K22,91,experiment,156,←,right,→,0.7981652999296784,False,15
X008K22,92,experiment,108,→,right,→,0.9300793004222214,True,15
X008K22,93,experiment,72,→,right,→,1.19245360000059,True,15
X008K22,94,training,168,→,right,→,1.0798068000003695,True,16
X008K22,95,training,72,←,left,←,0.6971772997640073,True,16
X008K22,96,training,36,↓,down,↓,0.8987485999241471,True,16
X008K22,97,experiment,180,←,left,←,0.9695021999068558,True,16
X008K22,98,experiment,108,↓,left,←,0.8889599000103772,False,16
X008K22,99,experiment,96,↑,down,↓,0.693884199950844,False,16
X008K22,100,experiment,36,↑,up,↑,0.44684959994629025,True,16
X008K22,101,experiment,12,↑,down,↓,0.9314648997969925,False,16
X008K22,102,experiment,168,→,left,←,0.9764399998821318,False,16
X008K22,103,experiment,108,←,left,←,1.1050912998616695,True,16
X008K22,104,experiment,24,→,right,→,0.8614894999191165,True,16
X008K22,105,experiment,96,←,left,←,0.7903180001303554,True,16
X008K22,106,experiment,12,↑,up,↑,0.7523636999540031,True,16
X008K22,107,experiment,96,↓,down,↓,0.8154539000242949,True,16
X008K22,108,experiment,36,→,right,→,1.0938901999033988,True,16
X008K22,109,experiment,120,←,right,→,1.0262972000055015,False,16
X008K22,110,experiment,132,↑,up,↑,1.2990235001780093,True,16
X008K22,111,experiment,24,←,left,←,0.7013834002427757,True,16
X008K22,112,experiment,168,↑,down,↓,0.5815968001261353,False,16
X008K22,113,experiment,36,↓,down,↓,0.8660993999801576,True,16
X008K22,114,experiment,180,↓,up,↑,0.8041173000819981,False,16
X008K22,115,experiment,72,↓,down,↓,0.5643098000437021,True,16
X008K22,116,experiment,144,←,right,→,0.7825310002081096,False,16
X008K22,117,experiment,144,↑,up,↑,0.6013338998891413,True,16
X008K22,118,experiment,108,→,down,↓,0.9507771003991365,False,16
X008K22,119,experiment,156,←,left,←,0.8366116997785866,True,16
X008K22,120,experiment,60,←,up,↑,0.6682763998396695,False,16
X008K22,121,experiment,84,↑,right,→,0.451921499799937,False,16
X008K22,122,experiment,60,↓,down,↓,0.5602989997714758,True,16
X008K22,123,experiment,144,←,up,↑,0.35043169977143407,False,16
X008K22,124,experiment,48,↓,down,↓,0.7346170996315777,True,16
X008K22,125,experiment,12,↓,up,↑,0.6364628998562694,False,16
X008K22,126,experiment,36,↓,down,↓,0.7646446996368468,True,16
X008K22,127,experiment,120,→,down,↓,0.7597563997842371,False,16
X008K22,128,experiment,120,←,up,↑,0.2672305000014603,False,16
X008K22,129,experiment,168,→,left,←,0.4004914998076856,False,16
X008K22,130,experiment,108,←,left,←,0.7203617999330163,True,16
X008K22,131,experiment,48,→,right,→,0.4626718000508845,True,16
X008K22,132,experiment,48,↓,down,↓,0.7576293000020087,True,16
X008K22,133,experiment,144,←,right,→,0.7879018001258373,False,16
X008K22,134,experiment,96,←,left,←,0.5088571002706885,True,16
X008K22,135,experiment,120,↑,right,→,1.021603100001812,False,16
X008K22,136,experiment,12,←,right,→,0.740106699988246,False,16
X008K22,137,experiment,132,→,right,→,0.998176799621433,True,16
X008K22,138,experiment,72,→,left,←,0.8751449002884328,False,16
X008K22,139,experiment,84,↑,down,↓,0.9655102998949587,False,16
X008K22,140,experiment,60,←,right,→,0.7304463000036776,False,16
X008K22,141,experiment,156,↑,left,←,1.0267890999093652,False,16
X008K22,142,experiment,132,↓,right,→,0.7451694002375007,False,16
X008K22,143,experiment,72,↓,down,↓,0.9092806000262499,True,16
X008K22,144,experiment,156,↑,down,↓,0.9404362998902798,False,16
X008K22,145,experiment,180,→,right,→,0.5618778001517057,True,16
X008K22,146,experiment,48,→,left,←,0.6606620000675321,False,16
X008K22,147,experiment,180,→,right,→,0.7967037996277213,True,16
X008K22,148,experiment,168,↓,down,↓,0.9217266999185085,True,16
X008K22,149,experiment,156,→,left,←,0.6397592001594603,False,16
X008K22,150,experiment,24,←,left,←,0.8811642001383007,True,16
X008K22,151,experiment,60,←,left,←,0.9806417999789119,True,16
X008K22,152,experiment,72,↑,up,↑,1.22297180024907,True,16
X008K22,153,experiment,84,→,right,→,1.1620955998077989,True,16
X008K22,154,experiment,24,↑,up,↑,0.8816714999265969,True,16
X008K22,155,experiment,132,→,left,←,1.0018459996208549,False,16
X008K22,156,experiment,84,→,right,→,1.1652627997100353,True,16
X008K22,157,training,120,→,right,→,0.6088665002025664,True,17
X008K22,158,training,48,→,right,→,0.6345371999777853,True,17
X008K22,159,training,36,→,left,←,0.9908088999800384,False,17
X008K22,160,experiment,24,↓,left,←,0.9406948001123965,False,17
X008K22,161,experiment,156,←,up,↑,0.5648428001441061,False,17
X008K22,162,experiment,12,↓,up,↑,1.1037150998599827,False,17
X008K22,163,experiment,72,↑,up,↑,0.651781199965626,True,17
X008K22,164,experiment,180,→,right,→,0.8773750998079777,True,17
X008K22,165,experiment,24,↓,no_key,no_letter,-1.0,False,17
X008K22,166,experiment,84,↑,no_key,no_letter,-1.0,False,17
X008K22,167,experiment,120,→,right,→,1.1428399998694658,True,17
X008K22,168,experiment,36,↑,left,←,1.0949358004145324,False,17
X008K22,169,experiment,36,↓,down,↓,0.9477931996807456,True,17
X008K22,170,experiment,96,↑,down,↓,1.169818100053817,False,17
X008K22,171,experiment,120,↓,up,↑,1.3828528998419642,False,17
X008K22,172,experiment,36,←,left,←,0.7668642997741699,True,17
X008K22,173,experiment,168,↓,right,→,1.144586999900639,False,17
X008K22,174,experiment,168,←,left,←,0.6829850999638438,True,17
X008K22,175,experiment,84,↑,no_key,no_letter,-1.0,False,17
X008K22,176,experiment,168,→,no_key,no_letter,-1.0,False,17
X008K22,177,experiment,156,↑,left,←,1.2496577999554574,False,17
X008K22,178,experiment,48,↓,left,←,1.5292835999280214,False,17
X008K22,179,experiment,96,↓,up,↑,1.0507659995928407,False,17
X008K22,180,experiment,132,↓,down,↓,0.8006166000850499,True,17
X008K22,181,experiment,24,↓,up,↑,1.1555968998000026,False,17
X008K22,182,experiment,84,→,right,→,0.5587625000625849,True,17
X008K22,183,experiment,156,↑,left,←,0.8130205003544688,False,17
X008K22,184,experiment,48,←,down,↓,0.6836279002018273,False,17
X008K22,185,experiment,132,↑,left,←,0.7685899999924004,False,17
X008K22,186,experiment,108,↓,up,↑,0.8889040998183191,False,17
X008K22,187,experiment,12,←,right,→,0.8953897003084421,False,17
X008K22,188,experiment,24,↓,down,↓,0.6338551002554595,True,17
X008K22,189,experiment,120,←,right,→,0.8194319000467658,False,17
X008K22,190,experiment,144,↓,up,↑,0.8691341001540422,False,17
X008K22,191,experiment,132,↑,left,←,0.5959267998114228,False,17
X008K22,192,experiment,144,↓,down,↓,0.5682794000022113,True,17
X008K22,193,experiment,84,↓,up,↑,0.46310439985245466,False,17
X008K22,194,experiment,60,→,down,↓,0.4934807997196913,False,17
X008K22,195,experiment,108,←,right,→,0.7003794000484049,False,17
X008K22,196,experiment,108,←,left,←,0.7683153999969363,True,17
X008K22,197,experiment,72,↓,up,↑,0.706608799751848,False,17
X008K22,198,experiment,12,→,down,↓,0.5004199999384582,False,17
X008K22,199,experiment,36,↓,right,→,0.7494306000880897,False,17
X008K22,200,experiment,48,↓,up,↑,0.8904810003004968,False,17
X008K22,201,experiment,12,↓,down,↓,0.6541967000812292,True,17
X008K22,202,experiment,144,→,right,→,0.6297504999674857,True,17
X008K22,203,experiment,48,→,up,↑,0.8208584999665618,False,17
X008K22,204,experiment,180,↓,right,→,1.4722704999148846,False,17
X008K22,205,experiment,96,←,left,←,1.008058300241828,True,17
X008K22,206,experiment,72,←,left,←,0.8145657000131905,True,17
X008K22,207,experiment,60,↑,down,↓,0.8252347996458411,False,17
X008K22,208,experiment,60,→,right,→,0.7187629998661578,True,17
X008K22,209,experiment,156,→,left,←,1.0988055001944304,False,17
X008K22,210,experiment,180,↓,down,↓,0.958787199575454,True,17
X008K22,211,experiment,120,↑,up,↑,0.9336009998805821,True,17
X008K22,212,experiment,72,↑,up,↑,1.0689912997186184,True,17
X008K22,213,experiment,132,←,right,→,1.0177660998888314,False,17
X008K22,214,experiment,168,↑,left,←,1.5981386001221836,False,17
X008K22,215,experiment,180,→,right,→,0.821855999995023,True,17
X008K22,216,experiment,108,←,left,←,1.5869066999293864,True,17
X008K22,217,experiment,144,↑,up,↑,1.1062761000357568,True,17
X008K22,218,experiment,60,←,left,←,1.1482152002863586,True,17
X008K22,219,experiment,96,↓,right,→,0.965404599905014,False,17
X008K22,220,training,168,↑,right,→,1.1587176001630723,False,18
X008K22,221,training,144,↓,down,↓,0.7907537003047764,True,18
X008K22,222,training,156,↓,up,↑,0.8835641001351178,False,18
X008K22,223,experiment,84,←,left,←,0.9189538997597992,True,18
X008K22,224,experiment,144,↑,left,←,0.757884900085628,False,18
X008K22,225,experiment,36,←,left,←,0.9296637000516057,True,18
X008K22,226,experiment,96,↓,up,↑,1.1413859999738634,False,18
X008K22,227,experiment,132,←,left,←,0.925726399756968,True,18
X008K22,228,experiment,108,→,left,←,0.8652830002829432,False,18
X008K22,229,experiment,24,→,up,↑,1.6146359001286328,False,18
X008K22,230,experiment,84,←,down,↓,0.8614658997394145,False,18
X008K22,231,experiment,24,←,left,←,1.0143530000932515,True,18
X008K22,232,experiment,96,↓,up,↑,0.7830866002477705,False,18
X008K22,233,experiment,144,←,down,↓,1.326342800166458,False,18
X008K22,234,experiment,12,↓,up,↑,0.7450867001898587,False,18
X008K22,235,experiment,48,→,down,↓,1.043782599736005,False,18
X008K22,236,experiment,36,↓,up,↑,1.1263168002478778,False,18
X008K22,237,experiment,168,←,down,↓,0.8348538000136614,False,18
X008K22,238,experiment,48,↓,up,↑,0.6142283999361098,False,18
X008K22,239,experiment,36,←,left,←,1.1826185998506844,True,18
X008K22,240,experiment,120,←,left,←,0.9422323000617325,True,18
X008K22,241,experiment,24,↑,up,↑,0.8822957002557814,True,18
X008K22,242,experiment,168,→,down,↓,0.9560567000880837,False,18
X008K22,243,experiment,12,←,right,→,0.7843388002365828,False,18
X008K22,244,experiment,108,↑,no_key,no_letter,-1.0,False,18
X008K22,245,experiment,72,→,up,↑,1.1516738999634981,False,18
X008K22,246,experiment,120,↑,down,↓,1.3538949000649154,False,18
X008K22,247,experiment,108,←,right,→,1.2805695999413729,False,18
X008K22,248,experiment,180,↑,left,←,0.8044575997628272,False,18
X008K22,249,experiment,72,↓,down,↓,0.6994648003019392,True,18
X008K22,250,experiment,144,→,up,↑,0.8292280002497137,False,18
X008K22,251,experiment,60,→,right,→,0.9159187003970146,True,18
X008K22,252,experiment,156,←,right,→,0.82497030030936,False,18
X008K22,253,experiment,168,→,left,←,0.9372692997567356,False,18
X008K22,254,experiment,168,→,down,↓,0.5058447998017073,False,18
X008K22,255,experiment,180,↓,up,↑,0.6638405998237431,False,18
X008K22,256,experiment,108,←,left,←,0.7331824996508658,True,18
X008K22,257,experiment,132,←,left,←,1.100451699923724,True,18
X008K22,258,experiment,96,↑,left,←,0.9563662000000477,False,18
X008K22,259,experiment,12,↓,down,↓,0.9842873997986317,True,18
X008K22,260,experiment,156,↑,up,↑,1.0334487999789417,True,18
X008K22,261,experiment,72,→,right,→,0.8453963999636471,True,18
X008K22,262,experiment,12,↑,up,↑,0.8353359000757337,True,18
X008K22,263,experiment,120,↑,down,↓,1.329067200422287,False,18
X008K22,264,experiment,84,→,left,←,0.8659753003157675,False,18
X008K22,265,experiment,180,↓,right,→,0.7617355999536812,False,18
X008K22,266,experiment,60,→,up,↑,0.9563867002725601,False,18
X008K22,267,experiment,60,↑,down,↓,1.6299733999185264,False,18
X008K22,268,experiment,120,↓,up,↑,1.1427866998128593,False,18
X008K22,269,experiment,72,↑,no_key,no_letter,-1.0,False,18
X008K22,270,experiment,84,↑,up,↑,0.9713634997606277,True,18
X008K22,271,experiment,36,↓,up,↑,1.2766521000303328,False,18
X008K22,272,experiment,144,↑,up,↑,1.037831800058484,True,18
X008K22,273,experiment,24,↓,no_key,no_letter,-1.0,False,18
X008K22,274,experiment,132,↑,up,↑,0.8509720996953547,True,18
X008K22,275,experiment,48,↓,no_key,no_letter,-1.0,False,18
X008K22,276,experiment,60,↑,right,→,1.0429069004021585,False,18
X008K22,277,experiment,156,←,right,→,0.7368888999335468,False,18
X008K22,278,experiment,180,←,right,→,0.901634399779141,False,18
X008K22,279,experiment,48,→,right,→,0.812806399539113,True,18
X008K22,280,experiment,156,←,right,→,0.7139840996824205,False,18
X008K22,281,experiment,96,→,right,→,0.6877626003697515,True,18
X008K22,282,experiment,132,←,left,←,1.2213429003022611,True,18
X008K22,283,training,36,↓,no_key,no_letter,-1.0,False,18
X008K22,284,training,180,←,left,←,0.9339946997351944,True,18
X008K22,285,training,48,↑,up,↑,0.8847226998768747,True,18
X008K22,286,experiment,60,↓,down,↓,0.7331083002500236,True,18
X008K22,287,experiment,144,↑,right,→,1.2398954997770488,False,18
X008K22,288,experiment,24,←,left,←,0.6658459999598563,True,18
X008K22,289,experiment,156,←,left,←,0.5595529000274837,True,18
X008K22,290,experiment,132,↓,down,↓,0.7872271002270281,True,18
X008K22,291,experiment,96,↓,down,↓,0.6736624999903142,True,18
X008K22,292,experiment,156,←,left,←,1.1913871997967362,True,18
X008K22,293,experiment,48,↓,down,↓,0.687368200160563,True,18
X008K22,294,experiment,60,→,up,↑,1.3162858998402953,False,18
X008K22,295,experiment,120,↑,up,↑,0.722995400428772,True,18
X008K22,296,experiment,48,→,left,←,1.2101889001205564,False,18
X008K22,297,experiment,180,↑,down,↓,0.85139250010252,False,18
X008K22,298,experiment,144,←,left,←,0.5051771001890302,True,18
X008K22,299,experiment,180,→,up,↑,1.2063358002342284,False,18
X008K22,300,experiment,72,←,left,←,0.7826984999701381,True,18
X008K22,301,experiment,12,↑,up,↑,1.2189710000529885,True,18
X008K22,302,experiment,168,↓,down,↓,0.8395367995835841,True,18
X008K22,303,experiment,36,→,right,→,0.7784024002030492,True,18
X008K22,304,experiment,48,→,right,→,0.528318100143224,True,18
X008K22,305,experiment,108,↑,up,↑,1.1516740997321904,True,18
X008K22,306,experiment,84,↓,down,↓,0.9525693003088236,True,18
X008K22,307,experiment,120,→,right,→,0.8830388002097607,True,18
X008K22,308,experiment,84,↓,down,↓,0.7686008997261524,True,18
X008K22,309,experiment,36,↓,down,↓,0.6860641003586352,True,18
X008K22,310,experiment,60,↓,down,↓,1.054532699752599,True,18
X008K22,311,experiment,180,→,right,→,1.2841177000664175,True,18
X008K22,312,experiment,84,↓,down,↓,0.8847007998265326,True,18
X008K22,313,experiment,144,→,right,→,0.675293100066483,True,18
X008K22,314,experiment,168,→,right,→,0.8951662997715175,True,18
X008K22,315,experiment,120,↑,down,↓,0.607158100232482,False,18
X008K22,316,experiment,120,→,right,→,1.0338551001623273,True,18
X008K22,317,experiment,168,↓,down,↓,0.6268520997837186,True,18
X008K22,318,experiment,24,←,left,←,1.2432426000013947,True,18
X008K22,319,experiment,36,←,left,←,0.6391770001500845,True,18
X008K22,320,experiment,132,↑,up,↑,0.9177971002645791,True,18
X008K22,321,experiment,156,←,left,←,0.7695337999612093,True,18
X008K22,322,experiment,132,↓,down,↓,0.8153915000148118,True,18
X008K22,323,experiment,180,↓,down,↓,0.7553254999220371,True,18
X008K22,324,experiment,96,↑,down,↓,1.2463569999672472,False,18
X008K22,325,experiment,156,←,up,↑,1.0124928001314402,False,18
X008K22,326,experiment,108,↓,down,↓,0.7311893003061414,True,18
X008K22,327,experiment,72,↑,up,↑,0.7449872000142932,True,18
X008K22,328,experiment,168,→,left,←,0.9574977997690439,False,18
X008K22,329,experiment,108,→,left,←,0.7547486000694335,False,18
X008K22,330,experiment,144,←,left,←,0.7685326999053359,True,18
X008K22,331,experiment,108,↓,up,↑,1.311595800332725,False,18
X008K22,332,experiment,12,↓,up,↑,1.5662775998935103,False,18
X008K22,333,experiment,72,↓,right,→,1.2269291998818517,False,18
X008K22,334,experiment,60,←,left,←,0.756840200163424,True,18
X008K22,335,experiment,96,↓,down,↓,0.8323542000725865,True,18
X008K22,336,experiment,132,→,up,↑,1.0251805000007153,False,18
X008K22,337,experiment,24,↓,no_key,no_letter,-1.0,False,18
X008K22,338,experiment,24,→,left,←,0.7710473001934588,False,18
X008K22,339,experiment,36,↓,right,→,1.4408769998699427,False,18
X008K22,340,experiment,12,←,left,←,0.5498252999968827,True,18
X008K22,341,experiment,96,→,left,←,1.1549891997128725,False,18
X008K22,342,experiment,72,→,no_key,no_letter,-1.0,False,18
X008K22,343,experiment,48,→,right,→,0.7489092000760138,True,18
X008K22,344,experiment,84,←,left,←,0.7969676000066102,True,18
X008K22,345,experiment,12,↓,down,↓,1.0871166000142694,True,18
X008K22,346,training,180,↑,up,↑,0.7408340997062624,True,18
X008K22,347,training,96,→,right,→,0.6478649000637233,True,18
X008K22,348,training,48,←,left,←,0.793019300326705,True,18
X008K22,349,experiment,48,↑,no_key,no_letter,-1.0,False,18
X008K22,350,experiment,84,←,left,←,0.8035256001166999,True,18
X008K22,351,experiment,120,→,right,→,0.9042119001969695,True,18
X008K22,352,experiment,144,←,right,→,1.0387840000912547,False,18
X008K22,353,experiment,120,←,left,←,0.5555721996352077,True,18
X008K22,354,experiment,108,↑,up,↑,0.6970811998471618,True,18
X008K22,355,experiment,156,←,down,↓,0.5718623003922403,False,18
X008K22,356,experiment,132,→,right,→,0.7228496996685863,True,18
X008K22,357,experiment,108,↑,right,→,0.8106904001906514,False,18
X008K22,358,experiment,12,←,left,←,0.8209910998120904,True,18
X008K22,359,experiment,120,←,right,→,0.8802497000433505,False,18
X008K22,360,experiment,36,→,right,→,0.6400059000588953,True,18
X008K22,361,experiment,96,↓,down,↓,1.0776028004474938,True,18
X008K22,362,experiment,24,↑,up,↑,0.5863839001394808,True,18
X008K22,363,experiment,168,↑,up,↑,0.7282814998179674,True,18
X008K22,364,experiment,60,←,right,→,0.8146645999513566,False,18
X008K22,365,experiment,156,→,right,→,0.8788096001371741,True,18
X008K22,366,experiment,60,→,right,→,0.8190315999090672,True,18
X008K22,367,experiment,24,↑,right,→,1.059578100219369,False,18
X008K22,368,experiment,180,↓,down,↓,1.229010600131005,True,18
X008K22,369,experiment,84,↑,down,↓,0.9960603998042643,False,18
X008K22,370,experiment,108,→,down,↓,1.0524900001473725,False,18
X008K22,371,experiment,36,→,right,→,0.8304507001303136,True,18
X008K22,372,experiment,24,←,left,←,0.7347450000233948,True,18
X008K22,373,experiment,168,→,right,→,0.6366034997627139,True,18
X008K22,374,experiment,144,↓,down,↓,0.8799511003307998,True,18
X008K22,375,experiment,108,→,right,→,0.6782225999049842,True,18
X008K22,376,experiment,12,→,right,→,0.7897546999156475,True,18
X008K22,377,experiment,72,←,left,←,0.9169471999630332,True,18
X008K22,378,experiment,168,→,right,→,0.7209373000077903,True,18
X008K22,379,experiment,36,→,up,↑,1.4648114000447094,False,18
X008K22,380,experiment,48,→,up,↑,0.7896507997065783,False,18
X008K22,381,experiment,132,←,down,↓,0.8910433002747595,False,18
X008K22,382,experiment,132,→,right,→,0.5591687001287937,True,18
X008K22,383,experiment,36,↑,up,↑,0.841053600423038,True,18
X008K22,384,experiment,60,↑,down,↓,0.7611970002762973,False,18
X008K22,385,experiment,48,→,right,→,0.8725995998829603,True,18
X008K22,386,experiment,156,→,right,→,0.6141209001652896,True,18
X008K22,387,experiment,180,↓,down,↓,0.8577811997383833,True,18
X008K22,388,experiment,96,→,right,→,0.8827545000240207,True,18
X008K22,389,experiment,168,←,no_key,no_letter,-1.0,False,18
X008K22,390,experiment,12,↑,up,↑,0.8178038001060486,True,18
X008K22,391,experiment,84,↑,up,↑,1.3438597000204027,True,18
X008K22,392,experiment,12,←,left,←,0.684237000066787,True,18
X008K22,393,experiment,180,→,right,→,0.6389999999664724,True,18
X008K22,394,experiment,84,↑,up,↑,0.7157680001109838,True,18
X008K22,395,experiment,132,←,up,↑,1.397480099927634,False,18
X008K22,396,experiment,72,→,right,→,0.7603782997466624,True,18
X008K22,397,experiment,60,←,left,←,0.6797898998484015,True,18
X008K22,398,experiment,144,←,left,←,0.5366575997322798,True,18
X008K22,399,experiment,96,↑,no_key,no_letter,-1.0,False,18
X008K22,400,experiment,24,→,right,→,0.7442679000087082,True,18
X008K22,401,experiment,72,←,right,→,1.2923070001415908,False,18
X008K22,402,experiment,180,←,left,←,0.7791281999088824,True,18
X008K22,403,experiment,156,↑,right,→,0.714298099745065,False,18
X008K22,404,experiment,72,↑,up,↑,0.6095274002291262,True,18
X008K22,405,experiment,120,→,left,←,1.1252925000153482,False,18
X008K22,406,experiment,96,←,left,←,0.6814091000705957,True,18
X008K22,407,experiment,48,←,right,→,0.6633620001375675,False,18
X008K22,408,experiment,144,↓,up,↑,0.792652300093323,False,18
X008K22,409,training,60,↓,left,←,0.7118285000324249,False,18
X008K22,410,training,48,↑,up,↑,0.7044254001230001,True,18
X008K22,411,training,72,↓,right,→,0.61740170000121,False,18
X008K22,412,experiment,84,←,left,←,0.6678339997306466,True,18
X008K22,413,experiment,156,←,up,↑,0.7659797999076545,False,18
X008K22,414,experiment,156,→,right,→,0.4857989000156522,True,18
X008K22,415,experiment,72,←,left,←,0.5055753001943231,True,18
X008K22,416,experiment,48,↑,up,↑,1.0071302000433207,True,18
X008K22,417,experiment,12,←,left,←,0.8423438998870552,True,18
X008K22,418,experiment,132,→,right,→,0.7282392997294664,True,18
X008K22,419,experiment,12,↑,up,↑,0.8334709000773728,True,18
X008K22,420,experiment,120,←,left,←,0.8250830001197755,True,18
X008K22,421,experiment,96,↓,down,↓,0.7539808000437915,True,18
X008K22,422,experiment,144,↑,up,↑,0.7489155000075698,True,18
X008K22,423,experiment,48,←,left,←,0.7160927001386881,True,18
X008K22,424,experiment,36,←,left,←,0.6744462996721268,True,18
X008K22,425,experiment,60,←,left,←,0.8328301003202796,True,18
X008K22,426,experiment,96,→,right,→,0.63448779983446,True,18
X008K22,427,experiment,108,→,left,←,0.7809447003528476,False,18
X008K22,428,experiment,144,↑,up,↑,0.6713914000429213,True,18
X008K22,429,experiment,180,→,right,→,0.613060699775815,True,18
X008K22,430,experiment,132,←,left,←,1.0315821999683976,True,18
X008K22,431,experiment,72,→,right,→,0.5912799998186529,True,18
X008K22,432,experiment,168,←,left,←,0.6006533000618219,True,18
X008K22,433,experiment,120,↑,right,→,1.152067800052464,False,18
X008K22,434,experiment,180,↑,up,↑,1.1727438997477293,True,18
X008K22,435,experiment,168,→,left,←,0.7941526998765767,False,18
X008K22,436,experiment,60,↓,right,→,1.1046807002276182,False,18
X008K22,437,experiment,120,→,right,→,0.781844099983573,True,18
X008K22,438,experiment,24,↓,down,↓,0.9860226996243,True,18
X008K22,439,experiment,12,↓,no_key,no_letter,-1.0,False,18
X008K22,440,experiment,180,↑,right,→,0.8650255999527872,False,18
X008K22,441,experiment,144,←,left,←,0.7246149000711739,True,18
X008K22,442,experiment,60,←,right,→,0.7888727001845837,False,18
X008K22,443,experiment,72,←,left,←,0.6283412002958357,True,18
X008K22,444,experiment,24,←,left,←,0.572229899931699,True,18
X008K22,445,experiment,168,←,left,←,0.7168069998733699,True,18
X008K22,446,experiment,48,↓,down,↓,0.8698789998888969,True,18
X008K22,447,experiment,132,←,right,→,0.6468688999302685,False,18
X008K22,448,experiment,96,↓,up,↑,0.7469351999461651,False,18
X008K22,449,experiment,156,←,left,←,0.7259247000329196,True,18
X008K22,450,experiment,84,↑,up,↑,0.807027599774301,True,18
X008K22,451,experiment,36,←,down,↓,1.1234233998693526,False,18
X008K22,452,experiment,180,→,up,↑,0.8691731002181768,False,18
X008K22,453,experiment,24,↓,up,↑,1.0873177000321448,False,18
X008K22,454,experiment,108,↑,up,↑,0.7497431002557278,True,18
X008K22,455,experiment,72,←,right,→,0.9415625003166497,False,18
X008K22,456,experiment,36,←,left,←,0.7975308997556567,True,18
X008K22,457,experiment,156,←,up,↑,0.9645396000705659,False,18
X008K22,458,experiment,120,→,right,→,0.8428560998290777,True,18
X008K22,459,experiment,108,↑,up,↑,0.5961598996073008,True,18
X008K22,460,experiment,24,→,left,←,0.79465699987486,False,18
X008K22,461,experiment,108,↑,up,↑,0.8826848999597132,True,18
X008K22,462,experiment,12,←,up,↑,0.8813168997876346,False,18
X008K22,463,experiment,48,←,left,←,0.7724500996991992,True,18
X008K22,464,experiment,84,←,left,←,0.5383202000521123,True,18
X008K22,465,experiment,132,↓,up,↑,0.8917368999682367,False,18
X008K22,466,experiment,96,→,right,→,0.6156766996718943,True,18
X008K22,467,experiment,84,←,right,→,0.6767849000170827,False,18
X008K22,468,experiment,144,↓,down,↓,0.8128792000934482,True,18
X008K22,469,experiment,168,→,right,→,0.8446829002350569,True,18
X008K22,470,experiment,36,→,no_key,no_letter,-1.0,False,18
X008K22,471,experiment,60,←,left,←,0.8618391999043524,True,18
X008K22,472,training,36,↓,down,↓,0.7859020000323653,True,18
X008K22,473,training,120,↑,up,↑,0.7916393000632524,True,18
X008K22,474,training,108,↓,down,↓,0.9567851000465453,True,18
X008K22,475,experiment,36,→,right,→,0.5792376999743283,True,18
X008K22,476,experiment,36,↑,down,↓,0.7267611999996006,False,18
X008K22,477,experiment,180,→,right,→,0.7683557001873851,True,18
X008K22,478,experiment,156,←,right,→,0.6849700002931058,False,18
X008K22,479,experiment,144,↑,down,↓,0.9542562002316117,False,18
X008K22,480,experiment,84,↓,left,←,1.1751911998726428,False,18
X008K22,481,experiment,72,↑,right,→,0.7350054997950792,False,18
X008K22,482,experiment,84,→,right,→,0.8152010999619961,True,18
X008K22,483,experiment,168,→,right,→,0.8022113996557891,True,18
X008K22,484,experiment,144,↓,down,↓,0.8117964002303779,True,18
X008K22,485,experiment,36,→,down,↓,0.8410318000242114,False,18
X008K22,486,experiment,48,←,left,←,1.049347700085491,True,18
X008K22,487,experiment,60,←,down,↓,0.9065200001932681,False,18
X008K22,488,experiment,12,←,left,←,0.6220412002876401,True,18
X008K22,489,experiment,72,←,down,↓,0.7779715997166932,False,18
X008K22,490,experiment,156,↓,down,↓,1.1350942999124527,True,18
X008K22,491,experiment,48,↓,down,↓,0.6513444003649056,True,18
X008K22,492,experiment,12,←,left,←,0.8851554999127984,True,18
X008K22,493,experiment,144,→,right,→,0.760271199978888,True,18
X008K22,494,experiment,108,→,up,↑,0.7266822000965476,False,18
X008K22,495,experiment,24,↑,down,↓,1.5512471999973059,False,18
X008K22,496,experiment,120,↓,right,→,0.8114884998649359,False,18
X008K22,497,experiment,144,←,right,→,0.5545811001211405,False,18
X008K22,498,experiment,120,→,right,→,0.6461766003631055,True,18
X008K22,499,experiment,108,↓,down,↓,0.7564428001642227,True,18
X008K22,500,experiment,108,←,left,←,0.7095161001197994,True,18
X008K22,501,experiment,156,↑,left,←,0.7204451002180576,False,18
X008K22,502,experiment,96,←,right,→,0.6102181002497673,False,18
X008K22,503,experiment,168,↑,up,↑,0.6324816001579165,True,18
X008K22,504,experiment,36,→,left,←,0.7896349998190999,False,18
X008K22,505,experiment,72,↑,up,↑,0.9452761001884937,True,18
X008K22,506,experiment,96,→,right,→,0.8187490003183484,True,18
X008K22,507,experiment,24,↑,up,↑,0.7934889001771808,True,18
X008K22,508,experiment,180,→,right,→,0.684188200160861,True,18
X008K22,509,experiment,24,↓,up,↑,0.8903311998583376,False,18
X008K22,510,experiment,180,↓,down,↓,0.7675262000411749,True,18
X008K22,511,experiment,84,←,down,↓,1.060086500365287,False,18
X008K22,512,experiment,168,↑,up,↑,0.7894008001312613,True,18
X008K22,513,experiment,12,→,up,↑,0.608460099902004,False,18
X008K22,514,experiment,12,↓,down,↓,0.6317087998613715,True,18
X008K22,515,experiment,48,→,right,→,0.7512167003005743,True,18
X008K22,516,experiment,180,↓,down,↓,0.7766133998520672,True,18
X008K22,517,experiment,132,←,down,↓,0.7317633996717632,False,18
X008K22,518,experiment,96,↓,down,↓,0.9195042997598648,True,18
X008K22,519,experiment,156,↑,down,↓,0.8408582000993192,False,18
X008K22,520,experiment,120,→,down,↓,0.8606048999354243,False,18
X008K22,521,experiment,132,↓,right,→,1.106273400131613,False,18
X008K22,522,experiment,168,↑,down,↓,1.1187231997027993,False,18
X008K22,523,experiment,120,↑,down,↓,1.004969900008291,False,18
X008K22,524,experiment,60,→,right,→,0.588483199942857,True,18
X008K22,525,experiment,60,←,right,→,0.6210709000006318,False,18
X008K22,526,experiment,108,↓,down,↓,0.7549582999199629,True,18
X008K22,527,experiment,72,→,right,→,0.9230992998927832,True,18
X008K22,528,experiment,48,↓,up,↑,0.8337685000151396,False,18
X008K22,529,experiment,132,↑,up,↑,0.8045383999124169,True,18
X008K22,530,experiment,96,←,left,←,0.7170087001286447,True,18
X008K22,531,experiment,60,↓,left,←,0.7183022000826895,False,18
X008K22,532,experiment,132,→,right,→,0.6540546002797782,True,18
X008K22,533,experiment,84,→,right,→,0.7690326999872923,True,18
X008K22,534,experiment,24,→,up,↑,0.6486149001866579,False,18
X008K22,535,training,84,↓,right,→,0.6556333997286856,False,18
X008K22,536,training,84,↑,down,↓,0.8703302000649273,False,18
X008K22,537,training,120,↓,up,↑,0.8313577002845705,False,18
X008K22,538,experiment,84,↓,down,↓,0.5662513999268413,True,18
X008K22,539,experiment,60,←,left,←,0.7887967000715435,True,18
X008K22,540,experiment,156,←,right,→,0.5435831998474896,False,18
X008K22,541,experiment,180,→,right,→,0.7432614997960627,True,18
X008K22,542,experiment,168,→,right,→,0.624448399990797,True,18
X008K22,543,experiment,168,→,right,→,0.6658367998898029,True,18
X008K22,544,experiment,96,→,right,→,0.7397509999573231,True,18
X008K22,545,experiment,120,→,right,→,0.5717527000233531,True,18
X008K22,546,experiment,48,→,right,→,0.967021900229156,True,18
X008K22,547,experiment,12,←,right,→,0.8367830999195576,False,18
X008K22,548,experiment,48,←,right,→,0.7137576998211443,False,18
X008K22,549,experiment,12,←,up,↑,0.7327053998596966,False,18
X008K22,550,experiment,24,←,right,→,0.6135385995730758,False,18
X008K22,551,experiment,108,↓,right,→,0.7481397995725274,False,18
X008K22,552,experiment,12,↑,up,↑,0.676843199878931,True,18
X008K22,553,experiment,120,↑,up,↑,0.823267700150609,True,18
X008K22,554,experiment,168,←,up,↑,0.7009045002050698,False,18
X008K22,555,experiment,96,↓,up,↑,0.7291310001164675,False,18
X008K22,556,experiment,12,↑,down,↓,0.6496077002957463,False,18
X008K22,557,experiment,180,→,right,→,0.7143367999233305,True,18
X008K22,558,experiment,144,↑,up,↑,0.7632009000517428,True,18
X008K22,559,experiment,132,→,right,→,0.5845261001959443,True,18
X008K22,560,experiment,108,←,left,←,0.8328637001104653,True,18
X008K22,561,experiment,96,→,left,←,0.7741191000677645,False,18
X008K22,562,experiment,144,↓,down,↓,1.0079036001116037,True,18
X008K22,563,experiment,36,←,right,→,0.7226681997999549,False,18
X008K22,564,experiment,156,→,right,→,0.8409354998730123,True,18
X008K22,565,experiment,132,→,right,→,0.824707199819386,True,18
X008K22,566,experiment,108,→,right,→,0.5861617000773549,True,18
X008K22,567,experiment,156,→,right,→,0.5858120997436345,True,18
X008K22,568,experiment,180,←,left,←,0.8103984999470413,True,18
X008K22,569,experiment,84,↓,up,↑,0.8767928001470864,False,18
X008K22,570,experiment,36,↓,down,↓,0.9118753001093864,True,18
X008K22,571,experiment,156,↑,up,↑,0.8694830001331866,True,18
X008K22,572,experiment,168,→,right,→,0.6528242998756468,True,18
X008K22,573,experiment,180,←,no_key,no_letter,-1.0,False,18
X008K22,574,experiment,144,→,left,←,0.6967188999988139,False,18
X008K22,575,experiment,24,↓,right,→,1.2827247004024684,False,18
X008K22,576,experiment,84,→,right,→,0.8276518997736275,True,18
X008K22,577,experiment,84,←,left,←,0.7315290998667479,True,18
X008K22,578,experiment,108,↓,down,↓,0.8440658999606967,True,18
X008K22,579,experiment,96,←,left,←,0.7216562000103295,True,18
X008K22,580,experiment,120,←,left,←,0.7362117003649473,True,18
X008K22,581,experiment,132,←,left,←,0.560521800071001,True,18
X008K22,582,experiment,24,↑,left,←,0.7163928998634219,False,18
X008K22,583,experiment,36,←,left,←,0.558687100186944,True,18
X008K22,584,experiment,36,←,left,←,0.5521853002719581,True,18
X008K22,585,experiment,72,←,left,←,0.6512858998030424,True,18
X008K22,586,experiment,48,↑,up,↑,0.6057827998884022,True,18
X008K22,587,experiment,60,↓,down,↓,0.6758655002340674,True,18
X008K22,588,experiment,60,←,left,←,1.0797834997065365,True,18
X008K22,589,experiment,132,↑,down,↓,0.8523599999025464,False,18
X008K22,590,experiment,60,↓,down,↓,0.9975978001020849,True,18
X008K22,591,experiment,24,←,left,←,0.762858800124377,True,18
X008K22,592,experiment,72,→,up,↑,1.0475932001136243,False,18
X008K22,593,experiment,72,↓,down,↓,0.6613141000270844,True,18
X008K22,594,experiment,120,←,left,←,0.5133775002323091,True,18
X008K22,595,experiment,144,↑,down,↓,1.1890321001410484,False,18
X008K22,596,experiment,48,←,up,↑,0.7389727998524904,False,18
X008K22,597,experiment,72,←,left,←,0.7346301004290581,True,18
X008K22,598,training,144,→,left,←,0.8408890999853611,False,18
X008K22,599,training,120,↑,down,↓,0.9620046000927687,False,18
X008K22,600,training,144,↓,down,↓,0.7485060999169946,True,18
X008K22,601,experiment,72,↓,up,↑,0.7018885998986661,False,18
X008K22,602,experiment,180,↑,up,↑,0.47058509988710284,True,18
X008K22,603,experiment,180,→,down,↓,0.6534849000163376,False,18
X008K22,604,experiment,48,←,left,←,0.64734230004251,True,18
X008K22,605,experiment,156,→,left,←,0.7496333001181483,False,18
X008K22,606,experiment,132,↓,down,↓,0.8184456001035869,True,18
X008K22,607,experiment,108,→,left,←,0.5997081999666989,False,18
X008K22,608,experiment,132,↑,down,↓,0.7628068998456001,False,18
X008K22,609,experiment,84,↓,down,↓,0.750662200152874,True,18
X008K22,610,experiment,48,↓,up,↑,0.9424057002179325,False,18
X008K22,611,experiment,36,←,left,←,0.7252684999257326,True,18
X008K22,612,experiment,144,↑,up,↑,0.7495200000703335,True,18
X008K22,613,experiment,24,←,left,←,1.0129921999759972,True,18
X008K22,614,experiment,156,↓,down,↓,0.8608258999884129,True,18
X008K22,615,experiment,96,↓,up,↑,0.6846886002458632,False,18
X008K22,616,experiment,144,←,left,←,0.8182191997766495,True,18
X008K22,617,experiment,60,↑,up,↑,0.9028880996629596,True,18
X008K22,618,experiment,168,↓,down,↓,0.7184392996132374,True,18
X008K22,619,experiment,108,→,up,↑,1.1150895999744534,False,18
X008K22,620,experiment,36,↑,right,→,1.3902873997576535,False,18
X008K22,621,experiment,168,↓,down,↓,0.8723098998889327,True,18
X008K22,622,experiment,120,→,right,→,0.9271502001211047,True,18
X008K22,623,experiment,132,←,left,←,0.9482371998019516,True,18
X008K22,624,experiment,12,→,right,→,0.7043027998879552,True,18
X008K22,625,experiment,120,→,right,→,0.7369217998348176,True,18
X008K22,626,experiment,180,↓,right,→,0.7650569998659194,False,18
X008K22,627,experiment,36,→,right,→,0.8426069999113679,True,18
X008K22,628,experiment,108,↓,down,↓,0.6443453999236226,True,18
X008K22,629,experiment,144,↑,down,↓,0.8792419997043908,False,18
X008K22,630,experiment,24,↑,up,↑,0.7584502003155649,True,18
X008K22,631,experiment,120,↑,down,↓,0.9728251001797616,False,18
X008K22,632,experiment,132,→,right,→,0.679252500180155,True,18
X008K22,633,experiment,72,←,left,←,0.7267753998748958,True,18
X008K22,634,experiment,108,↑,up,↑,0.7851231996901333,True,18
X008K22,635,experiment,144,↓,up,↑,1.0090852002613246,False,18
X008K22,636,experiment,72,←,right,→,0.6871226001530886,False,18
X008K22,637,experiment,180,↓,down,↓,0.8685409999452531,True,18
X008K22,638,experiment,24,←,left,←,0.6317939003929496,True,18
X008K22,639,experiment,156,↑,up,↑,1.0954593997448683,True,18
X008K22,640,experiment,12,→,left,←,0.8653303999453783,False,18
X008K22,641,experiment,84,↑,right,→,0.9087694999761879,False,18
X008K22,642,experiment,96,↓,up,↑,1.3338135001249611,False,18
X008K22,643,experiment,36,↑,up,↑,0.5810139002278447,True,18
X008K22,644,experiment,12,↑,up,↑,0.5835612001828849,True,18
X008K22,645,experiment,168,←,down,↓,0.7196261999197304,False,18
X008K22,646,experiment,72,←,left,←,0.736765000037849,True,18
X008K22,647,experiment,96,↓,down,↓,0.9335545999929309,True,18
X008K22,648,experiment,156,→,right,→,0.8782322001643479,True,18
X008K22,649,experiment,120,→,right,→,0.6537075000815094,True,18
X008K22,650,experiment,24,→,right,→,0.6918633002787828,True,18
X008K22,651,experiment,60,↑,up,↑,0.6144530000165105,True,18
X008K22,652,experiment,12,←,right,→,0.5653969999402761,False,18
X008K22,653,experiment,60,→,right,→,0.5136027000844479,True,18
X008K22,654,experiment,60,→,right,→,0.5778633998706937,True,18
X008K22,655,experiment,84,←,right,→,0.5312406001612544,False,18
X008K22,656,experiment,168,↓,up,↑,0.7796951998025179,False,18
X008K22,657,experiment,48,↓,down,↓,1.3182430998422205,True,18
X008K22,658,experiment,84,↑,up,↑,0.5257190000265837,True,18
X008K22,659,experiment,96,→,up,↑,0.6929077999666333,False,18
X008K22,660,experiment,48,←,up,↑,0.6957089002244174,False,18
X008K22,661,training,96,→,no_key,no_letter,-1.0,False,18
X008K22,662,training,72,→,up,↑,0.817730899900198,False,18
X008K22,663,training,156,↓,up,↑,0.7777299000881612,False,18
X008K22,664,experiment,168,↓,up,↑,0.7540369997732341,False,18
X008K22,665,experiment,24,↑,right,→,0.581441399641335,False,18
X008K22,666,experiment,24,→,no_key,no_letter,-1.0,False,18
X008K22,667,experiment,108,←,left,←,0.6437409999780357,True,18
X008K22,668,experiment,180,↑,up,↑,0.6137895002029836,True,18
X008K22,669,experiment,36,←,right,→,0.7071640999056399,False,18
X008K22,670,experiment,60,↓,down,↓,0.7140923999249935,True,18
X008K22,671,experiment,72,←,left,←,0.6650689002126455,True,18
X008K22,672,experiment,132,↑,up,↑,0.8015630999580026,True,18
X008K22,673,experiment,144,↑,up,↑,0.7284607999026775,True,18
X008K22,674,experiment,48,→,right,→,0.5828234003856778,True,18
X008K22,675,experiment,12,←,left,←,0.6822700998745859,True,18
X008K22,676,experiment,144,↑,up,↑,0.49968669982627034,True,18
X008K22,677,experiment,84,↑,no_key,no_letter,-1.0,False,18
X008K22,678,experiment,180,↓,up,↑,0.2838980001397431,False,18
X008K22,679,experiment,144,↓,down,↓,0.843323000241071,True,18
X008K22,680,experiment,60,→,up,↑,0.615858499892056,False,18
X008K22,681,experiment,60,↑,down,↓,1.1372874001972377,False,18
X008K22,682,experiment,60,↑,up,↑,0.7807188001461327,True,18
X008K22,683,experiment,72,←,left,←,0.8775344002060592,True,18
X008K22,684,experiment,180,↓,up,↑,1.322185699827969,False,18
X008K22,685,experiment,24,←,right,→,0.4893912002444267,False,18
X008K22,686,experiment,144,↑,down,↓,0.20079769985750318,False,18
X008K22,687,experiment,132,←,up,↑,0.3170203003101051,False,18
X008K22,688,experiment,84,↑,up,↑,0.5296750003471971,True,18
X008K22,689,experiment,120,↑,right,→,0.7792647001333535,False,18
X008K22,690,experiment,48,←,up,↑,0.5636487998999655,False,18
X008K22,691,experiment,168,↓,left,←,0.23344270000234246,False,18
X008K22,692,experiment,132,↓,down,↓,0.2173542999662459,True,18
X008K22,693,experiment,156,←,up,↑,0.3169360999017954,False,18
X008K22,694,experiment,180,↓,left,←,0.6075011002831161,False,18
X008K22,695,experiment,48,←,left,←,0.6667744996957481,True,18
X008K22,696,experiment,36,→,left,←,0.49883610010147095,False,18
X008K22,697,experiment,12,↑,up,↑,0.8195696999318898,True,18
X008K22,698,experiment,156,↑,right,→,0.8620291003026068,False,18
X008K22,699,experiment,120,↓,up,↑,0.2670994997024536,False,18
X008K22,700,experiment,12,↑,left,←,0.7578002996742725,False,18
X008K22,701,experiment,168,↓,down,↓,0.23385059973224998,True,18
X008K22,702,experiment,108,↓,no_key,no_letter,-1.0,False,18
X008K22,703,experiment,84,←,up,↑,0.562818200327456,False,18
X008K22,704,experiment,108,←,no_key,no_letter,-1.0,False,18
X008K22,705,experiment,72,↑,up,↑,0.6371410000137985,True,18
X008K22,706,experiment,12,↑,up,↑,0.7075577001087368,True,18
X008K22,707,experiment,96,→,up,↑,0.3838380998931825,False,18
X008K22,708,experiment,24,↑,right,→,0.383810100145638,False,18
X008K22,709,experiment,72,←,left,←,0.5857370002195239,True,18
X008K22,710,experiment,108,↑,up,↑,0.43391559971496463,True,18
X008K22,711,experiment,36,←,left,←,0.836531899869442,True,18
X008K22,712,experiment,168,←,left,←,0.6094831000082195,True,18
X008K22,713,experiment,84,↑,up,↑,0.675093499943614,True,18
X008K22,714,experiment,96,←,right,→,0.933014600072056,False,18
X008K22,715,experiment,48,←,up,↑,0.7292134002782404,False,18
X008K22,716,experiment,132,←,left,←,0.5700944000855088,True,18
X008K22,717,experiment,96,→,right,→,0.7603850001469254,True,18
X008K22,718,experiment,36,←,up,↑,0.702520300168544,False,18
X008K22,719,experiment,156,↑,up,↑,0.5484054000116885,True,18
X008K22,720,experiment,120,↑,up,↑,0.5666321995668113,True,18
X008K22,721,experiment,96,→,right,→,0.5311894002370536,True,18
X008K22,722,experiment,156,↓,down,↓,0.8465133002027869,True,18
X008K22,723,experiment,120,↑,down,↓,0.8101956997998059,False,18
X008K22,724,training,60,↑,right,→,0.7806156002916396,False,18
X008K22,725,training,168,↑,down,↓,0.648284699767828,False,18
X008K22,726,training,180,←,up,↑,0.6687123998999596,False,18
X008K22,727,experiment,180,↓,left,←,0.5640731998719275,False,18
X008K22,728,experiment,36,→,up,↑,0.49908880004659295,False,18
X008K22,729,experiment,120,↑,no_key,no_letter,-1.0,False,18
X008K22,730,experiment,180,←,right,→,0.6648035999387503,False,18
X008K22,731,experiment,108,↑,right,→,0.9932826003059745,False,18
X008K22,732,experiment,168,→,right,→,0.7903994000516832,True,18
X008K22,733,experiment,168,→,down,↓,1.03775480017066,False,18
X008K22,734,experiment,120,←,right,→,0.5081428000703454,False,18
X008K22,735,experiment,48,↑,up,↑,1.363763100001961,True,18
X008K22,736,experiment,132,↑,left,←,0.5867892000824213,False,18
X008K22,737,experiment,24,↑,up,↑,0.48396959993988276,True,18
X008K22,738,experiment,144,←,right,→,0.43390029994770885,False,18
X008K22,739,experiment,24,→,left,←,1.4877929999493062,False,18
X008K22,740,experiment,120,↓,right,→,0.5530674001201987,False,18
X008K22,741,experiment,84,→,up,↑,0.6692798002623022,False,18
X008K22,742,experiment,48,↑,right,→,0.6033623004332185,False,18
X008K22,743,experiment,72,↑,right,→,0.6198652996681631,False,18
X008K22,744,experiment,48,↑,up,↑,0.4003639998845756,True,18
X008K22,745,experiment,60,↑,up,↑,0.5392637001350522,True,18
X008K22,746,experiment,132,←,up,↑,0.576949399895966,False,18
X008K22,747,experiment,156,←,right,→,0.5471502002328634,False,18
X008K22,748,experiment,156,←,left,←,0.8304742001928389,True,18
X008K22,749,experiment,132,←,left,←,0.7915306999348104,True,18
X008K22,750,experiment,12,→,up,↑,0.7176386001519859,False,18
X008K22,751,experiment,48,↑,up,↑,0.5964156999252737,True,18
X008K22,752,experiment,180,↓,right,→,0.5291462996974587,False,18
X008K22,753,experiment,36,↓,right,→,0.7528375997208059,False,18
X008K22,754,experiment,156,→,up,↑,0.6335060996934772,False,18
X008K22,755,experiment,108,↓,up,↑,0.6761002000421286,False,18
X008K22,756,experiment,120,←,right,→,0.6449234001338482,False,18
X008K22,757,experiment,168,↓,down,↓,0.8548193997703493,True,18
X008K22,758,experiment,60,→,up,↑,0.5361001999117434,False,18
X008K22,759,experiment,36,↑,no_key,no_letter,-1.0,False,18
X008K22,760,experiment,36,↑,up,↑,1.9497922998853028,True,18
X008K22,761,experiment,144,↑,up,↑,0.6320838998071849,True,18
X008K22,762,experiment,84,↑,up,↑,0.3678063997067511,True,18
X008K22,763,experiment,96,↑,right,→,0.7615216998383403,False,18
X008K22,764,experiment,72,→,up,↑,0.6153661999851465,False,18
X008K22,765,experiment,180,←,up,↑,0.3837847001850605,False,18
X008K22,766,experiment,132,→,left,←,0.5936485999263823,False,18
X008K22,767,experiment,108,→,left,←,0.6147297001443803,False,18
X008K22,768,experiment,60,↓,left,←,0.7682923995889723,False,18
X008K22,769,experiment,96,↓,up,↑,0.6117647998034954,False,18
X008K22,770,experiment,144,↑,right,→,0.41728159971535206,False,18
X008K22,771,experiment,96,→,up,↑,0.49315349990502,False,18
X008K22,772,experiment,12,→,up,↑,0.5098500000312924,False,18
X008K22,773,experiment,144,→,no_key,no_letter,-1.0,False,18
X008K22,774,experiment,156,↑,up,↑,0.267098699696362,True,18
X008K22,775,experiment,108,→,up,↑,0.36712929978966713,False,18
X008K22,776,experiment,60,↓,up,↑,0.6244729002937675,False,18
X008K22,777,experiment,84,→,right,→,0.7619314999319613,True,18
X008K22,778,experiment,24,→,right,→,0.8178038997575641,True,18
X008K22,779,experiment,96,↑,up,↑,0.6771274004131556,True,18
X008K22,780,experiment,12,↑,left,←,0.6226158998906612,False,18
X008K22,781,experiment,12,↑,up,↑,0.621316300239414,True,18
X008K22,782,experiment,84,↑,up,↑,0.4997694999910891,True,18
X008K22,783,experiment,24,→,right,→,0.7979871998541057,True,18
X008K22,784,experiment,72,↓,no_key,no_letter,-1.0,False,18
X008K22,785,experiment,72,↑,up,↑,0.4339261003769934,True,18
X008K22,786,experiment,168,←,left,←,0.7016632999293506,True,18
X008K22,787,training,48,→,right,→,0.5028390996158123,True,18
X008K22,788,training,132,↑,left,←,0.2504855999723077,False,18
X008K22,789,training,144,←,up,↑,0.4005659003742039,False,18
X008K22,790,experiment,120,↓,left,←,0.6136023001745343,False,18
X008K22,791,experiment,180,←,left,←,0.8778217998333275,True,18
X008K22,792,experiment,108,→,left,←,0.7170644998550415,False,18
X008K22,793,experiment,144,↑,left,←,0.4809978003613651,False,18
X008K22,794,experiment,180,↓,left,←,0.5139501001685858,False,18
X008K22,795,experiment,24,↓,down,↓,0.7339734002016485,True,18
X008K22,796,experiment,84,←,up,↑,0.7296981997787952,False,18
X008K22,797,experiment,12,↑,left,←,0.5303676002658904,False,18
X008K22,798,experiment,12,↑,right,→,0.4337562997825444,False,18
X008K22,799,experiment,48,↑,up,↑,0.540274899918586,True,18
X008K22,800,experiment,12,→,up,↑,0.38386060018092394,False,18
X008K22,801,experiment,156,↑,up,↑,0.6224799999035895,True,18
X008K22,802,experiment,120,←,left,←,0.6396676003932953,True,18
X008K22,803,experiment,180,↓,up,↑,0.6894562998786569,False,18
X008K22,804,experiment,132,↑,up,↑,0.6660897000692785,True,18
X008K22,805,experiment,144,←,left,←,0.7498215003870428,True,18
X008K22,806,experiment,24,→,right,→,0.6551018999889493,True,18
X008K22,807,experiment,36,↓,up,↑,0.8021793998777866,False,18
X008K22,808,experiment,24,↓,up,↑,0.6756088002584875,False,18
X008K22,809,experiment,156,↑,up,↑,0.637291599996388,True,18
X008K22,810,experiment,36,↑,up,↑,0.5415253001265228,True,18
X008K22,811,experiment,168,→,right,→,0.6883666999638081,True,18
X008K22,812,experiment,24,→,right,→,0.8106712996959686,True,18
X008K22,813,experiment,48,←,up,↑,0.7572090001776814,False,18
X008K22,814,experiment,60,↓,up,↑,0.686472199857235,False,18
X008K22,815,experiment,96,←,left,←,0.7795020998455584,True,18
X008K22,816,experiment,72,↑,up,↑,0.6847153999842703,True,18
X008K22,817,experiment,144,→,right,→,0.6465406999923289,True,18
X008K22,818,experiment,180,→,right,→,0.7260682000778615,True,18
X008K22,819,experiment,156,↑,right,→,0.7417938001453876,False,18
X008K22,820,experiment,84,←,right,→,0.6565206996165216,False,18
X008K22,821,experiment,108,↓,right,→,0.8901319997385144,False,18
X008K22,822,experiment,60,↓,right,→,0.635047699790448,False,18
X008K22,823,experiment,60,→,right,→,0.5314611000940204,True,18
X008K22,824,experiment,96,→,right,→,0.5883249999023974,True,18
X008K22,825,experiment,72,←,left,←,0.777195299975574,True,18
X008K22,826,experiment,120,↑,up,↑,0.6706209997646511,True,18
X008K22,827,experiment,144,→,down,↓,0.7380649000406265,False,18
X008K22,828,experiment,84,→,left,←,0.8887283001095057,False,18
X008K22,829,experiment,72,↓,down,↓,1.043873899616301,True,18
X008K22,830,experiment,48,←,left,←,0.664691099897027,True,18
X008K22,831,experiment,12,←,right,→,0.6995668997988105,False,18
X008K22,832,experiment,84,→,right,→,0.6600092998705804,True,18
X008K22,833,experiment,36,←,right,→,0.8249538000673056,False,18
X008K22,834,experiment,168,↓,down,↓,0.6890254998579621,True,18
X008K22,835,experiment,36,↓,down,↓,0.8482335000298917,True,18
X008K22,836,experiment,168,←,left,←,0.7547627002932131,True,18
X008K22,837,experiment,96,↑,up,↑,0.6300137997604907,True,18
X008K22,838,experiment,96,←,down,↓,0.9138595997355878,False,18
X008K22,839,experiment,60,→,right,→,0.6021832996048033,True,18
X008K22,840,experiment,132,↑,no_key,no_letter,-1.0,False,18
X008K22,841,experiment,168,↓,down,↓,0.6917020999826491,True,18
X008K22,842,experiment,156,↑,left,←,0.7407213998958468,False,18
X008K22,843,experiment,108,↑,up,↑,0.6179892001673579,True,18
X008K22,844,experiment,132,↓,down,↓,0.9513939996249974,True,18
X008K22,845,experiment,132,↓,down,↓,0.8505788003094494,True,18
X008K22,846,experiment,120,↑,up,↑,0.5809020004235208,True,18
X008K22,847,experiment,72,→,left,←,0.8012812002561986,False,18
X008K22,848,experiment,108,↓,down,↓,0.6855915999040008,True,18
X008K22,849,experiment,48,←,left,←,0.7535782996565104,True,18
