PART_ID,Trial_no,Trial_type,PDI,Stim_letter,Key_pressed,letter_choose,Rt,Corr,Stimulus Time
X013K23,1,training,10,↑,no_key,no_letter,-1.0,False,30
X013K23,2,training,10,→,right,→,0.9008622001856565,True,30
X013K23,3,training,10,→,right,→,0.9335015001706779,True,30
X013K23,4,training,10,←,left,←,0.7196400002576411,True,30
X013K23,5,training,10,→,right,→,0.7326549999415874,True,30
X013K23,6,training,10,←,left,←,0.7699172999709845,True,30
X013K23,7,training,10,←,no_key,no_letter,-1.0,False,30
X013K23,8,training,10,→,right,→,0.8172367997467518,True,30
X013K23,9,training,10,←,left,←,0.6172723998315632,True,30
X013K23,10,training,10,↑,up,↑,1.5052583999931812,True,30
X013K23,11,training,10,→,right,→,0.7261989000253379,True,30
X013K23,12,training,10,↑,up,↑,1.1129419999197125,True,30
X013K23,13,training,10,↓,down,↓,1.1276823999360204,True,30
X013K23,14,training,10,→,right,→,0.6170824998989701,True,30
X013K23,15,training,10,→,right,→,0.5337112997658551,True,30
X013K23,16,training,10,↑,up,↑,0.8834680002182722,True,30
X013K23,17,training,10,←,left,←,0.7457636999897659,True,30
X013K23,18,training,10,→,no_key,no_letter,-1.0,False,30
X013K23,19,training,10,↑,up,↑,0.7664363998919725,True,30
X013K23,20,training,10,↓,down,↓,0.976235999725759,True,30
X013K23,21,training,10,→,right,→,0.7560485997237265,True,18
X013K23,22,training,10,→,right,→,0.5975370001979172,True,18
X013K23,23,training,10,↓,down,↓,0.8994142999872565,True,18
X013K23,24,training,10,↓,down,↓,0.8214472001418471,True,18
X013K23,25,training,10,↑,up,↑,0.876569100189954,True,18
X013K23,26,training,10,→,right,→,0.5908351000398397,True,18
X013K23,27,training,10,↑,up,↑,0.7803342998959124,True,18
X013K23,28,training,10,↓,down,↓,0.7504352000541985,True,18
X013K23,29,training,10,←,left,←,0.6628001998178661,True,18
X013K23,30,training,10,→,right,→,0.6951251002028584,True,18
X013K23,31,training,144,←,left,←,0.7230568001978099,True,15
X013K23,32,training,108,←,left,←,0.5706453998573124,True,15
X013K23,33,training,96,→,right,→,0.6369119002483785,True,15
X013K23,34,experiment,72,↓,up,↑,1.5310730999335647,False,15
X013K23,35,experiment,156,→,right,→,0.6292803999967873,True,15
X013K23,36,experiment,72,←,left,←,0.6982759996317327,True,15
X013K23,37,experiment,24,→,up,↑,1.2997808000072837,False,15
X013K23,38,experiment,144,↑,up,↑,0.7434705998748541,True,15
X013K23,39,experiment,24,→,right,→,0.5035906000994146,True,15
X013K23,40,experiment,24,←,left,←,0.5547746000811458,True,15
X013K23,41,experiment,60,↑,up,↑,0.7400376000441611,True,15
X013K23,42,experiment,84,←,left,←,0.5963324997574091,True,15
X013K23,43,experiment,108,↑,up,↑,0.8935265997424722,True,15
X013K23,44,experiment,132,←,left,←,0.7599241998977959,True,15
X013K23,45,experiment,72,→,right,→,0.6229824996553361,True,15
X013K23,46,experiment,96,↓,down,↓,0.970097600016743,True,15
X013K23,47,experiment,12,↓,up,↑,1.5053103999234736,False,15
X013K23,48,experiment,12,↑,left,←,0.8112229001708329,False,15
X013K23,49,experiment,120,↑,up,↑,1.0322039001621306,True,15
X013K23,50,experiment,36,↑,up,↑,0.7931588999927044,True,15
X013K23,51,experiment,12,↑,left,←,0.9612060999497771,False,15
X013K23,52,experiment,72,←,left,←,0.6963168997317553,True,15
X013K23,53,experiment,180,→,right,→,0.6423539002425969,True,15
X013K23,54,experiment,36,↓,left,←,0.8706868998706341,False,15
X013K23,55,experiment,180,→,right,→,0.5953916003927588,True,15
X013K23,56,experiment,168,→,left,←,0.7234636996872723,False,15
X013K23,57,experiment,36,→,right,→,0.810744899790734,True,15
X013K23,58,experiment,144,→,right,→,0.6031571999192238,True,15
X013K23,59,experiment,84,↓,down,↓,0.7874741000123322,True,15
X013K23,60,experiment,108,→,left,←,0.7455122000537813,False,15
X013K23,61,experiment,12,↓,no_key,no_letter,-1.0,False,15
X013K23,62,experiment,156,↑,right,→,1.0598315997049212,False,15
X013K23,63,experiment,120,→,right,→,0.6102008000016212,True,15
X013K23,64,experiment,48,→,right,→,0.5364077999256551,True,15
X013K23,65,experiment,168,↑,up,↑,0.7865730999037623,True,15
X013K23,66,experiment,24,↑,up,↑,0.9783042003400624,True,15
X013K23,67,experiment,60,↑,up,↑,0.8886026996187866,True,15
X013K23,68,experiment,108,↓,down,↓,0.6465917997993529,True,15
X013K23,69,experiment,96,→,right,→,0.6633750996552408,True,15
X013K23,70,experiment,36,↓,down,↓,0.7877499000169337,True,15
X013K23,71,experiment,48,↓,left,←,1.053769400343299,False,15
X013K23,72,experiment,60,→,right,→,0.7003617999143898,True,15
X013K23,73,experiment,144,↓,down,↓,1.6753253997303545,True,15
X013K23,74,experiment,120,↑,left,←,1.0202282001264393,False,15
X013K23,75,experiment,96,←,left,←,0.6216779998503625,True,15
X013K23,76,experiment,180,↓,down,↓,0.6265480001457036,True,15
X013K23,77,experiment,144,→,right,→,0.639334799721837,True,15
X013K23,78,experiment,108,↓,no_key,no_letter,-1.0,False,15
X013K23,79,experiment,48,↓,left,←,0.9853667998686433,False,15
X013K23,80,experiment,60,←,left,←,0.7439722996205091,True,15
X013K23,81,experiment,96,↓,no_key,no_letter,-1.0,False,15
X013K23,82,experiment,168,↑,left,←,0.9217757000587881,False,15
X013K23,83,experiment,168,→,right,→,0.8754735998809338,True,15
X013K23,84,experiment,156,↓,down,↓,0.7001773999072611,True,15
X013K23,85,experiment,156,→,left,←,1.7198320999741554,False,15
X013K23,86,experiment,48,←,left,←,0.7750408998690546,True,15
X013K23,87,experiment,84,↑,left,←,1.001391400117427,False,15
X013K23,88,experiment,132,↓,no_key,no_letter,-1.0,False,15
X013K23,89,experiment,180,↑,up,↑,1.0847624000161886,True,15
X013K23,90,experiment,132,↑,left,←,0.7562303999438882,False,15
X013K23,91,experiment,120,←,left,←,0.8052166001871228,True,15
X013K23,92,experiment,84,↑,left,←,1.1913652000948787,False,15
X013K23,93,experiment,132,←,left,←,0.6350470003671944,True,15
X013K23,94,training,168,↓,down,↓,0.6738167000003159,True,15
X013K23,95,training,156,↓,down,↓,0.6616646000184119,True,15
X013K23,96,training,156,←,left,←,0.594431500416249,True,15
X013K23,97,experiment,24,→,left,←,0.8937293998897076,False,15
X013K23,98,experiment,108,↑,down,↓,1.5191541998647153,False,15
X013K23,99,experiment,60,→,left,←,0.9886074000969529,False,15
X013K23,100,experiment,168,↓,down,↓,0.8062674002721906,True,15
X013K23,101,experiment,96,↓,no_key,no_letter,-1.0,False,15
X013K23,102,experiment,168,↓,down,↓,0.6842078999616206,True,15
X013K23,103,experiment,12,←,left,←,1.002877099905163,True,15
X013K23,104,experiment,48,↓,left,←,0.7706314995884895,False,15
X013K23,105,experiment,108,←,right,→,1.5117067000828683,False,15
X013K23,106,experiment,36,→,left,←,1.1752102999016643,False,15
X013K23,107,experiment,84,↓,down,↓,0.8957094000652432,True,15
X013K23,108,experiment,108,←,left,←,0.7328957999125123,True,15
X013K23,109,experiment,156,↓,down,↓,0.642926000058651,True,15
X013K23,110,experiment,120,↑,up,↑,0.7587664001621306,True,15
X013K23,111,experiment,132,↓,down,↓,0.7447935999371111,True,15
X013K23,112,experiment,72,↑,left,←,0.8286844003014266,False,15
X013K23,113,experiment,12,↓,up,↑,0.944251099601388,False,15
X013K23,114,experiment,168,↑,up,↑,0.5988138997927308,True,15
X013K23,115,experiment,60,←,left,←,0.6712181000038981,True,15
X013K23,116,experiment,168,←,left,←,0.47788350004702806,True,15
X013K23,117,experiment,180,→,right,→,0.5315195000730455,True,15
X013K23,118,experiment,120,↑,left,←,0.9937574001960456,False,15
X013K23,119,experiment,156,↑,up,↑,1.3510052999481559,True,15
X013K23,120,experiment,84,→,right,→,0.6433083997108042,True,15
X013K23,121,experiment,48,↓,left,←,0.7597606000490487,False,15
X013K23,122,experiment,180,←,left,←,0.6405563000589609,True,15
X013K23,123,experiment,72,↑,up,↑,0.9245085003785789,True,15
X013K23,124,experiment,144,→,left,←,0.7521608998067677,False,15
X013K23,125,experiment,144,↓,up,↑,1.4455242999829352,False,15
X013K23,126,experiment,108,→,left,←,1.6795992995612323,False,15
X013K23,127,experiment,72,↓,up,↑,0.9093305999413133,False,15
X013K23,128,experiment,48,↓,left,←,1.1747070997953415,False,15
X013K23,129,experiment,36,↑,up,↑,0.9629484000615776,True,15
X013K23,130,experiment,24,↓,down,↓,0.6535383001901209,True,15
X013K23,131,experiment,96,↑,down,↓,0.9503252999857068,False,15
X013K23,132,experiment,48,↓,down,↓,0.873654399998486,True,15
X013K23,133,experiment,72,↑,down,↓,0.8327897000126541,False,15
X013K23,134,experiment,120,↑,left,←,0.8491980000399053,False,15
X013K23,135,experiment,96,↓,down,↓,0.7128805997781456,True,15
X013K23,136,experiment,12,→,right,→,1.1547463997267187,True,15
X013K23,137,experiment,24,↑,left,←,0.9060511998832226,False,15
X013K23,138,experiment,12,↓,down,↓,0.7639378998428583,True,15
X013K23,139,experiment,96,←,left,←,0.7736837002448738,True,15
X013K23,140,experiment,156,←,up,↑,1.287187000270933,False,15
X013K23,141,experiment,24,↑,down,↓,0.797541200183332,False,15
X013K23,142,experiment,144,←,left,←,0.7276455997489393,True,15
X013K23,143,experiment,132,↓,up,↑,1.134503799956292,False,15
X013K23,144,experiment,180,→,right,→,0.6857289997860789,True,15
X013K23,145,experiment,120,↑,up,↑,0.8530436996370554,True,15
X013K23,146,experiment,60,→,right,→,0.6883280999027193,True,15
X013K23,147,experiment,36,↓,no_key,no_letter,-1.0,False,15
X013K23,148,experiment,180,↓,down,↓,0.644525199662894,True,15
X013K23,149,experiment,60,←,left,←,0.7382167000323534,True,15
X013K23,150,experiment,132,↓,up,↑,0.9174163001589477,False,15
X013K23,151,experiment,36,↓,up,↑,1.1968362000770867,False,15
X013K23,152,experiment,144,↑,left,←,1.188013100065291,False,15
X013K23,153,experiment,156,↑,left,←,1.1112484000623226,False,15
X013K23,154,experiment,84,↑,up,↑,0.714234699960798,True,15
X013K23,155,experiment,132,↓,left,←,1.3310869000852108,False,15
X013K23,156,experiment,84,→,right,→,0.6906535001471639,True,15
X013K23,157,training,36,↓,down,↓,0.7287173997610807,True,16
X013K23,158,training,144,↑,up,↑,0.7263772999867797,True,16
X013K23,159,training,12,→,right,→,1.5702089997939765,True,16
X013K23,160,experiment,60,←,left,←,0.6773725999519229,True,16
X013K23,161,experiment,156,←,left,←,0.6658977000042796,True,16
X013K23,162,experiment,180,↓,down,↓,0.8740411996841431,True,16
X013K23,163,experiment,12,↓,left,←,0.9304782999679446,False,16
X013K23,164,experiment,72,↑,up,↑,1.436944399960339,True,16
X013K23,165,experiment,12,↑,right,→,1.2904793000780046,False,16
X013K23,166,experiment,144,→,left,←,0.6510684997774661,False,16
X013K23,167,experiment,180,↓,down,↓,0.6497172000817955,True,16
X013K23,168,experiment,120,↓,down,↓,0.7543592997826636,True,16
X013K23,169,experiment,156,↓,down,↓,0.6573752998374403,True,16
X013K23,170,experiment,156,←,left,←,0.7062650001607835,True,16
X013K23,171,experiment,168,↑,left,←,1.741308500058949,False,16
X013K23,172,experiment,144,↑,up,↑,1.3428668002597988,True,16
X013K23,173,experiment,180,←,left,←,0.7613929999060929,True,16
X013K23,174,experiment,60,↑,up,↑,0.9171401998028159,True,16
X013K23,175,experiment,132,↑,up,↑,1.0552900000475347,True,16
X013K23,176,experiment,108,←,left,←,0.5706424997188151,True,16
X013K23,177,experiment,168,↓,down,↓,0.6715068998746574,True,16
X013K23,178,experiment,60,↓,down,↓,0.7176899001933634,True,16
X013K23,179,experiment,120,↑,up,↑,0.693673999980092,True,16
X013K23,180,experiment,168,→,right,→,0.7359040002338588,True,16
X013K23,181,experiment,96,↓,down,↓,0.6375007000751793,True,16
X013K23,182,experiment,24,↑,up,↑,0.6506703002378345,True,16
X013K23,183,experiment,180,↓,down,↓,0.6077554002404213,True,16
X013K23,184,experiment,144,→,left,←,1.0165523001924157,False,16
X013K23,185,experiment,72,←,left,←,0.6961317001841962,True,16
X013K23,186,experiment,144,→,right,→,0.6402474003843963,True,16
X013K23,187,experiment,108,←,left,←,0.6217790003865957,True,16
X013K23,188,experiment,84,↑,right,→,1.2129994998686016,False,16
X013K23,189,experiment,84,→,right,→,0.8787369001656771,True,16
X013K23,190,experiment,24,←,left,←,0.8094754000194371,True,16
X013K23,191,experiment,12,→,left,←,0.7567020999267697,False,16
X013K23,192,experiment,60,↑,up,↑,1.3482888001017272,True,16
X013K23,193,experiment,96,→,right,→,0.7226369003765285,True,16
X013K23,194,experiment,24,↓,left,←,1.29087630007416,False,16
X013K23,195,experiment,96,←,left,←,0.5945061999373138,True,16
X013K23,196,experiment,156,→,right,→,0.581971799954772,True,16
X013K23,197,experiment,84,←,left,←,0.6274345000274479,True,16
X013K23,198,experiment,120,←,left,←,0.5677916002459824,True,16
X013K23,199,experiment,12,↑,up,↑,1.474265200085938,True,16
X013K23,200,experiment,24,↓,right,→,1.1248585996218026,False,16
X013K23,201,experiment,48,→,left,←,0.7468135999515653,False,16
X013K23,202,experiment,36,←,right,→,0.9736176002770662,False,16
X013K23,203,experiment,96,→,right,→,0.6522131003439426,True,16
X013K23,204,experiment,84,↓,down,↓,0.8683857000432909,True,16
X013K23,205,experiment,48,↓,down,↓,0.6914746002294123,True,16
X013K23,206,experiment,168,→,right,→,0.7508487002924085,True,16
X013K23,207,experiment,36,↑,up,↑,0.9355346001684666,True,16
X013K23,208,experiment,132,→,right,→,0.6663568001240492,True,16
X013K23,209,experiment,108,↑,up,↑,1.1653769998811185,True,16
X013K23,210,experiment,48,↑,up,↑,0.6505430000834167,True,16
X013K23,211,experiment,132,→,right,→,0.6666377000510693,True,16
X013K23,212,experiment,72,↓,up,↑,0.915224099997431,False,16
X013K23,213,experiment,48,←,left,←,0.7247632998041809,True,16
X013K23,214,experiment,36,←,left,←,0.7091870000585914,True,16
X013K23,215,experiment,72,←,left,←,1.1887629996053874,True,16
X013K23,216,experiment,120,←,left,←,0.6625192002393305,True,16
X013K23,217,experiment,132,←,left,←,0.7027200004085898,True,16
X013K23,218,experiment,36,↓,up,↑,0.8449090998619795,False,16
X013K23,219,experiment,108,↓,left,←,0.7713895998895168,False,16
X013K23,220,training,36,↓,left,←,1.212149300146848,False,16
X013K23,221,training,156,←,up,↑,1.2340297000482678,False,16
X013K23,222,training,132,↓,left,←,0.8397118002176285,False,16
X013K23,223,experiment,84,←,left,←,0.6552982996217906,True,16
X013K23,224,experiment,48,→,right,→,0.6803854000754654,True,16
X013K23,225,experiment,12,←,left,←,0.6760173002257943,True,16
X013K23,226,experiment,24,↑,up,↑,0.6717237001284957,True,16
X013K23,227,experiment,84,↓,down,↓,0.6316022998653352,True,16
X013K23,228,experiment,36,←,left,←,0.904444900341332,True,16
X013K23,229,experiment,72,→,left,←,0.6444482998922467,False,16
X013K23,230,experiment,168,→,right,→,0.669155600015074,True,16
X013K23,231,experiment,120,←,left,←,0.5597246000543237,True,16
X013K23,232,experiment,24,→,right,→,0.7204507999122143,True,16
X013K23,233,experiment,96,↑,up,↑,0.6090716999024153,True,16
X013K23,234,experiment,84,→,left,←,0.6559752998873591,False,16
X013K23,235,experiment,156,←,left,←,0.5844466001726687,True,16
X013K23,236,experiment,144,↓,down,↓,0.5649427999742329,True,16
X013K23,237,experiment,144,↑,left,←,0.7224016999825835,False,16
X013K23,238,experiment,48,←,left,←,0.6597664998844266,True,16
X013K23,239,experiment,48,←,left,←,0.7381854001432657,True,16
X013K23,240,experiment,12,↑,up,↑,0.8461084002628922,True,16
X013K23,241,experiment,60,→,left,←,0.7557824002578855,False,16
X013K23,242,experiment,12,←,right,→,0.8020158000290394,False,16
X013K23,243,experiment,72,↓,up,↑,1.0663622999563813,False,16
X013K23,244,experiment,108,↓,down,↓,0.647851100191474,True,16
X013K23,245,experiment,144,←,left,←,0.6339447000063956,True,16
X013K23,246,experiment,120,↓,down,↓,0.747444000095129,True,16
X013K23,247,experiment,180,↓,down,↓,0.7535941996611655,True,16
X013K23,248,experiment,24,←,left,←,0.7284583002328873,True,16
X013K23,249,experiment,168,→,left,←,0.6116351000964642,False,16
X013K23,250,experiment,96,→,left,←,0.6310951998457313,False,16
X013K23,251,experiment,132,↓,down,↓,0.7089038998819888,True,16
X013K23,252,experiment,60,←,left,←,0.6017431998625398,True,16
X013K23,253,experiment,96,←,left,←,0.6333358995616436,True,16
X013K23,254,experiment,12,↑,up,↑,0.7713914001360536,True,16
X013K23,255,experiment,168,↓,left,←,1.7660167999565601,False,16
X013K23,256,experiment,132,←,left,←,0.55815410008654,True,16
X013K23,257,experiment,60,→,right,→,0.6780216000042856,True,16
X013K23,258,experiment,108,↓,down,↓,0.5487933997064829,True,16
X013K23,259,experiment,180,↓,down,↓,0.6191578996367753,True,16
X013K23,260,experiment,132,↑,right,→,1.4108485002070665,False,16
X013K23,261,experiment,108,→,right,→,0.670943200122565,True,16
X013K23,262,experiment,72,↓,down,↓,0.6438583000563085,True,16
X013K23,263,experiment,36,→,left,←,0.958228699862957,False,16
X013K23,264,experiment,96,→,right,→,0.606730000115931,True,16
X013K23,265,experiment,132,←,left,←,0.7128433999605477,True,16
X013K23,266,experiment,168,←,left,←,0.6523000998422503,True,16
X013K23,267,experiment,180,→,right,→,0.5975353997200727,True,16
X013K23,268,experiment,120,↑,up,↑,0.7187590003013611,True,16
X013K23,269,experiment,36,↑,down,↓,0.7055596001446247,False,16
X013K23,270,experiment,72,↓,down,↓,1.567180700134486,True,16
X013K23,271,experiment,24,→,right,→,0.6310957004316151,True,16
X013K23,272,experiment,156,←,left,←,0.5557523998431861,True,16
X013K23,273,experiment,84,←,right,→,0.9656190001405776,False,16
X013K23,274,experiment,180,→,right,→,0.7790176998823881,True,16
X013K23,275,experiment,120,↓,down,↓,0.814873299561441,True,16
X013K23,276,experiment,108,↑,up,↑,0.9846116001717746,True,16
X013K23,277,experiment,60,←,left,←,0.7475279998034239,True,16
X013K23,278,experiment,144,←,left,←,1.916735699865967,True,16
X013K23,279,experiment,36,↓,up,↑,0.9372807000763714,False,16
X013K23,280,experiment,156,→,right,→,1.6138569000177085,True,16
X013K23,281,experiment,156,→,left,←,0.7324975999072194,False,16
X013K23,282,experiment,48,↓,down,↓,0.8647559997625649,True,16
X013K23,283,training,120,↓,down,↓,0.6559624997898936,True,16
X013K23,284,training,168,←,left,←,0.5584431998431683,True,16
X013K23,285,training,108,↑,left,←,0.7094703000038862,False,16
X013K23,286,experiment,132,↑,up,↑,0.7770774001255631,True,16
X013K23,287,experiment,132,↓,down,↓,0.712878200225532,True,16
X013K23,288,experiment,96,→,right,→,0.8336061998270452,True,16
X013K23,289,experiment,72,→,left,←,0.7341551003046334,False,16
X013K23,290,experiment,72,↓,down,↓,0.6921776002272964,True,16
X013K23,291,experiment,180,↓,down,↓,0.6963072000071406,True,16
X013K23,292,experiment,168,←,left,←,0.6136679998598993,True,16
X013K23,293,experiment,48,↑,up,↑,0.8366256998851895,True,16
X013K23,294,experiment,60,→,left,←,1.5630604000762105,False,16
X013K23,295,experiment,156,↑,up,↑,1.1147769000381231,True,16
X013K23,296,experiment,24,↑,left,←,0.7795313997194171,False,16
X013K23,297,experiment,180,↑,up,↑,0.847433399874717,True,16
X013K23,298,experiment,180,↓,down,↓,0.7529874998144805,True,16
X013K23,299,experiment,36,↓,down,↓,0.9409664999693632,True,16
X013K23,300,experiment,168,↓,down,↓,0.6938745002262294,True,16
X013K23,301,experiment,48,↑,down,↓,0.6859069000929594,False,16
X013K23,302,experiment,72,→,left,←,0.6605626000091434,False,16
X013K23,303,experiment,24,↓,down,↓,0.905031899921596,True,16
X013K23,304,experiment,144,↓,left,←,0.8447679001837969,False,16
X013K23,305,experiment,24,↑,left,←,0.9573419000953436,False,16
X013K23,306,experiment,156,↑,left,←,1.659905600361526,False,16
X013K23,307,experiment,156,↑,up,↑,0.6935983998700976,True,16
X013K23,308,experiment,72,←,left,←,0.6683670999482274,True,16
X013K23,309,experiment,156,↓,down,↓,0.6528854998759925,True,16
X013K23,310,experiment,60,↓,down,↓,0.723647200036794,True,16
X013K23,311,experiment,60,←,right,→,0.805324399843812,False,16
X013K23,312,experiment,60,→,left,←,0.600957500282675,False,16
X013K23,313,experiment,96,↑,up,↑,0.9624083996750414,True,16
X013K23,314,experiment,132,↓,down,↓,0.6602195999585092,True,16
X013K23,315,experiment,24,↑,down,↓,0.689833499956876,False,16
X013K23,316,experiment,132,←,left,←,0.6312718000262976,True,16
X013K23,317,experiment,168,←,right,→,1.7594361999072134,False,16
X013K23,318,experiment,36,↑,left,←,0.7112805997021496,False,16
X013K23,319,experiment,168,←,left,←,0.7851979001425207,True,16
X013K23,320,experiment,84,→,right,→,0.9827592000365257,True,16
X013K23,321,experiment,108,→,no_key,no_letter,-1.0,False,16
X013K23,322,experiment,96,→,left,←,1.0452733999118209,False,16
X013K23,323,experiment,108,↓,no_key,no_letter,-1.0,False,16
X013K23,324,experiment,120,↑,up,↑,0.72757099987939,True,16
X013K23,325,experiment,144,↓,down,↓,0.7105654999613762,True,16
X013K23,326,experiment,144,→,right,→,0.719386599957943,True,16
X013K23,327,experiment,144,↑,up,↑,0.7897589998319745,True,16
X013K23,328,experiment,48,←,left,←,0.664811700116843,True,16
X013K23,329,experiment,84,→,right,→,0.5864709001034498,True,16
X013K23,330,experiment,96,→,right,→,0.6197422998957336,True,16
X013K23,331,experiment,120,→,right,→,0.606324499938637,True,16
X013K23,332,experiment,120,→,right,→,0.591796400025487,True,16
X013K23,333,experiment,108,←,left,←,0.6485174996778369,True,16
X013K23,334,experiment,180,↓,down,↓,1.1100562000647187,True,16
X013K23,335,experiment,108,→,left,←,0.8621825003065169,False,16
X013K23,336,experiment,12,←,up,↑,1.2573753003962338,False,16
X013K23,337,experiment,48,→,right,→,0.9516175002790987,True,16
X013K23,338,experiment,12,←,left,←,0.7933800998143852,True,16
X013K23,339,experiment,120,←,left,←,0.6007842002436519,True,16
X013K23,340,experiment,36,→,right,→,0.8466003001667559,True,16
X013K23,341,experiment,36,←,left,←,0.7472705999389291,True,16
X013K23,342,experiment,12,↑,up,↑,1.7194125996902585,True,16
X013K23,343,experiment,84,→,right,→,0.647486999630928,True,16
X013K23,344,experiment,84,↓,down,↓,0.7209375002421439,True,16
X013K23,345,experiment,12,→,right,→,0.6676580999046564,True,16
X013K23,346,training,132,→,right,→,0.6027282997965813,True,16
X013K23,347,training,144,←,left,←,0.6431442000903189,True,16
X013K23,348,training,84,↓,left,←,0.9561848999001086,False,16
X013K23,349,experiment,144,↑,up,↑,1.5033038002438843,True,16
X013K23,350,experiment,36,→,left,←,0.9102460998110473,False,16
X013K23,351,experiment,108,↑,left,←,0.7409589998424053,False,16
X013K23,352,experiment,72,←,no_key,no_letter,-1.0,False,16
X013K23,353,experiment,168,↓,left,←,1.0858495002612472,False,16
X013K23,354,experiment,156,↓,left,←,1.1427500997669995,False,16
X013K23,355,experiment,24,↑,up,↑,1.3243173998780549,True,16
X013K23,356,experiment,120,↓,down,↓,0.6747969002462924,True,16
X013K23,357,experiment,168,→,left,←,0.7383681000210345,False,16
X013K23,358,experiment,48,↓,down,↓,0.7115156999789178,True,16
X013K23,359,experiment,132,↑,up,↑,0.847688699606806,True,16
X013K23,360,experiment,36,↑,down,↓,0.7298185997642577,False,16
X013K23,361,experiment,84,↓,down,↓,0.9581650998443365,True,16
X013K23,362,experiment,96,↓,down,↓,0.7026652996428311,True,16
X013K23,363,experiment,96,→,right,→,0.8371124998666346,True,16
X013K23,364,experiment,168,↑,left,←,0.708396699745208,False,16
X013K23,365,experiment,108,↑,up,↑,1.0782849001698196,True,16
X013K23,366,experiment,168,←,left,←,0.7304815999232233,True,16
X013K23,367,experiment,156,→,left,←,0.7413385999388993,False,16
X013K23,368,experiment,36,→,left,←,0.8159627001732588,False,16
X013K23,369,experiment,60,←,up,↑,1.3090340998023748,False,16
X013K23,370,experiment,180,↑,up,↑,0.664234499912709,True,16
X013K23,371,experiment,180,←,left,←,0.6282564997673035,True,16
X013K23,372,experiment,132,→,right,→,0.7244963999837637,True,16
X013K23,373,experiment,48,↑,up,↑,0.8570995000191033,True,16
X013K23,374,experiment,60,↓,down,↓,1.254919100087136,True,16
X013K23,375,experiment,24,↓,down,↓,0.7523325001820922,True,16
X013K23,376,experiment,48,→,left,←,0.8494059001095593,False,16
X013K23,377,experiment,36,↑,up,↑,1.0428712000139058,True,16
X013K23,378,experiment,144,→,right,→,0.6065493002533913,True,16
X013K23,379,experiment,156,←,left,←,0.7077739997766912,True,16
X013K23,380,experiment,12,←,right,→,1.3812674996443093,False,16
X013K23,381,experiment,84,→,right,→,0.6699235998094082,True,16
X013K23,382,experiment,60,↑,up,↑,0.774658199865371,True,16
X013K23,383,experiment,72,↑,left,←,0.9937315001152456,False,16
X013K23,384,experiment,12,↓,down,↓,0.7199474000371993,True,16
X013K23,385,experiment,48,↑,up,↑,1.2517853998579085,True,16
X013K23,386,experiment,24,←,left,←,0.6157193002291024,True,16
X013K23,387,experiment,60,↓,down,↓,0.5664110998623073,True,16
X013K23,388,experiment,144,←,left,←,0.612718999851495,True,16
X013K23,389,experiment,108,↓,down,↓,0.6517385998740792,True,16
X013K23,390,experiment,132,↓,left,←,0.7840148000977933,False,16
X013K23,391,experiment,84,←,left,←,0.6925813001580536,True,16
X013K23,392,experiment,72,↑,up,↑,0.7853008001111448,True,16
X013K23,393,experiment,108,→,right,→,0.6443969001993537,True,16
X013K23,394,experiment,96,←,left,←,0.6746697002090514,True,16
X013K23,395,experiment,156,←,left,←,0.6779855000786483,True,16
X013K23,396,experiment,72,←,left,←,0.6605898998677731,True,16
X013K23,397,experiment,96,↓,down,↓,0.6126187001354992,True,16
X013K23,398,experiment,12,→,up,↑,1.4558509001508355,False,16
X013K23,399,experiment,144,↓,down,↓,0.5564236999489367,True,16
X013K23,400,experiment,120,→,right,→,0.7620647996664047,True,16
X013K23,401,experiment,132,→,right,→,0.7059741001576185,True,16
X013K23,402,experiment,120,↓,down,↓,0.7249881001189351,True,16
X013K23,403,experiment,84,↓,left,←,0.8258822001516819,False,16
X013K23,404,experiment,180,→,right,→,0.6484193997457623,True,16
X013K23,405,experiment,12,↑,left,←,1.0213526003062725,False,16
X013K23,406,experiment,180,→,right,→,0.5801802999339998,True,16
X013K23,407,experiment,120,↑,up,↑,0.7921636998653412,True,16
X013K23,408,experiment,24,→,right,→,0.9698250996880233,True,16
X013K23,409,training,144,←,left,←,0.5987392999231815,True,16
X013K23,410,training,72,↑,up,↑,0.6722226999700069,True,16
X013K23,411,training,168,←,left,←,0.7465381999500096,True,16
X013K23,412,experiment,156,↑,up,↑,0.6979939001612365,True,16
X013K23,413,experiment,108,←,left,←,0.6227723001502454,True,16
X013K23,414,experiment,180,↓,down,↓,0.7010053000412881,True,16
X013K23,415,experiment,72,→,left,←,0.720367600210011,False,16
X013K23,416,experiment,168,↑,left,←,0.6193446000106633,False,16
X013K23,417,experiment,108,←,left,←,0.6595418998040259,True,16
X013K23,418,experiment,108,→,left,←,0.6536644999869168,False,16
X013K23,419,experiment,96,↓,down,↓,0.720335999969393,True,16
X013K23,420,experiment,48,↑,up,↑,0.7666825000196695,True,16
X013K23,421,experiment,96,←,left,←,0.5495171998627484,True,16
X013K23,422,experiment,168,←,left,←,0.5784856998361647,True,16
X013K23,423,experiment,132,↓,down,↓,0.6060885000042617,True,16
X013K23,424,experiment,120,→,right,→,0.6322876000776887,True,16
X013K23,425,experiment,36,↓,up,↑,0.8832660997286439,False,16
X013K23,426,experiment,120,↑,up,↑,0.6489468002691865,True,16
X013K23,427,experiment,132,←,right,→,0.6982205002568662,False,16
X013K23,428,experiment,156,→,right,→,0.6193690001964569,True,16
X013K23,429,experiment,84,←,left,←,0.683617299888283,True,16
X013K23,430,experiment,48,←,left,←,0.5784748997539282,True,16
X013K23,431,experiment,180,→,right,→,0.6361429998651147,True,16
X013K23,432,experiment,96,←,left,←,0.5751689001917839,True,16
X013K23,433,experiment,72,←,left,←,0.5837242002598941,True,16
X013K23,434,experiment,180,↓,down,↓,0.6991858999244869,True,16
X013K23,435,experiment,12,←,no_key,no_letter,-1.0,False,16
X013K23,436,experiment,144,←,left,←,0.5474312999285758,True,16
X013K23,437,experiment,84,→,right,→,0.5700337002053857,True,16
X013K23,438,experiment,12,→,left,←,0.7025512997061014,False,16
X013K23,439,experiment,108,→,left,←,0.6860580001957715,False,16
X013K23,440,experiment,168,→,right,→,0.7670724997296929,True,16
X013K23,441,experiment,72,←,left,←,0.5700576999224722,True,16
X013K23,442,experiment,12,↑,left,←,1.155442399904132,False,16
X013K23,443,experiment,120,←,left,←,0.5663222996518016,True,16
X013K23,444,experiment,144,←,left,←,0.635088600218296,True,16
X013K23,445,experiment,84,↑,up,↑,0.7324187001213431,True,16
X013K23,446,experiment,156,→,right,→,0.610952400136739,True,16
X013K23,447,experiment,72,↓,down,↓,0.6307410998269916,True,16
X013K23,448,experiment,60,←,left,←,0.8164558000862598,True,16
X013K23,449,experiment,84,←,left,←,0.6332320999354124,True,16
X013K23,450,experiment,144,↑,up,↑,0.727847300004214,True,16
X013K23,451,experiment,48,↑,down,↓,1.1848991001024842,False,16
X013K23,452,experiment,60,←,left,←,0.5818227999843657,True,16
X013K23,453,experiment,12,←,right,→,0.9970448999665678,False,16
X013K23,454,experiment,36,↓,down,↓,0.723509999923408,True,16
X013K23,455,experiment,36,→,up,↑,1.2654503001831472,False,16
X013K23,456,experiment,180,→,left,←,0.7838701996952295,False,16
X013K23,457,experiment,96,↑,up,↑,0.574577699881047,True,16
X013K23,458,experiment,120,↓,down,↓,1.0506261000409722,True,16
X013K23,459,experiment,60,←,left,←,0.6373335998505354,True,16
X013K23,460,experiment,48,→,right,→,0.6816680002957582,True,16
X013K23,461,experiment,24,↓,down,↓,1.8331427997909486,True,16
X013K23,462,experiment,24,←,left,←,0.6455268003046513,True,16
X013K23,463,experiment,132,↑,left,←,0.7798289000056684,False,16
X013K23,464,experiment,36,↑,up,↑,0.6133196000009775,True,16
X013K23,465,experiment,132,↓,right,→,1.1727256998419762,False,16
X013K23,466,experiment,156,→,left,←,0.6305324002169073,False,16
X013K23,467,experiment,24,↑,up,↑,0.9271208001300693,True,16
X013K23,468,experiment,24,↓,up,↑,1.3001595996320248,False,16
X013K23,469,experiment,168,←,left,←,0.6849704999476671,True,16
X013K23,470,experiment,60,←,left,←,0.7760378001257777,True,16
X013K23,471,experiment,144,↓,down,↓,0.6481100004166365,True,16
X013K23,472,training,60,←,right,→,0.8789927000179887,False,16
X013K23,473,training,12,←,up,↑,0.8289227997884154,False,16
X013K23,474,training,156,←,left,←,0.5249113999307156,True,16
X013K23,475,experiment,120,↓,down,↓,0.6239604000002146,True,16
X013K23,476,experiment,180,←,left,←,0.5640340000391006,True,16
X013K23,477,experiment,36,↓,up,↑,0.9898729999549687,False,16
X013K23,478,experiment,24,↓,down,↓,0.6328000999055803,True,16
X013K23,479,experiment,180,←,left,←,0.6790236001834273,True,16
X013K23,480,experiment,168,↓,down,↓,0.6938906996510923,True,16
X013K23,481,experiment,156,←,left,←,0.5985881998203695,True,16
X013K23,482,experiment,168,→,right,→,0.793762699700892,True,16
X013K23,483,experiment,144,←,left,←,0.5658619999885559,True,16
X013K23,484,experiment,72,←,left,←,0.5763999996706843,True,16
X013K23,485,experiment,180,↑,up,↑,0.6138573000207543,True,16
X013K23,486,experiment,96,←,left,←,0.49756280006840825,True,16
X013K23,487,experiment,12,→,right,→,0.8677860996685922,True,16
X013K23,488,experiment,48,→,right,→,0.6363651999272406,True,16
X013K23,489,experiment,48,←,left,←,0.7862265999428928,True,16
X013K23,490,experiment,156,→,right,→,0.7900084001012146,True,16
X013K23,491,experiment,60,↑,up,↑,1.0725739998742938,True,16
X013K23,492,experiment,120,→,left,←,0.8848303998820484,False,16
X013K23,493,experiment,36,→,right,→,0.5906140003353357,True,16
X013K23,494,experiment,120,←,left,←,0.6126447999849916,True,16
X013K23,495,experiment,12,←,up,↑,0.8840215997770429,False,16
X013K23,496,experiment,36,→,right,→,0.7239910000935197,True,16
X013K23,497,experiment,108,←,left,←,0.6056095999665558,True,16
X013K23,498,experiment,108,↓,up,↑,1.4572569001466036,False,16
X013K23,499,experiment,132,↓,down,↓,0.7057182001881301,True,16
X013K23,500,experiment,96,→,left,←,0.7402729000896215,False,16
X013K23,501,experiment,108,→,right,→,0.6981624998152256,True,16
X013K23,502,experiment,36,←,left,←,0.6342807998880744,True,16
X013K23,503,experiment,168,↑,up,↑,0.9174003000371158,True,16
X013K23,504,experiment,144,→,right,→,0.5908726002089679,True,16
X013K23,505,experiment,144,→,left,←,0.5804090998135507,False,16
X013K23,506,experiment,12,↓,no_key,no_letter,-1.0,False,16
X013K23,507,experiment,132,↑,left,←,1.0786081003025174,False,16
X013K23,508,experiment,84,↓,down,↓,1.2492129001766443,True,16
X013K23,509,experiment,84,←,left,←,0.5746512999758124,True,16
X013K23,510,experiment,60,↑,up,↑,0.6664289999753237,True,16
X013K23,511,experiment,144,↑,up,↑,0.7458357997238636,True,16
X013K23,512,experiment,84,←,left,←,0.5768265998922288,True,16
X013K23,513,experiment,132,↑,up,↑,0.7627957998774946,True,16
X013K23,514,experiment,48,↑,down,↓,1.1366234999150038,False,16
X013K23,515,experiment,12,←,left,←,0.6045498000457883,True,16
X013K23,516,experiment,180,↓,down,↓,0.6868964000605047,True,16
X013K23,517,experiment,60,↓,up,↑,1.5424154000356793,False,16
X013K23,518,experiment,96,←,left,←,0.6088800998404622,True,16
X013K23,519,experiment,60,←,left,←,0.6340876999311149,True,16
X013K23,520,experiment,156,→,right,→,0.6062608999200165,True,16
X013K23,521,experiment,96,↓,down,↓,0.7704282002523541,True,16
X013K23,522,experiment,132,↓,down,↓,0.569696799851954,True,16
X013K23,523,experiment,48,↓,up,↑,0.8974703000858426,False,16
X013K23,524,experiment,24,→,right,→,0.6895158998668194,True,16
X013K23,525,experiment,84,↑,up,↑,0.696526600047946,True,16
X013K23,526,experiment,72,←,left,←,0.6226286003366113,True,16
X013K23,527,experiment,168,→,right,→,0.7197456997819245,True,16
X013K23,528,experiment,72,↓,down,↓,0.6122815003618598,True,16
X013K23,529,experiment,120,↓,down,↓,0.5568870999850333,True,16
X013K23,530,experiment,72,←,right,→,1.4794961996376514,False,16
X013K23,531,experiment,24,↑,left,←,0.9487815001048148,False,16
X013K23,532,experiment,156,↑,no_key,no_letter,-1.0,False,16
X013K23,533,experiment,24,↓,down,↓,0.7728385999798775,True,16
X013K23,534,experiment,108,↓,down,↓,0.8024062998592854,True,16
X013K23,535,training,108,↑,up,↑,1.5003227000124753,True,16
X013K23,536,training,132,←,left,←,0.6622550999745727,True,16
X013K23,537,training,24,↓,down,↓,1.278173000086099,True,16
X013K23,538,experiment,60,←,left,←,0.7761608003638685,True,16
X013K23,539,experiment,120,↓,down,↓,0.5305711999535561,True,16
X013K23,540,experiment,108,→,down,↓,1.1882253997027874,False,16
X013K23,541,experiment,72,→,right,→,0.608045999892056,True,16
X013K23,542,experiment,120,←,left,←,0.623108200263232,True,16
X013K23,543,experiment,156,←,left,←,0.5403250996023417,True,16
X013K23,544,experiment,156,←,left,←,0.9676492996513844,True,16
X013K23,545,experiment,168,↑,up,↑,0.9956740001216531,True,16
X013K23,546,experiment,120,↓,down,↓,0.5980968000367284,True,16
X013K23,547,experiment,156,↑,up,↑,1.4176309001632035,True,16
X013K23,548,experiment,60,→,right,→,0.6193905002437532,True,16
X013K23,549,experiment,156,←,left,←,0.6194965001195669,True,16
X013K23,550,experiment,168,↑,no_key,no_letter,-1.0,False,16
X013K23,551,experiment,144,↓,down,↓,0.6226404001936316,True,16
X013K23,552,experiment,60,←,left,←,0.6920114997774363,True,16
X013K23,553,experiment,36,→,right,→,0.8206417998299003,True,16
X013K23,554,experiment,48,←,left,←,0.748536900151521,True,16
X013K23,555,experiment,168,→,right,→,0.7157536000013351,True,16
X013K23,556,experiment,48,→,left,←,1.2167996000498533,False,16
X013K23,557,experiment,132,→,right,→,0.652625699993223,True,16
X013K23,558,experiment,96,↓,down,↓,0.7053507999517024,True,16
X013K23,559,experiment,48,←,left,←,0.5709819002076983,True,16
X013K23,560,experiment,12,←,right,→,1.0810755998827517,False,16
X013K23,561,experiment,144,↓,down,↓,0.6457202997989953,True,16
X013K23,562,experiment,72,↓,down,↓,0.7473346996121109,True,16
X013K23,563,experiment,84,→,right,→,0.704490200150758,True,16
X013K23,564,experiment,72,↑,down,↓,0.6721570999361575,False,16
X013K23,565,experiment,96,↑,up,↑,1.3375284001231194,True,16
X013K23,566,experiment,108,↑,up,↑,0.7592178001068532,True,16
X013K23,567,experiment,84,→,right,→,0.9082828001119196,True,16
X013K23,568,experiment,180,↓,down,↓,0.6647342001087964,True,16
X013K23,569,experiment,132,→,right,→,0.5746824000962079,True,16
X013K23,570,experiment,144,←,left,←,0.7394810998812318,True,16
X013K23,571,experiment,72,↓,down,↓,0.6088069002144039,True,16
X013K23,572,experiment,108,↓,down,↓,0.5883574998006225,True,16
X013K23,573,experiment,180,←,left,←,0.6446495996788144,True,16
X013K23,574,experiment,12,→,right,→,0.8683544001542032,True,16
X013K23,575,experiment,120,↑,down,↓,0.9987476002424955,False,16
X013K23,576,experiment,24,↓,down,↓,0.6120923003181815,True,16
X013K23,577,experiment,36,←,left,←,0.5980225000530481,True,16
X013K23,578,experiment,12,↑,right,→,1.3943555001169443,False,16
X013K23,579,experiment,60,↑,up,↑,1.2035262999124825,True,16
X013K23,580,experiment,144,↓,down,↓,0.625785100273788,True,16
X013K23,581,experiment,180,←,left,←,0.6543020000681281,True,16
X013K23,582,experiment,168,↓,left,←,1.02319569978863,False,16
X013K23,583,experiment,132,→,right,→,0.6595731000415981,True,16
X013K23,584,experiment,12,→,left,←,0.8005538997240365,False,16
X013K23,585,experiment,36,↓,down,↓,0.8117127995938063,True,16
X013K23,586,experiment,24,↑,up,↑,0.8460034001618624,True,16
X013K23,587,experiment,180,↑,down,↓,1.1841373001225293,False,16
X013K23,588,experiment,84,↓,up,↑,0.8316745003685355,False,16
X013K23,589,experiment,96,↑,right,→,1.2474102000705898,False,16
X013K23,590,experiment,48,←,left,←,0.6669251001439989,True,16
X013K23,591,experiment,132,↑,up,↑,1.2788844001479447,True,16
X013K23,592,experiment,84,→,right,→,1.0062796003185213,True,16
X013K23,593,experiment,96,←,left,←,0.5967538999393582,True,16
X013K23,594,experiment,36,↑,up,↑,0.7020264999009669,True,16
X013K23,595,experiment,108,→,right,→,0.6573644001036882,True,16
X013K23,596,experiment,24,↓,down,↓,0.9683933001942933,True,16
X013K23,597,experiment,24,←,left,←,0.5771582997404039,True,16
X013K23,598,training,168,←,left,←,0.6085545998066664,True,16
X013K23,599,training,84,←,left,←,0.6729711000807583,True,16
X013K23,600,training,180,←,left,←,0.5538755003362894,True,16
X013K23,601,experiment,48,↓,up,↑,1.6967020998708904,False,16
X013K23,602,experiment,48,↑,up,↑,0.9321422995999455,True,16
X013K23,603,experiment,144,↓,down,↓,0.5582042997702956,True,16
X013K23,604,experiment,108,→,right,→,0.6314554000273347,True,16
X013K23,605,experiment,168,↑,up,↑,1.187016500160098,True,16
X013K23,606,experiment,168,↑,up,↑,1.546494500245899,True,16
X013K23,607,experiment,72,↓,down,↓,0.7167568998411298,True,16
X013K23,608,experiment,144,↓,down,↓,0.6483551999554038,True,16
X013K23,609,experiment,180,←,left,←,0.696673100348562,True,16
X013K23,610,experiment,132,→,right,→,0.6319861002266407,True,16
X013K23,611,experiment,36,←,left,←,1.0062240003608167,True,16
X013K23,612,experiment,108,↓,down,↓,0.621151200029999,True,16
X013K23,613,experiment,156,→,right,→,0.6348387002944946,True,16
X013K23,614,experiment,144,↑,up,↑,0.6617514002136886,True,16
X013K23,615,experiment,24,→,right,→,0.7214824999682605,True,16
X013K23,616,experiment,84,→,right,→,0.5744233001023531,True,16
X013K23,617,experiment,60,↓,left,←,0.8476710999384522,False,16
X013K23,618,experiment,96,←,right,→,1.6376185999251902,False,16
X013K23,619,experiment,12,↑,left,←,0.9646215001121163,False,16
X013K23,620,experiment,108,↓,down,↓,0.5991042000241578,True,16
X013K23,621,experiment,96,→,left,←,1.3965270002372563,False,16
X013K23,622,experiment,132,←,left,←,0.8821013001725078,True,16
X013K23,623,experiment,84,←,left,←,0.5992582999169827,True,16
X013K23,624,experiment,60,←,left,←,0.6832313998602331,True,16
X013K23,625,experiment,84,↑,up,↑,1.0752771003171802,True,16
X013K23,626,experiment,120,↑,up,↑,0.9852473000064492,True,16
X013K23,627,experiment,156,↑,up,↑,0.672631099820137,True,16
X013K23,628,experiment,108,←,left,←,0.6075182999484241,True,16
X013K23,629,experiment,180,↑,up,↑,0.7961083999834955,True,16
X013K23,630,experiment,36,→,right,→,0.7429525000043213,True,16
X013K23,631,experiment,60,→,right,→,0.5668688002042472,True,16
X013K23,632,experiment,36,←,left,←,0.7903862004168332,True,16
X013K23,633,experiment,72,→,right,→,0.5615539001300931,True,16
X013K23,634,experiment,24,↓,left,←,0.6464463002048433,False,16
X013K23,635,experiment,168,↑,no_key,no_letter,-1.0,False,16
X013K23,636,experiment,72,↓,down,↓,0.5659941998310387,True,16
X013K23,637,experiment,96,↓,down,↓,0.5778505997732282,True,16
X013K23,638,experiment,72,→,left,←,0.9467611000873148,False,16
X013K23,639,experiment,36,↓,down,↓,0.5867518000304699,True,16
X013K23,640,experiment,144,↓,down,↓,0.5089964997023344,True,16
X013K23,641,experiment,48,→,right,→,1.5912454002536833,True,16
X013K23,642,experiment,120,↓,left,←,0.7628692998550832,False,16
X013K23,643,experiment,12,←,left,←,0.5903747002594173,True,16
X013K23,644,experiment,156,↑,up,↑,1.4907607999630272,True,16
X013K23,645,experiment,156,↓,left,←,0.6661904999054968,False,16
X013K23,646,experiment,12,←,left,←,0.6541381999850273,True,16
X013K23,647,experiment,84,←,left,←,0.5978247001767159,True,16
X013K23,648,experiment,168,←,left,←,0.5592946000397205,True,16
X013K23,649,experiment,132,←,left,←,0.6138209002092481,True,16
X013K23,650,experiment,180,←,left,←,0.5548213999718428,True,16
X013K23,651,experiment,48,←,left,←,0.7265313998796046,True,16
X013K23,652,experiment,24,↓,down,↓,0.9105392997153103,True,16
X013K23,653,experiment,120,↓,down,↓,1.0693795001134276,True,16
X013K23,654,experiment,60,↑,up,↑,1.0238169003278017,True,16
X013K23,655,experiment,132,↑,up,↑,1.0108762001618743,True,16
X013K23,656,experiment,180,↓,left,←,0.7064004000276327,False,16
X013K23,657,experiment,24,↓,down,↓,0.7828767001628876,True,16
X013K23,658,experiment,12,↑,up,↑,0.9477937002666295,True,16
X013K23,659,experiment,120,↑,up,↑,1.201278300024569,True,16
X013K23,660,experiment,96,↓,down,↓,0.6487823999486864,True,16
X013K23,661,training,36,↓,up,↑,1.2187908999621868,False,16
X013K23,662,training,36,←,left,←,0.6766603998839855,True,16
X013K23,663,training,120,↑,up,↑,0.7772552999667823,True,16
X013K23,664,experiment,24,↓,down,↓,0.5875903000123799,True,16
X013K23,665,experiment,156,→,right,→,0.7163979997858405,True,16
X013K23,666,experiment,60,→,left,←,0.6346171000041068,False,16
X013K23,667,experiment,36,←,down,↓,0.8148130998015404,False,16
X013K23,668,experiment,108,→,right,→,0.5610690000467002,True,16
X013K23,669,experiment,84,←,left,←,0.5734178000129759,True,16
X013K23,670,experiment,96,↓,down,↓,0.7580079999752343,True,16
X013K23,671,experiment,168,↑,up,↑,0.8712772997096181,True,16
X013K23,672,experiment,120,→,right,→,0.6513809999451041,True,16
X013K23,673,experiment,168,←,left,←,0.6666434002108872,True,16
X013K23,674,experiment,60,↓,down,↓,0.6147372997365892,True,16
X013K23,675,experiment,120,←,left,←,0.5721963997930288,True,16
X013K23,676,experiment,12,←,down,↓,1.0281720999628305,False,16
X013K23,677,experiment,36,↓,down,↓,0.6732335002161562,True,16
X013K23,678,experiment,144,←,left,←,0.5482875001616776,True,16
X013K23,679,experiment,108,←,left,←,0.5993749001063406,True,16
X013K23,680,experiment,48,←,down,↓,0.8687187000177801,False,16
X013K23,681,experiment,48,←,left,←,0.5730563001707196,True,16
X013K23,682,experiment,132,↓,down,↓,0.730785199906677,True,16
X013K23,683,experiment,48,↓,down,↓,0.597590500023216,True,16
X013K23,684,experiment,180,↓,down,↓,0.6106386999599636,True,16
X013K23,685,experiment,60,→,right,→,0.671429400332272,True,16
X013K23,686,experiment,108,→,right,→,0.9447170002385974,True,16
X013K23,687,experiment,180,→,right,→,0.6014863001182675,True,16
X013K23,688,experiment,24,↓,left,←,0.9945231997407973,False,16
X013K23,689,experiment,24,→,right,→,0.623996399808675,True,16
X013K23,690,experiment,96,↓,down,↓,0.5826495001092553,True,16
X013K23,691,experiment,72,↓,down,↓,0.5440540998242795,True,16
X013K23,692,experiment,120,↑,up,↑,0.8495020000264049,True,16
X013K23,693,experiment,180,↓,down,↓,0.5832211002707481,True,16
X013K23,694,experiment,72,↓,down,↓,0.636729400139302,True,16
X013K23,695,experiment,96,→,right,→,0.5469037997536361,True,16
X013K23,696,experiment,168,→,down,↓,1.4762466996908188,False,16
X013K23,697,experiment,144,→,right,→,0.5214825998991728,True,16
X013K23,698,experiment,84,←,left,←,0.6756573002785444,True,16
X013K23,699,experiment,12,↓,down,↓,0.8712693001143634,True,16
X013K23,700,experiment,12,→,right,→,0.5936636999249458,True,16
X013K23,701,experiment,24,↑,up,↑,0.7699341997504234,True,16
X013K23,702,experiment,132,↓,down,↓,0.6480706003494561,True,16
X013K23,703,experiment,132,→,right,→,0.6295893001370132,True,16
X013K23,704,experiment,156,←,left,←,0.6736097997054458,True,16
X013K23,705,experiment,120,↑,up,↑,0.734576900023967,True,16
X013K23,706,experiment,48,↑,up,↑,0.9695874000899494,True,16
X013K23,707,experiment,12,→,right,→,0.6424841000698507,True,16
X013K23,708,experiment,72,→,left,←,0.799545600079,False,16
X013K23,709,experiment,96,↑,up,↑,0.891357199754566,True,16
X013K23,710,experiment,84,↑,down,↓,0.7591028995811939,False,16
X013K23,711,experiment,144,→,right,→,1.4495318001136184,True,16
X013K23,712,experiment,108,←,left,←,0.8963359999470413,True,16
X013K23,713,experiment,72,←,left,←,0.7839524000883102,True,16
X013K23,714,experiment,36,←,left,←,0.6698213997296989,True,16
X013K23,715,experiment,60,↓,down,↓,0.7779947998933494,True,16
X013K23,716,experiment,144,←,left,←,0.6732331002131104,True,16
X013K23,717,experiment,84,→,right,→,0.614164600148797,True,16
X013K23,718,experiment,36,↑,up,↑,0.7271498003974557,True,16
X013K23,719,experiment,156,←,left,←,0.8407952003180981,True,16
X013K23,720,experiment,180,→,right,→,0.6431951001286507,True,16
X013K23,721,experiment,132,↓,down,↓,0.5949762002564967,True,16
X013K23,722,experiment,168,↑,up,↑,0.8403190998360515,True,16
X013K23,723,experiment,156,↑,up,↑,0.7008960000239313,True,16
X013K23,724,training,168,→,right,→,0.5513665997423232,True,16
X013K23,725,training,96,↑,up,↑,0.7729495000094175,True,16
X013K23,726,training,132,←,left,←,0.6165880002081394,True,16
X013K23,727,experiment,168,↓,down,↓,0.7084192000329494,True,16
X013K23,728,experiment,96,↓,down,↓,0.653148700017482,True,16
X013K23,729,experiment,96,↑,up,↑,0.8125629001297057,True,16
X013K23,730,experiment,12,↓,down,↓,0.7002173997461796,True,16
X013K23,731,experiment,132,↓,down,↓,0.5995041001588106,True,16
X013K23,732,experiment,48,←,left,←,0.799996200017631,True,16
X013K23,733,experiment,156,←,left,←,1.3496004003100097,True,16
X013K23,734,experiment,36,↑,up,↑,0.6814879002049565,True,16
X013K23,735,experiment,60,→,right,→,0.552895300090313,True,16
X013K23,736,experiment,120,←,right,→,0.8931493000127375,False,16
X013K23,737,experiment,72,↑,up,↑,0.8129651001654565,True,16
X013K23,738,experiment,36,←,left,←,0.6298905001021922,True,16
X013K23,739,experiment,144,→,right,→,0.7318152002990246,True,16
X013K23,740,experiment,96,→,right,→,0.6386402999050915,True,16
X013K23,741,experiment,84,←,left,←,0.6293643000535667,True,16
X013K23,742,experiment,24,←,left,←,0.8103474997915328,True,16
X013K23,743,experiment,156,←,left,←,0.576416099909693,True,16
X013K23,744,experiment,180,↑,up,↑,0.8208359000273049,True,16
X013K23,745,experiment,60,↑,up,↑,0.8024857002310455,True,16
X013K23,746,experiment,72,↑,up,↑,0.7904269001446664,True,16
X013K23,747,experiment,60,↓,down,↓,0.48830620013177395,True,16
X013K23,748,experiment,72,←,left,←,0.8550653997808695,True,16
X013K23,749,experiment,132,←,left,←,0.6073130001313984,True,16
X013K23,750,experiment,144,↑,right,→,0.9889535000547767,False,16
X013K23,751,experiment,144,↓,down,↓,0.6520374999381602,True,16
X013K23,752,experiment,84,↓,down,↓,0.6005679997615516,True,16
X013K23,753,experiment,156,→,right,→,0.6074240999296308,True,16
X013K23,754,experiment,84,←,left,←,0.6974991001188755,True,16
X013K23,755,experiment,108,↑,up,↑,0.8658289997838438,True,16
X013K23,756,experiment,144,↓,down,↓,0.5948795001022518,True,16
X013K23,757,experiment,132,→,left,←,0.9535456001758575,False,16
X013K23,758,experiment,48,↓,down,↓,0.6025382000952959,True,16
X013K23,759,experiment,108,←,left,←,0.5390955000184476,True,16
X013K23,760,experiment,180,↓,down,↓,0.5461891000159085,True,16
X013K23,761,experiment,120,↓,down,↓,0.6604955000802875,True,16
X013K23,762,experiment,168,→,right,→,0.6253275997005403,True,16
X013K23,763,experiment,24,→,left,←,0.7246778002008796,False,16
X013K23,764,experiment,72,↑,up,↑,1.0465208999812603,True,16
X013K23,765,experiment,96,↓,down,↓,0.599390699993819,True,16
X013K23,766,experiment,24,↓,down,↓,0.6999345999211073,True,16
X013K23,767,experiment,132,↑,up,↑,0.7167805000208318,True,16
X013K23,768,experiment,108,↑,up,↑,0.6264508999884129,True,16
X013K23,769,experiment,156,←,left,←,0.6347058997489512,True,16
X013K23,770,experiment,24,↓,up,↑,0.9006822002120316,False,16
X013K23,771,experiment,120,↓,down,↓,0.5843520001508296,True,16
X013K23,772,experiment,48,↓,down,↓,0.8099473002366722,True,16
X013K23,773,experiment,12,↓,down,↓,0.6853224001824856,True,16
X013K23,774,experiment,108,↓,down,↓,0.6672457000240684,True,16
X013K23,775,experiment,120,←,right,→,1.2272668001241982,False,16
X013K23,776,experiment,84,↑,up,↑,0.796063999645412,True,16
X013K23,777,experiment,168,↑,up,↑,0.7297494998201728,True,16
X013K23,778,experiment,168,↓,down,↓,0.9443783997558057,True,16
X013K23,779,experiment,12,→,left,←,1.5931796999648213,False,16
X013K23,780,experiment,12,↑,up,↑,0.6878066998906434,True,16
X013K23,781,experiment,180,→,right,→,0.8882883996702731,True,16
X013K23,782,experiment,180,←,left,←,0.6907076998613775,True,16
X013K23,783,experiment,36,→,right,→,1.8737718001939356,True,16
X013K23,784,experiment,48,←,left,←,0.6229480002075434,True,16
X013K23,785,experiment,36,↓,up,↑,0.8815409000962973,False,16
X013K23,786,experiment,60,→,no_key,no_letter,-1.0,False,16
X013K23,787,training,132,↓,down,↓,0.7514768997207284,True,16
X013K23,788,training,120,↓,down,↓,0.5641141999512911,True,16
X013K23,789,training,36,←,left,←,0.7472580000758171,True,16
X013K23,790,experiment,108,→,right,→,0.5124463001266122,True,16
X013K23,791,experiment,12,→,left,←,0.9350300999358296,False,16
X013K23,792,experiment,156,↑,up,↑,0.7604545000940561,True,16
X013K23,793,experiment,180,←,left,←,0.6070853997953236,True,16
X013K23,794,experiment,120,←,left,←,0.48567549977451563,True,16
X013K23,795,experiment,96,↑,up,↑,0.8116525998339057,True,16
X013K23,796,experiment,24,←,left,←,0.7748872004449368,True,16
X013K23,797,experiment,108,↓,down,↓,0.6282544997520745,True,16
X013K23,798,experiment,156,←,left,←,0.5408625998534262,True,16
X013K23,799,experiment,72,↑,up,↑,0.6856735995970666,True,16
X013K23,800,experiment,60,↑,down,↓,0.5684605999849737,False,16
X013K23,801,experiment,48,↑,up,↑,0.9191413000226021,True,16
X013K23,802,experiment,180,↓,down,↓,1.0038894000463188,True,16
X013K23,803,experiment,48,→,right,→,0.6841799998655915,True,16
X013K23,804,experiment,144,↓,down,↓,0.6928379000164568,True,16
X013K23,805,experiment,84,→,right,→,0.5892354999668896,True,16
X013K23,806,experiment,144,↑,left,←,0.8551821997389197,False,16
X013K23,807,experiment,84,←,left,←,0.6193741001188755,True,16
X013K23,808,experiment,72,↓,down,↓,0.6660732999444008,True,16
X013K23,809,experiment,36,→,down,↓,0.8654513997025788,False,16
X013K23,810,experiment,156,↑,up,↑,0.7376395999453962,True,16
X013K23,811,experiment,36,→,right,→,0.486200800165534,True,16
X013K23,812,experiment,168,↑,right,→,1.587994100060314,False,16
X013K23,813,experiment,12,↑,up,↑,0.6235676999203861,True,16
X013K23,814,experiment,48,→,right,→,0.610827200114727,True,16
X013K23,815,experiment,84,→,right,→,0.5803427002392709,True,16
X013K23,816,experiment,36,←,left,←,0.5051412996836007,True,16
X013K23,817,experiment,132,←,left,←,0.5018641003407538,True,16
X013K23,818,experiment,144,←,left,←,0.5109041999094188,True,16
X013K23,819,experiment,168,→,up,↑,1.0203471002168953,False,16
X013K23,820,experiment,96,↓,down,↓,0.6222312999889255,True,16
X013K23,821,experiment,12,↓,right,→,1.261603799648583,False,16
X013K23,822,experiment,24,→,right,→,0.7052866001613438,True,16
X013K23,823,experiment,132,↓,down,↓,0.674134099856019,True,16
X013K23,824,experiment,60,↓,left,←,1.6885858001187444,False,16
X013K23,825,experiment,84,↑,up,↑,0.9328661998733878,True,16
X013K23,826,experiment,72,↑,up,↑,0.7116576000116765,True,16
X013K23,827,experiment,120,←,left,←,0.6295366999693215,True,16
X013K23,828,experiment,156,→,right,→,0.8858934002928436,True,16
X013K23,829,experiment,60,↓,down,↓,0.6627293000929058,True,16
X013K23,830,experiment,72,←,left,←,0.7536809998564422,True,16
X013K23,831,experiment,168,←,down,↓,1.3103920998983085,False,16
X013K23,832,experiment,108,←,up,↑,0.8907490000128746,False,16
X013K23,833,experiment,12,←,left,←,0.9541981001384556,True,16
X013K23,834,experiment,168,↓,down,↓,0.6703401999548078,True,16
X013K23,835,experiment,180,↓,down,↓,0.7859263997524977,True,16
X013K23,836,experiment,96,→,right,→,0.592353000305593,True,16
X013K23,837,experiment,132,→,right,→,0.6863131001591682,True,16
X013K23,838,experiment,96,↑,up,↑,0.8501247996464372,True,16
X013K23,839,experiment,120,→,right,→,0.6066306000575423,True,16
X013K23,840,experiment,48,↓,down,↓,0.6729398001916707,True,16
X013K23,841,experiment,180,←,up,↑,0.9745170003734529,False,16
X013K23,842,experiment,144,←,left,←,0.7557514002546668,True,16
X013K23,843,experiment,108,→,right,→,0.5567348999902606,True,16
X013K23,844,experiment,60,←,down,↓,0.6722995000891387,False,16
X013K23,845,experiment,120,←,left,←,0.6109303999692202,True,16
X013K23,846,experiment,24,←,left,←,0.6974086998961866,True,16
X013K23,847,experiment,24,→,right,→,0.5413828999735415,True,16
X013K23,848,experiment,36,→,right,→,0.5548298000358045,True,16
X013K23,849,experiment,132,↓,down,↓,0.6125328000634909,True,16
