PART_ID,Trial_no,Trial_type,PDI,Stim_letter,Key_pressed,letter_choose,Rt,Corr,Stimulus Time
X017M20,1,training,10,←,no_key,no_letter,-1.0,False,30
X017M20,2,training,10,→,up,↑,1.317584800068289,False,30
X017M20,3,training,10,↓,no_key,no_letter,-1.0,False,30
X017M20,4,training,10,→,right,→,0.859130600001663,True,30
X017M20,5,training,10,↓,down,↓,1.0027278000488877,True,30
X017M20,6,training,10,→,right,→,0.7516140001825988,True,30
X017M20,7,training,10,→,right,→,0.8040320998989046,True,30
X017M20,8,training,10,↑,up,↑,1.3339736997149885,True,30
X017M20,9,training,10,→,left,←,1.5048046000301838,False,30
X017M20,10,training,10,→,right,→,0.6923805000260472,True,30
X017M20,11,training,10,→,right,→,0.7416306999512017,True,30
X017M20,12,training,10,←,left,←,0.617894500028342,True,30
X017M20,13,training,10,↑,up,↑,0.7851229999214411,True,30
X017M20,14,training,10,↓,down,↓,0.722291000187397,True,30
X017M20,15,training,10,←,left,←,0.7790620001032948,True,30
X017M20,16,training,10,→,right,→,0.6805183002725244,True,30
X017M20,17,training,10,↑,up,↑,0.5839277002960443,True,30
X017M20,18,training,10,→,right,→,0.7998047997243702,True,30
X017M20,19,training,10,↑,up,↑,0.601106199901551,True,30
X017M20,20,training,10,←,left,←,0.6004461999982595,True,30
X017M20,21,training,10,←,left,←,0.6455978997983038,True,18
X017M20,22,training,10,←,left,←,0.7079095998778939,True,18
X017M20,23,training,10,→,right,→,0.6985341999679804,True,18
X017M20,24,training,10,←,left,←,0.5147850001230836,True,18
X017M20,25,training,10,→,right,→,0.8702165000140667,True,18
X017M20,26,training,10,→,right,→,0.7779430001974106,True,18
X017M20,27,training,10,↑,up,↑,0.7634016997180879,True,18
X017M20,28,training,10,↓,down,↓,0.7052974998950958,True,18
X017M20,29,training,10,→,right,→,0.6637700004503131,True,18
X017M20,30,training,10,→,right,→,0.7085470999591053,True,18
X017M20,31,training,48,→,right,→,0.5617414000444114,True,15
X017M20,32,training,60,→,down,↓,1.5414207000285387,False,15
X017M20,33,training,120,←,left,←,0.7234498001635075,True,15
X017M20,34,experiment,120,↓,right,→,0.8818736001849174,False,15
X017M20,35,experiment,72,←,left,←,0.7816558997146785,True,15
X017M20,36,experiment,156,→,right,→,0.6928126998245716,True,15
X017M20,37,experiment,180,↓,down,↓,0.7966440003365278,True,15
X017M20,38,experiment,144,↑,down,↓,0.7829073001630604,False,15
X017M20,39,experiment,12,↓,down,↓,1.113810499664396,True,15
X017M20,40,experiment,144,↓,down,↓,0.8831384000368416,True,15
X017M20,41,experiment,96,←,right,→,0.6966142002493143,False,15
X017M20,42,experiment,72,←,left,←,0.7866330998949707,True,15
X017M20,43,experiment,96,↑,right,→,0.8360898997634649,False,15
X017M20,44,experiment,96,←,left,←,0.8216128000058234,True,15
X017M20,45,experiment,132,→,right,→,0.8507195003330708,True,15
X017M20,46,experiment,24,↓,down,↓,0.7011914998292923,True,15
X017M20,47,experiment,144,↓,up,↑,1.7350612003356218,False,15
X017M20,48,experiment,180,←,up,↑,1.1520845000632107,False,15
X017M20,49,experiment,156,↑,down,↓,1.065858599729836,False,15
X017M20,50,experiment,72,→,left,←,0.9810834000818431,False,15
X017M20,51,experiment,36,→,up,↑,1.3573996000923216,False,15
X017M20,52,experiment,168,↓,right,→,0.6605789000168443,False,15
X017M20,53,experiment,24,←,right,→,0.8640337996184826,False,15
X017M20,54,experiment,108,↑,left,←,0.9758808999322355,False,15
X017M20,55,experiment,12,↑,right,→,1.1173614002764225,False,15
X017M20,56,experiment,108,→,right,→,0.747529299929738,True,15
X017M20,57,experiment,108,←,left,←,0.9909924999810755,True,15
X017M20,58,experiment,60,↑,up,↑,1.03235450014472,True,15
X017M20,59,experiment,84,↓,down,↓,1.3696738998405635,True,15
X017M20,60,experiment,156,→,right,→,0.701658200006932,True,15
X017M20,61,experiment,12,→,left,←,1.091915300115943,False,15
X017M20,62,experiment,120,↑,up,↑,0.7799872998148203,True,15
X017M20,63,experiment,72,←,left,←,0.7546777003444731,True,15
X017M20,64,experiment,60,↑,up,↑,1.0242547001689672,True,15
X017M20,65,experiment,108,→,right,→,1.0520833004266024,True,15
X017M20,66,experiment,96,↓,left,←,0.8074996997602284,False,15
X017M20,67,experiment,48,↓,down,↓,1.0444435998797417,True,15
X017M20,68,experiment,48,→,left,←,1.0375091000460088,False,15
X017M20,69,experiment,12,←,right,→,1.0669701001606882,False,15
X017M20,70,experiment,156,↑,up,↑,0.6888627000153065,True,15
X017M20,71,experiment,60,↓,down,↓,0.8065869002602994,True,15
X017M20,72,experiment,36,↑,left,←,1.8258670000359416,False,15
X017M20,73,experiment,60,↑,left,←,0.8986912998370826,False,15
X017M20,74,experiment,180,↓,right,→,0.9858900001272559,False,15
X017M20,75,experiment,132,↑,up,↑,1.5999022000469267,True,15
X017M20,76,experiment,24,→,right,→,0.9417591001838446,True,15
X017M20,77,experiment,120,↓,left,←,0.7849758001975715,False,15
X017M20,78,experiment,132,↓,right,→,0.8630824997089803,False,15
X017M20,79,experiment,48,←,left,←,0.7497328002937138,True,15
X017M20,80,experiment,84,↑,left,←,0.8353860001079738,False,15
X017M20,81,experiment,36,→,right,→,0.9811153998598456,True,15
X017M20,82,experiment,84,↓,right,→,0.920953799970448,False,15
X017M20,83,experiment,144,→,left,←,0.8392978999763727,False,15
X017M20,84,experiment,168,→,right,→,0.7866162001155317,True,15
X017M20,85,experiment,168,↑,up,↑,1.2534377998672426,True,15
X017M20,86,experiment,120,→,right,→,0.8203810001723468,True,15
X017M20,87,experiment,168,↑,up,↑,0.889471999835223,True,15
X017M20,88,experiment,84,↓,right,→,0.9327308000065386,False,15
X017M20,89,experiment,24,→,left,←,1.7268612002953887,False,15
X017M20,90,experiment,180,↓,up,↑,1.1160770999267697,False,15
X017M20,91,experiment,132,→,right,→,0.8972126999869943,True,15
X017M20,92,experiment,48,↑,up,↑,0.8309658002108335,True,15
X017M20,93,experiment,36,↓,down,↓,0.903696599882096,True,15
X017M20,94,training,108,↓,right,→,0.6808655997738242,False,16
X017M20,95,training,24,←,left,←,0.7542034997604787,True,16
X017M20,96,training,72,←,left,←,0.5958921001292765,True,16
X017M20,97,experiment,180,→,right,→,0.5879879998974502,True,16
X017M20,98,experiment,60,↑,up,↑,0.697029700037092,True,16
X017M20,99,experiment,156,↑,left,←,0.7344604004174471,False,16
X017M20,100,experiment,72,↑,right,→,0.7719530998729169,False,16
X017M20,101,experiment,36,→,left,←,0.6940016997978091,False,16
X017M20,102,experiment,84,→,right,→,0.534400099888444,True,16
X017M20,103,experiment,24,↑,left,←,0.8505434999242425,False,16
X017M20,104,experiment,108,↓,up,↑,0.7371840998530388,False,16
X017M20,105,experiment,132,←,left,←,0.612391599919647,True,16
X017M20,106,experiment,12,←,right,→,0.9162288000807166,False,16
X017M20,107,experiment,24,↑,right,→,0.7377193998545408,False,16
X017M20,108,experiment,60,↓,down,↓,1.2980705997906625,True,16
X017M20,109,experiment,156,←,left,←,0.8383958996273577,True,16
X017M20,110,experiment,144,↓,down,↓,1.0670326999388635,True,16
X017M20,111,experiment,120,←,up,↑,1.3501418000087142,False,16
X017M20,112,experiment,132,→,right,→,0.9875847999937832,True,16
X017M20,113,experiment,180,↓,left,←,0.7132805003784597,False,16
X017M20,114,experiment,24,↓,down,↓,0.6880363998934627,True,16
X017M20,115,experiment,132,→,right,→,0.6950595998205245,True,16
X017M20,116,experiment,48,→,left,←,0.6860239999368787,False,16
X017M20,117,experiment,156,↑,down,↓,0.9044119999743998,False,16
X017M20,118,experiment,72,↑,down,↓,0.7783130002208054,False,16
X017M20,119,experiment,84,←,right,→,0.9514449001289904,False,16
X017M20,120,experiment,36,→,right,→,1.0182485999539495,True,16
X017M20,121,experiment,120,→,left,←,1.195000299718231,False,16
X017M20,122,experiment,168,↓,left,←,0.7046169000677764,False,16
X017M20,123,experiment,96,←,left,←,0.71037059975788,True,16
X017M20,124,experiment,156,←,left,←,0.6286569000221789,True,16
X017M20,125,experiment,108,←,left,←,0.5899589001201093,True,16
X017M20,126,experiment,12,→,up,↑,1.7491764998994768,False,16
X017M20,127,experiment,96,←,right,→,1.128736600279808,False,16
X017M20,128,experiment,108,↑,left,←,0.7807404999621212,False,16
X017M20,129,experiment,96,↓,up,↑,0.9529245998710394,False,16
X017M20,130,experiment,168,←,left,←,0.6655628001317382,True,16
X017M20,131,experiment,120,↓,down,↓,1.0889024999924004,True,16
X017M20,132,experiment,36,↓,down,↓,1.0761723998002708,True,16
X017M20,133,experiment,108,↑,left,←,0.7190676000900567,False,16
X017M20,134,experiment,60,↓,left,←,0.9456993998028338,False,16
X017M20,135,experiment,12,←,right,→,0.9764684000983834,False,16
X017M20,136,experiment,144,↓,down,↓,0.6673771003261209,True,16
X017M20,137,experiment,60,→,right,→,0.6752447998151183,True,16
X017M20,138,experiment,48,→,left,←,0.7203575996682048,False,16
X017M20,139,experiment,84,↓,right,→,0.9586960999295115,False,16
X017M20,140,experiment,84,↓,right,→,0.9640383999794722,False,16
X017M20,141,experiment,72,←,left,←,0.5520981997251511,True,16
X017M20,142,experiment,144,→,right,→,1.1711706002242863,True,16
X017M20,143,experiment,180,→,left,←,0.7350514000281692,False,16
X017M20,144,experiment,168,↓,right,→,0.7947068000212312,False,16
X017M20,145,experiment,180,←,left,←,0.7747304998338223,True,16
X017M20,146,experiment,24,←,left,←,0.7368418001569808,True,16
X017M20,147,experiment,144,→,left,←,0.8055531000718474,False,16
X017M20,148,experiment,168,→,left,←,0.9520994001068175,False,16
X017M20,149,experiment,12,←,right,→,1.2283625002019107,False,16
X017M20,150,experiment,48,↑,down,↓,1.2115601003170013,False,16
X017M20,151,experiment,132,←,left,←,0.7135997000150383,True,16
X017M20,152,experiment,48,←,left,←,0.8519525998272002,True,16
X017M20,153,experiment,96,↑,right,→,1.1056343000382185,False,16
X017M20,154,experiment,36,↓,left,←,0.8099201000295579,False,16
X017M20,155,experiment,120,↑,right,→,0.7403651000931859,False,16
X017M20,156,experiment,72,↑,up,↑,0.9875444998033345,True,16
X017M20,157,training,60,←,right,→,0.6419216999784112,False,17
X017M20,158,training,84,↑,left,←,0.5007207999005914,False,17
X017M20,159,training,144,↑,up,↑,0.8228124999441206,True,17
X017M20,160,experiment,168,↑,up,↑,1.0270978999324143,True,17
X017M20,161,experiment,132,↓,down,↓,0.6464987997896969,True,17
X017M20,162,experiment,120,←,right,→,0.7725700000301003,False,17
X017M20,163,experiment,12,↑,right,→,1.6864050002768636,False,17
X017M20,164,experiment,180,↓,down,↓,0.6784661002457142,True,17
X017M20,165,experiment,108,→,left,←,1.7283487003296614,False,17
X017M20,166,experiment,96,→,right,→,0.7163472003303468,True,17
X017M20,167,experiment,48,↓,up,↑,1.1280800998210907,False,17
X017M20,168,experiment,108,↑,left,←,1.0427525998093188,False,17
X017M20,169,experiment,72,→,up,↑,1.437298800330609,False,17
X017M20,170,experiment,12,↑,up,↑,1.0829172004014254,True,17
X017M20,171,experiment,36,↑,left,←,1.4200021000579,False,17
X017M20,172,experiment,180,↓,right,→,1.015742199961096,False,17
X017M20,173,experiment,84,↑,left,←,1.0479747001081705,False,17
X017M20,174,experiment,132,←,left,←,1.103221499826759,True,17
X017M20,175,experiment,144,↓,up,↑,0.980904099997133,False,17
X017M20,176,experiment,72,↑,up,↑,0.9914347003214061,True,17
X017M20,177,experiment,60,→,right,→,0.5475310999900103,True,17
X017M20,178,experiment,156,↑,left,←,0.9795066001825035,False,17
X017M20,179,experiment,96,↑,up,↑,1.1071486002765596,True,17
X017M20,180,experiment,180,↓,right,→,1.0130851003341377,False,17
X017M20,181,experiment,24,↓,up,↑,0.8575170002877712,False,17
X017M20,182,experiment,84,←,left,←,0.5984171000309289,True,17
X017M20,183,experiment,144,↓,left,←,1.1511220000684261,False,17
X017M20,184,experiment,168,↓,left,←,0.8608792996965349,False,17
X017M20,185,experiment,120,↑,up,↑,0.9996275999583304,True,17
X017M20,186,experiment,108,→,right,→,0.6457802997902036,True,17
X017M20,187,experiment,168,↓,up,↑,0.7894223998300731,False,17
X017M20,188,experiment,132,↓,left,←,1.127093099988997,False,17
X017M20,189,experiment,84,→,right,→,0.6663115001283586,True,17
X017M20,190,experiment,48,↓,up,↑,0.754472500178963,False,17
X017M20,191,experiment,132,↑,up,↑,1.1795725002884865,True,17
X017M20,192,experiment,36,→,right,→,0.5798948998562992,True,17
X017M20,193,experiment,72,↓,left,←,1.0174709996208549,False,17
X017M20,194,experiment,120,→,left,←,0.6639338997192681,False,17
X017M20,195,experiment,84,↑,up,↑,0.6610278999432921,True,17
X017M20,196,experiment,60,←,left,←,0.7273063003085554,True,17
X017M20,197,experiment,120,→,right,→,0.8530282997526228,True,17
X017M20,198,experiment,60,→,left,←,0.5763408998027444,False,17
X017M20,199,experiment,36,↑,right,→,1.1823034998960793,False,17
X017M20,200,experiment,24,←,left,←,0.6785002998076379,True,17
X017M20,201,experiment,108,→,right,→,0.6256728996522725,True,17
X017M20,202,experiment,96,↑,right,→,0.7932076998986304,False,17
X017M20,203,experiment,156,↑,up,↑,0.9580684998072684,True,17
X017M20,204,experiment,72,↑,up,↑,0.66427329974249,True,17
X017M20,205,experiment,168,↓,down,↓,0.7565449997782707,True,17
X017M20,206,experiment,156,↑,up,↑,0.6329085999168456,True,17
X017M20,207,experiment,156,↓,down,↓,0.8872829000465572,True,17
X017M20,208,experiment,12,←,down,↓,1.0181454000994563,False,17
X017M20,209,experiment,60,←,down,↓,0.8876843000762165,False,17
X017M20,210,experiment,36,↓,down,↓,0.7540974002331495,True,17
X017M20,211,experiment,24,→,left,←,0.700250199995935,False,17
X017M20,212,experiment,144,↑,up,↑,0.6902988003566861,True,17
X017M20,213,experiment,24,↑,up,↑,0.9028719998896122,True,17
X017M20,214,experiment,180,←,left,←,0.6120067001320422,True,17
X017M20,215,experiment,48,↑,left,←,0.7368713999167085,False,17
X017M20,216,experiment,12,↓,down,↓,0.7210756000131369,True,17
X017M20,217,experiment,144,←,left,←,0.6117153000086546,True,17
X017M20,218,experiment,96,↑,up,↑,0.6526726996526122,True,17
X017M20,219,experiment,48,→,right,→,0.5019163000397384,True,17
X017M20,220,training,48,↑,down,↓,0.6592948003672063,False,18
X017M20,221,training,156,↓,down,↓,0.5470865000970662,True,18
X017M20,222,training,60,↓,down,↓,0.6481523998081684,True,18
X017M20,223,experiment,108,↓,down,↓,0.6379556003957987,True,18
X017M20,224,experiment,12,←,left,←,0.9977438999339938,True,18
X017M20,225,experiment,84,→,right,→,0.5946933999657631,True,18
X017M20,226,experiment,84,←,left,←,0.6427579997107387,True,18
X017M20,227,experiment,60,←,left,←,0.627715399954468,True,18
X017M20,228,experiment,60,↓,down,↓,0.5882876999676228,True,18
X017M20,229,experiment,132,↑,up,↑,1.1236186996102333,True,18
X017M20,230,experiment,168,→,left,←,0.7585481000132859,False,18
X017M20,231,experiment,72,→,right,→,0.6162288999184966,True,18
X017M20,232,experiment,24,↑,left,←,0.7352794003672898,False,18
X017M20,233,experiment,48,↓,down,↓,1.059802200179547,True,18
X017M20,234,experiment,180,↓,down,↓,0.7000449001789093,True,18
X017M20,235,experiment,180,←,left,←,0.7341880002059042,True,18
X017M20,236,experiment,144,←,left,←,0.5973920999094844,True,18
X017M20,237,experiment,36,→,right,→,0.8203374999575317,True,18
X017M20,238,experiment,24,↑,down,↓,0.6667367001064122,False,18
X017M20,239,experiment,120,↑,up,↑,0.7122348002158105,True,18
X017M20,240,experiment,12,←,right,→,0.8260980001650751,False,18
X017M20,241,experiment,120,↓,down,↓,0.8885353999212384,True,18
X017M20,242,experiment,12,↑,left,←,0.7962145996280015,False,18
X017M20,243,experiment,108,↓,down,↓,0.8700274997390807,True,18
X017M20,244,experiment,84,↓,down,↓,0.769291500095278,True,18
X017M20,245,experiment,108,↑,left,←,0.8349287998862565,False,18
X017M20,246,experiment,120,←,right,→,0.8067356999963522,False,18
X017M20,247,experiment,48,↑,left,←,0.9017335004173219,False,18
X017M20,248,experiment,168,↓,down,↓,0.7749462998472154,True,18
X017M20,249,experiment,60,↑,up,↑,0.7677360000088811,True,18
X017M20,250,experiment,60,→,up,↑,0.7917679999954998,False,18
X017M20,251,experiment,72,↓,up,↑,0.8055027001537383,False,18
X017M20,252,experiment,132,→,right,→,0.7089256001636386,True,18
X017M20,253,experiment,24,→,up,↑,0.9112796997651458,False,18
X017M20,254,experiment,168,→,right,→,0.9899192997254431,True,18
X017M20,255,experiment,168,↑,up,↑,0.6085092998109758,True,18
X017M20,256,experiment,156,↑,up,↑,0.5992841999977827,True,18
X017M20,257,experiment,144,←,up,↑,0.7285082000307739,False,18
X017M20,258,experiment,96,←,left,←,0.7315781996585429,True,18
X017M20,259,experiment,144,←,left,←,0.73775490000844,True,18
X017M20,260,experiment,72,→,right,→,0.8113373001106083,True,18
X017M20,261,experiment,156,↑,up,↑,0.7483799001201987,True,18
X017M20,262,experiment,48,←,left,←,0.7694610003381968,True,18
X017M20,263,experiment,36,→,right,→,0.9144830000586808,True,18
X017M20,264,experiment,12,↓,up,↑,0.8011618000455201,False,18
X017M20,265,experiment,108,↑,up,↑,0.6636370997875929,True,18
X017M20,266,experiment,96,←,left,←,0.904235600028187,True,18
X017M20,267,experiment,180,→,right,→,0.7051172996871173,True,18
X017M20,268,experiment,96,→,right,→,0.678993399720639,True,18
X017M20,269,experiment,36,→,left,←,0.9641153002157807,False,18
X017M20,270,experiment,144,←,right,→,0.9644880001433194,False,18
X017M20,271,experiment,180,←,up,↑,0.7659900998696685,False,18
X017M20,272,experiment,48,→,right,→,0.7028910000808537,True,18
X017M20,273,experiment,24,↓,down,↓,0.633231199812144,True,18
X017M20,274,experiment,156,←,left,←,0.8021106002852321,True,18
X017M20,275,experiment,132,←,left,←,0.7773763001896441,True,18
X017M20,276,experiment,132,↓,down,↓,0.7323333998210728,True,18
X017M20,277,experiment,72,↓,down,↓,0.8548192996531725,True,18
X017M20,278,experiment,84,↑,left,←,0.9863336998969316,False,18
X017M20,279,experiment,96,→,left,←,0.7160414000973105,False,18
X017M20,280,experiment,156,↓,down,↓,0.7174345999956131,True,18
X017M20,281,experiment,120,↑,up,↑,0.7629504003562033,True,18
X017M20,282,experiment,36,←,left,←,0.7437781998887658,True,18
X017M20,283,training,96,↓,down,↓,0.844813599716872,True,18
X017M20,284,training,132,→,down,↓,0.7657898999750614,False,18
X017M20,285,training,168,←,left,←,0.6983509003184736,True,18
X017M20,286,experiment,24,↓,right,→,1.009659199975431,False,18
X017M20,287,experiment,132,↑,left,←,0.6775535997003317,False,18
X017M20,288,experiment,120,→,right,→,0.7282789996825159,True,18
X017M20,289,experiment,108,↓,down,↓,0.6413004002533853,True,18
X017M20,290,experiment,48,→,left,←,0.7476534000597894,False,18
X017M20,291,experiment,72,↓,down,↓,0.7229983997531235,True,18
X017M20,292,experiment,132,←,left,←,0.6495277001522481,True,18
X017M20,293,experiment,144,→,right,→,0.7397086997516453,True,18
X017M20,294,experiment,144,↑,left,←,0.6623019999824464,False,18
X017M20,295,experiment,48,↓,down,↓,0.8310937001369894,True,18
X017M20,296,experiment,36,↓,down,↓,0.9071409995667636,True,18
X017M20,297,experiment,84,→,left,←,0.8777932999655604,False,18
X017M20,298,experiment,120,←,left,←,0.6150477998889983,True,18
X017M20,299,experiment,156,←,left,←,0.8719147997908294,True,18
X017M20,300,experiment,180,←,left,←,0.6176085001789033,True,18
X017M20,301,experiment,168,←,left,←,0.6101065999828279,True,18
X017M20,302,experiment,156,↓,down,↓,0.6596832000650465,True,18
X017M20,303,experiment,60,↑,down,↓,0.7038280996493995,False,18
X017M20,304,experiment,12,↓,down,↓,0.5830165003426373,True,18
X017M20,305,experiment,36,↑,up,↑,0.6671909997239709,True,18
X017M20,306,experiment,24,↓,up,↑,0.7405636999756098,False,18
X017M20,307,experiment,180,→,right,→,0.5868778000585735,True,18
X017M20,308,experiment,84,↓,down,↓,0.559249899815768,True,18
X017M20,309,experiment,120,↓,down,↓,0.6556147998198867,True,18
X017M20,310,experiment,12,→,right,→,0.9285877998918295,True,18
X017M20,311,experiment,156,↓,down,↓,0.5016830000095069,True,18
X017M20,312,experiment,168,↑,up,↑,0.7289583999663591,True,18
X017M20,313,experiment,132,→,up,↑,0.8487386000342667,False,18
X017M20,314,experiment,120,→,up,↑,1.0552298999391496,False,18
X017M20,315,experiment,36,↑,right,→,1.1967974998988211,False,18
X017M20,316,experiment,180,→,right,→,0.7769999001175165,True,18
X017M20,317,experiment,60,↓,up,↑,0.9034726000390947,False,18
X017M20,318,experiment,168,→,left,←,0.7863789000548422,False,18
X017M20,319,experiment,72,←,up,↑,0.8559535001404583,False,18
X017M20,320,experiment,108,↓,right,→,0.7059741001576185,False,18
X017M20,321,experiment,168,↑,up,↑,0.6947725000791252,True,18
X017M20,322,experiment,84,↑,up,↑,0.5768642001785338,True,18
X017M20,323,experiment,96,↑,up,↑,0.5602790000848472,True,18
X017M20,324,experiment,144,↑,up,↑,0.4978918000124395,True,18
X017M20,325,experiment,12,↑,up,↑,0.9362557004205883,True,18
X017M20,326,experiment,24,←,left,←,0.7449117000214756,True,18
X017M20,327,experiment,60,→,right,→,0.5909911999478936,True,18
X017M20,328,experiment,48,→,right,→,0.7951646996662021,True,18
X017M20,329,experiment,48,↓,up,↑,1.0579535998404026,False,18
X017M20,330,experiment,108,↑,up,↑,0.766089899931103,True,18
X017M20,331,experiment,108,↑,left,←,1.0948483999818563,False,18
X017M20,332,experiment,84,←,right,→,0.5200876998715103,False,18
X017M20,333,experiment,156,↓,down,↓,0.7262672996148467,True,18
X017M20,334,experiment,96,→,right,→,0.6136264996603131,True,18
X017M20,335,experiment,72,↓,left,←,0.9101212001405656,False,18
X017M20,336,experiment,96,←,left,←,0.7849933002144098,True,18
X017M20,337,experiment,72,↑,right,→,0.7164480001665652,False,18
X017M20,338,experiment,132,↓,up,↑,0.8796728998422623,False,18
X017M20,339,experiment,60,→,right,→,0.6846652003005147,True,18
X017M20,340,experiment,36,←,down,↓,0.8776843999512494,False,18
X017M20,341,experiment,180,↓,down,↓,0.7330346996895969,True,18
X017M20,342,experiment,12,↓,right,→,0.799061399884522,False,18
X017M20,343,experiment,96,↑,up,↑,0.9119098000228405,True,18
X017M20,344,experiment,24,↓,left,←,0.923961800057441,False,18
X017M20,345,experiment,144,→,right,→,0.8075260003097355,True,18
X017M20,346,training,120,↑,up,↑,0.72850720025599,True,18
X017M20,347,training,72,→,down,↓,0.7636664998717606,False,18
X017M20,348,training,144,↑,up,↑,0.8195043997839093,True,18
X017M20,349,experiment,72,↓,up,↑,0.5936505999416113,False,18
X017M20,350,experiment,24,↑,right,→,0.9306128001771867,False,18
X017M20,351,experiment,108,↓,left,←,0.7526462003588676,False,18
X017M20,352,experiment,144,↑,down,↓,0.8643262996338308,False,18
X017M20,353,experiment,84,→,right,→,0.7150973998941481,True,18
X017M20,354,experiment,60,←,left,←,0.7616837997920811,True,18
X017M20,355,experiment,132,→,right,→,0.5955826002173126,True,18
X017M20,356,experiment,12,↑,right,→,1.4975986001081765,False,18
X017M20,357,experiment,180,↓,right,→,0.6342283003032207,False,18
X017M20,358,experiment,108,↓,down,↓,0.9216888998635113,True,18
X017M20,359,experiment,72,←,left,←,0.7437970000319183,True,18
X017M20,360,experiment,48,↓,down,↓,0.7699420000426471,True,18
X017M20,361,experiment,36,↑,up,↑,0.7613385999575257,True,18
X017M20,362,experiment,168,→,right,→,0.6649692002683878,True,18
X017M20,363,experiment,120,→,right,→,0.6686448999680579,True,18
X017M20,364,experiment,120,↑,up,↑,0.7205528998747468,True,18
X017M20,365,experiment,144,↓,up,↑,0.6214907001703978,False,18
X017M20,366,experiment,84,→,right,→,0.6004938003607094,True,18
X017M20,367,experiment,48,↑,left,←,1.1275472999550402,False,18
X017M20,368,experiment,180,←,right,→,0.5747246001847088,False,18
X017M20,369,experiment,36,→,right,→,0.5772592998109758,True,18
X017M20,370,experiment,108,↑,left,←,1.330524600110948,False,18
X017M20,371,experiment,24,↑,right,→,0.617227999959141,False,18
X017M20,372,experiment,156,↓,up,↑,0.7650164002552629,False,18
X017M20,373,experiment,24,→,right,→,0.5949993999674916,True,18
X017M20,374,experiment,96,→,right,→,0.6971803996711969,True,18
X017M20,375,experiment,108,←,left,←,0.7173230000771582,True,18
X017M20,376,experiment,72,←,left,←,0.5893156002275646,True,18
X017M20,377,experiment,168,↑,up,↑,0.6634819000028074,True,18
X017M20,378,experiment,168,↓,down,↓,0.7514500999823213,True,18
X017M20,379,experiment,120,↑,up,↑,0.8079544003121555,True,18
X017M20,380,experiment,168,←,left,←,0.7733760001137853,True,18
X017M20,381,experiment,36,←,right,→,0.5271964003331959,False,18
X017M20,382,experiment,12,←,left,←,0.781589699909091,True,18
X017M20,383,experiment,132,→,right,→,0.6072243000380695,True,18
X017M20,384,experiment,48,→,right,→,0.628343100193888,True,18
X017M20,385,experiment,156,→,right,→,1.2265228000469506,True,18
X017M20,386,experiment,180,↓,down,↓,0.7281206999905407,True,18
X017M20,387,experiment,72,→,right,→,0.727311700116843,True,18
X017M20,388,experiment,120,→,right,→,0.6295243999920785,True,18
X017M20,389,experiment,132,↓,down,↓,0.6587923998013139,True,18
X017M20,390,experiment,96,→,left,←,0.7042366000823677,False,18
X017M20,391,experiment,156,→,right,→,0.6353501002304256,True,18
X017M20,392,experiment,48,→,right,→,0.8701766999438405,True,18
X017M20,393,experiment,60,←,right,→,0.9659608998335898,False,18
X017M20,394,experiment,12,←,left,←,0.695079299621284,True,18
X017M20,395,experiment,144,←,right,→,0.6914590997621417,False,18
X017M20,396,experiment,132,→,right,→,0.7467774995602667,True,18
X017M20,397,experiment,60,←,left,←,0.6449967999942601,True,18
X017M20,398,experiment,24,↓,left,←,0.8072722000069916,False,18
X017M20,399,experiment,84,→,right,→,0.6324077001772821,True,18
X017M20,400,experiment,60,←,right,→,0.6539226998575032,False,18
X017M20,401,experiment,156,↓,up,↑,0.7510261000134051,False,18
X017M20,402,experiment,96,→,right,→,0.5862334002740681,True,18
X017M20,403,experiment,12,↑,left,←,0.9583951001986861,False,18
X017M20,404,experiment,36,→,right,→,0.6210912000387907,True,18
X017M20,405,experiment,180,→,right,→,0.558489799965173,True,18
X017M20,406,experiment,84,→,left,←,0.9505699998699129,False,18
X017M20,407,experiment,144,←,right,→,0.6566034001298249,False,18
X017M20,408,experiment,96,←,left,←,0.7400678996928036,True,18
X017M20,409,training,84,↑,right,→,0.6906563001684844,False,18
X017M20,410,training,96,↑,up,↑,0.6006650002673268,True,18
X017M20,411,training,132,↑,left,←,0.828377400059253,False,18
X017M20,412,experiment,168,↑,up,↑,0.5432649999856949,True,18
X017M20,413,experiment,144,←,right,→,0.7161572999320924,False,18
X017M20,414,experiment,156,→,right,→,0.6548933000303805,True,18
X017M20,415,experiment,156,←,right,→,0.5265551996417344,False,18
X017M20,416,experiment,132,↓,down,↓,0.7611790997907519,True,18
X017M20,417,experiment,72,→,right,→,0.8169910996221006,True,18
X017M20,418,experiment,36,↓,up,↑,1.008258500136435,False,18
X017M20,419,experiment,48,↓,left,←,1.0331304999999702,False,18
X017M20,420,experiment,144,←,left,←,1.0086203999817371,True,18
X017M20,421,experiment,48,→,right,→,0.7450385000556707,True,18
X017M20,422,experiment,84,↓,down,↓,0.7462153001688421,True,18
X017M20,423,experiment,72,↓,down,↓,0.6939523001201451,True,18
X017M20,424,experiment,132,↓,right,→,0.9050351004116237,False,18
X017M20,425,experiment,36,↑,down,↓,0.9568986999802291,False,18
X017M20,426,experiment,36,←,left,←,0.7513137999922037,True,18
X017M20,427,experiment,48,→,left,←,1.1044137999415398,False,18
X017M20,428,experiment,48,↓,up,↑,0.8377373004332185,False,18
X017M20,429,experiment,144,↑,down,↓,0.6914098002016544,False,18
X017M20,430,experiment,132,←,down,↓,0.6484008999541402,False,18
X017M20,431,experiment,96,→,down,↓,0.8622912997379899,False,18
X017M20,432,experiment,108,↓,down,↓,0.6372782001271844,True,18
X017M20,433,experiment,180,←,right,→,0.6285816999152303,False,18
X017M20,434,experiment,108,←,right,→,0.7389600002206862,False,18
X017M20,435,experiment,120,↑,right,→,0.6545893000438809,False,18
X017M20,436,experiment,84,→,left,←,0.7532858001068234,False,18
X017M20,437,experiment,96,↑,down,↓,0.6826154002919793,False,18
X017M20,438,experiment,60,←,right,→,0.8694091998040676,False,18
X017M20,439,experiment,24,←,right,→,0.8252292000688612,False,18
X017M20,440,experiment,24,←,right,→,0.8379530999809504,False,18
X017M20,441,experiment,96,←,left,←,0.7890213001519442,True,18
X017M20,442,experiment,72,↑,down,↓,0.6092179999686778,False,18
X017M20,443,experiment,120,↑,down,↓,0.6218754001893103,False,18
X017M20,444,experiment,84,↓,up,↑,0.6544356001541018,False,18
X017M20,445,experiment,12,←,left,←,0.7478009997867048,True,18
X017M20,446,experiment,168,←,left,←,1.027157099917531,True,18
X017M20,447,experiment,156,→,right,→,0.6327418000437319,True,18
X017M20,448,experiment,12,↑,left,←,0.7455895999446511,False,18
X017M20,449,experiment,156,←,right,→,0.7252636002376676,False,18
X017M20,450,experiment,24,←,left,←,0.5889614000916481,True,18
X017M20,451,experiment,12,←,left,←,0.6877121003344655,True,18
X017M20,452,experiment,108,→,right,→,0.5991263999603689,True,18
X017M20,453,experiment,60,→,left,←,0.6515836999751627,False,18
X017M20,454,experiment,96,←,right,→,0.6145119997672737,False,18
X017M20,455,experiment,12,→,right,→,0.6703745000995696,True,18
X017M20,456,experiment,180,↓,right,→,0.5681171999312937,False,18
X017M20,457,experiment,60,←,left,←,0.6017926000058651,True,18
X017M20,458,experiment,180,←,left,←,0.5772359999828041,True,18
X017M20,459,experiment,84,→,left,←,0.7329802000895143,False,18
X017M20,460,experiment,180,↑,right,→,0.8562064999714494,False,18
X017M20,461,experiment,144,→,left,←,0.6268231999129057,False,18
X017M20,462,experiment,72,→,right,→,0.5892570000141859,True,18
X017M20,463,experiment,168,→,left,←,0.6761964000761509,False,18
X017M20,464,experiment,168,↓,left,←,0.6269128997810185,False,18
X017M20,465,experiment,108,→,right,→,0.5546725001186132,True,18
X017M20,466,experiment,132,↓,right,→,0.7270023999735713,False,18
X017M20,467,experiment,36,↓,left,←,0.6003537001088262,False,18
X017M20,468,experiment,24,↑,left,←,1.1027349000796676,False,18
X017M20,469,experiment,120,←,left,←,0.6742394003085792,True,18
X017M20,470,experiment,60,↓,right,→,0.67088139988482,False,18
X017M20,471,experiment,120,↓,right,→,0.6483310000039637,False,18
X017M20,472,training,108,←,right,→,0.7128959000110626,False,18
X017M20,473,training,12,↑,up,↑,0.6716362000443041,True,18
X017M20,474,training,108,↓,right,→,0.7534902999177575,False,18
X017M20,475,experiment,144,←,up,↑,0.749749300070107,False,18
X017M20,476,experiment,36,↓,left,←,0.8523517004214227,False,18
X017M20,477,experiment,120,↑,left,←,1.2510299002751708,False,18
X017M20,478,experiment,168,←,right,→,0.6019164002500474,False,18
X017M20,479,experiment,168,↓,up,↑,0.6750153000466526,False,18
X017M20,480,experiment,180,→,right,→,0.6140276999212801,True,18
X017M20,481,experiment,108,←,left,←,0.6601811996661127,True,18
X017M20,482,experiment,132,↑,up,↑,1.0995171996764839,True,18
X017M20,483,experiment,24,↓,down,↓,0.9529611999168992,True,18
X017M20,484,experiment,96,←,left,←,0.675551500171423,True,18
X017M20,485,experiment,168,↓,right,→,0.5722405002452433,False,18
X017M20,486,experiment,120,←,left,←,0.7110317996703088,True,18
X017M20,487,experiment,72,↑,left,←,0.7653842000290751,False,18
X017M20,488,experiment,36,←,left,←,0.5840210998430848,True,18
X017M20,489,experiment,156,←,left,←,0.6160462000407279,True,18
X017M20,490,experiment,36,↓,left,←,0.6304401000961661,False,18
X017M20,491,experiment,72,↓,right,→,0.707766399718821,False,18
X017M20,492,experiment,24,↑,left,←,0.9837802997790277,False,18
X017M20,493,experiment,120,↑,up,↑,0.6125868000090122,True,18
X017M20,494,experiment,132,↓,down,↓,0.6442710999399424,True,18
X017M20,495,experiment,156,↓,down,↓,1.044538900256157,True,18
X017M20,496,experiment,132,↑,left,←,0.9750370001420379,False,18
X017M20,497,experiment,144,↑,right,→,1.2186123998835683,False,18
X017M20,498,experiment,12,↑,right,→,1.450235199648887,False,18
X017M20,499,experiment,84,←,left,←,0.8235752996988595,True,18
X017M20,500,experiment,156,↓,right,→,0.6765844998881221,False,18
X017M20,501,experiment,180,←,right,→,0.587529200129211,False,18
X017M20,502,experiment,60,→,right,→,0.931897799950093,True,18
X017M20,503,experiment,84,↓,left,←,0.7162147001363337,False,18
X017M20,504,experiment,96,↓,left,←,0.6673507001250982,False,18
X017M20,505,experiment,60,→,right,→,0.6645504999905825,True,18
X017M20,506,experiment,108,→,right,→,0.7356232996098697,True,18
X017M20,507,experiment,168,←,right,→,0.5966137000359595,False,18
X017M20,508,experiment,48,↓,left,←,1.0545804002322257,False,18
X017M20,509,experiment,84,←,left,←,0.9321849001571536,True,18
X017M20,510,experiment,24,↑,left,←,1.3107453999109566,False,18
X017M20,511,experiment,60,↓,down,↓,0.548590200021863,True,18
X017M20,512,experiment,156,→,up,↑,0.901952600106597,False,18
X017M20,513,experiment,12,↑,right,→,0.7979798996821046,False,18
X017M20,514,experiment,108,←,right,→,0.7597352000884712,False,18
X017M20,515,experiment,48,→,left,←,0.6718427003361285,False,18
X017M20,516,experiment,96,→,down,↓,0.8360460000112653,False,18
X017M20,517,experiment,48,↑,down,↓,0.599859899841249,False,18
X017M20,518,experiment,72,→,right,→,0.549594699870795,True,18
X017M20,519,experiment,180,↓,down,↓,0.7159540997818112,True,18
X017M20,520,experiment,12,←,left,←,1.2550592999905348,True,18
X017M20,521,experiment,120,←,right,→,0.6572467996738851,False,18
X017M20,522,experiment,36,↑,left,←,0.668568900320679,False,18
X017M20,523,experiment,144,→,right,→,0.6544810999184847,True,18
X017M20,524,experiment,72,←,left,←,0.6559721999801695,True,18
X017M20,525,experiment,48,→,right,→,0.6002808003686368,True,18
X017M20,526,experiment,60,↑,right,→,0.8786264997906983,False,18
X017M20,527,experiment,24,↓,left,←,0.712777900043875,False,18
X017M20,528,experiment,108,↓,down,↓,0.7500125002115965,True,18
X017M20,529,experiment,132,↑,down,↓,0.7435787003487349,False,18
X017M20,530,experiment,96,→,down,↓,0.6455333000048995,False,18
X017M20,531,experiment,12,←,down,↓,1.0798366996459663,False,18
X017M20,532,experiment,84,←,right,→,0.6140719000250101,False,18
X017M20,533,experiment,144,→,left,←,0.589956299867481,False,18
X017M20,534,experiment,180,←,right,→,0.6259016999974847,False,18
X017M20,535,training,36,↑,right,→,0.7635531998239458,False,18
X017M20,536,training,120,↑,up,↑,0.5811724001541734,True,18
X017M20,537,training,132,↓,up,↑,1.3237294000573456,False,18
X017M20,538,experiment,120,↓,up,↑,1.1050264998339117,False,18
X017M20,539,experiment,132,↓,right,→,1.2168229999952018,False,18
X017M20,540,experiment,48,↓,down,↓,1.1163619998842478,True,18
X017M20,541,experiment,72,↓,up,↑,0.6985067999921739,False,18
X017M20,542,experiment,108,↑,right,→,0.789735599886626,False,18
X017M20,543,experiment,96,↑,up,↑,0.8946266998536885,True,18
X017M20,544,experiment,48,↓,up,↑,0.7975043999031186,False,18
X017M20,545,experiment,180,→,left,←,0.9391288002952933,False,18
X017M20,546,experiment,60,↓,up,↑,0.7674913997761905,False,18
X017M20,547,experiment,144,↓,down,↓,0.9671585001051426,True,18
X017M20,548,experiment,24,↓,up,↑,0.7500807996839285,False,18
X017M20,549,experiment,132,←,left,←,1.070280299987644,True,18
X017M20,550,experiment,144,↑,up,↑,0.5920931999571621,True,18
X017M20,551,experiment,168,↑,up,↑,0.6610554000362754,True,18
X017M20,552,experiment,36,→,up,↑,1.0917187999002635,False,18
X017M20,553,experiment,156,←,right,→,0.7288639000616968,False,18
X017M20,554,experiment,72,↓,up,↑,1.009127900004387,False,18
X017M20,555,experiment,180,←,left,←,0.9709216998890042,True,18
X017M20,556,experiment,132,→,right,→,0.7805075999349356,True,18
X017M20,557,experiment,168,→,left,←,0.7409319002181292,False,18
X017M20,558,experiment,36,→,down,↓,1.3540325001813471,False,18
X017M20,559,experiment,120,→,left,←,0.7584075001068413,False,18
X017M20,560,experiment,12,→,up,↑,1.1122246999293566,False,18
X017M20,561,experiment,108,←,down,↓,1.0630024997517467,False,18
X017M20,562,experiment,180,↑,down,↓,0.9145924998447299,False,18
X017M20,563,experiment,156,↑,right,→,0.84693400003016,False,18
X017M20,564,experiment,60,↓,down,↓,1.0593558000400662,True,18
X017M20,565,experiment,60,↓,left,←,0.9189161001704633,False,18
X017M20,566,experiment,84,→,left,←,0.7710361001081765,False,18
X017M20,567,experiment,168,↑,up,↑,0.6263334001414478,True,18
X017M20,568,experiment,24,↓,up,↑,0.7937286999076605,False,18
X017M20,569,experiment,108,↑,up,↑,0.6874111997894943,True,18
X017M20,570,experiment,12,→,right,→,0.7091049998998642,True,18
X017M20,571,experiment,120,←,left,←,0.7080486998893321,True,18
X017M20,572,experiment,48,←,right,→,0.7164668999612331,False,18
X017M20,573,experiment,156,→,right,→,0.990338500123471,True,18
X017M20,574,experiment,72,↑,up,↑,0.7440662002190948,True,18
X017M20,575,experiment,24,↓,up,↑,1.096756899729371,False,18
X017M20,576,experiment,120,↓,right,→,1.0215723998844624,False,18
X017M20,577,experiment,108,↓,down,↓,0.68177630007267,True,18
X017M20,578,experiment,96,←,down,↓,0.8494816003367305,False,18
X017M20,579,experiment,144,↓,right,→,0.6477465000934899,False,18
X017M20,580,experiment,36,↑,right,→,0.7929426999762654,False,18
X017M20,581,experiment,84,→,right,→,0.5386171001009643,True,18
X017M20,582,experiment,12,→,left,←,0.6464883000589907,False,18
X017M20,583,experiment,96,←,left,←,0.5650356998667121,True,18
X017M20,584,experiment,132,→,left,←,0.669445900246501,False,18
X017M20,585,experiment,84,←,right,→,0.6085125999525189,False,18
X017M20,586,experiment,96,→,right,→,0.6219379999674857,True,18
X017M20,587,experiment,24,↑,right,→,0.7030023001134396,False,18
X017M20,588,experiment,72,↑,down,↓,1.029230899643153,False,18
X017M20,589,experiment,60,←,right,→,0.6958782998844981,False,18
X017M20,590,experiment,156,←,left,←,0.7997415000572801,True,18
X017M20,591,experiment,144,↓,up,↑,0.659213200211525,False,18
X017M20,592,experiment,36,↓,down,↓,0.6798475999385118,True,18
X017M20,593,experiment,84,↑,right,→,0.6260517998598516,False,18
X017M20,594,experiment,168,↓,down,↓,0.7239974001422524,True,18
X017M20,595,experiment,48,→,left,←,0.6051977998577058,False,18
X017M20,596,experiment,180,←,left,←,0.6002496997825801,True,18
X017M20,597,experiment,12,↑,right,→,0.8559145000763237,False,18
X017M20,598,training,60,↑,left,←,0.8808638998307288,False,18
X017M20,599,training,180,↓,left,←,0.6709091998636723,False,18
X017M20,600,training,96,↑,down,↓,0.9206250999122858,False,18
X017M20,601,experiment,60,↑,up,↑,0.7468884000554681,True,18
X017M20,602,experiment,12,→,right,→,0.6412825998850167,True,18
X017M20,603,experiment,120,→,left,←,0.5528730996884406,False,18
X017M20,604,experiment,132,↓,down,↓,0.692752200178802,True,18
X017M20,605,experiment,96,→,right,→,0.6110620000399649,True,18
X017M20,606,experiment,72,←,left,←,0.652138200122863,True,18
X017M20,607,experiment,180,←,left,←,0.6602804996073246,True,18
X017M20,608,experiment,156,→,right,→,0.6689142999239266,True,18
X017M20,609,experiment,180,↓,down,↓,0.7285563996993005,True,18
X017M20,610,experiment,144,→,left,←,0.7039952999912202,False,18
X017M20,611,experiment,144,→,right,→,0.6192839001305401,True,18
X017M20,612,experiment,72,→,right,→,0.734122899826616,True,18
X017M20,613,experiment,120,→,right,→,0.6185487001203,True,18
X017M20,614,experiment,72,→,left,←,0.6669979002326727,False,18
X017M20,615,experiment,156,→,right,→,0.6640552002936602,True,18
X017M20,616,experiment,120,↓,down,↓,0.7160861999727786,True,18
X017M20,617,experiment,24,↓,down,↓,0.893070699647069,True,18
X017M20,618,experiment,84,↓,down,↓,0.7084698998369277,True,18
X017M20,619,experiment,132,←,left,←,0.7178981001488864,True,18
X017M20,620,experiment,60,↓,right,→,0.7468782998621464,False,18
X017M20,621,experiment,132,→,right,→,0.7274618996307254,True,18
X017M20,622,experiment,168,↑,left,←,1.099649399984628,False,18
X017M20,623,experiment,48,←,right,→,0.6580981998704374,False,18
X017M20,624,experiment,12,→,right,→,0.7236143997870386,True,18
X017M20,625,experiment,48,↓,left,←,0.6869584997184575,False,18
X017M20,626,experiment,156,↑,up,↑,0.5844043996185064,True,18
X017M20,627,experiment,132,←,left,←,0.6561282002367079,True,18
X017M20,628,experiment,84,↓,down,↓,0.7269940003752708,True,18
X017M20,629,experiment,120,→,right,→,0.6233609998598695,True,18
X017M20,630,experiment,108,←,left,←,0.5992919998243451,True,18
X017M20,631,experiment,156,↑,down,↓,0.8072420000098646,False,18
X017M20,632,experiment,168,↑,up,↑,0.6179943000897765,True,18
X017M20,633,experiment,144,←,left,←,0.561431999783963,True,18
X017M20,634,experiment,84,↓,left,←,0.8365990999154747,False,18
X017M20,635,experiment,12,→,left,←,0.7570108999498188,False,18
X017M20,636,experiment,108,←,left,←,0.522040399722755,True,18
X017M20,637,experiment,36,↑,up,↑,0.7637895001098514,True,18
X017M20,638,experiment,12,↑,up,↑,0.6732469997368753,True,18
X017M20,639,experiment,84,←,left,←,0.5828238003887236,True,18
X017M20,640,experiment,168,→,right,→,0.906005600001663,True,18
X017M20,641,experiment,96,→,left,←,0.6301961997523904,False,18
X017M20,642,experiment,96,→,left,←,0.6083349999971688,False,18
X017M20,643,experiment,144,↓,up,↑,0.6448959000408649,False,18
X017M20,644,experiment,180,↓,left,←,0.8641126002185047,False,18
X017M20,645,experiment,36,↑,right,→,0.7704553003422916,False,18
X017M20,646,experiment,108,↓,up,↑,0.6867706999182701,False,18
X017M20,647,experiment,72,←,left,←,0.6218726001679897,True,18
X017M20,648,experiment,24,←,left,←,0.6330336998216808,True,18
X017M20,649,experiment,24,↑,left,←,0.6133722998201847,False,18
X017M20,650,experiment,168,↑,up,↑,0.635077899787575,True,18
X017M20,651,experiment,36,→,up,↑,0.8418244998902082,False,18
X017M20,652,experiment,36,←,right,→,1.2313854000531137,False,18
X017M20,653,experiment,180,←,up,↑,0.8421381004154682,False,18
X017M20,654,experiment,96,↑,left,←,0.7192307999357581,False,18
X017M20,655,experiment,48,←,left,←,0.7221544003114104,True,18
X017M20,656,experiment,48,↑,left,←,0.9661085000261664,False,18
X017M20,657,experiment,60,↓,up,↑,0.6647338001057506,False,18
X017M20,658,experiment,24,→,down,↓,0.9984431997872889,False,18
X017M20,659,experiment,108,↓,left,←,0.6209469996392727,False,18
X017M20,660,experiment,60,↑,up,↑,0.5743423998355865,True,18
X017M20,661,training,180,→,right,→,0.6494165002368391,True,18
X017M20,662,training,60,→,right,→,0.5496499999426305,True,18
X017M20,663,training,156,↓,right,→,0.4005598998628557,False,18
X017M20,664,experiment,24,↑,left,←,0.7861647997051477,False,18
X017M20,665,experiment,84,←,left,←,0.5857053003273904,True,18
X017M20,666,experiment,156,←,right,→,0.4789936002343893,False,18
X017M20,667,experiment,156,↑,up,↑,0.5773024000227451,True,18
X017M20,668,experiment,144,↑,right,→,0.5443126000463963,False,18
X017M20,669,experiment,156,→,up,↑,0.725027299951762,False,18
X017M20,670,experiment,36,←,right,→,0.6352548999711871,False,18
X017M20,671,experiment,168,↑,up,↑,1.1069979998283088,True,18
X017M20,672,experiment,84,→,up,↑,0.9995709001086652,False,18
X017M20,673,experiment,84,←,left,←,0.6513705002143979,True,18
X017M20,674,experiment,120,←,no_key,no_letter,-1.0,False,18
X017M20,675,experiment,12,→,down,↓,1.6072471998631954,False,18
X017M20,676,experiment,48,→,left,←,1.1921337000094354,False,18
X017M20,677,experiment,72,←,right,→,0.726685700006783,False,18
X017M20,678,experiment,144,↑,right,→,0.6733832000754774,False,18
X017M20,679,experiment,72,→,left,←,0.9067091001197696,False,18
X017M20,680,experiment,132,↑,left,←,0.6599194002337754,False,18
X017M20,681,experiment,12,→,up,↑,0.9292583996430039,False,18
X017M20,682,experiment,72,←,left,←,0.841452999971807,True,18
X017M20,683,experiment,120,←,left,←,0.5957450000569224,True,18
X017M20,684,experiment,36,↓,up,↑,1.1016710996627808,False,18
X017M20,685,experiment,156,↑,up,↑,0.6092599001713097,True,18
X017M20,686,experiment,180,↑,up,↑,0.6573590002954006,True,18
X017M20,687,experiment,72,→,right,→,0.6270179999992251,True,18
X017M20,688,experiment,48,↑,left,←,0.7627536999061704,False,18
X017M20,689,experiment,48,←,right,→,0.5611908002756536,False,18
X017M20,690,experiment,48,←,left,←,0.7541871997527778,True,18
X017M20,691,experiment,180,↑,up,↑,0.5783985001035035,True,18
X017M20,692,experiment,24,↑,left,←,1.0926195997744799,False,18
X017M20,693,experiment,132,↑,up,↑,0.6548402002081275,True,18
X017M20,694,experiment,60,↑,up,↑,0.6323037999682128,True,18
X017M20,695,experiment,168,→,right,→,0.6915930998511612,True,18
X017M20,696,experiment,84,→,right,→,0.5263783000409603,True,18
X017M20,697,experiment,96,↓,down,↓,0.6571169998496771,True,18
X017M20,698,experiment,96,←,right,→,0.7065542000345886,False,18
X017M20,699,experiment,180,←,left,←,0.5903402999974787,True,18
X017M20,700,experiment,132,↑,right,→,0.7238471996970475,False,18
X017M20,701,experiment,96,↓,down,↓,0.7078963001258671,True,18
X017M20,702,experiment,144,←,left,←,0.6998686003498733,True,18
X017M20,703,experiment,180,↑,up,↑,0.61863710032776,True,18
X017M20,704,experiment,12,↑,up,↑,0.4842965002171695,True,18
X017M20,705,experiment,120,↓,down,↓,0.6850367998704314,True,18
X017M20,706,experiment,36,↓,down,↓,1.0183727997355163,True,18
X017M20,707,experiment,108,←,left,←,0.6730235000140965,True,18
X017M20,708,experiment,60,←,left,←,0.5982132996432483,True,18
X017M20,709,experiment,132,↓,down,↓,0.5471449997276068,True,18
X017M20,710,experiment,12,↓,down,↓,0.523235599976033,True,18
X017M20,711,experiment,108,←,up,↑,0.8166473000310361,False,18
X017M20,712,experiment,108,→,right,→,1.3122326000593603,True,18
X017M20,713,experiment,168,←,down,↓,0.7944338000379503,False,18
X017M20,714,experiment,24,←,left,←,0.7061075996607542,True,18
X017M20,715,experiment,96,↑,up,↑,0.6743163000792265,True,18
X017M20,716,experiment,108,→,right,→,0.5728756999596953,True,18
X017M20,717,experiment,36,←,up,↑,0.8488334999419749,False,18
X017M20,718,experiment,24,↑,down,↓,0.7965417001396418,False,18
X017M20,719,experiment,120,↓,down,↓,0.5880466997623444,True,18
X017M20,720,experiment,60,↓,down,↓,0.519958300050348,True,18
X017M20,721,experiment,144,←,left,←,0.5895805000327528,True,18
X017M20,722,experiment,60,←,left,←,0.7339355000294745,True,18
X017M20,723,experiment,168,↓,down,↓,0.5068548996932805,True,18
X017M20,724,training,180,→,left,←,0.7965158000588417,False,18
X017M20,725,training,120,↓,down,↓,0.6579877999611199,True,18
X017M20,726,training,180,↑,up,↑,0.6875903001055121,True,18
X017M20,727,experiment,12,↑,up,↑,0.6766808000393212,True,18
X017M20,728,experiment,36,←,right,→,0.6796082002110779,False,18
X017M20,729,experiment,60,↑,up,↑,0.6086869998835027,True,18
X017M20,730,experiment,60,←,left,←,0.7015553000383079,True,18
X017M20,731,experiment,96,↓,down,↓,0.6977445995435119,True,18
X017M20,732,experiment,156,←,left,←,0.6847616001032293,True,18
X017M20,733,experiment,36,↑,up,↑,0.6732574002817273,True,18
X017M20,734,experiment,132,↓,down,↓,0.6993437996134162,True,18
X017M20,735,experiment,84,↑,up,↑,0.8393651996739209,True,18
X017M20,736,experiment,144,→,left,←,0.6219530999660492,False,18
X017M20,737,experiment,144,↑,left,←,0.7045117001980543,False,18
X017M20,738,experiment,108,↑,up,↑,0.6048623998649418,True,18
X017M20,739,experiment,168,↓,down,↓,0.6312289000488818,True,18
X017M20,740,experiment,120,→,right,→,0.6224980996921659,True,18
X017M20,741,experiment,132,→,right,→,0.556033999659121,True,18
X017M20,742,experiment,144,←,left,←,0.6952315997332335,True,18
X017M20,743,experiment,108,←,right,→,0.6634174003265798,False,18
X017M20,744,experiment,84,↑,up,↑,0.6936965002678335,True,18
X017M20,745,experiment,12,→,left,←,0.9389122999273241,False,18
X017M20,746,experiment,24,↑,up,↑,0.6186466002836823,True,18
X017M20,747,experiment,108,↓,down,↓,0.8502492997795343,True,18
X017M20,748,experiment,48,↑,up,↑,0.738651099614799,True,18
X017M20,749,experiment,168,↓,down,↓,0.7434374000877142,True,18
X017M20,750,experiment,132,↓,down,↓,0.6129633998498321,True,18
X017M20,751,experiment,180,←,left,←,0.5848449999466538,True,18
X017M20,752,experiment,168,↑,right,→,0.6662908000871539,False,18
X017M20,753,experiment,96,←,right,→,0.6603232999332249,False,18
X017M20,754,experiment,156,→,left,←,0.4796390002593398,False,18
X017M20,755,experiment,84,↑,up,↑,0.6897365003824234,True,18
X017M20,756,experiment,144,←,left,←,1.0074742003344,True,18
X017M20,757,experiment,36,↓,down,↓,0.7804693998768926,True,18
X017M20,758,experiment,48,←,right,→,0.7227713000029325,False,18
X017M20,759,experiment,72,↑,up,↑,0.6200900003314018,True,18
X017M20,760,experiment,180,↓,down,↓,0.6327538001351058,True,18
X017M20,761,experiment,120,→,right,→,0.8064268999733031,True,18
X017M20,762,experiment,60,↑,up,↑,0.6220959001220763,True,18
X017M20,763,experiment,72,→,left,←,0.7696165000088513,False,18
X017M20,764,experiment,180,↓,down,↓,0.6231772000901401,True,18
X017M20,765,experiment,60,→,left,←,0.7033949000760913,False,18
X017M20,766,experiment,12,→,right,→,0.6306571001186967,True,18
X017M20,767,experiment,48,→,left,←,0.698072100058198,False,18
X017M20,768,experiment,84,↑,up,↑,0.5477256998419762,True,18
X017M20,769,experiment,168,←,left,←,0.6662001996301115,True,18
X017M20,770,experiment,48,←,right,→,0.5883150999434292,False,18
X017M20,771,experiment,36,↑,right,→,1.0133066000416875,False,18
X017M20,772,experiment,132,→,left,←,0.8082524002529681,False,18
X017M20,773,experiment,72,↑,up,↑,0.7603310002014041,True,18
X017M20,774,experiment,108,→,right,→,0.7094490001909435,True,18
X017M20,775,experiment,120,→,right,→,0.8747251001186669,True,18
X017M20,776,experiment,24,→,right,→,1.1603787001222372,True,18
X017M20,777,experiment,96,↑,up,↑,0.7877449002116919,True,18
X017M20,778,experiment,72,←,left,←,0.9391853003762662,True,18
X017M20,779,experiment,24,↑,up,↑,0.7688241000287235,True,18
X017M20,780,experiment,12,→,left,←,1.0057056001387537,False,18
X017M20,781,experiment,156,↓,down,↓,0.7337015001103282,True,18
X017M20,782,experiment,156,→,right,→,0.6368811000138521,True,18
X017M20,783,experiment,96,↑,left,←,1.003082700073719,False,18
X017M20,784,experiment,120,→,right,→,0.7245245999656618,True,18
X017M20,785,experiment,24,↑,up,↑,0.6673612999729812,True,18
X017M20,786,experiment,180,↑,up,↑,0.6409054002724588,True,18
X017M20,787,training,144,↑,up,↑,0.8562143002636731,True,18
X017M20,788,training,120,↓,up,↑,0.7097742999903858,False,18
X017M20,789,training,132,→,right,→,0.4906162000261247,True,18
X017M20,790,experiment,168,←,up,↑,0.9357848996296525,False,18
X017M20,791,experiment,108,→,right,→,0.5966807999648154,True,18
X017M20,792,experiment,156,↓,down,↓,0.9013582998886704,True,18
X017M20,793,experiment,120,←,right,→,0.5667158998548985,False,18
X017M20,794,experiment,108,↓,left,←,0.8569364999420941,False,18
X017M20,795,experiment,12,→,right,→,0.9239826998673379,True,18
X017M20,796,experiment,36,→,right,→,0.6785736000165343,True,18
X017M20,797,experiment,84,←,left,←,0.838397600222379,True,18
X017M20,798,experiment,60,←,right,→,0.8067858996801078,False,18
X017M20,799,experiment,48,↑,down,↓,1.0261568003334105,False,18
X017M20,800,experiment,96,→,right,→,0.47686499962583184,True,18
X017M20,801,experiment,180,←,left,←,0.5702624996192753,True,18
X017M20,802,experiment,96,←,right,→,0.6834158999845386,False,18
X017M20,803,experiment,96,←,left,←,0.6640018001198769,True,18
X017M20,804,experiment,48,↓,right,→,0.8763197003863752,False,18
X017M20,805,experiment,36,←,left,←,0.856011999770999,True,18
X017M20,806,experiment,96,↑,right,→,0.7026476003229618,False,18
X017M20,807,experiment,144,→,left,←,0.6780555997975171,False,18
X017M20,808,experiment,24,←,left,←,0.7479837001301348,True,18
X017M20,809,experiment,36,←,left,←,0.630518099758774,True,18
X017M20,810,experiment,84,↑,up,↑,0.6409351001493633,True,18
X017M20,811,experiment,12,↑,up,↑,0.5336937000975013,True,18
X017M20,812,experiment,168,←,left,←,0.6267963000573218,True,18
X017M20,813,experiment,180,→,right,→,0.5911280000582337,True,18
X017M20,814,experiment,24,→,right,→,0.6200112998485565,True,18
X017M20,815,experiment,144,↓,down,↓,0.6308728996664286,True,18
X017M20,816,experiment,120,↑,up,↑,0.6818035002797842,True,18
X017M20,817,experiment,144,↓,down,↓,0.7034652000293136,True,18
X017M20,818,experiment,132,↑,up,↑,0.6114799999631941,True,18
X017M20,819,experiment,132,↑,right,→,0.7352354000322521,False,18
X017M20,820,experiment,108,↓,down,↓,0.6467372998595238,True,18
X017M20,821,experiment,60,←,left,←,0.8167412998154759,True,18
X017M20,822,experiment,120,←,left,←,0.6431386000476778,True,18
X017M20,823,experiment,72,←,left,←,0.7075600000098348,True,18
X017M20,824,experiment,60,←,left,←,0.5265163001604378,True,18
X017M20,825,experiment,72,↓,down,↓,1.844458700157702,True,18
X017M20,826,experiment,24,→,right,→,0.6946938997134566,True,18
X017M20,827,experiment,84,↓,down,↓,0.6091661001555622,True,18
X017M20,828,experiment,24,↑,up,↑,0.7433841000311077,True,18
X017M20,829,experiment,168,→,right,→,0.5944397998973727,True,18
X017M20,830,experiment,12,↓,down,↓,0.6997977001592517,True,18
X017M20,831,experiment,12,↓,up,↑,1.0006911996752024,False,18
X017M20,832,experiment,156,↓,down,↓,0.646240500267595,True,18
X017M20,833,experiment,168,↑,up,↑,0.9379696003161371,True,18
X017M20,834,experiment,132,→,up,↑,0.7931804996915162,False,18
X017M20,835,experiment,156,←,up,↑,0.7635202999226749,False,18
X017M20,836,experiment,72,←,left,←,0.742907399777323,True,18
X017M20,837,experiment,156,→,up,↑,0.592036799993366,False,18
X017M20,838,experiment,48,←,down,↓,0.9802472000010312,False,18
X017M20,839,experiment,36,↑,up,↑,0.5923251998610795,True,18
X017M20,840,experiment,180,↑,up,↑,0.6365778003819287,True,18
X017M20,841,experiment,144,→,right,→,0.6220049001276493,True,18
X017M20,842,experiment,120,↑,up,↑,0.5820174999535084,True,18
X017M20,843,experiment,84,→,right,→,0.7359763998538256,True,18
X017M20,844,experiment,132,↓,up,↑,0.7955746999941766,False,18
X017M20,845,experiment,48,↑,up,↑,0.6620907001197338,True,18
X017M20,846,experiment,72,→,left,←,0.774197299964726,False,18
X017M20,847,experiment,108,↓,up,↑,1.1470415000803769,False,18
X017M20,848,experiment,180,→,right,→,0.8091496000997722,True,18
X017M20,849,experiment,60,←,left,←,0.8521984000690281,True,18
