PART_ID,Trial_no,Trial_type,PDI,Stim_letter,Key_pressed,letter_choose,Rt,Corr,Stimulus Time
X021K20,1,training,10,↓,no_key,no_letter,-1.0,False,30
X021K20,2,training,10,↓,down,↓,1.4101865999982692,True,30
X021K20,3,training,10,↓,down,↓,0.7244944999984,True,30
X021K20,4,training,10,→,right,→,0.7914347999903839,True,30
X021K20,5,training,10,↓,no_key,no_letter,-1.0,False,30
X021K20,6,training,10,←,down,↓,0.7771995000075549,False,30
X021K20,7,training,10,←,left,←,0.6916427999967709,True,30
X021K20,8,training,10,↓,down,↓,0.5669053999881726,True,30
X021K20,9,training,10,←,left,←,0.7658508000022266,True,30
X021K20,10,training,10,→,right,→,1.161816700012423,True,30
X021K20,11,training,10,↓,down,↓,1.1430081000144128,True,30
X021K20,12,training,10,→,right,→,0.6338518999982625,True,30
X021K20,13,training,10,↓,down,↓,0.7894245000206865,True,30
X021K20,14,training,10,↑,up,↑,0.9363334999943618,True,30
X021K20,15,training,10,↑,up,↑,0.8757983999967109,True,30
X021K20,16,training,10,↑,up,↑,0.9644995999988168,True,30
X021K20,17,training,10,←,left,←,1.558263300015824,True,30
X021K20,18,training,10,→,no_key,no_letter,-1.0,False,30
X021K20,19,training,10,←,left,←,1.1071602999872994,True,30
X021K20,20,training,10,↓,down,↓,0.7038992999878246,True,30
X021K20,21,training,10,→,right,→,0.5617351999972016,True,18
X021K20,22,training,10,↓,down,↓,0.6931144999980461,True,18
X021K20,23,training,10,↑,up,↑,0.6021363000036217,True,18
X021K20,24,training,10,→,right,→,0.7501339999726042,True,18
X021K20,25,training,10,←,left,←,1.0843392999959178,True,18
X021K20,26,training,10,↑,up,↑,0.6844738000072539,True,18
X021K20,27,training,10,←,left,←,1.1415879999985918,True,18
X021K20,28,training,10,←,left,←,0.623562499997206,True,18
X021K20,29,training,10,↑,up,↑,1.4585387999832164,True,18
X021K20,30,training,10,↓,down,↓,0.7849495999980718,True,18
X021K20,31,training,120,→,right,→,1.0133400000049733,True,15
X021K20,32,training,132,←,left,←,1.1281191000016406,True,15
X021K20,33,training,36,↑,up,↑,1.168661300005624,True,15
X021K20,34,experiment,144,↑,up,↑,0.9150617999839596,True,15
X021K20,35,experiment,108,↑,down,↓,1.057681500009494,False,15
X021K20,36,experiment,48,↑,down,↓,0.7396301000262611,False,15
X021K20,37,experiment,156,↓,down,↓,0.7995582000003196,True,15
X021K20,38,experiment,168,↓,down,↓,0.7505824000108987,True,15
X021K20,39,experiment,24,→,right,→,0.7465486000000965,True,15
X021K20,40,experiment,180,←,left,←,1.023943500011228,True,15
X021K20,41,experiment,180,→,left,←,0.9186320999870077,False,15
X021K20,42,experiment,144,↑,up,↑,1.864950500021223,True,15
X021K20,43,experiment,108,→,right,→,1.1454097999958321,True,15
X021K20,44,experiment,36,→,left,←,1.212152000021888,False,15
X021K20,45,experiment,144,→,right,→,1.089725300000282,True,15
X021K20,46,experiment,36,↑,up,↑,1.0152404000109527,True,15
X021K20,47,experiment,108,←,left,←,1.233785499993246,True,15
X021K20,48,experiment,120,↓,down,↓,0.9028353999892715,True,15
X021K20,49,experiment,132,↑,down,↓,1.357687600015197,False,15
X021K20,50,experiment,84,←,left,←,1.3093110999907367,True,15
X021K20,51,experiment,180,→,right,→,1.1928254999802448,True,15
X021K20,52,experiment,60,←,right,→,0.9926165000069886,False,15
X021K20,53,experiment,84,↓,down,↓,0.9194624000228941,True,15
X021K20,54,experiment,156,↑,up,↑,1.1143020000017714,True,15
X021K20,55,experiment,96,←,left,←,1.3036900000006426,True,15
X021K20,56,experiment,156,→,right,→,1.1183824999898206,True,15
X021K20,57,experiment,84,↑,up,↑,1.7225154000043403,True,15
X021K20,58,experiment,132,↑,up,↑,1.0912105000170413,True,15
X021K20,59,experiment,48,↑,up,↑,0.8069055000087246,True,15
X021K20,60,experiment,108,↓,up,↑,1.2551709999970626,False,15
X021K20,61,experiment,72,↑,down,↓,0.9822545999777503,False,15
X021K20,62,experiment,12,↓,down,↓,1.2180578999978025,True,15
X021K20,63,experiment,120,→,right,→,0.9596093000145629,True,15
X021K20,64,experiment,24,←,right,→,1.0594362999836449,False,15
X021K20,65,experiment,120,↑,left,←,1.2830337999912445,False,15
X021K20,66,experiment,168,←,left,←,1.1093926999892574,True,15
X021K20,67,experiment,48,↓,down,↓,0.9674014000047464,True,15
X021K20,68,experiment,72,←,left,←,1.1049528000003193,True,15
X021K20,69,experiment,36,←,left,←,0.8988315000024159,True,15
X021K20,70,experiment,24,←,right,→,1.5169354999961797,False,15
X021K20,71,experiment,120,↓,right,→,1.3319368999800645,False,15
X021K20,72,experiment,144,→,right,→,0.7784896000230219,True,15
X021K20,73,experiment,12,→,right,→,1.408268400002271,True,15
X021K20,74,experiment,168,←,left,←,0.9243169999972451,True,15
X021K20,75,experiment,72,↑,up,↑,1.4546389000024647,True,15
X021K20,76,experiment,60,↑,right,→,0.8068923999962863,False,15
X021K20,77,experiment,48,→,right,→,1.0239323000132572,True,15
X021K20,78,experiment,60,←,left,←,0.7583784000016749,True,15
X021K20,79,experiment,96,↓,left,←,1.0817757999757305,False,15
X021K20,80,experiment,36,→,left,←,0.9178824999835342,False,15
X021K20,81,experiment,72,→,right,→,0.9064160999841988,True,15
X021K20,82,experiment,180,←,left,←,1.2178992000117432,True,15
X021K20,83,experiment,96,→,right,→,0.9219522999774199,True,15
X021K20,84,experiment,156,←,left,←,0.7905160000082105,True,15
X021K20,85,experiment,12,↓,down,↓,0.6632181000022683,True,15
X021K20,86,experiment,96,↓,down,↓,0.9267029000038747,True,15
X021K20,87,experiment,12,→,down,↓,0.9458265999855939,False,15
X021K20,88,experiment,132,↓,down,↓,1.2253095000050962,True,15
X021K20,89,experiment,60,↓,left,←,1.358322899992345,False,15
X021K20,90,experiment,132,↓,right,→,1.0988653000094928,False,15
X021K20,91,experiment,168,↓,left,←,1.3032314000010956,False,15
X021K20,92,experiment,24,↑,down,↓,1.7036707999941427,False,15
X021K20,93,experiment,84,→,right,→,0.7014784999773838,True,15
X021K20,94,training,24,←,left,←,0.9436380000261124,True,15
X021K20,95,training,168,↑,left,←,1.0301668999891263,False,15
X021K20,96,training,168,→,right,→,0.957423399988329,True,15
X021K20,97,experiment,48,↓,down,↓,0.9108894999953918,True,15
X021K20,98,experiment,84,↓,down,↓,0.9582960999978241,True,15
X021K20,99,experiment,96,→,left,←,1.0543366000056267,False,15
X021K20,100,experiment,144,←,left,←,1.298644399998011,True,15
X021K20,101,experiment,132,↓,down,↓,0.8902090000046883,True,15
X021K20,102,experiment,156,↑,up,↑,1.2500625000102445,True,15
X021K20,103,experiment,72,↑,down,↓,0.9284984999976587,False,15
X021K20,104,experiment,120,↓,down,↓,0.8747268999868538,True,15
X021K20,105,experiment,180,↑,up,↑,0.9112137999909464,True,15
X021K20,106,experiment,120,↓,down,↓,0.995468900015112,True,15
X021K20,107,experiment,60,←,left,←,0.9970952000003308,True,15
X021K20,108,experiment,108,↑,right,→,1.6678773000021465,False,15
X021K20,109,experiment,168,→,right,→,0.9282212999823969,True,15
X021K20,110,experiment,60,→,right,→,0.8001855000038631,True,15
X021K20,111,experiment,96,→,left,←,1.628954200015869,False,15
X021K20,112,experiment,48,→,right,→,0.8824689000030048,True,15
X021K20,113,experiment,144,←,left,←,0.8968485999794211,True,15
X021K20,114,experiment,108,↓,no_key,no_letter,-1.0,False,15
X021K20,115,experiment,48,↓,up,↑,0.8207947999762837,False,15
X021K20,116,experiment,168,↑,up,↑,0.6116309000062756,True,15
X021K20,117,experiment,156,←,right,→,1.161974199989345,False,15
X021K20,118,experiment,168,↑,down,↓,1.0969671999919228,False,15
X021K20,119,experiment,24,←,left,←,0.9462079999793787,True,15
X021K20,120,experiment,72,↑,up,↑,0.7660929999838118,True,15
X021K20,121,experiment,144,←,left,←,0.8351422999985516,True,15
X021K20,122,experiment,96,←,left,←,0.75511070000357,True,15
X021K20,123,experiment,120,→,right,→,1.0034467999939807,True,15
X021K20,124,experiment,168,→,left,←,0.9657447000208776,False,15
X021K20,125,experiment,108,←,left,←,0.7823177999816835,True,15
X021K20,126,experiment,84,→,right,→,1.0037701000110246,True,15
X021K20,127,experiment,12,↑,up,↑,0.8666361000214238,True,15
X021K20,128,experiment,36,↓,left,←,1.2970725999912247,False,15
X021K20,129,experiment,132,↓,down,↓,0.8737370999879204,True,15
X021K20,130,experiment,120,↑,up,↑,0.8523305999988224,True,15
X021K20,131,experiment,36,←,right,→,1.02473549998831,False,15
X021K20,132,experiment,84,↓,down,↓,0.7853571999876294,True,15
X021K20,133,experiment,12,↓,down,↓,0.7361874000052921,True,15
X021K20,134,experiment,84,↑,up,↑,1.0462121999880765,True,15
X021K20,135,experiment,36,↑,up,↑,0.6934452000132296,True,15
X021K20,136,experiment,36,←,left,←,0.7706758999847807,True,15
X021K20,137,experiment,132,→,right,→,1.3622803000034764,True,15
X021K20,138,experiment,156,→,right,→,0.7428779999900144,True,15
X021K20,139,experiment,180,←,left,←,1.0360041999956593,True,15
X021K20,140,experiment,48,←,left,←,0.852438899979461,True,15
X021K20,141,experiment,108,→,left,←,0.9124221999954898,False,15
X021K20,142,experiment,24,←,left,←,0.7862159000069369,True,15
X021K20,143,experiment,144,→,right,→,0.9447235999978147,True,15
X021K20,144,experiment,60,↑,up,↑,0.8064806000038516,True,15
X021K20,145,experiment,180,←,left,←,1.2483388000109699,True,15
X021K20,146,experiment,72,↑,up,↑,0.733538900007261,True,15
X021K20,147,experiment,12,←,left,←,0.8595700000005309,True,15
X021K20,148,experiment,156,→,right,→,1.0471766000264324,True,15
X021K20,149,experiment,180,↑,up,↑,0.6295798000064678,True,15
X021K20,150,experiment,132,←,right,→,0.9206552999967244,False,15
X021K20,151,experiment,60,→,left,←,1.0160475999873597,False,15
X021K20,152,experiment,24,↓,up,↑,0.9525623000226915,False,15
X021K20,153,experiment,96,←,left,←,0.8447352999937721,True,15
X021K20,154,experiment,72,↑,up,↑,0.7872616999957245,True,15
X021K20,155,experiment,12,↓,down,↓,0.8988845999992918,True,15
X021K20,156,experiment,24,↑,left,←,1.0800178999779746,False,15
X021K20,157,training,132,←,left,←,0.8177677000057884,True,15
X021K20,158,training,84,↓,down,↓,0.6924662999808788,True,15
X021K20,159,training,144,↑,up,↑,0.6780130000261124,True,15
X021K20,160,experiment,120,→,left,←,1.0181157999904826,False,15
X021K20,161,experiment,60,↓,down,↓,0.7091082000115421,True,15
X021K20,162,experiment,72,←,left,←,1.3738627000129782,True,15
X021K20,163,experiment,144,↓,down,↓,0.8083353000110947,True,15
X021K20,164,experiment,24,↑,left,←,1.6822132999950554,False,15
X021K20,165,experiment,84,↓,down,↓,0.8560452999954578,True,15
X021K20,166,experiment,36,↓,up,↑,0.7371075999981258,False,15
X021K20,167,experiment,168,→,up,↑,1.0919223000237253,False,15
X021K20,168,experiment,120,↑,up,↑,0.8164550999936182,True,15
X021K20,169,experiment,12,←,left,←,0.836359100008849,True,15
X021K20,170,experiment,96,↓,right,→,1.676181999995606,False,15
X021K20,171,experiment,36,→,left,←,0.9551746000070125,False,15
X021K20,172,experiment,96,←,left,←,0.7335993000015151,True,15
X021K20,173,experiment,120,↓,right,→,1.0084675999823958,False,15
X021K20,174,experiment,48,↑,left,←,1.0278039000113495,False,15
X021K20,175,experiment,180,↑,up,↑,1.5463745000015479,True,15
X021K20,176,experiment,84,↑,up,↑,0.642448799975682,True,15
X021K20,177,experiment,108,↑,up,↑,0.5003835000097752,True,15
X021K20,178,experiment,156,↓,down,↓,0.6933621999924071,True,15
X021K20,179,experiment,132,↑,down,↓,0.7863161999848671,False,15
X021K20,180,experiment,72,→,right,→,1.0669541000097524,True,15
X021K20,181,experiment,12,↓,down,↓,0.6702630000072531,True,15
X021K20,182,experiment,48,↓,down,↓,0.5597346999857109,True,15
X021K20,183,experiment,48,←,left,←,1.0416373999905773,True,15
X021K20,184,experiment,180,←,left,←,1.0718605000001844,True,15
X021K20,185,experiment,24,↑,up,↑,0.6327339000126813,True,15
X021K20,186,experiment,156,↓,left,←,1.0465227999957278,False,15
X021K20,187,experiment,180,→,left,←,1.1858833000005689,False,15
X021K20,188,experiment,96,←,no_key,no_letter,-1.0,False,15
X021K20,189,experiment,24,→,right,→,0.6467372000042815,True,15
X021K20,190,experiment,72,↓,down,↓,1.016177300014533,True,15
X021K20,191,experiment,12,→,right,→,0.7721090000122786,True,15
X021K20,192,experiment,12,→,right,→,0.659289200004423,True,15
X021K20,193,experiment,144,↓,down,↓,0.9368242000055034,True,15
X021K20,194,experiment,36,→,right,→,0.6652224000135902,True,15
X021K20,195,experiment,60,↓,down,↓,0.7131805999961216,True,15
X021K20,196,experiment,168,↑,up,↑,0.6481859000050463,True,15
X021K20,197,experiment,24,↓,down,↓,1.0316189999866765,True,15
X021K20,198,experiment,144,→,right,→,0.5999207999848295,True,15
X021K20,199,experiment,48,↑,up,↑,0.8910106000257656,True,15
X021K20,200,experiment,156,→,left,←,1.1095981000107713,False,15
X021K20,201,experiment,84,←,left,←,1.0831601000099909,True,15
X021K20,202,experiment,60,↑,up,↑,1.0406342999776825,True,15
X021K20,203,experiment,132,→,left,←,1.1409003000007942,False,15
X021K20,204,experiment,132,→,right,→,0.9691379000141751,True,15
X021K20,205,experiment,108,←,left,←,0.8500965999846812,True,15
X021K20,206,experiment,156,←,left,←,0.7727999000053387,True,15
X021K20,207,experiment,180,↓,down,↓,0.6920898999960627,True,15
X021K20,208,experiment,168,←,right,→,0.9715104999777395,False,15
X021K20,209,experiment,60,↑,up,↑,1.027979399979813,True,15
X021K20,210,experiment,72,↑,up,↑,0.8614876000210643,True,15
X021K20,211,experiment,96,↑,up,↑,0.730530800006818,True,15
X021K20,212,experiment,168,↑,up,↑,0.8620536999951582,True,15
X021K20,213,experiment,108,↑,up,↑,0.6684685999935027,True,15
X021K20,214,experiment,132,↑,up,↑,0.7036835999751929,True,15
X021K20,215,experiment,108,↑,up,↑,0.7234599000075832,True,15
X021K20,216,experiment,120,↑,up,↑,0.6999442999949679,True,15
X021K20,217,experiment,84,→,right,→,1.2734053999884054,True,15
X021K20,218,experiment,144,↓,up,↑,0.9639279999828432,False,15
X021K20,219,experiment,36,↓,down,↓,0.6896946000051685,True,15
X021K20,220,training,108,→,right,→,0.8248026999935973,True,15
X021K20,221,training,120,←,left,←,0.940589000005275,True,15
X021K20,222,training,168,←,left,←,0.9539748000097461,True,15
X021K20,223,experiment,72,↑,left,←,1.2264244999969378,False,15
X021K20,224,experiment,24,↑,up,↑,0.9533021000097506,True,15
X021K20,225,experiment,144,→,right,→,0.8790826000040397,True,15
X021K20,226,experiment,96,←,right,→,0.8142034999909811,False,15
X021K20,227,experiment,12,←,right,→,0.8032368999847677,False,15
X021K20,228,experiment,168,↑,up,↑,1.1096546000044327,True,15
X021K20,229,experiment,48,←,left,←,1.359651600010693,True,15
X021K20,230,experiment,84,↓,down,↓,1.0256326000089757,True,15
X021K20,231,experiment,156,↓,down,↓,0.6430266000097618,True,15
X021K20,232,experiment,72,←,left,←,1.346299299999373,True,15
X021K20,233,experiment,48,↑,up,↑,0.532309800008079,True,15
X021K20,234,experiment,12,←,left,←,0.6305473999818787,True,15
X021K20,235,experiment,72,↑,up,↑,0.6475296999851707,True,15
X021K20,236,experiment,120,↑,up,↑,0.6582912000012584,True,15
X021K20,237,experiment,84,←,left,←,0.6740887000050861,True,15
X021K20,238,experiment,156,→,left,←,0.7501892000145745,False,15
X021K20,239,experiment,36,→,right,→,0.9120296000037342,True,15
X021K20,240,experiment,84,↑,up,↑,0.7600831000017934,True,15
X021K20,241,experiment,168,↑,up,↑,0.5982408999989275,True,15
X021K20,242,experiment,48,↑,up,↑,0.5155204999900889,True,15
X021K20,243,experiment,96,←,right,→,0.8680129999993369,False,15
X021K20,244,experiment,48,↓,up,↑,0.8344312999979593,False,15
X021K20,245,experiment,24,←,left,←,0.8441385000187438,True,15
X021K20,246,experiment,132,↓,down,↓,0.717140599997947,True,15
X021K20,247,experiment,144,←,left,←,0.7179495000164025,True,15
X021K20,248,experiment,24,←,left,←,0.7007689999882132,True,15
X021K20,249,experiment,120,←,left,←,0.7101228999963496,True,15
X021K20,250,experiment,120,↑,down,↓,0.9759124999982305,False,15
X021K20,251,experiment,60,↑,down,↓,0.9888328999804799,False,15
X021K20,252,experiment,36,↓,down,↓,0.5537197999947239,True,15
X021K20,253,experiment,36,→,left,←,0.8266641999944113,False,15
X021K20,254,experiment,132,←,left,←,0.7667376999743283,True,15
X021K20,255,experiment,84,↑,down,↓,0.786362899991218,False,15
X021K20,256,experiment,132,→,right,→,0.8681026000122074,True,15
X021K20,257,experiment,144,↓,down,↓,0.6731809000193607,True,15
X021K20,258,experiment,156,↑,down,↓,0.8301478999783285,False,15
X021K20,259,experiment,144,→,right,→,0.699068999994779,True,15
X021K20,260,experiment,60,↓,down,↓,0.6556925000040792,True,15
X021K20,261,experiment,180,←,left,←,0.663588700001128,True,15
X021K20,262,experiment,12,→,left,←,0.6386468000127934,False,15
X021K20,263,experiment,180,←,left,←,0.7930407999956515,True,15
X021K20,264,experiment,108,↓,right,→,0.9943640999845229,False,15
X021K20,265,experiment,168,→,right,→,0.9673884999938309,True,15
X021K20,266,experiment,108,←,left,←,0.682478100003209,True,15
X021K20,267,experiment,180,↓,right,→,1.4395447999995667,False,15
X021K20,268,experiment,168,→,no_key,no_letter,-1.0,False,15
X021K20,269,experiment,96,↑,up,↑,0.6356348000117578,True,15
X021K20,270,experiment,24,↓,down,↓,0.9114179999742191,True,15
X021K20,271,experiment,60,←,left,←,0.6198798000114039,True,15
X021K20,272,experiment,72,↑,up,↑,0.4988630000152625,True,15
X021K20,273,experiment,120,↓,down,↓,0.6645328000013251,True,15
X021K20,274,experiment,36,←,left,←,0.7279287000128534,True,15
X021K20,275,experiment,12,↓,down,↓,0.8928212999890093,True,15
X021K20,276,experiment,60,↑,up,↑,0.7857852000161074,True,15
X021K20,277,experiment,108,→,up,↑,0.769266899995273,False,15
X021K20,278,experiment,180,↑,up,↑,1.0883309000055306,True,15
X021K20,279,experiment,96,←,left,←,0.7078964000102133,True,15
X021K20,280,experiment,108,→,right,→,0.8131074000266381,True,15
X021K20,281,experiment,132,↓,down,↓,0.5983016999962274,True,15
X021K20,282,experiment,156,↓,up,↑,1.1956119999813382,False,15
X021K20,283,training,60,↓,down,↓,0.7378548999840859,True,15
X021K20,284,training,96,→,right,→,0.7737392999988515,True,15
X021K20,285,training,36,←,right,→,0.885180399985984,False,15
X021K20,286,experiment,96,↓,down,↓,0.9168479999934789,True,15
X021K20,287,experiment,84,↑,up,↑,0.8234366000106093,True,15
X021K20,288,experiment,168,←,left,←,1.0584796000039205,True,15
X021K20,289,experiment,84,←,left,←,0.9228578000038397,True,15
X021K20,290,experiment,108,↑,up,↑,0.7270919000147842,True,15
X021K20,291,experiment,84,←,left,←,0.7963617999921553,True,15
X021K20,292,experiment,144,←,left,←,0.7547537000209559,True,15
X021K20,293,experiment,132,↓,down,↓,0.6215573000081349,True,15
X021K20,294,experiment,96,↑,up,↑,0.5264217000221834,True,15
X021K20,295,experiment,120,↑,up,↑,0.7868746000167448,True,15
X021K20,296,experiment,180,↑,up,↑,0.74099349998869,True,15
X021K20,297,experiment,144,→,right,→,0.7069147999864072,True,15
X021K20,298,experiment,72,←,left,←,0.6613959999813233,True,15
X021K20,299,experiment,132,↑,up,↑,0.4647017999959644,True,15
X021K20,300,experiment,36,↓,up,↑,1.4107446999987587,False,15
X021K20,301,experiment,12,→,right,→,0.7151981000206433,True,15
X021K20,302,experiment,12,←,right,→,0.7834355999948457,False,15
X021K20,303,experiment,48,→,right,→,0.6313837000052445,True,15
X021K20,304,experiment,84,↑,down,↓,0.8850100999989081,False,15
X021K20,305,experiment,96,→,right,→,0.5853271000087261,True,15
X021K20,306,experiment,156,↑,right,→,0.6503706999938004,False,15
X021K20,307,experiment,156,↑,right,→,0.735166800004663,False,15
X021K20,308,experiment,144,↓,down,↓,0.7611865999933798,True,15
X021K20,309,experiment,36,→,right,→,0.7662927999917883,True,15
X021K20,310,experiment,12,→,right,→,0.6624879000009969,True,15
X021K20,311,experiment,36,←,right,→,0.7097357000166085,False,15
X021K20,312,experiment,60,→,right,→,0.9301854000077583,True,15
X021K20,313,experiment,120,↓,down,↓,0.8230062999937218,True,15
X021K20,314,experiment,180,→,right,→,0.6470678999903612,True,15
X021K20,315,experiment,120,↓,down,↓,0.5930242999747861,True,15
X021K20,316,experiment,168,→,right,→,0.8373657999909483,True,15
X021K20,317,experiment,108,↓,down,↓,0.7736137000028975,True,15
X021K20,318,experiment,108,←,right,→,0.7337318999925628,False,15
X021K20,319,experiment,12,↑,down,↓,0.8086253999790642,False,15
X021K20,320,experiment,96,↓,down,↓,0.5680026999907568,True,15
X021K20,321,experiment,60,↑,up,↑,0.8367704999982379,True,15
X021K20,322,experiment,108,←,left,←,0.8612348999886308,True,15
X021K20,323,experiment,156,↑,up,↑,0.7235081999970134,True,15
X021K20,324,experiment,156,↑,up,↑,0.5370613999839406,True,15
X021K20,325,experiment,36,←,left,←,0.9465670000063255,True,15
X021K20,326,experiment,60,↓,down,↓,0.7874370999925304,True,15
X021K20,327,experiment,168,→,right,→,0.7417272000166122,True,15
X021K20,328,experiment,120,←,left,←,0.7160780999984127,True,15
X021K20,329,experiment,60,←,left,←,0.916272200003732,True,15
X021K20,330,experiment,72,↓,down,↓,0.6465767000045162,True,15
X021K20,331,experiment,24,↑,up,↑,0.8138955000031274,True,15
X021K20,332,experiment,24,↓,up,↑,0.8118878999957815,False,15
X021K20,333,experiment,168,→,right,→,0.7074620999919716,True,15
X021K20,334,experiment,180,←,right,→,0.8483516999986023,False,15
X021K20,335,experiment,48,→,left,←,1.0731207999924663,False,15
X021K20,336,experiment,72,↓,down,↓,0.7670139000110794,True,15
X021K20,337,experiment,24,↑,up,↑,0.7594822999963071,True,15
X021K20,338,experiment,132,→,right,→,0.6631999999808613,True,15
X021K20,339,experiment,72,↓,down,↓,0.7392935999960173,True,15
X021K20,340,experiment,48,→,right,→,0.7809874000085983,True,15
X021K20,341,experiment,48,→,left,←,1.080699599988293,False,15
X021K20,342,experiment,180,←,left,←,0.7300232000125106,True,15
X021K20,343,experiment,132,↓,down,↓,0.6711429999850225,True,15
X021K20,344,experiment,24,↑,up,↑,0.7342504000116605,True,15
X021K20,345,experiment,144,↑,up,↑,0.5349573999992572,True,15
X021K20,346,training,24,→,right,→,0.8315798000257928,True,15
X021K20,347,training,12,↑,right,→,0.8544522000011057,False,15
X021K20,348,training,12,↑,up,↑,0.6927807000174653,True,15
X021K20,349,experiment,36,↑,up,↑,0.7061572999809869,True,15
X021K20,350,experiment,120,↓,down,↓,0.5518388999917079,True,15
X021K20,351,experiment,156,↓,down,↓,0.8669753999856766,True,15
X021K20,352,experiment,180,↓,down,↓,0.6379060999897774,True,15
X021K20,353,experiment,84,↑,down,↓,0.6979269000003114,False,15
X021K20,354,experiment,60,↓,down,↓,0.6199819000030402,True,15
X021K20,355,experiment,156,↑,down,↓,0.7738940000126604,False,15
X021K20,356,experiment,12,→,right,→,1.1549961999990046,True,15
X021K20,357,experiment,144,↑,up,↑,0.8139209999935701,True,15
X021K20,358,experiment,108,↑,up,↑,0.5383459999866318,True,15
X021K20,359,experiment,108,↓,down,↓,0.7924574000062421,True,15
X021K20,360,experiment,72,↑,up,↑,0.8924016999953892,True,15
X021K20,361,experiment,48,↑,up,↑,0.6462637000076938,True,15
X021K20,362,experiment,144,↓,down,↓,0.6065173000097275,True,15
X021K20,363,experiment,132,←,right,→,0.978437700017821,False,15
X021K20,364,experiment,72,←,left,←,0.6325770000112243,True,15
X021K20,365,experiment,84,↓,no_key,no_letter,-1.0,False,15
X021K20,366,experiment,12,↑,up,↑,0.7382311999972444,True,15
X021K20,367,experiment,48,←,left,←,0.6770174000121187,True,15
X021K20,368,experiment,156,↓,down,↓,0.7402255999913905,True,15
X021K20,369,experiment,132,↓,down,↓,0.784289200004423,True,15
X021K20,370,experiment,72,←,left,←,0.6535681000095792,True,15
X021K20,371,experiment,108,←,left,←,0.6790641999978106,True,15
X021K20,372,experiment,36,←,right,→,0.8222278999746777,False,15
X021K20,373,experiment,180,↑,up,↑,0.6253742999979295,True,15
X021K20,374,experiment,168,↓,down,↓,0.835602100007236,True,15
X021K20,375,experiment,36,↓,down,↓,0.5790454000234604,True,15
X021K20,376,experiment,132,→,right,→,0.6774363000004087,True,15
X021K20,377,experiment,12,↑,right,→,0.8525627000199165,False,15
X021K20,378,experiment,132,↓,down,↓,0.6898479000083171,True,15
X021K20,379,experiment,72,↑,right,→,0.668795500008855,False,15
X021K20,380,experiment,24,↑,right,→,0.9191293000185397,False,15
X021K20,381,experiment,24,↑,right,→,0.6843422999954782,False,15
X021K20,382,experiment,96,←,left,←,0.7708583000057843,True,15
X021K20,383,experiment,60,↓,left,←,0.9663428000058047,False,15
X021K20,384,experiment,144,↑,up,↑,0.5166399000154343,True,15
X021K20,385,experiment,96,↓,up,↑,0.7942709000199102,False,15
X021K20,386,experiment,96,↑,right,→,0.8508499999879859,False,15
X021K20,387,experiment,12,←,left,←,0.7582231000124011,True,15
X021K20,388,experiment,168,→,right,→,0.8316477000189479,True,15
X021K20,389,experiment,84,→,right,→,0.6446152999997139,True,15
X021K20,390,experiment,48,↓,down,↓,0.6484797000011895,True,15
X021K20,391,experiment,60,→,right,→,0.607560000004014,True,15
X021K20,392,experiment,120,→,right,→,0.6389646000170615,True,15
X021K20,393,experiment,168,↓,down,↓,0.5605100999819115,True,15
X021K20,394,experiment,96,↑,down,↓,0.6962611999770161,False,15
X021K20,395,experiment,156,↓,right,→,0.6896937999990769,False,15
X021K20,396,experiment,144,←,left,←,0.6223676999798045,True,15
X021K20,397,experiment,48,←,left,←,0.78140780000831,True,15
X021K20,398,experiment,120,↓,down,↓,0.5594866000174079,True,15
X021K20,399,experiment,108,↑,up,↑,0.5031559000199195,True,15
X021K20,400,experiment,180,↓,right,→,0.9016947000054643,False,15
X021K20,401,experiment,60,→,right,→,0.7627780000038911,True,15
X021K20,402,experiment,24,→,right,→,0.9536691000103019,True,15
X021K20,403,experiment,180,↑,up,↑,0.7511846999987029,True,15
X021K20,404,experiment,168,→,right,→,0.5937948999926448,True,15
X021K20,405,experiment,120,↑,up,↑,0.6228306000120938,True,15
X021K20,406,experiment,24,→,right,→,0.5990842999890447,True,15
X021K20,407,experiment,36,→,right,→,0.6569999000057578,True,15
X021K20,408,experiment,84,↓,right,→,0.8468099999881815,False,15
X021K20,409,training,84,→,right,→,0.8777696999895852,True,15
X021K20,410,training,156,↑,up,↑,0.6035370999888983,True,15
X021K20,411,training,156,→,right,→,1.026927600003546,True,15
X021K20,412,experiment,72,←,right,→,0.7297299999918323,False,15
X021K20,413,experiment,84,↑,up,↑,0.6021443999779876,True,15
X021K20,414,experiment,72,↑,up,↑,0.7258019000000786,True,15
X021K20,415,experiment,72,→,right,→,0.9315279999864288,True,15
X021K20,416,experiment,84,←,left,←,0.7171257000009064,True,15
X021K20,417,experiment,48,←,right,→,0.8123720000148751,False,15
X021K20,418,experiment,156,→,right,→,0.6786850999924354,True,15
X021K20,419,experiment,96,↑,up,↑,0.5198223000043072,True,15
X021K20,420,experiment,96,←,right,→,0.9632846000022255,False,15
X021K20,421,experiment,48,↑,up,↑,0.6816472999926191,True,15
X021K20,422,experiment,36,↓,down,↓,0.5964292999997269,True,15
X021K20,423,experiment,60,↑,up,↑,0.535413299978245,True,15
X021K20,424,experiment,132,↑,up,↑,0.6960259999905247,True,15
X021K20,425,experiment,120,↑,up,↑,1.7987166999955662,True,15
X021K20,426,experiment,60,↑,left,←,1.0125941000005696,False,15
X021K20,427,experiment,24,→,right,→,1.149955000000773,True,15
X021K20,428,experiment,12,↑,up,↑,0.4674131000065245,True,15
X021K20,429,experiment,24,↓,up,↑,0.7118981000094209,False,15
X021K20,430,experiment,36,↑,up,↑,0.4473123000061605,True,15
X021K20,431,experiment,180,←,down,↓,0.9275360000028741,False,15
X021K20,432,experiment,60,↑,up,↑,0.43927169998642057,True,15
X021K20,433,experiment,168,→,right,→,0.6847205999947619,True,15
X021K20,434,experiment,168,←,left,←,0.6294369999959599,True,15
X021K20,435,experiment,36,↓,down,↓,0.844585199985886,True,15
X021K20,436,experiment,120,↓,right,→,0.7587195000087377,False,15
X021K20,437,experiment,168,↓,down,↓,0.5979993999935687,True,15
X021K20,438,experiment,132,→,right,→,0.7743103000102565,True,15
X021K20,439,experiment,12,↓,down,↓,0.5857335999899078,True,15
X021K20,440,experiment,132,←,left,←,0.6210367000021506,True,15
X021K20,441,experiment,96,←,left,←,0.7129234000167344,True,15
X021K20,442,experiment,108,→,right,→,0.6300526999984868,True,15
X021K20,443,experiment,120,↓,down,↓,0.5283154000062495,True,15
X021K20,444,experiment,144,↓,right,→,0.8837067999993451,False,15
X021K20,445,experiment,84,←,left,←,0.7030342000070959,True,15
X021K20,446,experiment,144,←,left,←,0.5977792000048794,True,15
X021K20,447,experiment,156,→,left,←,1.7230442000145558,False,15
X021K20,448,experiment,24,→,left,←,0.7353077000007033,False,15
X021K20,449,experiment,144,←,left,←,0.9247509999840986,True,15
X021K20,450,experiment,24,↓,right,→,0.9761281000101008,False,15
X021K20,451,experiment,84,↓,down,↓,0.570300599996699,True,15
X021K20,452,experiment,12,↑,right,→,1.3222791999869514,False,15
X021K20,453,experiment,120,→,right,→,0.9580740000237711,True,15
X021K20,454,experiment,96,↑,up,↑,0.4951723999984097,True,15
X021K20,455,experiment,180,↑,up,↑,0.4505040999792982,True,15
X021K20,456,experiment,168,↑,up,↑,0.8501344000105746,True,15
X021K20,457,experiment,36,↑,up,↑,1.4823031999985687,True,15
X021K20,458,experiment,144,↑,up,↑,0.5055179999908432,True,15
X021K20,459,experiment,48,←,down,↓,0.6975821999949403,False,15
X021K20,460,experiment,180,←,up,↑,0.8182707000232767,False,15
X021K20,461,experiment,72,←,left,←,0.6353054000064731,True,15
X021K20,462,experiment,12,↓,down,↓,0.586934699997073,True,15
X021K20,463,experiment,108,↑,up,↑,0.4316042000136804,True,15
X021K20,464,experiment,48,↑,up,↑,0.666597700008424,True,15
X021K20,465,experiment,156,→,right,→,0.723334700014675,True,15
X021K20,466,experiment,180,←,left,←,0.778973499982385,True,15
X021K20,467,experiment,108,↑,right,→,0.7704233000113163,False,15
X021K20,468,experiment,108,↑,left,←,0.6674226999748498,False,15
X021K20,469,experiment,60,↓,down,↓,0.5280427999969106,True,15
X021K20,470,experiment,132,←,left,←,0.6234354000189342,True,15
X021K20,471,experiment,156,←,left,←,0.7117483000038192,True,15
X021K20,472,training,12,↑,up,↑,1.1908164000196848,True,15
X021K20,473,training,84,→,right,→,0.7725477000058163,True,15
X021K20,474,training,144,→,right,→,1.0200773999968078,True,15
X021K20,475,experiment,132,←,right,→,0.7185947000107262,False,15
X021K20,476,experiment,168,↑,up,↑,0.6293110999977216,True,15
X021K20,477,experiment,180,→,right,→,1.0724207000166643,True,15
X021K20,478,experiment,108,↑,up,↑,0.6342959000030532,True,15
X021K20,479,experiment,24,←,up,↑,0.9474509000137914,False,15
X021K20,480,experiment,144,←,left,←,0.6532813000085298,True,15
X021K20,481,experiment,84,→,up,↑,0.8496056000003591,False,15
X021K20,482,experiment,60,↑,left,←,0.9068907999899238,False,15
X021K20,483,experiment,168,→,right,→,0.788075199990999,True,15
X021K20,484,experiment,180,↑,up,↑,0.48923890001606196,True,15
X021K20,485,experiment,96,↓,down,↓,0.5751164999965113,True,15
X021K20,486,experiment,48,←,left,←,0.8880048999853898,True,15
X021K20,487,experiment,84,↓,down,↓,0.6612786999903619,True,15
X021K20,488,experiment,180,↓,down,↓,0.7840682999812998,True,15
X021K20,489,experiment,96,↑,down,↓,0.8719404999865219,False,15
X021K20,490,experiment,60,→,right,→,0.6688009999925271,True,15
X021K20,491,experiment,96,↓,left,←,0.9362767999991775,False,15
X021K20,492,experiment,156,→,right,→,1.1322439000068698,True,15
X021K20,493,experiment,156,↑,left,←,1.1081577000149991,False,15
X021K20,494,experiment,156,↑,up,↑,0.5666677999834064,True,15
X021K20,495,experiment,120,↓,down,↓,0.8127949000045191,True,15
X021K20,496,experiment,120,↓,right,→,0.9653345999831799,False,15
X021K20,497,experiment,36,↓,down,↓,0.5926863000204321,True,15
X021K20,498,experiment,48,→,right,→,0.705391099996632,True,15
X021K20,499,experiment,132,←,left,←,0.9432281000190414,True,15
X021K20,500,experiment,12,↑,left,←,0.7936430999834556,False,15
X021K20,501,experiment,72,↑,up,↑,0.5992310000001453,True,15
X021K20,502,experiment,36,↑,up,↑,0.8773120999976527,True,15
X021K20,503,experiment,24,↓,down,↓,0.553978099982487,True,15
X021K20,504,experiment,12,→,right,→,0.556260100012878,True,15
X021K20,505,experiment,12,↓,down,↓,0.6039240000245627,True,15
X021K20,506,experiment,60,←,left,←,1.08134269999573,True,15
X021K20,507,experiment,24,←,left,←,0.7086841999844182,True,15
X021K20,508,experiment,144,→,right,→,0.682242499984568,True,15
X021K20,509,experiment,120,↑,right,→,0.6391663000104018,False,15
X021K20,510,experiment,144,↓,down,↓,0.5645359999907669,True,15
X021K20,511,experiment,48,↓,down,↓,0.6008397999976296,True,15
X021K20,512,experiment,180,→,right,→,0.7722910000011325,True,15
X021K20,513,experiment,132,↓,left,←,0.7420219999912661,False,15
X021K20,514,experiment,60,↑,up,↑,0.8499138999904972,True,15
X021K20,515,experiment,168,←,left,←,0.7291834000207018,True,15
X021K20,516,experiment,24,↓,down,↓,1.218411100009689,True,15
X021K20,517,experiment,72,→,right,→,0.5783830000145826,True,15
X021K20,518,experiment,168,↑,up,↑,0.4504935999866575,True,15
X021K20,519,experiment,36,←,left,←,1.1419964999950025,True,15
X021K20,520,experiment,108,←,left,←,0.8540563000133261,True,15
X021K20,521,experiment,84,→,right,→,0.6407735999964643,True,15
X021K20,522,experiment,84,↑,up,↑,0.4493042000103742,True,15
X021K20,523,experiment,36,→,right,→,0.6325680000009015,True,15
X021K20,524,experiment,156,←,left,←,1.3606056999997236,True,15
X021K20,525,experiment,108,↑,up,↑,0.44126130000222474,True,15
X021K20,526,experiment,72,←,left,←,0.7265201999980491,True,15
X021K20,527,experiment,108,←,left,←,0.6765298000245821,True,15
X021K20,528,experiment,120,↑,up,↑,0.42773749999469146,True,15
X021K20,529,experiment,12,←,left,←,0.6538728000014089,True,15
X021K20,530,experiment,144,↓,down,↓,0.6167769000167027,True,15
X021K20,531,experiment,48,↑,up,↑,0.6032781999965664,True,15
X021K20,532,experiment,132,↑,up,↑,0.6114881999965291,True,15
X021K20,533,experiment,96,→,up,↑,0.7067401000240352,False,15
X021K20,534,experiment,72,↑,up,↑,0.43181840001489036,True,15
X021K20,535,training,156,↑,up,↑,0.4958613000053447,True,15
X021K20,536,training,120,↓,up,↑,0.71482379999361,False,15
X021K20,537,training,144,←,left,←,0.6802609000005759,True,15
X021K20,538,experiment,36,→,right,→,1.1855958999949507,True,15
X021K20,539,experiment,48,→,right,→,0.613246099994285,True,15
X021K20,540,experiment,144,←,left,←,0.6355894000153057,True,15
X021K20,541,experiment,72,→,right,→,0.6484995999780949,True,15
X021K20,542,experiment,48,←,right,→,0.8180888000060804,False,15
X021K20,543,experiment,12,↓,right,→,0.773038200015435,False,15
X021K20,544,experiment,132,→,right,→,0.7899358000140637,True,15
X021K20,545,experiment,84,↑,up,↑,0.8261767000076361,True,15
X021K20,546,experiment,84,→,down,↓,0.8889267999911681,False,15
X021K20,547,experiment,120,→,right,→,0.6942530999949668,True,15
X021K20,548,experiment,96,↓,down,↓,0.5696792999806348,True,15
X021K20,549,experiment,60,→,right,→,0.6765902999904938,True,15
X021K20,550,experiment,72,↑,right,→,0.7738143999886233,False,15
X021K20,551,experiment,36,→,right,→,0.863337099988712,True,15
X021K20,552,experiment,60,↓,right,→,0.8175527999992482,False,15
X021K20,553,experiment,132,→,right,→,0.6116944000241347,True,15
X021K20,554,experiment,156,↑,up,↑,0.699813199986238,True,15
X021K20,555,experiment,12,↑,up,↑,0.6370280999981333,True,15
X021K20,556,experiment,180,←,left,←,0.9853131999843754,True,15
X021K20,557,experiment,36,←,left,←,0.8060972000239417,True,15
X021K20,558,experiment,72,→,right,→,0.6323409999895375,True,15
X021K20,559,experiment,96,↓,down,↓,0.5800174000032712,True,15
X021K20,560,experiment,24,↑,down,↓,0.8354832999757491,False,15
X021K20,561,experiment,168,↓,down,↓,0.8030373000074178,True,15
X021K20,562,experiment,84,←,left,←,0.7451769000035711,True,15
X021K20,563,experiment,156,↑,left,←,0.9059260000067297,False,15
X021K20,564,experiment,96,←,left,←,0.6949028999952134,True,15
X021K20,565,experiment,144,↓,down,↓,0.5280542999971658,True,15
X021K20,566,experiment,168,↓,down,↓,0.7165526000026148,True,15
X021K20,567,experiment,180,→,right,→,0.661268600000767,True,15
X021K20,568,experiment,132,→,right,→,0.5826292000128888,True,15
X021K20,569,experiment,108,←,right,→,0.6575729000032879,False,15
X021K20,570,experiment,12,→,right,→,0.9411898999824189,True,15
X021K20,571,experiment,72,↑,up,↑,0.6060940999886952,True,15
X021K20,572,experiment,144,→,right,→,0.6482210000103805,True,15
X021K20,573,experiment,24,↑,up,↑,0.5984281999990344,True,15
X021K20,574,experiment,48,↑,up,↑,0.4191484000184573,True,15
X021K20,575,experiment,48,↓,up,↑,0.66317459999118,False,15
X021K20,576,experiment,36,←,left,←,0.6716584000096191,True,15
X021K20,577,experiment,120,←,up,↑,0.9481001000094693,False,15
X021K20,578,experiment,132,↑,up,↑,0.437239100021543,True,15
X021K20,579,experiment,84,↑,up,↑,1.3548277000081725,True,15
X021K20,580,experiment,108,←,left,←,0.5767666999890935,True,15
X021K20,581,experiment,180,←,left,←,0.7096313000074588,True,15
X021K20,582,experiment,24,↑,up,↑,0.8767653999966569,True,15
X021K20,583,experiment,168,←,left,←,0.6801045000029262,True,15
X021K20,584,experiment,12,↑,up,↑,0.5470342999906279,True,15
X021K20,585,experiment,60,↓,up,↑,0.7490120999864303,False,15
X021K20,586,experiment,120,←,left,←,0.6598879999946803,True,15
X021K20,587,experiment,180,→,left,←,0.7764724000007845,False,15
X021K20,588,experiment,60,←,left,←,0.8874961000110488,True,15
X021K20,589,experiment,120,→,right,→,0.6547884999890812,True,15
X021K20,590,experiment,24,→,right,→,0.8049656999937724,True,15
X021K20,591,experiment,168,↑,right,→,1.3648595999984536,False,15
X021K20,592,experiment,144,→,left,←,0.8016596999950707,False,15
X021K20,593,experiment,156,→,right,→,0.6169150000205263,True,15
X021K20,594,experiment,96,←,right,→,0.8258235999965109,False,15
X021K20,595,experiment,108,↑,up,↑,0.46096620001480915,True,15
X021K20,596,experiment,156,↓,up,↑,0.698695700004464,False,15
X021K20,597,experiment,108,→,right,→,0.6813629000098445,True,15
X021K20,598,training,48,↑,up,↑,0.8035017999936827,True,15
X021K20,599,training,120,→,right,→,1.1530849999981,True,15
X021K20,600,training,144,↓,down,↓,0.5387831999978516,True,15
X021K20,601,experiment,156,↑,up,↑,0.5709752000111621,True,15
X021K20,602,experiment,72,→,right,→,1.2161037999903783,True,15
X021K20,603,experiment,120,←,left,←,1.06422639999073,True,15
X021K20,604,experiment,72,↑,up,↑,1.0594392999773845,True,15
X021K20,605,experiment,132,→,right,→,0.6255373999883886,True,15
X021K20,606,experiment,144,←,left,←,0.6811905000067782,True,15
X021K20,607,experiment,144,↓,down,↓,0.7720503000018653,True,15
X021K20,608,experiment,132,↓,down,↓,0.8191967000020668,True,15
X021K20,609,experiment,180,→,right,→,0.7722236000117846,True,15
X021K20,610,experiment,60,→,left,←,0.9566721000010148,False,15
X021K20,611,experiment,60,→,right,→,0.8427061999973375,True,15
X021K20,612,experiment,108,←,left,←,1.0241344000096433,True,15
X021K20,613,experiment,72,↓,down,↓,0.7226657999854069,True,15
X021K20,614,experiment,48,↑,up,↑,1.0379707999818493,True,15
X021K20,615,experiment,96,↑,up,↑,0.4563946000125725,True,15
X021K20,616,experiment,24,↑,up,↑,0.7399722999834921,True,15
X021K20,617,experiment,48,←,up,↑,1.365354199981084,False,15
X021K20,618,experiment,36,↑,up,↑,0.8939719000190962,True,15
X021K20,619,experiment,36,←,up,↑,1.0487904999754392,False,15
X021K20,620,experiment,120,↓,down,↓,0.6225904000166338,True,15
X021K20,621,experiment,108,↑,up,↑,0.5378950000158511,True,15
X021K20,622,experiment,84,→,up,↑,0.7065079000021797,False,15
X021K20,623,experiment,48,→,right,→,0.7081256000092253,True,15
X021K20,624,experiment,24,↓,right,→,0.9416463999950793,False,15
X021K20,625,experiment,156,→,right,→,0.4885409999988042,True,15
X021K20,626,experiment,144,↓,down,↓,0.5298337999847718,True,15
X021K20,627,experiment,96,↑,down,↓,0.7552762000123039,False,15
X021K20,628,experiment,84,→,right,→,0.5805189999809954,True,15
X021K20,629,experiment,120,←,right,→,0.7213979000225663,False,15
X021K20,630,experiment,168,↑,down,↓,0.7949936999939382,False,15
X021K20,631,experiment,12,←,down,↓,1.3419613000005484,False,15
X021K20,632,experiment,12,→,right,→,0.7758638999948744,True,15
X021K20,633,experiment,156,↓,down,↓,0.7655703999917023,True,15
X021K20,634,experiment,168,↑,up,↑,0.5680272000026889,True,15
X021K20,635,experiment,60,←,left,←,1.0012301999959163,True,15
X021K20,636,experiment,144,↓,down,↓,0.8187862999911886,True,15
X021K20,637,experiment,12,↑,right,→,1.0836511999950744,False,15
X021K20,638,experiment,132,←,left,←,1.0249934999737889,True,15
X021K20,639,experiment,36,→,right,→,0.7452888000116218,True,15
X021K20,640,experiment,180,←,left,←,0.8147726000170223,True,15
X021K20,641,experiment,168,↓,down,↓,0.551216200023191,True,15
X021K20,642,experiment,96,→,right,→,0.5675858999893535,True,15
X021K20,643,experiment,24,↑,right,→,0.7872756999859121,False,15
X021K20,644,experiment,108,→,right,→,0.6289800999802537,True,15
X021K20,645,experiment,132,↓,down,↓,0.5303282999957446,True,15
X021K20,646,experiment,24,↑,up,↑,0.763554600009229,True,15
X021K20,647,experiment,48,↓,down,↓,0.4913329999835696,True,15
X021K20,648,experiment,84,→,right,→,0.6234501000144519,True,15
X021K20,649,experiment,180,→,right,→,0.7860572999925353,True,15
X021K20,650,experiment,156,↑,up,↑,0.45371120001072995,True,15
X021K20,651,experiment,60,→,up,↑,0.6224241000018083,False,15
X021K20,652,experiment,180,↓,down,↓,0.6040337999875192,True,15
X021K20,653,experiment,120,←,up,↑,1.0105001000047196,False,15
X021K20,654,experiment,168,↑,up,↑,1.0060957000241615,True,15
X021K20,655,experiment,96,→,down,↓,0.9415851000230759,False,15
X021K20,656,experiment,36,→,up,↑,0.6892889000009745,False,15
X021K20,657,experiment,84,←,down,↓,0.8117757999862079,False,15
X021K20,658,experiment,72,→,up,↑,0.795635200018296,False,15
X021K20,659,experiment,108,↓,up,↑,0.6917701000056695,False,15
X021K20,660,experiment,12,↓,down,↓,0.5371121000207495,True,15
X021K20,661,training,24,↑,up,↑,0.7328027000185102,True,15
X021K20,662,training,12,↑,up,↑,0.4442212000139989,True,15
X021K20,663,training,48,↓,down,↓,0.4712975000147708,True,15
X021K20,664,experiment,108,↑,up,↑,0.5658772999886423,True,15
X021K20,665,experiment,96,→,right,→,0.9459723999898415,True,15
X021K20,666,experiment,168,→,right,→,0.6069864000019152,True,15
X021K20,667,experiment,96,↑,up,↑,1.2238342999771703,True,15
X021K20,668,experiment,36,→,right,→,0.834264200006146,True,15
X021K20,669,experiment,24,←,left,←,1.0808683000213932,True,15
X021K20,670,experiment,156,↓,down,↓,0.6111212999967393,True,15
X021K20,671,experiment,144,↑,up,↑,0.47619469999335706,True,15
X021K20,672,experiment,60,↑,up,↑,0.6255195999983698,True,15
X021K20,673,experiment,60,↓,up,↑,0.6103812000073958,False,15
X021K20,674,experiment,132,↓,down,↓,0.8284115999995265,True,15
X021K20,675,experiment,60,→,right,→,0.6300786999927368,True,15
X021K20,676,experiment,180,←,left,←,0.6213348000019323,True,15
X021K20,677,experiment,96,→,right,→,0.5860361999948509,True,15
X021K20,678,experiment,84,↓,down,↓,0.5188000999914948,True,15
X021K20,679,experiment,72,←,left,←,0.6349417000019457,True,15
X021K20,680,experiment,84,←,left,←,0.9524422999820672,True,15
X021K20,681,experiment,168,←,left,←,0.961163600004511,True,15
X021K20,682,experiment,12,→,right,→,0.9787259000004269,True,15
X021K20,683,experiment,12,↑,right,→,0.7675993999873754,False,15
X021K20,684,experiment,168,→,right,→,0.6265716999769211,True,15
X021K20,685,experiment,48,↓,down,↓,0.6286693000001833,True,15
X021K20,686,experiment,144,↓,down,↓,0.5899084999982733,True,15
X021K20,687,experiment,36,↑,up,↑,0.5890194999810774,True,15
X021K20,688,experiment,132,→,right,→,0.5895917999732774,True,15
X021K20,689,experiment,48,↑,up,↑,0.6226784000173211,True,15
X021K20,690,experiment,108,→,right,→,0.876404900016496,True,15
X021K20,691,experiment,120,↑,up,↑,0.7266622000024654,True,15
X021K20,692,experiment,24,←,left,←,0.6773634999990463,True,15
X021K20,693,experiment,120,↑,up,↑,0.8117400000046473,True,15
X021K20,694,experiment,60,←,left,←,0.7280285999877378,True,15
X021K20,695,experiment,180,→,right,→,0.5931673999875784,True,15
X021K20,696,experiment,180,←,right,→,0.7300121999869589,False,15
X021K20,697,experiment,120,←,left,←,0.7008749000087846,True,15
X021K20,698,experiment,96,↓,right,→,0.6982986999792047,False,15
X021K20,699,experiment,12,→,right,→,1.0366798000177369,True,15
X021K20,700,experiment,84,←,left,←,0.5978452999843284,True,15
X021K20,701,experiment,156,↓,left,←,0.8653285000182223,False,15
X021K20,702,experiment,168,→,right,→,0.6765034999989439,True,15
X021K20,703,experiment,24,→,right,→,0.6862394000054337,True,15
X021K20,704,experiment,180,←,right,→,0.8049184999836143,False,15
X021K20,705,experiment,84,↑,right,→,0.5883644999994431,False,15
X021K20,706,experiment,12,↓,down,↓,0.5739549999998417,True,15
X021K20,707,experiment,108,←,left,←,0.6216937000281177,True,15
X021K20,708,experiment,132,↓,up,↑,0.8588312999927439,False,15
X021K20,709,experiment,72,←,left,←,0.7884759999869857,True,15
X021K20,710,experiment,48,←,left,←,0.594065999990562,True,15
X021K20,711,experiment,156,↑,up,↑,0.5978776999982074,True,15
X021K20,712,experiment,120,↓,down,↓,0.5504340000043157,True,15
X021K20,713,experiment,72,↑,up,↑,0.6836262999859173,True,15
X021K20,714,experiment,36,→,right,→,0.539481199986767,True,15
X021K20,715,experiment,132,↑,up,↑,0.8004573999787681,True,15
X021K20,716,experiment,24,↓,down,↓,0.6964774999942165,True,15
X021K20,717,experiment,48,→,right,→,0.5516725000052247,True,15
X021K20,718,experiment,156,↑,up,↑,0.46325979998800904,True,15
X021K20,719,experiment,72,←,left,←,0.6667157999763731,True,15
X021K20,720,experiment,144,←,left,←,0.7471350000123493,True,15
X021K20,721,experiment,144,→,right,→,0.6473894999944605,True,15
X021K20,722,experiment,36,→,right,→,0.8114333999983501,True,15
X021K20,723,experiment,108,←,left,←,0.7860826999822166,True,15
X021K20,724,training,48,↑,left,←,0.9150541999842972,False,15
X021K20,725,training,132,←,right,→,0.9937466999981552,False,15
X021K20,726,training,84,↑,up,↑,0.4382443999929819,True,15
X021K20,727,experiment,96,→,right,→,0.8034544000111055,True,15
X021K20,728,experiment,12,→,left,←,1.2132739999797195,False,15
X021K20,729,experiment,36,→,right,→,0.4718519000161905,True,15
X021K20,730,experiment,144,→,right,→,1.3532005000161007,True,15
X021K20,731,experiment,84,→,right,→,0.44363069999963045,True,15
X021K20,732,experiment,156,↑,up,↑,0.6594513999880292,True,15
X021K20,733,experiment,48,→,right,→,0.46082490001572296,True,15
X021K20,734,experiment,48,↑,up,↑,0.42030689999228343,True,15
X021K20,735,experiment,36,↑,up,↑,0.6234683999791741,True,15
X021K20,736,experiment,108,←,left,←,0.886375300004147,True,15
X021K20,737,experiment,36,→,right,→,0.7738494999939576,True,15
X021K20,738,experiment,24,↓,down,↓,0.6794808999984525,True,15
X021K20,739,experiment,108,→,left,←,1.1591782000032254,False,15
X021K20,740,experiment,156,→,right,→,0.43741829998907633,True,15
X021K20,741,experiment,60,↑,up,↑,0.4420119000133127,True,15
X021K20,742,experiment,96,→,right,→,0.4570055000076536,True,15
X021K20,743,experiment,132,↓,down,↓,0.6395348999940325,True,15
X021K20,744,experiment,108,↓,down,↓,0.4774609000014607,True,15
X021K20,745,experiment,180,←,left,←,0.6212908999877982,True,15
X021K20,746,experiment,24,→,right,→,0.9515166000055615,True,15
X021K20,747,experiment,72,←,left,←,0.6876228000037372,True,15
X021K20,748,experiment,24,↓,down,↓,0.7250238000124227,True,15
X021K20,749,experiment,84,↓,down,↓,0.5565284000185784,True,15
X021K20,750,experiment,12,←,left,←,0.8186272000020836,True,15
X021K20,751,experiment,156,↓,down,↓,0.5173262000025716,True,15
X021K20,752,experiment,108,→,right,→,0.5287155999976676,True,15
X021K20,753,experiment,84,↑,up,↑,0.5846542000072077,True,15
X021K20,754,experiment,168,→,right,→,0.8423400000028778,True,15
X021K20,755,experiment,168,↓,right,→,0.7910186999943107,False,15
X021K20,756,experiment,60,←,left,←,0.6627948000095785,True,15
X021K20,757,experiment,60,←,left,←,0.6607674999977462,True,15
X021K20,758,experiment,180,←,left,←,0.7582008000172209,True,15
X021K20,759,experiment,120,→,right,→,0.5510448999993969,True,15
X021K20,760,experiment,12,→,left,←,0.8426559999934398,False,15
X021K20,761,experiment,84,←,left,←,0.6262803999998141,True,15
X021K20,762,experiment,180,→,right,→,0.5202373999927659,True,15
X021K20,763,experiment,96,→,right,→,0.6285842999932356,True,15
X021K20,764,experiment,12,→,right,→,0.4660947000083979,True,15
X021K20,765,experiment,156,→,right,→,0.6194563999888487,True,15
X021K20,766,experiment,168,↓,right,→,0.5840785999898799,False,15
X021K20,767,experiment,72,↑,right,→,0.518843800004106,False,15
X021K20,768,experiment,120,↓,left,←,0.7497047999931965,False,15
X021K20,769,experiment,120,→,right,→,0.6050625000207219,True,15
X021K20,770,experiment,96,←,left,←,0.6460334000003058,True,15
X021K20,771,experiment,24,↓,down,↓,0.8212197000102606,True,15
X021K20,772,experiment,144,→,left,←,0.8568793000013102,False,15
X021K20,773,experiment,72,↓,down,↓,0.5491137999924831,True,15
X021K20,774,experiment,132,↑,up,↑,1.1133617000014056,True,15
X021K20,775,experiment,180,↓,down,↓,0.8843064999964554,True,15
X021K20,776,experiment,72,↓,down,↓,0.5141211999871302,True,15
X021K20,777,experiment,120,←,left,←,0.7699995000148192,True,15
X021K20,778,experiment,132,↑,right,→,0.7873556999838911,False,15
X021K20,779,experiment,144,→,left,←,0.6766494000039529,False,15
X021K20,780,experiment,36,←,left,←,0.519515499996487,True,15
X021K20,781,experiment,144,↓,down,↓,0.587356899981387,True,15
X021K20,782,experiment,48,↑,down,↓,0.7300001000112388,False,15
X021K20,783,experiment,60,→,down,↓,0.7199315000034403,False,15
X021K20,784,experiment,132,↓,down,↓,0.5165143999911379,True,15
X021K20,785,experiment,48,↑,up,↑,0.5991670000075828,True,15
X021K20,786,experiment,168,↓,down,↓,0.4950783000094816,True,15
X021K20,787,training,180,←,left,←,0.6385755999945104,True,15
X021K20,788,training,60,↓,left,←,0.7813700000115205,False,15
X021K20,789,training,132,↑,left,←,1.0562929000006989,False,15
X021K20,790,experiment,12,↑,up,↑,0.8808735999919008,True,15
X021K20,791,experiment,36,←,left,←,0.744878500001505,True,15
X021K20,792,experiment,108,↑,up,↑,0.5941476000007242,True,15
X021K20,793,experiment,168,↑,up,↑,0.7521082000166643,True,15
X021K20,794,experiment,132,↓,down,↓,0.7435986000054982,True,15
X021K20,795,experiment,108,↓,up,↑,0.7309298000182025,False,15
X021K20,796,experiment,156,←,up,↑,0.671596900006989,False,15
X021K20,797,experiment,84,↑,up,↑,0.6901196999824606,True,15
X021K20,798,experiment,60,↑,up,↑,0.659882000007201,True,15
X021K20,799,experiment,120,←,left,←,0.8577589999767952,True,15
X021K20,800,experiment,168,←,left,←,0.6204535999859218,True,15
X021K20,801,experiment,144,→,right,→,0.9392104999860749,True,15
X021K20,802,experiment,180,←,left,←,0.6020691999874543,True,15
X021K20,803,experiment,120,←,left,←,0.601752500020666,True,15
X021K20,804,experiment,24,↑,left,←,0.9091489000129513,False,15
X021K20,805,experiment,84,↑,right,→,0.9743920000037178,False,15
X021K20,806,experiment,180,↓,down,↓,0.6973050000087824,True,15
X021K20,807,experiment,12,→,up,↑,0.7158380000037141,False,15
X021K20,808,experiment,96,→,up,↑,0.7576083000167273,False,15
X021K20,809,experiment,156,←,down,↓,0.8049777999985963,False,15
X021K20,810,experiment,144,←,left,←,0.6510558000009041,True,15
X021K20,811,experiment,108,↓,down,↓,0.7840670000005048,True,15
X021K20,812,experiment,168,↑,up,↑,0.46985970000969246,True,15
X021K20,813,experiment,72,←,down,↓,0.9599526000092737,False,15
X021K20,814,experiment,108,←,left,←,0.5849058000021614,True,15
X021K20,815,experiment,96,←,left,←,0.6829880999866873,True,15
X021K20,816,experiment,48,↑,up,↑,0.8665834999992512,True,15
X021K20,817,experiment,120,↑,up,↑,1.0499445999739692,True,15
X021K20,818,experiment,60,↓,down,↓,0.5756502999865916,True,15
X021K20,819,experiment,168,↓,down,↓,0.5578141000005417,True,15
X021K20,820,experiment,36,↑,up,↑,0.5357152999786194,True,15
X021K20,821,experiment,96,←,left,←,0.76343469999847,True,15
X021K20,822,experiment,144,→,right,→,0.7875639999983832,True,15
X021K20,823,experiment,24,↑,up,↑,0.4369406000187155,True,15
X021K20,824,experiment,60,→,right,→,0.7862753000226803,True,15
X021K20,825,experiment,180,→,right,→,0.4507401999726426,True,15
X021K20,826,experiment,72,↑,up,↑,0.5756149999797344,True,15
X021K20,827,experiment,132,↓,down,↓,0.587262599990936,True,15
X021K20,828,experiment,156,↓,right,→,0.9851465999963693,False,15
X021K20,829,experiment,72,↓,down,↓,0.5554132999968715,True,15
X021K20,830,experiment,48,↑,up,↑,0.6091882000037003,True,15
X021K20,831,experiment,120,↑,up,↑,0.635384499997599,True,15
X021K20,832,experiment,48,↑,up,↑,0.8547462999995332,True,15
X021K20,833,experiment,132,↑,up,↑,0.6581399999849964,True,15
X021K20,834,experiment,96,↓,down,↓,0.841379199991934,True,15
X021K20,835,experiment,144,↓,up,↑,0.6694198999903165,False,15
X021K20,836,experiment,12,↓,down,↓,0.5539713999896776,True,15
X021K20,837,experiment,24,↓,down,↓,0.6062398000212852,True,15
X021K20,838,experiment,12,→,right,→,0.7959171999827959,True,15
X021K20,839,experiment,48,↓,down,↓,0.4944455999939237,True,15
X021K20,840,experiment,24,↑,up,↑,1.1747818999865558,True,15
X021K20,841,experiment,36,←,left,←,0.5482846000231802,True,15
X021K20,842,experiment,72,↓,down,↓,0.7356369000044651,True,15
X021K20,843,experiment,84,↑,up,↑,0.6632856999931391,True,15
X021K20,844,experiment,180,→,right,→,0.716424599988386,True,15
X021K20,845,experiment,132,→,right,→,0.8395718000247143,True,15
X021K20,846,experiment,60,→,right,→,0.7798242999997456,True,15
X021K20,847,experiment,84,↓,down,↓,0.5091338000202086,True,15
X021K20,848,experiment,36,←,right,→,0.8339279000065289,False,15
X021K20,849,experiment,156,↑,up,↑,0.5843602999811992,True,15
