PART_ID,Trial_no,Trial_type,PDI,Stim_letter,Key_pressed,letter_choose,Rt,Corr,Stimulus Time
X025M20,1,training,10,←,no_key,no_letter,-1.0,False,30
X025M20,2,training,10,←,no_key,no_letter,-1.0,False,30
X025M20,3,training,10,↑,no_key,no_letter,-1.0,False,30
X025M20,4,training,10,→,right,→,1.0477436000364833,True,30
X025M20,5,training,10,→,right,→,1.0880840999889188,True,30
X025M20,6,training,10,←,left,←,1.0947978000040166,True,30
X025M20,7,training,10,←,left,←,1.3909361000405625,True,30
X025M20,8,training,10,↓,down,↓,1.1274479000130668,True,30
X025M20,9,training,10,↑,no_key,no_letter,-1.0,False,30
X025M20,10,training,10,←,left,←,0.8282118000206538,True,30
X025M20,11,training,10,↓,down,↓,0.8208689999883063,True,30
X025M20,12,training,10,↓,down,↓,0.6818172999774106,True,30
X025M20,13,training,10,←,left,←,0.7438684000517242,True,30
X025M20,14,training,10,↑,up,↑,0.7727509999531321,True,30
X025M20,15,training,10,↓,down,↓,1.3838363999966532,True,30
X025M20,16,training,10,↓,down,↓,1.1897165999980643,True,30
X025M20,17,training,10,→,right,→,0.7397384000360034,True,30
X025M20,18,training,10,↓,down,↓,0.5672884000232443,True,30
X025M20,19,training,10,→,right,→,0.5840367999626324,True,30
X025M20,20,training,10,↓,down,↓,0.7781931000063196,True,30
X025M20,21,training,10,←,left,←,0.726417500001844,True,18
X025M20,22,training,10,↓,down,↓,0.6537717999890447,True,18
X025M20,23,training,10,↑,up,↑,0.621776600019075,True,18
X025M20,24,training,10,↑,up,↑,0.7086390000185929,True,18
X025M20,25,training,10,→,right,→,0.5429346999735571,True,18
X025M20,26,training,10,→,right,→,0.5864318000385538,True,18
X025M20,27,training,10,↑,up,↑,0.6364938999759033,True,18
X025M20,28,training,10,↓,up,↑,0.47370840003713965,False,18
X025M20,29,training,10,↑,up,↑,0.6353830000152811,True,18
X025M20,30,training,10,↑,up,↑,0.5000476000132039,True,18
X025M20,31,training,60,→,left,←,0.4306769000249915,False,15
X025M20,32,training,156,←,left,←,0.6873921999940649,True,15
X025M20,33,training,168,←,right,→,0.7123573999851942,False,15
X025M20,34,experiment,156,↑,up,↑,0.6574681000201963,True,15
X025M20,35,experiment,72,↓,up,↑,0.9200580999604426,False,15
X025M20,36,experiment,84,→,up,↑,0.6949008000083268,False,15
X025M20,37,experiment,144,↑,up,↑,0.674693799985107,True,15
X025M20,38,experiment,36,→,right,→,0.6547718000365421,True,15
X025M20,39,experiment,108,←,up,↑,1.0963955000042915,False,15
X025M20,40,experiment,156,↑,up,↑,0.483786600001622,True,15
X025M20,41,experiment,96,→,right,→,0.6437648000428453,True,15
X025M20,42,experiment,48,←,left,←,0.7034126999787986,True,15
X025M20,43,experiment,60,←,left,←,0.6109505000058562,True,15
X025M20,44,experiment,168,→,right,→,0.5979266000213102,True,15
X025M20,45,experiment,12,←,right,→,0.818978600029368,False,15
X025M20,46,experiment,108,←,right,→,0.6202064999961294,False,15
X025M20,47,experiment,144,↑,left,←,0.9370743000181392,False,15
X025M20,48,experiment,24,←,right,→,0.705272999999579,False,15
X025M20,49,experiment,96,→,right,→,0.6820743000134826,True,15
X025M20,50,experiment,168,↑,up,↑,0.6186285000294447,True,15
X025M20,51,experiment,168,↓,down,↓,0.8574646000051871,True,15
X025M20,52,experiment,156,↓,down,↓,0.9271158999763429,True,15
X025M20,53,experiment,132,↑,up,↑,0.7651609000167809,True,15
X025M20,54,experiment,36,→,right,→,0.6398287999909371,True,15
X025M20,55,experiment,72,←,right,→,0.6566690999898128,False,15
X025M20,56,experiment,96,→,right,→,0.6499123999965377,True,15
X025M20,57,experiment,36,←,left,←,0.693858899991028,True,15
X025M20,58,experiment,132,↑,down,↓,0.8512493000016548,False,15
X025M20,59,experiment,72,→,right,→,0.5888732000021264,True,15
X025M20,60,experiment,36,←,left,←,0.8031340999878012,True,15
X025M20,61,experiment,120,↓,down,↓,0.8106538999709301,True,15
X025M20,62,experiment,60,↑,down,↓,0.8399758999585174,False,15
X025M20,63,experiment,48,↓,down,↓,0.6528849999886006,True,15
X025M20,64,experiment,120,↑,up,↑,0.6748444000259042,True,15
X025M20,65,experiment,24,↑,down,↓,0.8625070999842137,False,15
X025M20,66,experiment,132,←,left,←,1.245783600024879,True,15
X025M20,67,experiment,132,→,right,→,0.935173699981533,True,15
X025M20,68,experiment,24,↓,down,↓,0.7393808999913745,True,15
X025M20,69,experiment,156,←,left,←,0.7464175999630243,True,15
X025M20,70,experiment,84,→,left,←,1.023895199992694,False,15
X025M20,71,experiment,60,→,right,→,0.662303899996914,True,15
X025M20,72,experiment,48,→,right,→,0.6557816999848001,True,15
X025M20,73,experiment,12,←,left,←,0.6216977000003681,True,15
X025M20,74,experiment,108,→,right,→,0.5025948000256903,True,15
X025M20,75,experiment,48,←,left,←,0.6619918000069447,True,15
X025M20,76,experiment,96,→,right,→,0.730365699972026,True,15
X025M20,77,experiment,144,←,right,→,0.6163432999746874,False,15
X025M20,78,experiment,24,↑,left,←,0.7034465000033379,False,15
X025M20,79,experiment,180,↑,down,↓,0.834317899949383,False,15
X025M20,80,experiment,12,→,right,→,0.5432641999796033,True,15
X025M20,81,experiment,84,←,up,↑,0.3172876000171527,False,15
X025M20,82,experiment,108,←,right,→,0.8351094999816269,False,15
X025M20,83,experiment,72,→,left,←,0.6705318000167608,False,15
X025M20,84,experiment,180,→,right,→,0.6868318999768235,True,15
X025M20,85,experiment,60,←,left,←,0.47649719996843487,True,15
X025M20,86,experiment,12,→,right,→,0.8042035999824293,True,15
X025M20,87,experiment,84,→,left,←,0.8517599000479095,False,15
X025M20,88,experiment,168,↓,left,←,0.986038200033363,False,15
X025M20,89,experiment,180,←,left,←,0.6792729000444524,True,15
X025M20,90,experiment,120,←,left,←,0.8009243999840692,True,15
X025M20,91,experiment,144,↑,down,↓,0.7249313999782316,False,15
X025M20,92,experiment,120,↑,up,↑,0.9239072999916971,True,15
X025M20,93,experiment,180,↑,down,↓,1.2055526999756694,False,15
X025M20,94,training,168,→,right,→,0.6976828000042588,True,15
X025M20,95,training,108,↓,down,↓,0.578368499991484,True,15
X025M20,96,training,24,←,left,←,1.0924820000072941,True,15
X025M20,97,experiment,36,←,left,←,0.68446610000683,True,15
X025M20,98,experiment,60,←,left,←,0.66036440001335,True,15
X025M20,99,experiment,12,→,left,←,0.7174594000098296,False,15
X025M20,100,experiment,180,→,right,→,0.6904513000044972,True,15
X025M20,101,experiment,24,↑,up,↑,0.6340781000326388,True,15
X025M20,102,experiment,132,←,left,←,0.5074577000341378,True,15
X025M20,103,experiment,24,↑,up,↑,0.5033389999880455,True,15
X025M20,104,experiment,36,↑,up,↑,0.5806597000337206,True,15
X025M20,105,experiment,72,→,right,→,0.4642423000186682,True,15
X025M20,106,experiment,96,↓,down,↓,0.6004926000023261,True,15
X025M20,107,experiment,24,←,left,←,0.4641045999596827,True,15
X025M20,108,experiment,156,←,left,←,0.6535649999859743,True,15
X025M20,109,experiment,132,→,right,→,0.6560346999904141,True,15
X025M20,110,experiment,168,←,left,←,0.7132344000274315,True,15
X025M20,111,experiment,84,↓,down,↓,0.6568723999662325,True,15
X025M20,112,experiment,60,↑,up,↑,0.6294920000364073,True,15
X025M20,113,experiment,84,→,right,→,0.6269125000108033,True,15
X025M20,114,experiment,84,↓,down,↓,0.6531391000025906,True,15
X025M20,115,experiment,12,↑,down,↓,0.7583395999972709,False,15
X025M20,116,experiment,144,↑,up,↑,0.6279400999774225,True,15
X025M20,117,experiment,120,↓,down,↓,0.6691637999610975,True,15
X025M20,118,experiment,36,↓,down,↓,0.6537864999845624,True,15
X025M20,119,experiment,144,↑,up,↑,0.6009070000145584,True,15
X025M20,120,experiment,60,←,down,↓,0.6494437999790534,False,15
X025M20,121,experiment,156,↑,up,↑,0.6368328000535257,True,15
X025M20,122,experiment,156,→,down,↓,0.740208100003656,False,15
X025M20,123,experiment,144,↓,down,↓,0.6905321999802254,True,15
X025M20,124,experiment,48,↓,down,↓,0.6843324000365101,True,15
X025M20,125,experiment,48,↑,up,↑,0.42990330001339316,True,15
X025M20,126,experiment,48,↑,up,↑,0.661919400037732,True,15
X025M20,127,experiment,84,↓,down,↓,0.6218360000057146,True,15
X025M20,128,experiment,168,→,right,→,0.6069770000176504,True,15
X025M20,129,experiment,180,↓,down,↓,0.7222672000061721,True,15
X025M20,130,experiment,36,→,no_key,no_letter,-1.0,False,15
X025M20,131,experiment,168,←,left,←,0.8390186000033282,True,15
X025M20,132,experiment,120,↑,up,↑,0.6102399000083096,True,15
X025M20,133,experiment,120,↑,up,↑,0.5688831000006758,True,15
X025M20,134,experiment,132,↑,up,↑,0.5358148000086658,True,15
X025M20,135,experiment,180,↓,up,↑,0.6266539000207558,False,15
X025M20,136,experiment,108,→,right,→,0.5925739000085741,True,15
X025M20,137,experiment,96,↑,up,↑,0.5395157999591902,True,15
X025M20,138,experiment,144,↓,down,↓,0.8704753999481909,True,15
X025M20,139,experiment,96,→,right,→,0.930198400048539,True,15
X025M20,140,experiment,96,↓,down,↓,0.7094045000267215,True,15
X025M20,141,experiment,168,→,right,→,0.6551452999701723,True,15
X025M20,142,experiment,60,↑,down,↓,0.7728800000040792,False,15
X025M20,143,experiment,108,→,right,→,0.5611219000420533,True,15
X025M20,144,experiment,12,→,right,→,0.38359899999340996,True,15
X025M20,145,experiment,12,↑,up,↑,0.5034766999888234,True,15
X025M20,146,experiment,120,→,right,→,0.6816783000249416,True,15
X025M20,147,experiment,108,→,right,→,0.42781249998370185,True,15
X025M20,148,experiment,24,↓,up,↑,1.1099601999740116,False,15
X025M20,149,experiment,72,↑,up,↑,0.5696672000340186,True,15
X025M20,150,experiment,132,↑,up,↑,0.46476880001137033,True,15
X025M20,151,experiment,72,←,left,←,0.6873948000138626,True,15
X025M20,152,experiment,48,→,up,↑,0.7655145000317134,False,15
X025M20,153,experiment,72,→,right,→,0.47672289999900386,True,15
X025M20,154,experiment,180,→,up,↑,0.7369637999800034,False,15
X025M20,155,experiment,156,↑,up,↑,0.9446566999540664,True,15
X025M20,156,experiment,108,↓,up,↑,0.6787382999900728,False,15
X025M20,157,training,12,↓,up,↑,0.7980227000080049,False,15
X025M20,158,training,72,←,right,→,0.5150124999927357,False,15
X025M20,159,training,24,→,right,→,0.6037478999933228,True,15
X025M20,160,experiment,144,←,left,←,0.5180073999799788,True,15
X025M20,161,experiment,84,→,right,→,0.6195756999659352,True,15
X025M20,162,experiment,180,←,left,←,0.7521845999872312,True,15
X025M20,163,experiment,72,←,right,→,0.6554815000272356,False,15
X025M20,164,experiment,96,←,left,←,0.7042708999942988,True,15
X025M20,165,experiment,24,↑,up,↑,0.5743170999921858,True,15
X025M20,166,experiment,72,←,left,←,0.5675708999624476,True,15
X025M20,167,experiment,168,→,right,→,0.56223639997188,True,15
X025M20,168,experiment,144,←,left,←,0.4552527999621816,True,15
X025M20,169,experiment,36,↑,up,↑,0.5177948999917135,True,15
X025M20,170,experiment,48,→,left,←,0.5927600000286475,False,15
X025M20,171,experiment,72,→,right,→,0.5852132000145502,True,15
X025M20,172,experiment,60,→,right,→,0.5944514999864623,True,15
X025M20,173,experiment,168,↑,up,↑,0.6112603000365198,True,15
X025M20,174,experiment,36,↓,right,→,0.665783200005535,False,15
X025M20,175,experiment,144,→,right,→,0.5675945999682881,True,15
X025M20,176,experiment,24,→,right,→,0.5066606000182219,True,15
X025M20,177,experiment,108,↓,up,↑,0.48721890000160784,False,15
X025M20,178,experiment,12,↓,up,↑,0.5316767999902368,False,15
X025M20,179,experiment,96,↑,up,↑,0.4256816999986768,True,15
X025M20,180,experiment,168,↑,up,↑,0.5827584000071511,True,15
X025M20,181,experiment,108,←,right,→,0.6006339000305161,False,15
X025M20,182,experiment,180,↑,up,↑,0.5030776999774389,True,15
X025M20,183,experiment,132,→,right,→,0.5327193000121042,True,15
X025M20,184,experiment,48,↓,up,↑,0.505062399955932,False,15
X025M20,185,experiment,132,→,up,↑,0.7913784999982454,False,15
X025M20,186,experiment,156,↑,up,↑,0.5226876999950036,True,15
X025M20,187,experiment,156,→,up,↑,0.8900240000220947,False,15
X025M20,188,experiment,120,←,up,↑,0.6449037999846041,False,15
X025M20,189,experiment,156,→,no_key,no_letter,-1.0,False,15
X025M20,190,experiment,12,→,right,→,0.74157529999502,True,15
X025M20,191,experiment,72,←,left,←,0.7536745999823324,True,15
X025M20,192,experiment,120,↓,up,↑,0.5871893999865279,False,15
X025M20,193,experiment,84,→,right,→,0.5570250999880955,True,15
X025M20,194,experiment,156,↓,down,↓,0.7615772999706678,True,15
X025M20,195,experiment,96,←,left,←,0.6615453000413254,True,15
X025M20,196,experiment,48,←,right,→,0.7108559999614954,False,15
X025M20,197,experiment,24,↑,no_key,no_letter,-1.0,False,15
X025M20,198,experiment,108,↑,left,←,1.0840555999893695,False,15
X025M20,199,experiment,96,↑,down,↓,0.7251509999623522,False,15
X025M20,200,experiment,36,→,right,→,0.4468302000313997,True,15
X025M20,201,experiment,84,→,down,↓,1.0600937000126578,False,15
X025M20,202,experiment,12,↓,right,→,0.9004257000051439,False,15
X025M20,203,experiment,12,→,left,←,0.7380687999539077,False,15
X025M20,204,experiment,60,↑,up,↑,0.42281020001973957,True,15
X025M20,205,experiment,132,↑,down,↓,0.8215324999764562,False,15
X025M20,206,experiment,48,→,right,→,0.6031068000011146,True,15
X025M20,207,experiment,120,↑,up,↑,0.6158170999842696,True,15
X025M20,208,experiment,24,→,right,→,0.5786538000102155,True,15
X025M20,209,experiment,168,↑,down,↓,1.0180019999970682,False,15
X025M20,210,experiment,120,←,right,→,0.6301527000032365,False,15
X025M20,211,experiment,84,→,right,→,0.6478262000018731,True,15
X025M20,212,experiment,180,↑,up,↑,0.5501580000272952,True,15
X025M20,213,experiment,60,→,right,→,1.567351600038819,True,15
X025M20,214,experiment,132,↓,up,↑,0.7984258999931626,False,15
X025M20,215,experiment,36,↑,up,↑,0.6041801000246778,True,15
X025M20,216,experiment,180,→,right,→,0.7659816999803297,True,15
X025M20,217,experiment,108,↓,down,↓,0.4886610000394285,True,15
X025M20,218,experiment,144,←,right,→,0.6770694999722764,False,15
X025M20,219,experiment,60,←,right,→,0.5112503999844193,False,15
X025M20,220,training,120,→,right,→,0.6166520999977365,True,16
X025M20,221,training,96,↓,down,↓,0.5984831000096165,True,16
X025M20,222,training,12,↑,up,↑,0.6119830000097863,True,16
X025M20,223,experiment,108,↑,up,↑,0.7260276000015438,True,16
X025M20,224,experiment,120,↑,up,↑,0.5618476999807172,True,16
X025M20,225,experiment,168,↑,up,↑,0.6074893999611959,True,16
X025M20,226,experiment,48,→,right,→,0.584706699999515,True,16
X025M20,227,experiment,156,↑,up,↑,0.554346600023564,True,16
X025M20,228,experiment,180,↑,up,↑,0.517088100023102,True,16
X025M20,229,experiment,12,↑,left,←,0.8298162000137381,False,16
X025M20,230,experiment,48,↑,up,↑,0.4940091000171378,True,16
X025M20,231,experiment,108,→,right,→,1.674355800030753,True,16
X025M20,232,experiment,156,↓,down,↓,0.7710508999880403,True,16
X025M20,233,experiment,84,↓,down,↓,0.599670999974478,True,16
X025M20,234,experiment,72,→,left,←,0.7885148999630474,False,16
X025M20,235,experiment,36,↑,up,↑,0.6539085999829695,True,16
X025M20,236,experiment,180,↓,down,↓,0.6828902999986894,True,16
X025M20,237,experiment,60,←,left,←,0.6994117999565788,True,16
X025M20,238,experiment,72,↑,up,↑,0.7168724000221118,True,16
X025M20,239,experiment,12,↓,down,↓,1.036331799987238,True,16
X025M20,240,experiment,48,↑,up,↑,0.6103843000018969,True,16
X025M20,241,experiment,60,↓,down,↓,0.6526042000041343,True,16
X025M20,242,experiment,24,←,left,←,0.6996581999701448,True,16
X025M20,243,experiment,132,→,right,→,0.5748003000044264,True,16
X025M20,244,experiment,24,←,left,←,0.6025900999666192,True,16
X025M20,245,experiment,72,→,right,→,0.688848500023596,True,16
X025M20,246,experiment,144,↓,up,↑,0.5709412999567576,False,16
X025M20,247,experiment,12,←,up,↑,1.3070940999896266,False,16
X025M20,248,experiment,168,←,left,←,0.6592331000138074,True,16
X025M20,249,experiment,84,→,right,→,0.6126516999793239,True,16
X025M20,250,experiment,120,→,right,→,0.6217733999947086,True,16
X025M20,251,experiment,96,↓,down,↓,0.6835002000443637,True,16
X025M20,252,experiment,24,↑,up,↑,0.6287967000389472,True,16
X025M20,253,experiment,96,→,left,←,0.5695861999993213,False,16
X025M20,254,experiment,132,↓,down,↓,0.7083585999789648,True,16
X025M20,255,experiment,168,←,right,→,0.550441499974113,False,16
X025M20,256,experiment,144,↓,down,↓,0.8017687000101432,True,16
X025M20,257,experiment,108,←,left,←,0.6618840000010096,True,16
X025M20,258,experiment,36,↑,up,↑,0.6196983000263572,True,16
X025M20,259,experiment,84,↑,down,↓,0.6046775999711826,False,16
X025M20,260,experiment,144,↓,down,↓,0.7065654000034556,True,16
X025M20,261,experiment,144,→,right,→,0.6195319999824278,True,16
X025M20,262,experiment,120,←,left,←,0.5836183999781497,True,16
X025M20,263,experiment,96,→,right,→,0.6212314000003971,True,16
X025M20,264,experiment,180,←,left,←,0.7270200999919325,True,16
X025M20,265,experiment,36,↑,right,→,0.530273100011982,False,16
X025M20,266,experiment,180,↓,down,↓,0.6272796000121161,True,16
X025M20,267,experiment,36,↓,down,↓,0.5567287000012584,True,16
X025M20,268,experiment,156,→,right,→,0.583021699974779,True,16
X025M20,269,experiment,72,←,left,←,0.6335714000160806,True,16
X025M20,270,experiment,120,↑,down,↓,0.8082747000153176,False,16
X025M20,271,experiment,96,→,right,→,0.7034455999964848,True,16
X025M20,272,experiment,24,↑,right,→,1.2294067000038922,False,16
X025M20,273,experiment,60,↑,up,↑,0.8203532000188716,True,16
X025M20,274,experiment,48,↓,down,↓,0.6043296999996528,True,16
X025M20,275,experiment,168,→,up,↑,0.779792700021062,False,16
X025M20,276,experiment,132,→,up,↑,1.1520675999927334,False,16
X025M20,277,experiment,132,←,left,←,0.52781810000306,True,16
X025M20,278,experiment,60,↓,down,↓,0.6839534000027925,True,16
X025M20,279,experiment,108,↓,down,↓,0.7252138000330888,True,16
X025M20,280,experiment,156,↑,down,↓,0.7581910000299104,False,16
X025M20,281,experiment,12,→,right,→,0.5389354999642819,True,16
X025M20,282,experiment,84,↑,down,↓,0.5861640999792144,False,16
X025M20,283,training,96,←,left,←,0.5158025000127964,True,16
X025M20,284,training,36,→,right,→,0.5321648000390269,True,16
X025M20,285,training,84,←,right,→,0.48535710002761334,False,16
X025M20,286,experiment,156,↓,down,↓,0.6710693999775685,True,16
X025M20,287,experiment,96,↑,up,↑,0.9422685000463389,True,16
X025M20,288,experiment,48,↓,up,↑,0.7465228000073694,False,16
X025M20,289,experiment,168,↑,up,↑,0.8013803999638185,True,16
X025M20,290,experiment,156,→,left,←,0.5776564999832772,False,16
X025M20,291,experiment,180,→,right,→,0.9791093000094406,True,16
X025M20,292,experiment,168,→,up,↑,0.9827056999783963,False,16
X025M20,293,experiment,132,↑,up,↑,0.7228695999947377,True,16
X025M20,294,experiment,144,←,down,↓,0.8998472000239417,False,16
X025M20,295,experiment,120,↑,left,←,0.7924382000346668,False,16
X025M20,296,experiment,108,↓,right,→,0.9051325999898836,False,16
X025M20,297,experiment,120,↓,down,↓,0.8584221000201069,True,16
X025M20,298,experiment,180,↓,down,↓,0.48370809998596087,True,16
X025M20,299,experiment,24,←,left,←,0.5273483999771997,True,16
X025M20,300,experiment,36,↑,up,↑,0.40090250002685934,True,16
X025M20,301,experiment,132,↓,down,↓,0.7616997999721207,True,16
X025M20,302,experiment,24,←,left,←,0.5391970999771729,True,16
X025M20,303,experiment,168,←,left,←,0.6295081999851391,True,16
X025M20,304,experiment,24,←,left,←,1.3126121000386775,True,16
X025M20,305,experiment,84,↓,down,↓,0.5784309000009671,True,16
X025M20,306,experiment,12,↑,left,←,0.9953707999666221,False,16
X025M20,307,experiment,120,↑,right,→,0.6312927000108175,False,16
X025M20,308,experiment,180,↑,up,↑,0.9789098000037484,True,16
X025M20,309,experiment,12,←,up,↑,1.0150020999717526,False,16
X025M20,310,experiment,144,←,left,←,0.44423089997144416,True,16
X025M20,311,experiment,120,↑,down,↓,0.7621666000341065,False,16
X025M20,312,experiment,72,↓,up,↑,0.8170423999545164,False,16
X025M20,313,experiment,72,↓,down,↓,0.582528300001286,True,16
X025M20,314,experiment,132,↓,down,↓,0.4600635999813676,True,16
X025M20,315,experiment,108,↑,up,↑,0.5379626000067219,True,16
X025M20,316,experiment,96,←,left,←,0.5951360000181012,True,16
X025M20,317,experiment,24,↓,right,→,0.9789281000266783,False,16
X025M20,318,experiment,48,→,right,→,0.6095172999775968,True,16
X025M20,319,experiment,36,↑,up,↑,0.8144051999552175,True,16
X025M20,320,experiment,36,→,left,←,1.2305978999938816,False,16
X025M20,321,experiment,180,↑,down,↓,0.9851372000412084,False,16
X025M20,322,experiment,144,←,up,↑,0.8362231000210159,False,16
X025M20,323,experiment,60,↑,up,↑,0.7947271000011824,True,16
X025M20,324,experiment,108,↓,down,↓,0.8180682999663986,True,16
X025M20,325,experiment,36,↑,up,↑,0.5626287999912165,True,16
X025M20,326,experiment,60,←,right,→,0.8007954999920912,False,16
X025M20,327,experiment,96,↑,up,↑,0.5849493999849074,True,16
X025M20,328,experiment,60,←,down,↓,1.0669314000406303,False,16
X025M20,329,experiment,12,↓,up,↑,0.9233992000226863,False,16
X025M20,330,experiment,168,←,left,←,0.4550908000092022,True,16
X025M20,331,experiment,84,→,right,→,0.46776490000775084,True,16
X025M20,332,experiment,72,↓,down,↓,0.7184451000066474,True,16
X025M20,333,experiment,72,↓,up,↑,1.1036397999851033,False,16
X025M20,334,experiment,84,←,down,↓,0.717654499982018,False,16
X025M20,335,experiment,60,↓,down,↓,0.7791122999624349,True,16
X025M20,336,experiment,48,↑,up,↑,0.7998090999899432,True,16
X025M20,337,experiment,156,↑,down,↓,0.6435297999996692,False,16
X025M20,338,experiment,84,→,right,→,0.5607689000316896,True,16
X025M20,339,experiment,132,↑,up,↑,0.6339286000002176,True,16
X025M20,340,experiment,108,↓,down,↓,0.5462648999528028,True,16
X025M20,341,experiment,96,←,down,↓,0.624126199982129,False,16
X025M20,342,experiment,48,↑,left,←,0.6050145999761298,False,16
X025M20,343,experiment,12,←,right,→,0.6109121000044979,False,16
X025M20,344,experiment,156,→,right,→,0.8083753999671899,True,16
X025M20,345,experiment,144,↓,down,↓,0.6698693000362255,True,16
X025M20,346,training,96,→,right,→,0.5038099999655969,True,16
X025M20,347,training,168,↑,down,↓,0.5574346000212245,False,16
X025M20,348,training,12,←,down,↓,0.4920439000125043,False,16
X025M20,349,experiment,48,←,left,←,0.4456046999548562,True,16
X025M20,350,experiment,132,↓,up,↑,0.51261010003509,False,16
X025M20,351,experiment,60,→,left,←,0.7442533999565057,False,16
X025M20,352,experiment,84,↓,up,↑,0.4955794000416063,False,16
X025M20,353,experiment,60,↓,down,↓,1.0115526000154205,True,16
X025M20,354,experiment,156,↓,down,↓,0.5458823000080884,True,16
X025M20,355,experiment,168,←,left,←,0.7951344000175595,True,16
X025M20,356,experiment,48,←,left,←,0.611166599963326,True,16
X025M20,357,experiment,72,↑,up,↑,0.6207862999872304,True,16
X025M20,358,experiment,84,↓,down,↓,0.8772178000072017,True,16
X025M20,359,experiment,24,→,right,→,0.6850493000238203,True,16
X025M20,360,experiment,24,←,left,←,0.6016939000110142,True,16
X025M20,361,experiment,60,→,right,→,0.4596912000561133,True,16
X025M20,362,experiment,120,←,left,←,0.7319677000050433,True,16
X025M20,363,experiment,48,↓,down,↓,0.6895635999972001,True,16
X025M20,364,experiment,156,←,right,→,0.8075488000176847,False,16
X025M20,365,experiment,108,↑,up,↑,0.7098073999513872,True,16
X025M20,366,experiment,12,↓,down,↓,0.7958320999750867,True,16
X025M20,367,experiment,96,↑,up,↑,0.6858455000328831,True,16
X025M20,368,experiment,180,→,right,→,0.5644038000027649,True,16
X025M20,369,experiment,36,↓,down,↓,0.5942810999695212,True,16
X025M20,370,experiment,12,→,up,↑,1.0379893999779597,False,16
X025M20,371,experiment,180,↑,up,↑,1.6752687999978662,True,16
X025M20,372,experiment,12,←,right,→,0.5924036999931559,False,16
X025M20,373,experiment,120,→,left,←,0.610333000018727,False,16
X025M20,374,experiment,36,↓,up,↑,0.7925916999811307,False,16
X025M20,375,experiment,36,↓,up,↑,0.6572430999949574,False,16
X025M20,376,experiment,36,→,up,↑,1.861491699994076,False,16
X025M20,377,experiment,156,↑,up,↑,0.500393999973312,True,16
X025M20,378,experiment,180,↓,up,↑,0.5267715000081807,False,16
X025M20,379,experiment,144,←,left,←,0.5547839000355452,True,16
X025M20,380,experiment,24,←,left,←,0.5428835999919102,True,16
X025M20,381,experiment,96,←,left,←,0.4377326999674551,True,16
X025M20,382,experiment,180,↑,up,↑,0.5244595999829471,True,16
X025M20,383,experiment,84,→,right,→,0.5920134000480175,True,16
X025M20,384,experiment,96,→,left,←,0.5489628000068478,False,16
X025M20,385,experiment,72,→,right,→,0.5132008999935351,True,16
X025M20,386,experiment,144,↑,up,↑,0.5072885999688879,True,16
X025M20,387,experiment,144,↑,up,↑,0.4520245000021532,True,16
X025M20,388,experiment,60,←,right,→,0.6333851999952458,False,16
X025M20,389,experiment,168,→,right,→,0.31740679999347776,True,16
X025M20,390,experiment,156,→,right,→,0.38398500002222136,True,16
X025M20,391,experiment,132,←,left,←,0.4363895000424236,True,16
X025M20,392,experiment,84,↑,up,↑,0.4815886999713257,True,16
X025M20,393,experiment,144,↓,right,→,0.3333112999680452,False,16
X025M20,394,experiment,168,→,right,→,0.514700100000482,True,16
X025M20,395,experiment,132,↑,right,→,0.333792999968864,False,16
X025M20,396,experiment,120,→,right,→,0.544756600051187,True,16
X025M20,397,experiment,48,↑,down,↓,0.5356128999846987,False,16
X025M20,398,experiment,96,←,left,←,0.5194693999947049,True,16
X025M20,399,experiment,72,→,right,→,0.597361899970565,True,16
X025M20,400,experiment,24,→,right,→,0.4524125999887474,True,16
X025M20,401,experiment,108,↑,down,↓,0.6966608000220731,False,16
X025M20,402,experiment,120,↑,up,↑,0.6021039999905042,True,16
X025M20,403,experiment,108,↓,up,↑,0.3837604000000283,False,16
X025M20,404,experiment,12,↑,up,↑,0.6303372000111267,True,16
X025M20,405,experiment,132,←,right,→,0.9098563000443392,False,16
X025M20,406,experiment,72,↓,down,↓,0.6455510000232607,True,16
X025M20,407,experiment,168,↓,up,↑,0.5551137999864295,False,16
X025M20,408,experiment,108,←,up,↑,0.5827893999521621,False,16
X025M20,409,training,108,←,left,←,0.3838619000161998,True,16
X025M20,410,training,156,↑,up,↑,0.6091052000410855,True,16
X025M20,411,training,144,↑,up,↑,0.5716679999604821,True,16
X025M20,412,experiment,144,↑,up,↑,0.3669530000188388,True,16
X025M20,413,experiment,180,↓,down,↓,0.717551999958232,True,16
X025M20,414,experiment,180,→,right,→,0.5355131999822333,True,16
X025M20,415,experiment,12,↓,down,↓,0.5846542000072077,True,16
X025M20,416,experiment,60,→,right,→,0.8067971999989823,True,16
X025M20,417,experiment,84,←,left,←,0.5924410999868996,True,16
X025M20,418,experiment,120,↓,up,↑,0.5828071000287309,False,16
X025M20,419,experiment,168,↓,down,↓,0.6452926999772899,True,16
X025M20,420,experiment,60,→,right,→,0.6962651000358164,True,16
X025M20,421,experiment,132,←,down,↓,0.6653480000095442,False,16
X025M20,422,experiment,132,→,right,→,1.0444332999759354,True,16
X025M20,423,experiment,24,↑,up,↑,0.59669199999189,True,16
X025M20,424,experiment,96,↑,up,↑,0.7801384999766015,True,16
X025M20,425,experiment,12,↑,up,↑,1.3147756999824196,True,16
X025M20,426,experiment,36,↓,up,↑,0.44089440000243485,False,16
X025M20,427,experiment,144,↓,up,↑,0.6948319999501109,False,16
X025M20,428,experiment,120,↑,up,↑,0.6753017999581061,True,16
X025M20,429,experiment,24,↓,down,↓,1.1249726000241935,True,16
X025M20,430,experiment,12,←,left,←,0.5492793999728747,True,16
X025M20,431,experiment,84,↑,up,↑,0.3835644999635406,True,16
X025M20,432,experiment,24,←,left,←,0.9225283999694511,True,16
X025M20,433,experiment,156,→,right,→,0.7094856000039726,True,16
X025M20,434,experiment,48,↑,up,↑,0.5654099999810569,True,16
X025M20,435,experiment,180,→,right,→,0.6735195000073873,True,16
X025M20,436,experiment,96,↑,up,↑,0.5665245999698527,True,16
X025M20,437,experiment,108,↓,up,↑,0.6611103999894112,False,16
X025M20,438,experiment,72,↓,up,↑,0.5740041000535712,False,16
X025M20,439,experiment,120,←,down,↓,0.7040846000309102,False,16
X025M20,440,experiment,96,←,left,←,0.5482511000009254,True,16
X025M20,441,experiment,60,↑,up,↑,0.9233282000059262,True,16
X025M20,442,experiment,144,→,right,→,0.5051765000098385,True,16
X025M20,443,experiment,132,↑,up,↑,0.7986737999599427,True,16
X025M20,444,experiment,108,↑,down,↓,0.7898597000166774,False,16
X025M20,445,experiment,120,←,left,←,0.4996608000365086,True,16
X025M20,446,experiment,48,←,left,←,0.7031866000033915,True,16
X025M20,447,experiment,168,↑,up,↑,0.843175699992571,True,16
X025M20,448,experiment,36,↑,up,↑,0.5413284000242129,True,16
X025M20,449,experiment,156,→,right,→,0.6535953999846242,True,16
X025M20,450,experiment,24,←,left,←,0.8466068999841809,True,16
X025M20,451,experiment,72,→,right,→,0.5901513999560848,True,16
X025M20,452,experiment,144,↓,down,↓,0.6334621999994852,True,16
X025M20,453,experiment,96,←,left,←,0.8016642000293359,True,16
X025M20,454,experiment,36,↑,no_key,no_letter,-1.0,False,16
X025M20,455,experiment,72,↓,down,↓,0.7336279999581166,True,16
X025M20,456,experiment,36,→,right,→,0.6967016000417061,True,16
X025M20,457,experiment,48,↑,up,↑,0.6243679000181146,True,16
X025M20,458,experiment,48,↑,down,↓,0.6788285999791697,False,16
X025M20,459,experiment,168,←,left,←,0.6501682000234723,True,16
X025M20,460,experiment,180,→,right,→,0.6953571999911219,True,16
X025M20,461,experiment,84,↑,up,↑,0.8413086999789812,True,16
X025M20,462,experiment,132,←,left,←,0.5876526000211015,True,16
X025M20,463,experiment,108,←,right,→,0.6441965000121854,False,16
X025M20,464,experiment,156,↑,up,↑,0.5037114999722689,True,16
X025M20,465,experiment,168,←,left,←,0.6863291000481695,True,16
X025M20,466,experiment,60,→,up,↑,1.1786675999755971,False,16
X025M20,467,experiment,72,→,right,→,0.6298024999559857,True,16
X025M20,468,experiment,12,↓,up,↑,0.6451486999867484,False,16
X025M20,469,experiment,84,←,down,↓,0.9963467000052333,False,16
X025M20,470,experiment,156,←,left,←,0.8940883000032045,True,16
X025M20,471,experiment,108,←,up,↑,0.7170001000049524,False,16
X025M20,472,training,60,↑,up,↑,0.4874802000122145,True,16
X025M20,473,training,168,↓,down,↓,0.7036899000522681,True,16
X025M20,474,training,60,←,left,←,0.6389348999946378,True,16
X025M20,475,experiment,84,↑,up,↑,0.5336486999876797,True,16
X025M20,476,experiment,72,→,right,→,0.6125885000219569,True,16
X025M20,477,experiment,60,←,left,←,0.6059041999978945,True,16
X025M20,478,experiment,120,↑,up,↑,1.253291100030765,True,16
X025M20,479,experiment,144,→,right,→,0.5315553999971598,True,16
X025M20,480,experiment,36,↑,up,↑,0.6159175000502728,True,16
X025M20,481,experiment,168,→,right,→,0.3846008999971673,True,16
X025M20,482,experiment,156,↓,down,↓,0.6792281999951228,True,16
X025M20,483,experiment,168,↓,up,↑,0.4002651000046171,False,16
X025M20,484,experiment,120,↑,up,↑,0.6033170999726281,True,16
X025M20,485,experiment,12,↑,down,↓,1.382722299953457,False,16
X025M20,486,experiment,24,←,left,←,0.4755765000008978,True,16
X025M20,487,experiment,84,↓,down,↓,0.7268945999676362,True,16
X025M20,488,experiment,96,↓,down,↓,0.7166935999994166,True,16
X025M20,489,experiment,96,←,left,←,0.5938447000226006,True,16
X025M20,490,experiment,156,→,down,↓,0.6110198000096716,False,16
X025M20,491,experiment,60,←,left,←,0.6459927000105381,True,16
X025M20,492,experiment,108,←,right,→,0.5403316999436356,False,16
X025M20,493,experiment,60,↓,down,↓,0.5174574999837205,True,16
X025M20,494,experiment,180,↑,up,↑,0.7678666000138037,True,16
X025M20,495,experiment,12,→,right,→,0.5421149000176229,True,16
X025M20,496,experiment,48,↑,down,↓,0.49890659999800846,False,16
X025M20,497,experiment,24,←,right,→,0.46125629998277873,False,16
X025M20,498,experiment,12,←,left,←,0.637176799995359,True,16
X025M20,499,experiment,48,←,down,↓,0.9443942999932915,False,16
X025M20,500,experiment,72,↑,up,↑,0.8476064999704249,True,16
X025M20,501,experiment,36,→,right,→,0.5193277000216767,True,16
X025M20,502,experiment,12,←,down,↓,0.9543382999836467,False,16
X025M20,503,experiment,36,↓,up,↑,0.7655183000024408,False,16
X025M20,504,experiment,96,→,right,→,0.4746646999847144,True,16
X025M20,505,experiment,156,↓,down,↓,0.5586956000188366,True,16
X025M20,506,experiment,108,↑,down,↓,0.7043684999807738,False,16
X025M20,507,experiment,180,→,right,→,0.5918918999959715,True,16
X025M20,508,experiment,180,↓,down,↓,0.48033059999579564,True,16
X025M20,509,experiment,132,←,right,→,0.5961930999765173,False,16
X025M20,510,experiment,24,→,right,→,0.5445133000030182,True,16
X025M20,511,experiment,156,↓,down,↓,0.5487405000021681,True,16
X025M20,512,experiment,84,↓,down,↓,0.40060120000271127,True,16
X025M20,513,experiment,108,↑,left,←,0.4781088999588974,False,16
X025M20,514,experiment,84,→,down,↓,0.5707659000181593,False,16
X025M20,515,experiment,24,↓,right,→,0.9548455000040121,False,16
X025M20,516,experiment,132,↑,up,↑,0.45012819999828935,True,16
X025M20,517,experiment,132,←,left,←,0.7357812999980524,True,16
X025M20,518,experiment,48,↑,down,↓,0.5595736000104807,False,16
X025M20,519,experiment,36,→,down,↓,0.684441700053867,False,16
X025M20,520,experiment,120,←,down,↓,0.6100948000093922,False,16
X025M20,521,experiment,72,→,right,→,0.6688065999769606,True,16
X025M20,522,experiment,180,↑,up,↑,0.509427200013306,True,16
X025M20,523,experiment,60,←,right,→,0.7652552999788895,False,16
X025M20,524,experiment,72,←,right,→,0.4511485999682918,False,16
X025M20,525,experiment,144,↓,left,←,0.6498689000145532,False,16
X025M20,526,experiment,96,→,right,→,0.43577370001003146,True,16
X025M20,527,experiment,120,↓,down,↓,0.48750879999715835,True,16
X025M20,528,experiment,168,←,left,←,0.6737763999844901,True,16
X025M20,529,experiment,132,↓,down,↓,0.595738000003621,True,16
X025M20,530,experiment,144,→,right,→,0.556698200001847,True,16
X025M20,531,experiment,168,↓,down,↓,0.636895099945832,True,16
X025M20,532,experiment,48,→,right,→,0.6125193000189029,True,16
X025M20,533,experiment,144,←,left,←,0.4903865000233054,True,16
X025M20,534,experiment,108,↑,down,↓,0.9580346000147983,False,16
X025M20,535,training,108,↓,down,↓,0.7490114999818616,True,16
X025M20,536,training,168,↓,down,↓,0.575181899999734,True,16
X025M20,537,training,72,←,left,←,0.6115359999821521,True,16
X025M20,538,experiment,144,↑,up,↑,0.5156674000318162,True,16
X025M20,539,experiment,84,←,up,↑,0.45711540000047535,False,16
X025M20,540,experiment,60,↑,up,↑,0.6976538000162691,True,16
X025M20,541,experiment,72,←,down,↓,1.0158220000448637,False,16
X025M20,542,experiment,24,↓,up,↑,0.601501900004223,False,16
X025M20,543,experiment,156,←,left,←,0.5080524999648333,True,16
X025M20,544,experiment,12,→,up,↑,0.9153794000158086,False,16
X025M20,545,experiment,96,→,right,→,1.3556202999898233,True,16
X025M20,546,experiment,84,←,left,←,0.5016629000310786,True,16
X025M20,547,experiment,36,→,right,→,0.8633916000253521,True,16
X025M20,548,experiment,60,←,up,↑,0.9594455000478774,False,16
X025M20,549,experiment,60,←,right,→,0.7906988999457099,False,16
X025M20,550,experiment,120,↓,up,↑,0.7713988999603316,False,16
X025M20,551,experiment,48,←,left,←,0.4716158999945037,True,16
X025M20,552,experiment,84,→,down,↓,0.9970220999675803,False,16
X025M20,553,experiment,132,↓,down,↓,0.73870619997615,True,16
X025M20,554,experiment,96,↑,down,↓,0.7011842000065371,False,16
X025M20,555,experiment,36,↑,down,↓,0.7670869000139646,False,16
X025M20,556,experiment,108,↑,down,↓,0.6299937999574468,False,16
X025M20,557,experiment,96,→,right,→,0.6115821999846958,True,16
X025M20,558,experiment,180,↑,down,↓,0.5473861999926157,False,16
X025M20,559,experiment,96,↑,up,↑,0.5798654000391252,True,16
X025M20,560,experiment,24,↑,up,↑,0.6279003999661654,True,16
X025M20,561,experiment,48,→,right,→,0.5787342999828979,True,16
X025M20,562,experiment,108,→,right,→,0.5379001999972388,True,16
X025M20,563,experiment,144,↑,up,↑,0.7584325000061654,True,16
X025M20,564,experiment,132,↓,up,↑,0.5442442999919876,False,16
X025M20,565,experiment,156,↓,down,↓,0.619980100018438,True,16
X025M20,566,experiment,72,↓,up,↑,0.7119811000302434,False,16
X025M20,567,experiment,36,←,up,↑,1.4393680999637581,False,16
X025M20,568,experiment,168,↓,down,↓,0.6421762999962084,True,16
X025M20,569,experiment,120,↑,down,↓,0.5981527999974787,False,16
X025M20,570,experiment,168,←,down,↓,1.3163642999716103,False,16
X025M20,571,experiment,120,→,up,↑,0.7730534999864176,False,16
X025M20,572,experiment,48,←,down,↓,0.6915912000113167,False,16
X025M20,573,experiment,132,→,right,→,1.3071219000266865,True,16
X025M20,574,experiment,120,↓,left,←,0.7162106999894604,False,16
X025M20,575,experiment,60,↓,down,↓,0.5778711999882944,True,16
X025M20,576,experiment,24,→,right,→,0.8772165999980643,True,16
X025M20,577,experiment,48,↑,down,↓,0.8150045000365935,False,16
X025M20,578,experiment,180,→,right,→,0.8158721000072546,True,16
X025M20,579,experiment,180,↓,left,←,1.0284573000390083,False,16
X025M20,580,experiment,36,↑,right,→,1.0570814000093378,False,16
X025M20,581,experiment,12,←,up,↑,1.0769968000240624,False,16
X025M20,582,experiment,168,↑,down,↓,0.7343934000236914,False,16
X025M20,583,experiment,180,↓,down,↓,0.6411673999973573,True,16
X025M20,584,experiment,144,↑,down,↓,0.7456806999980472,False,16
X025M20,585,experiment,24,→,right,→,0.607868299994152,True,16
X025M20,586,experiment,72,←,right,→,0.6632119999849238,False,16
X025M20,587,experiment,72,→,right,→,0.752111200010404,True,16
X025M20,588,experiment,12,→,right,→,0.4660886999918148,True,16
X025M20,589,experiment,108,→,right,→,0.4500489999772981,True,16
X025M20,590,experiment,156,→,right,→,0.7027408999856561,True,16
X025M20,591,experiment,144,←,left,←,0.4686339999898337,True,16
X025M20,592,experiment,156,↑,right,→,0.6973380999988876,False,16
X025M20,593,experiment,84,→,down,↓,0.9461324000149034,False,16
X025M20,594,experiment,108,←,left,←,0.6747896000160836,True,16
X025M20,595,experiment,132,→,right,→,0.5389361000270583,True,16
X025M20,596,experiment,168,←,right,→,0.30003379995469004,False,16
X025M20,597,experiment,12,←,right,→,0.8774745999835432,False,16
X025M20,598,training,24,↑,right,→,0.7112327999784611,False,17
X025M20,599,training,84,→,right,→,0.6425725999870338,True,17
X025M20,600,training,24,→,right,→,0.5871989000006579,True,17
X025M20,601,experiment,72,↓,down,↓,0.739440499979537,True,17
X025M20,602,experiment,168,↑,up,↑,0.5423872999963351,True,17
X025M20,603,experiment,24,→,right,→,0.5257285000407137,True,17
X025M20,604,experiment,24,→,right,→,0.6954757000203244,True,17
X025M20,605,experiment,144,→,right,→,0.6328171999775805,True,17
X025M20,606,experiment,108,→,right,→,0.615336999995634,True,17
X025M20,607,experiment,132,↑,up,↑,0.5461194000090472,True,17
X025M20,608,experiment,180,→,right,→,0.5887757999589667,True,17
X025M20,609,experiment,72,↓,down,↓,0.7010688000009395,True,17
X025M20,610,experiment,12,↓,down,↓,0.755799200036563,True,17
X025M20,611,experiment,60,→,right,→,0.5028189999866299,True,17
X025M20,612,experiment,156,→,right,→,0.5567645999835804,True,17
X025M20,613,experiment,48,→,right,→,0.5097734000300989,True,17
X025M20,614,experiment,36,↓,down,↓,0.6661198000074364,True,17
X025M20,615,experiment,168,↑,up,↑,0.6764364999835379,True,17
X025M20,616,experiment,156,→,left,←,0.5897707000258379,False,17
X025M20,617,experiment,96,→,right,→,0.6484277999843471,True,17
X025M20,618,experiment,96,↑,up,↑,0.6294344000052661,True,17
X025M20,619,experiment,48,↑,up,↑,0.6534074999508448,True,17
X025M20,620,experiment,84,→,right,→,0.5857331999577582,True,17
X025M20,621,experiment,108,→,right,→,0.6551323999883607,True,17
X025M20,622,experiment,132,↓,down,↓,0.5734528999892063,True,17
X025M20,623,experiment,120,↓,down,↓,0.8147740999702364,True,17
X025M20,624,experiment,12,→,down,↓,0.696065699972678,False,17
X025M20,625,experiment,120,↑,down,↓,0.5461381999775767,False,17
X025M20,626,experiment,168,↑,down,↓,0.9122393999714404,False,17
X025M20,627,experiment,120,→,right,→,0.6998118000337854,True,17
X025M20,628,experiment,168,↑,down,↓,0.7459809000138193,False,17
X025M20,629,experiment,120,↓,down,↓,0.7263830999727361,True,17
X025M20,630,experiment,132,→,right,→,0.493717800010927,True,17
X025M20,631,experiment,24,→,down,↓,1.2845557000255212,False,17
X025M20,632,experiment,144,←,left,←,0.5440562999574468,True,17
X025M20,633,experiment,108,↓,down,↓,0.7358997999690473,True,17
X025M20,634,experiment,180,←,left,←,0.7142940000048839,True,17
X025M20,635,experiment,60,→,right,→,0.6564177999971434,True,17
X025M20,636,experiment,84,←,left,←,1.0337564999936149,True,17
X025M20,637,experiment,156,↓,down,↓,0.7429517999989912,True,17
X025M20,638,experiment,12,↑,up,↑,0.6742106999736279,True,17
X025M20,639,experiment,12,↑,up,↑,0.8261437999899499,True,17
X025M20,640,experiment,96,→,right,→,0.648449000029359,True,17
X025M20,641,experiment,144,→,right,→,0.608215400017798,True,17
X025M20,642,experiment,180,→,up,↑,0.0005339999916031957,False,17
X025M20,643,experiment,36,↓,left,←,0.6557891999837011,False,17
X025M20,644,experiment,36,→,up,↑,0.47395610000239685,False,17
X025M20,645,experiment,108,←,right,→,0.01715379999950528,False,17
X025M20,646,experiment,72,←,left,←,0.8988380000228062,True,17
X025M20,647,experiment,84,←,right,→,0.5279903000337072,False,17
X025M20,648,experiment,156,↓,down,↓,0.7072177999652922,True,17
X025M20,649,experiment,96,←,left,←,0.5232799000223167,True,17
X025M20,650,experiment,84,→,right,→,0.6033121999935247,True,17
X025M20,651,experiment,144,→,right,→,0.7415381000027992,True,17
X025M20,652,experiment,60,→,up,↑,0.5318589999806136,False,17
X025M20,653,experiment,36,↓,down,↓,0.7814679000293836,True,17
X025M20,654,experiment,60,↑,up,↑,1.286891600000672,True,17
X025M20,655,experiment,48,↑,up,↑,0.8034439999610186,True,17
X025M20,656,experiment,72,←,down,↓,1.1218933000345714,False,17
X025M20,657,experiment,24,→,left,←,0.4962383999954909,False,17
X025M20,658,experiment,132,←,right,→,0.4974404000095092,False,17
X025M20,659,experiment,180,→,right,→,0.5992541000014171,True,17
X025M20,660,experiment,48,→,right,→,0.585823800007347,True,17
X025M20,661,training,156,←,right,→,0.5770909999846481,False,17
X025M20,662,training,168,↑,up,↑,0.5195992999942973,True,17
X025M20,663,training,96,↑,down,↓,0.7914925999939442,False,17
X025M20,664,experiment,132,←,left,←,0.6921945000067353,True,17
X025M20,665,experiment,120,←,left,←,0.6558473000186495,True,17
X025M20,666,experiment,120,←,right,→,0.8229930000379682,False,17
X025M20,667,experiment,72,↑,up,↑,0.5620567000005394,True,17
X025M20,668,experiment,108,↓,down,↓,0.7631999999866821,True,17
X025M20,669,experiment,156,←,up,↑,1.2436040999600664,False,17
X025M20,670,experiment,132,↓,down,↓,0.5860621999599971,True,17
X025M20,671,experiment,36,→,left,←,0.4552224000217393,False,17
X025M20,672,experiment,144,↓,down,↓,0.6752523999894038,True,17
X025M20,673,experiment,36,↑,up,↑,0.5950868999934755,True,17
X025M20,674,experiment,36,←,left,←,0.7609612999949604,True,17
X025M20,675,experiment,180,↓,down,↓,0.5205459999851882,True,17
X025M20,676,experiment,12,↓,up,↑,0.3671739000128582,False,17
X025M20,677,experiment,48,→,left,←,0.6710211000172421,False,17
X025M20,678,experiment,60,→,left,←,0.58248470001854,False,17
X025M20,679,experiment,72,←,right,→,0.11669900000561029,False,17
X025M20,680,experiment,180,↑,left,←,0.3338799999910407,False,17
X025M20,681,experiment,84,→,up,↑,0.2005918999784626,False,17
X025M20,682,experiment,156,→,right,→,0.25063259998569265,True,17
X025M20,683,experiment,12,↓,left,←,0.5221767000039108,False,17
X025M20,684,experiment,108,↑,left,←,0.5014255999703892,False,17
X025M20,685,experiment,48,↑,down,↓,1.060677699977532,False,17
X025M20,686,experiment,168,←,right,→,0.26705730002140626,False,17
X025M20,687,experiment,96,→,up,↑,0.4243909999495372,False,17
X025M20,688,experiment,60,←,down,↓,0.4731466000084765,False,17
X025M20,689,experiment,84,↓,left,←,0.1670221000094898,False,17
X025M20,690,experiment,12,↓,right,→,0.5663153000059538,False,17
X025M20,691,experiment,108,→,right,→,0.6768996000173502,True,17
X025M20,692,experiment,24,→,left,←,0.8030805999878794,False,17
X025M20,693,experiment,144,→,right,→,0.6425217000069097,True,17
X025M20,694,experiment,12,←,right,→,0.7296534999622963,False,17
X025M20,695,experiment,144,↓,down,↓,0.5204517999663949,True,17
X025M20,696,experiment,180,↑,up,↑,0.5975434000138193,True,17
X025M20,697,experiment,96,↓,down,↓,0.6353798999916762,True,17
X025M20,698,experiment,72,←,left,←,0.7201172000495717,True,17
X025M20,699,experiment,48,→,left,←,0.5397899999516085,False,17
X025M20,700,experiment,24,↑,right,→,0.8440243999939412,False,17
X025M20,701,experiment,156,→,right,→,0.5033343000104651,True,17
X025M20,702,experiment,60,→,right,→,1.35528149997117,True,17
X025M20,703,experiment,72,←,left,←,0.6358608999871649,True,17
X025M20,704,experiment,24,→,left,←,0.7044923999928869,False,17
X025M20,705,experiment,108,→,right,→,0.40191749995574355,True,17
X025M20,706,experiment,96,→,up,↑,0.49419090000446886,False,17
X025M20,707,experiment,84,←,right,→,0.8137050999794155,False,17
X025M20,708,experiment,84,→,right,→,0.6582564999698661,True,17
X025M20,709,experiment,180,←,right,→,0.6280666000093333,False,17
X025M20,710,experiment,168,→,right,→,0.7054022999946028,True,17
X025M20,711,experiment,48,←,left,←,0.7497606999822892,True,17
X025M20,712,experiment,132,→,right,→,0.8880119999521412,True,17
X025M20,713,experiment,60,←,left,←,0.45262100000400096,True,17
X025M20,714,experiment,24,←,up,↑,0.957191800000146,False,17
X025M20,715,experiment,144,←,up,↑,0.6418108000070788,False,17
X025M20,716,experiment,156,↓,right,→,0.9058957000379451,False,17
X025M20,717,experiment,168,↓,up,↑,0.8165277999942191,False,17
X025M20,718,experiment,36,↓,down,↓,1.353758899960667,True,17
X025M20,719,experiment,168,↓,down,↓,0.733969499997329,True,17
X025M20,720,experiment,120,←,right,→,0.5322760000126436,False,17
X025M20,721,experiment,96,↑,left,←,0.3841897000093013,False,17
X025M20,722,experiment,132,↑,down,↓,0.5127115999930538,False,17
X025M20,723,experiment,120,↓,left,←,0.4172575999982655,False,17
X025M20,724,training,180,↓,up,↑,0.7319757000077516,False,18
X025M20,725,training,180,→,right,→,0.7217109999619424,True,18
X025M20,726,training,156,←,left,←,0.5728577999980189,True,18
X025M20,727,experiment,168,↑,up,↑,0.6274924000026658,True,18
X025M20,728,experiment,36,→,right,→,0.6938423999818042,True,18
X025M20,729,experiment,180,←,left,←,0.6206420999951661,True,18
X025M20,730,experiment,156,↑,up,↑,0.6034581999992952,True,18
X025M20,731,experiment,96,↑,up,↑,0.5122229999979027,True,18
X025M20,732,experiment,132,→,right,→,0.631289699987974,True,18
X025M20,733,experiment,36,↓,down,↓,0.8402685999753885,True,18
X025M20,734,experiment,180,→,right,→,0.7378946000244468,True,18
X025M20,735,experiment,144,←,left,←,0.9092213000403717,True,18
X025M20,736,experiment,72,←,right,→,0.5281742999795824,False,18
X025M20,737,experiment,132,↑,up,↑,0.5973235999699682,True,18
X025M20,738,experiment,60,→,right,→,0.6973710000165738,True,18
X025M20,739,experiment,72,↑,up,↑,0.6356971000204794,True,18
X025M20,740,experiment,120,←,left,←,0.6789704000111669,True,18
X025M20,741,experiment,156,↓,down,↓,0.7284976000082679,True,18
X025M20,742,experiment,72,←,left,←,0.61021349998191,True,18
X025M20,743,experiment,60,↑,up,↑,0.7522357000270858,True,18
X025M20,744,experiment,60,→,right,→,0.7704972000210546,True,18
X025M20,745,experiment,144,↓,down,↓,0.6793298999546096,True,18
X025M20,746,experiment,48,↑,up,↑,0.6048793999943882,True,18
X025M20,747,experiment,108,↑,up,↑,0.5700854000169784,True,18
X025M20,748,experiment,12,→,right,→,0.821870299987495,True,18
X025M20,749,experiment,36,↑,up,↑,0.7058543000021018,True,18
X025M20,750,experiment,48,→,right,→,0.5325669000158086,True,18
X025M20,751,experiment,84,→,right,→,0.8398023000336252,True,18
X025M20,752,experiment,84,→,right,→,0.6645855999668129,True,18
X025M20,753,experiment,108,←,right,→,0.6564902000245638,False,18
X025M20,754,experiment,120,↓,down,↓,0.7567164999782108,True,18
X025M20,755,experiment,168,↓,down,↓,0.7557133000227623,True,18
X025M20,756,experiment,180,←,left,←,0.6749210000270978,True,18
X025M20,757,experiment,12,↓,down,↓,0.7788657000055537,True,18
X025M20,758,experiment,144,↑,up,↑,0.7018992000375874,True,18
X025M20,759,experiment,96,←,left,←,0.8070029000518844,True,18
X025M20,760,experiment,84,→,right,→,0.5683687999844551,True,18
X025M20,761,experiment,24,↑,up,↑,0.673281199997291,True,18
X025M20,762,experiment,108,→,right,→,0.6714398000040092,True,18
X025M20,763,experiment,24,←,left,←,0.5301092999870889,True,18
X025M20,764,experiment,144,↓,up,↑,1.916554700001143,False,18
X025M20,765,experiment,96,↑,up,↑,0.5817414000048302,True,18
X025M20,766,experiment,84,←,left,←,0.7239301999798045,True,18
X025M20,767,experiment,108,↓,down,↓,0.6064452999853529,True,18
X025M20,768,experiment,48,↓,up,↑,1.4170988000114448,False,18
X025M20,769,experiment,60,↓,down,↓,0.5926829999662004,True,18
X025M20,770,experiment,48,←,left,←,0.667930299998261,True,18
X025M20,771,experiment,36,↑,up,↑,1.091729000036139,True,18
X025M20,772,experiment,156,→,up,↑,1.5166665999568067,False,18
X025M20,773,experiment,120,→,right,→,0.6480075999861583,True,18
X025M20,774,experiment,12,→,right,→,0.8765876999823377,True,18
X025M20,775,experiment,156,→,right,→,0.5436281000147574,True,18
X025M20,776,experiment,24,→,right,→,0.6540366999688558,True,18
X025M20,777,experiment,132,→,right,→,0.6248772999970242,True,18
X025M20,778,experiment,132,←,left,←,0.6323202000348829,True,18
X025M20,779,experiment,72,↑,up,↑,0.7302982000401244,True,18
X025M20,780,experiment,24,↑,up,↑,0.7565424999920651,True,18
X025M20,781,experiment,12,→,right,→,0.7335841999738477,True,18
X025M20,782,experiment,120,↑,up,↑,1.047019999998156,True,18
X025M20,783,experiment,180,←,down,↓,0.9615923000383191,False,18
X025M20,784,experiment,168,↑,up,↑,0.7393346999888308,True,18
X025M20,785,experiment,168,↑,up,↑,0.6540157000417821,True,18
X025M20,786,experiment,96,←,left,←,0.5707138000288978,True,18
X025M20,787,training,132,↑,up,↑,0.5352544000488706,True,18
X025M20,788,training,60,↓,down,↓,0.5096681999857537,True,18
X025M20,789,training,84,→,left,←,0.6950156000093557,False,18
X025M20,790,experiment,156,←,left,←,0.8551448999787681,True,18
X025M20,791,experiment,180,←,left,←,0.734076599997934,True,18
X025M20,792,experiment,48,←,left,←,0.6181309999665245,True,18
X025M20,793,experiment,168,↑,up,↑,0.6007015999639407,True,18
X025M20,794,experiment,120,↓,down,↓,0.7039139000116847,True,18
X025M20,795,experiment,156,←,left,←,0.6040676000411622,True,18
X025M20,796,experiment,84,↑,up,↑,0.7950475999969058,True,18
X025M20,797,experiment,12,→,right,→,0.6952543000224978,True,18
X025M20,798,experiment,36,↑,up,↑,0.5150503000477329,True,18
X025M20,799,experiment,84,↑,up,↑,1.1775427000247873,True,18
X025M20,800,experiment,72,↓,down,↓,0.6943968999548815,True,18
X025M20,801,experiment,144,→,right,→,0.5931437999824993,True,18
X025M20,802,experiment,48,↑,down,↓,0.7707223999896087,False,18
X025M20,803,experiment,120,↓,down,↓,0.5633222999749705,True,18
X025M20,804,experiment,168,↓,down,↓,0.6098425999516621,True,18
X025M20,805,experiment,36,←,left,←,0.49856440001167357,True,18
X025M20,806,experiment,48,←,left,←,0.9328975999960676,True,18
X025M20,807,experiment,180,→,right,→,0.5134040000266396,True,18
X025M20,808,experiment,168,↓,right,→,0.8046807000064291,False,18
X025M20,809,experiment,132,←,right,→,0.49643669999204576,False,18
X025M20,810,experiment,84,→,right,→,0.8270021000062115,True,18
X025M20,811,experiment,24,→,down,↓,1.3244506999617442,False,18
X025M20,812,experiment,12,↑,up,↑,0.9103069000411779,True,18
X025M20,813,experiment,108,→,right,→,0.9225154000450857,True,18
X025M20,814,experiment,72,↓,down,↓,0.7759964000433683,True,18
X025M20,815,experiment,156,↑,up,↑,0.7422998999827541,True,18
X025M20,816,experiment,96,↓,down,↓,0.8950794999836944,True,18
X025M20,817,experiment,132,↑,down,↓,1.583733499981463,False,18
X025M20,818,experiment,12,←,right,→,0.5704090000363067,False,18
X025M20,819,experiment,60,↑,down,↓,1.613767899980303,False,18
X025M20,820,experiment,24,←,no_key,no_letter,-1.0,False,18
X025M20,821,experiment,60,←,no_key,no_letter,-1.0,False,18
X025M20,822,experiment,120,↓,down,↓,0.7750144000165164,True,18
X025M20,823,experiment,108,↑,up,↑,0.8376889000064693,True,18
X025M20,824,experiment,144,→,right,→,1.0590144000016153,True,18
X025M20,825,experiment,144,←,down,↓,1.2156100000138395,False,18
X025M20,826,experiment,72,←,left,←,0.6988704000250436,True,18
X025M20,827,experiment,84,↑,up,↑,0.6687095999950543,True,18
X025M20,828,experiment,132,↑,up,↑,0.5353782000020146,True,18
X025M20,829,experiment,72,↑,up,↑,1.255328900006134,True,18
X025M20,830,experiment,96,↑,up,↑,0.6968212999636307,True,18
X025M20,831,experiment,36,↓,up,↑,0.4730270000291057,False,18
X025M20,832,experiment,48,←,left,←,0.5563071999931708,True,18
X025M20,833,experiment,96,←,left,←,0.5747690999996848,True,18
X025M20,834,experiment,12,→,right,→,0.6023338999948464,True,18
X025M20,835,experiment,168,↑,up,↑,0.5490650000283495,True,18
X025M20,836,experiment,120,↑,up,↑,0.5562970999744721,True,18
X025M20,837,experiment,132,↑,up,↑,0.4009562999708578,True,18
X025M20,838,experiment,96,↑,up,↑,0.8965420000022277,True,18
X025M20,839,experiment,156,→,right,→,0.610753700020723,True,18
X025M20,840,experiment,60,→,up,↑,0.6204209999996237,False,18
X025M20,841,experiment,108,↓,down,↓,0.634513099968899,True,18
X025M20,842,experiment,180,→,right,→,0.6781387000228278,True,18
X025M20,843,experiment,108,←,left,←,0.6743916000123136,True,18
X025M20,844,experiment,180,→,right,→,0.5980448999907821,True,18
X025M20,845,experiment,36,←,left,←,0.7074222000082955,True,18
X025M20,846,experiment,144,→,right,→,0.6240016999654472,True,18
X025M20,847,experiment,24,←,right,→,0.7551731999847107,False,18
X025M20,848,experiment,60,→,right,→,0.5844522999832407,True,18
X025M20,849,experiment,24,↑,up,↑,0.6186046999646351,True,18
