PART_ID,Trial_no,Trial_type,PDI,Stim_letter,Key_pressed,letter_choose,Rt,Corr,Stimulus Time
X026-02K18,1,training,10,→,right,→,0.6339938000019174,True,30
X026-02K18,2,training,10,←,left,←,0.6337197999819182,True,30
X026-02K18,3,training,10,←,left,←,0.36700840000412427,True,30
X026-02K18,4,training,10,↑,left,←,0.8725819999817759,False,30
X026-02K18,5,training,10,↓,up,↑,0.5502392999769654,False,30
X026-02K18,6,training,10,→,left,←,0.5668996000022162,False,30
X026-02K18,7,training,10,←,right,→,0.6787847000232432,False,30
X026-02K18,8,training,10,←,left,←,0.5509205000125803,True,30
X026-02K18,9,training,10,←,left,←,0.5172125000099186,True,30
X026-02K18,10,training,10,↑,up,↑,0.7712572999880649,True,30
X026-02K18,11,training,10,→,right,→,0.8807513999927323,True,30
X026-02K18,12,training,10,→,right,→,0.45056040000054054,True,30
X026-02K18,13,training,10,↓,down,↓,0.8013082999968901,True,30
X026-02K18,14,training,10,→,right,→,0.4835902999911923,True,30
X026-02K18,15,training,10,←,left,←,0.40038119998644106,True,30
X026-02K18,16,training,10,↑,up,↑,0.584092100005364,True,30
X026-02K18,17,training,10,↑,up,↑,0.7426381000259425,True,30
X026-02K18,18,training,10,↑,up,↑,0.7051899000070989,True,30
X026-02K18,19,training,10,←,left,←,0.6004728999978397,True,30
X026-02K18,20,training,10,←,left,←,0.7648759000003338,True,30
X026-02K18,21,training,10,→,right,→,0.6037145000009332,True,18
X026-02K18,22,training,10,→,right,→,0.7530573999974877,True,18
X026-02K18,23,training,10,←,left,←,0.5900500999996439,True,18
X026-02K18,24,training,10,↓,up,↑,0.5476267999911215,False,18
X026-02K18,25,training,10,↑,up,↑,1.4545306999934837,True,18
X026-02K18,26,training,10,↑,up,↑,0.41704030000255443,True,18
X026-02K18,27,training,10,→,left,←,0.58548310000333,False,18
X026-02K18,28,training,10,↓,down,↓,0.8374449000111781,True,18
X026-02K18,29,training,10,↓,up,↑,1.2707735000003595,False,18
X026-02K18,30,training,10,↓,up,↑,0.700284799997462,False,18
X026-02K18,31,training,96,↓,up,↑,0.7366436000156682,False,15
X026-02K18,32,training,96,←,left,←,1.515613099996699,True,15
X026-02K18,33,training,12,→,left,←,0.48404260000097565,False,15
X026-02K18,34,experiment,96,↑,up,↑,0.5244246000074781,True,15
X026-02K18,35,experiment,168,→,left,←,0.7773194999899715,False,15
X026-02K18,36,experiment,168,↓,up,↑,0.508170400018571,False,15
X026-02K18,37,experiment,156,↓,down,↓,0.8931900000025053,True,15
X026-02K18,38,experiment,96,→,up,↑,0.7577443000045605,False,15
X026-02K18,39,experiment,144,→,left,←,0.9711212000111118,False,15
X026-02K18,40,experiment,144,↓,down,↓,0.898230999999214,True,15
X026-02K18,41,experiment,84,↑,up,↑,0.9264080000284594,True,15
X026-02K18,42,experiment,108,↑,left,←,1.0445714000088628,False,15
X026-02K18,43,experiment,60,↑,up,↑,0.520819900004426,True,15
X026-02K18,44,experiment,12,↓,down,↓,0.7693752000050154,True,15
X026-02K18,45,experiment,36,↑,up,↑,0.9425258999981452,True,15
X026-02K18,46,experiment,156,↑,up,↑,0.43372200001613237,True,15
X026-02K18,47,experiment,132,↑,up,↑,0.35036340000806376,True,15
X026-02K18,48,experiment,120,↓,down,↓,0.648165999999037,True,15
X026-02K18,49,experiment,132,←,left,←,0.7162226999935228,True,15
X026-02K18,50,experiment,24,↑,up,↑,1.1511540999927092,True,15
X026-02K18,51,experiment,144,↓,down,↓,0.9829921000055037,True,15
X026-02K18,52,experiment,24,→,right,→,0.5808442999841645,True,15
X026-02K18,53,experiment,180,↑,down,↓,0.8091553999984171,False,15
X026-02K18,54,experiment,72,→,right,→,0.38393989999894984,True,15
X026-02K18,55,experiment,132,↑,down,↓,0.9947415000060573,False,15
X026-02K18,56,experiment,36,↓,down,↓,0.9624936999753118,True,15
X026-02K18,57,experiment,36,↑,right,→,0.8818119000061415,False,15
X026-02K18,58,experiment,120,↑,right,→,0.7445967000094242,False,15
X026-02K18,59,experiment,156,↓,down,↓,0.6779676000005566,True,15
X026-02K18,60,experiment,36,↓,up,↑,1.4853897000139114,False,15
X026-02K18,61,experiment,48,←,left,←,0.6132106999866664,True,15
X026-02K18,62,experiment,60,↓,down,↓,0.7284350999980234,True,15
X026-02K18,63,experiment,12,↓,down,↓,0.6252510999911465,True,15
X026-02K18,64,experiment,168,→,right,→,0.5146799999929499,True,15
X026-02K18,65,experiment,24,→,right,→,0.7459407999995165,True,15
X026-02K18,66,experiment,180,↑,right,→,0.9233567000192124,False,15
X026-02K18,67,experiment,96,↓,up,↑,0.7807128000131343,False,15
X026-02K18,68,experiment,72,→,right,→,0.7243011000100523,True,15
X026-02K18,69,experiment,144,→,right,→,0.5032478999928571,True,15
X026-02K18,70,experiment,60,↑,up,↑,0.778388000006089,True,15
X026-02K18,71,experiment,84,←,left,←,0.7377669000125024,True,15
X026-02K18,72,experiment,168,→,no_key,no_letter,-1.0,False,15
X026-02K18,73,experiment,108,↑,up,↑,1.7842545000021346,True,15
X026-02K18,74,experiment,24,←,left,←,0.8913963000231888,True,15
X026-02K18,75,experiment,84,←,up,↑,0.8926589000038803,False,15
X026-02K18,76,experiment,156,→,right,→,0.6095617999962997,True,15
X026-02K18,77,experiment,12,↑,right,→,0.9378020000003744,False,15
X026-02K18,78,experiment,48,↑,up,↑,0.7273715999908745,True,15
X026-02K18,79,experiment,96,←,right,→,0.6215112000063527,False,15
X026-02K18,80,experiment,180,↓,up,↑,1.5435734000056982,False,15
X026-02K18,81,experiment,72,↓,right,→,1.007574499992188,False,15
X026-02K18,82,experiment,84,←,right,→,0.6579061000084039,False,15
X026-02K18,83,experiment,12,↓,right,→,0.8721155000093859,False,15
X026-02K18,84,experiment,72,↓,right,→,1.6542836999869905,False,15
X026-02K18,85,experiment,108,←,right,→,0.9263904999825172,False,15
X026-02K18,86,experiment,120,←,left,←,0.5235704999940936,True,15
X026-02K18,87,experiment,120,↓,up,↑,0.8100683999946341,False,15
X026-02K18,88,experiment,48,←,down,↓,0.6136090000218246,False,15
X026-02K18,89,experiment,48,→,right,→,1.6129328999959398,True,15
X026-02K18,90,experiment,108,←,right,→,0.8838767999841366,False,15
X026-02K18,91,experiment,60,↑,up,↑,0.4978078000131063,True,15
X026-02K18,92,experiment,132,←,up,↑,0.7749401000037324,False,15
X026-02K18,93,experiment,180,←,down,↓,1.2996918999997433,False,15
X026-02K18,94,training,36,←,right,→,0.6238702000118792,False,16
X026-02K18,95,training,48,→,right,→,0.5198118999833241,True,16
X026-02K18,96,training,72,→,up,↑,1.0332363999914378,False,16
X026-02K18,97,experiment,60,↑,right,→,0.8816162000002805,False,16
X026-02K18,98,experiment,168,→,right,→,1.4360498000169173,True,16
X026-02K18,99,experiment,12,←,left,←,0.4485819999827072,True,16
X026-02K18,100,experiment,156,←,left,←,1.6128802000021096,True,16
X026-02K18,101,experiment,48,↓,up,↑,0.8664253999886569,False,16
X026-02K18,102,experiment,48,↓,right,→,0.9330738999997266,False,16
X026-02K18,103,experiment,60,↑,up,↑,0.5418569000030402,True,16
X026-02K18,104,experiment,156,↓,up,↑,0.6994878999830689,False,16
X026-02K18,105,experiment,36,↑,down,↓,0.460927600011928,False,16
X026-02K18,106,experiment,48,↑,left,←,0.6912841999728698,False,16
X026-02K18,107,experiment,12,↑,up,↑,0.5171163999766577,True,16
X026-02K18,108,experiment,144,↓,down,↓,0.6085901000187732,True,16
X026-02K18,109,experiment,72,↓,down,↓,0.5519595999794547,True,16
X026-02K18,110,experiment,132,↑,up,↑,0.44175699999323115,True,16
X026-02K18,111,experiment,12,→,right,→,0.5801253999816254,True,16
X026-02K18,112,experiment,96,↓,up,↑,0.8290700000070501,False,16
X026-02K18,113,experiment,72,←,right,→,0.6467246999964118,False,16
X026-02K18,114,experiment,36,→,right,→,0.580320799985202,True,16
X026-02K18,115,experiment,24,↓,up,↑,0.6298603999894112,False,16
X026-02K18,116,experiment,132,↓,up,↑,0.6956344000063837,False,16
X026-02K18,117,experiment,144,→,left,←,0.5074527999968268,False,16
X026-02K18,118,experiment,84,←,left,←,0.4865589000110049,True,16
X026-02K18,119,experiment,168,↑,up,↑,1.1516669999982696,True,16
X026-02K18,120,experiment,108,↓,down,↓,1.368489500018768,True,16
X026-02K18,121,experiment,72,←,down,↓,0.8813645000045653,False,16
X026-02K18,122,experiment,156,↑,right,→,0.5853549999883398,False,16
X026-02K18,123,experiment,132,↓,right,→,0.6162008999963291,False,16
X026-02K18,124,experiment,144,→,up,↑,1.2021981999860145,False,16
X026-02K18,125,experiment,60,→,right,→,0.7399063000048045,True,16
X026-02K18,126,experiment,144,↓,up,↑,0.6945796999789309,False,16
X026-02K18,127,experiment,96,←,left,←,0.6469249999790918,True,16
X026-02K18,128,experiment,48,↓,down,↓,0.5307121999794617,True,16
X026-02K18,129,experiment,120,←,up,↑,0.796510699990904,False,16
X026-02K18,130,experiment,180,→,right,→,0.4731268000032287,True,16
X026-02K18,131,experiment,108,↑,right,→,0.40059229999314994,False,16
X026-02K18,132,experiment,96,→,up,↑,0.8672437000204809,False,16
X026-02K18,133,experiment,168,↑,up,↑,0.3839178000052925,True,16
X026-02K18,134,experiment,72,↓,down,↓,0.6077239000005648,True,16
X026-02K18,135,experiment,108,→,right,→,1.5135526999947615,True,16
X026-02K18,136,experiment,84,→,up,↑,1.1593658999772742,False,16
X026-02K18,137,experiment,180,↑,up,↑,0.9094961999799125,True,16
X026-02K18,138,experiment,36,↓,down,↓,0.8397580999881029,True,16
X026-02K18,139,experiment,120,→,right,→,0.5438455999828875,True,16
X026-02K18,140,experiment,96,←,up,↑,1.0130367999954615,False,16
X026-02K18,141,experiment,60,→,up,↑,0.9000838000210933,False,16
X026-02K18,142,experiment,36,↑,up,↑,0.9457178000011481,True,16
X026-02K18,143,experiment,108,→,right,→,0.5043888000072911,True,16
X026-02K18,144,experiment,120,↑,up,↑,0.5715651999926195,True,16
X026-02K18,145,experiment,24,↑,up,↑,0.5155267000081949,True,16
X026-02K18,146,experiment,24,↓,left,←,0.8459912999824155,False,16
X026-02K18,147,experiment,12,←,left,←,0.8165411000081804,True,16
X026-02K18,148,experiment,180,↓,left,←,0.5504241000162438,False,16
X026-02K18,149,experiment,168,←,left,←,0.571113999991212,True,16
X026-02K18,150,experiment,120,←,up,↑,0.8507481999986339,False,16
X026-02K18,151,experiment,132,→,left,←,0.7820368999964558,False,16
X026-02K18,152,experiment,24,→,down,↓,0.6074120000121184,False,16
X026-02K18,153,experiment,156,→,right,→,1.8392744999728166,True,16
X026-02K18,154,experiment,180,↓,left,←,0.5169722999853548,False,16
X026-02K18,155,experiment,84,↑,right,→,0.6294171999907121,False,16
X026-02K18,156,experiment,84,→,right,→,0.8150808000063989,True,16
X026-02K18,157,training,72,←,no_key,no_letter,-1.0,False,17
X026-02K18,158,training,108,↓,down,↓,0.6047491000208538,True,17
X026-02K18,159,training,168,→,left,←,0.5149776000180282,False,17
X026-02K18,160,experiment,12,↓,up,↑,0.7373278000159189,False,17
X026-02K18,161,experiment,156,→,right,→,0.6517659999954049,True,17
X026-02K18,162,experiment,108,←,right,→,0.5518203999963589,False,17
X026-02K18,163,experiment,60,→,down,↓,0.5072172000072896,False,17
X026-02K18,164,experiment,36,↑,up,↑,0.5667518999835011,True,17
X026-02K18,165,experiment,132,↓,left,←,1.471963699994376,False,17
X026-02K18,166,experiment,156,↓,up,↑,0.6175662000023294,False,17
X026-02K18,167,experiment,120,→,left,←,0.4171208000043407,False,17
X026-02K18,168,experiment,108,↓,down,↓,0.7267837999970652,True,17
X026-02K18,169,experiment,144,←,no_key,no_letter,-1.0,False,17
X026-02K18,170,experiment,120,←,up,↑,1.624178199999733,False,17
X026-02K18,171,experiment,72,→,left,←,1.3184660999977496,False,17
X026-02K18,172,experiment,12,→,right,→,0.707553000014741,True,17
X026-02K18,173,experiment,168,→,right,→,1.0919919000007212,True,17
X026-02K18,174,experiment,132,→,right,→,1.2400130000023637,True,17
X026-02K18,175,experiment,24,→,right,→,0.41719400000874884,True,17
X026-02K18,176,experiment,84,↑,up,↑,1.0516235000104643,True,17
X026-02K18,177,experiment,108,↓,down,↓,1.2122135999961756,True,17
X026-02K18,178,experiment,48,→,right,→,0.7256006999814417,True,17
X026-02K18,179,experiment,168,←,left,←,0.4580296000058297,True,17
X026-02K18,180,experiment,156,↓,no_key,no_letter,-1.0,False,17
X026-02K18,181,experiment,144,↓,left,←,0.4174586000153795,False,17
X026-02K18,182,experiment,72,↑,down,↓,1.948151400021743,False,17
X026-02K18,183,experiment,96,←,up,↑,0.9018662000016775,False,17
X026-02K18,184,experiment,12,↓,right,→,1.054221400001552,False,17
X026-02K18,185,experiment,120,→,left,←,0.47716639999998733,False,17
X026-02K18,186,experiment,84,↑,up,↑,0.8742250000068452,True,17
X026-02K18,187,experiment,96,↑,down,↓,1.7075099000066984,False,17
X026-02K18,188,experiment,96,←,left,←,0.7559330000076443,True,17
X026-02K18,189,experiment,60,↓,left,←,1.1075935999979265,False,17
X026-02K18,190,experiment,48,↓,right,→,1.139877899986459,False,17
X026-02K18,191,experiment,36,↑,up,↑,0.6599031000223476,True,17
X026-02K18,192,experiment,60,→,left,←,0.5495062000118196,False,17
X026-02K18,193,experiment,36,←,right,→,0.7476001000031829,False,17
X026-02K18,194,experiment,24,←,left,←,1.354507400013972,True,17
X026-02K18,195,experiment,168,↑,up,↑,0.76856189998216,True,17
X026-02K18,196,experiment,180,↓,down,↓,1.1782179000147153,True,17
X026-02K18,197,experiment,156,↓,down,↓,0.8154001999937464,True,17
X026-02K18,198,experiment,96,↓,down,↓,0.8118490999913774,True,17
X026-02K18,199,experiment,60,←,left,←,0.7098962999880314,True,17
X026-02K18,200,experiment,84,→,right,→,0.8156860000162851,True,17
X026-02K18,201,experiment,180,↓,down,↓,0.7590183999855071,True,17
X026-02K18,202,experiment,168,←,left,←,0.8081278000026941,True,17
X026-02K18,203,experiment,132,←,left,←,0.48434230001294054,True,17
X026-02K18,204,experiment,48,↑,down,↓,0.7216179000097327,False,17
X026-02K18,205,experiment,144,→,right,→,0.6759749999910127,True,17
X026-02K18,206,experiment,84,↑,left,←,0.36703019999549724,False,17
X026-02K18,207,experiment,36,←,right,→,0.7712501999922097,False,17
X026-02K18,208,experiment,24,→,right,→,0.6791967999888584,True,17
X026-02K18,209,experiment,132,←,right,→,0.8527935000020079,False,17
X026-02K18,210,experiment,48,→,right,→,0.6491630999953486,True,17
X026-02K18,211,experiment,108,↓,right,→,0.7063149000168778,False,17
X026-02K18,212,experiment,180,←,up,↑,0.9912245000014082,False,17
X026-02K18,213,experiment,144,→,right,→,1.5819971000018995,True,17
X026-02K18,214,experiment,12,↓,down,↓,0.8826994999835733,True,17
X026-02K18,215,experiment,72,↑,up,↑,0.7231957000039984,True,17
X026-02K18,216,experiment,180,↓,down,↓,0.5738162999914493,True,17
X026-02K18,217,experiment,72,↓,down,↓,0.5167378000041936,True,17
X026-02K18,218,experiment,120,↓,down,↓,0.4655631000059657,True,17
X026-02K18,219,experiment,24,←,left,←,0.7489729000080843,True,17
X026-02K18,220,training,96,←,left,←,0.5257074999972247,True,18
X026-02K18,221,training,24,←,right,→,0.6005737999803387,False,18
X026-02K18,222,training,72,←,right,→,0.8321439999854192,False,18
X026-02K18,223,experiment,96,→,right,→,0.43393830000422895,True,18
X026-02K18,224,experiment,24,↓,left,←,0.49832950002746657,False,18
X026-02K18,225,experiment,180,←,up,↑,0.6867099999799393,False,18
X026-02K18,226,experiment,60,→,right,→,0.5145031999854837,True,18
X026-02K18,227,experiment,120,→,right,→,0.5379305999958888,True,18
X026-02K18,228,experiment,60,←,up,↑,0.8960272999829613,False,18
X026-02K18,229,experiment,120,→,right,→,0.558686200005468,True,18
X026-02K18,230,experiment,84,←,left,←,0.7113566999905743,True,18
X026-02K18,231,experiment,144,←,left,←,0.8750751999905333,True,18
X026-02K18,232,experiment,12,↓,up,↑,1.0809122999780811,False,18
X026-02K18,233,experiment,108,→,right,→,0.7030552000214811,True,18
X026-02K18,234,experiment,180,→,right,→,0.6732285000034608,True,18
X026-02K18,235,experiment,72,↓,down,↓,0.9034891999908723,True,18
X026-02K18,236,experiment,48,↑,up,↑,0.733810599980643,True,18
X026-02K18,237,experiment,24,→,up,↑,1.2926487000077032,False,18
X026-02K18,238,experiment,48,↑,up,↑,0.6371377999894321,True,18
X026-02K18,239,experiment,12,↑,up,↑,1.2803081999882124,True,18
X026-02K18,240,experiment,48,←,up,↑,1.0577024999947753,False,18
X026-02K18,241,experiment,36,↓,down,↓,0.9019038999977056,True,18
X026-02K18,242,experiment,84,←,left,←,0.8095336999977008,True,18
X026-02K18,243,experiment,108,↓,down,↓,0.6056209000234958,True,18
X026-02K18,244,experiment,12,↓,down,↓,0.6948126000061166,True,18
X026-02K18,245,experiment,168,←,left,←,0.6537070000194944,True,18
X026-02K18,246,experiment,168,↑,up,↑,0.6581165999814402,True,18
X026-02K18,247,experiment,24,↓,down,↓,0.7682370000111405,True,18
X026-02K18,248,experiment,132,←,left,←,0.5645503999840003,True,18
X026-02K18,249,experiment,96,↑,up,↑,0.6755805000138935,True,18
X026-02K18,250,experiment,36,↑,up,↑,1.3462801999994554,True,18
X026-02K18,251,experiment,24,↑,up,↑,0.5042441000114195,True,18
X026-02K18,252,experiment,72,←,left,←,0.7153033000067808,True,18
X026-02K18,253,experiment,132,←,left,←,1.448038299975451,True,18
X026-02K18,254,experiment,108,↓,left,←,1.4106116999755614,False,18
X026-02K18,255,experiment,72,↑,up,↑,0.5136933000176214,True,18
X026-02K18,256,experiment,180,↑,up,↑,0.5955021999834571,True,18
X026-02K18,257,experiment,72,↓,down,↓,0.6359377000189852,True,18
X026-02K18,258,experiment,168,↓,up,↑,0.4338285999838263,False,18
X026-02K18,259,experiment,36,↓,down,↓,0.6694172999996226,True,18
X026-02K18,260,experiment,120,←,left,←,0.4956444000126794,True,18
X026-02K18,261,experiment,132,↑,up,↑,0.6898779000039212,True,18
X026-02K18,262,experiment,144,→,right,→,0.5380772999778856,True,18
X026-02K18,263,experiment,36,↑,up,↑,0.7371866000175942,True,18
X026-02K18,264,experiment,156,↑,up,↑,0.384068399987882,True,18
X026-02K18,265,experiment,144,←,left,←,0.367462299996987,True,18
X026-02K18,266,experiment,156,↓,up,↑,0.6494443999836221,False,18
X026-02K18,267,experiment,156,↓,down,↓,0.6015201999980491,True,18
X026-02K18,268,experiment,48,↓,up,↑,0.8103058999986388,False,18
X026-02K18,269,experiment,12,→,left,←,0.8017180000024382,False,18
X026-02K18,270,experiment,180,→,up,↑,0.7807773999811616,False,18
X026-02K18,271,experiment,60,↓,down,↓,0.5295728000055533,True,18
X026-02K18,272,experiment,144,↑,right,→,0.5442516000184696,False,18
X026-02K18,273,experiment,168,←,right,→,0.5810412999999244,False,18
X026-02K18,274,experiment,96,←,right,→,0.5880545999971218,False,18
X026-02K18,275,experiment,60,→,right,→,1.3232592999993358,True,18
X026-02K18,276,experiment,108,←,left,←,1.0186220000032336,True,18
X026-02K18,277,experiment,84,→,right,→,0.3336700999934692,True,18
X026-02K18,278,experiment,96,→,right,→,0.7458018999896012,True,18
X026-02K18,279,experiment,84,↓,up,↑,0.7071809000044595,False,18
X026-02K18,280,experiment,156,←,left,←,0.7360585000133142,True,18
X026-02K18,281,experiment,120,↑,right,→,0.43411119998199865,False,18
X026-02K18,282,experiment,132,↓,up,↑,0.8106919999991078,False,18
X026-02K18,283,training,180,→,left,←,0.4978429999900982,False,18
X026-02K18,284,training,132,↑,left,←,0.3671189000015147,False,18
X026-02K18,285,training,120,↓,down,↓,0.5692492999951355,True,18
X026-02K18,286,experiment,96,←,up,↑,0.8869132999971043,False,18
X026-02K18,287,experiment,84,→,right,→,0.5810273999813944,True,18
X026-02K18,288,experiment,108,←,left,←,0.8998780000256374,True,18
X026-02K18,289,experiment,96,←,left,←,0.7973839000042062,True,18
X026-02K18,290,experiment,48,↓,down,↓,0.8879855000122916,True,18
X026-02K18,291,experiment,156,↓,down,↓,0.7226085000147577,True,18
X026-02K18,292,experiment,36,→,right,→,0.7183174000238068,True,18
X026-02K18,293,experiment,12,↑,up,↑,0.6081635000009555,True,18
X026-02K18,294,experiment,108,↓,down,↓,1.2819783999875654,True,18
X026-02K18,295,experiment,108,←,left,←,0.8532105000049341,True,18
X026-02K18,296,experiment,180,←,left,←,0.6657166999939363,True,18
X026-02K18,297,experiment,144,→,left,←,0.6703226999961771,False,18
X026-02K18,298,experiment,36,↓,down,↓,0.7845569000055548,True,18
X026-02K18,299,experiment,24,↑,up,↑,0.7035837000003085,True,18
X026-02K18,300,experiment,72,→,right,→,0.550134999997681,True,18
X026-02K18,301,experiment,24,←,left,←,0.6740027000196278,True,18
X026-02K18,302,experiment,12,↑,up,↑,0.5425641000038013,True,18
X026-02K18,303,experiment,144,↓,left,←,0.5466103999933694,False,18
X026-02K18,304,experiment,156,←,left,←,0.6666111999948043,True,18
X026-02K18,305,experiment,48,↑,up,↑,0.7859477000019979,True,18
X026-02K18,306,experiment,120,↑,up,↑,0.5211674000020139,True,18
X026-02K18,307,experiment,180,←,left,←,0.598828299989691,True,18
X026-02K18,308,experiment,12,→,left,←,0.47453999999561347,False,18
X026-02K18,309,experiment,180,↑,up,↑,0.743007300014142,True,18
X026-02K18,310,experiment,36,↑,up,↑,0.6090672000136692,True,18
X026-02K18,311,experiment,180,↑,down,↓,0.8540766999940388,False,18
X026-02K18,312,experiment,120,↑,up,↑,0.5981534000020474,True,18
X026-02K18,313,experiment,72,←,left,←,0.5905916000192519,True,18
X026-02K18,314,experiment,60,↓,down,↓,0.8588251000037417,True,18
X026-02K18,315,experiment,96,↑,up,↑,0.5269552000099793,True,18
X026-02K18,316,experiment,36,↑,up,↑,0.5297233999881428,True,18
X026-02K18,317,experiment,72,←,left,←,0.5964609000075143,True,18
X026-02K18,318,experiment,60,↑,up,↑,0.6669150999805424,True,18
X026-02K18,319,experiment,156,↓,up,↑,0.651178300002357,False,18
X026-02K18,320,experiment,12,↑,up,↑,0.6225503000023309,True,18
X026-02K18,321,experiment,144,↓,up,↑,0.5173204000166152,False,18
X026-02K18,322,experiment,168,→,right,→,0.7783606000011787,True,18
X026-02K18,323,experiment,84,↑,down,↓,0.7191727999888826,False,18
X026-02K18,324,experiment,72,↑,up,↑,0.4172488999902271,True,18
X026-02K18,325,experiment,48,↓,down,↓,0.8161259000189602,True,18
X026-02K18,326,experiment,168,↑,up,↑,0.6925388000090607,True,18
X026-02K18,327,experiment,120,←,right,→,0.6306474000157323,False,18
X026-02K18,328,experiment,24,↑,up,↑,0.5197291999938898,True,18
X026-02K18,329,experiment,168,→,right,→,0.6235601000080351,True,18
X026-02K18,330,experiment,84,↑,up,↑,0.5279725999862421,True,18
X026-02K18,331,experiment,84,↑,up,↑,0.5571636999957263,True,18
X026-02K18,332,experiment,156,↑,up,↑,0.5179987000010442,True,18
X026-02K18,333,experiment,24,↓,up,↑,0.4855195999844,False,18
X026-02K18,334,experiment,60,→,up,↑,0.9077920000127051,False,18
X026-02K18,335,experiment,132,←,left,←,0.5740984999865759,True,18
X026-02K18,336,experiment,108,↓,down,↓,0.7295740000263322,True,18
X026-02K18,337,experiment,132,←,left,←,0.5599615999963135,True,18
X026-02K18,338,experiment,144,→,right,→,0.5704605999926571,True,18
X026-02K18,339,experiment,120,→,right,→,0.49936660000821576,True,18
X026-02K18,340,experiment,96,↑,up,↑,0.6938708999950904,True,18
X026-02K18,341,experiment,60,↑,up,↑,0.6411810999852605,True,18
X026-02K18,342,experiment,132,↓,down,↓,0.780843399988953,True,18
X026-02K18,343,experiment,168,↑,up,↑,0.6803652999806218,True,18
X026-02K18,344,experiment,132,↑,up,↑,0.5810868999978993,True,18
X026-02K18,345,experiment,48,←,right,→,0.9002550999866799,False,18
X026-02K18,346,training,120,→,left,←,0.6207624999806285,False,18
X026-02K18,347,training,96,↓,down,↓,0.7527652999851853,True,18
X026-02K18,348,training,144,→,right,→,1.2939884999941569,True,18
X026-02K18,349,experiment,84,↓,down,↓,0.7058093000086956,True,18
X026-02K18,350,experiment,48,↓,down,↓,0.659885300003225,True,18
X026-02K18,351,experiment,168,→,right,→,0.5997401000058744,True,18
X026-02K18,352,experiment,144,↑,up,↑,0.47778139999718405,True,18
X026-02K18,353,experiment,156,↓,down,↓,0.6923329000128433,True,18
X026-02K18,354,experiment,60,↑,up,↑,0.7278514999779873,True,18
X026-02K18,355,experiment,180,←,left,←,0.5923677000100724,True,18
X026-02K18,356,experiment,96,←,right,→,0.5455880999797955,False,18
X026-02K18,357,experiment,132,↑,up,↑,0.5784013000084087,True,18
X026-02K18,358,experiment,132,←,right,→,0.38420010000118054,False,18
X026-02K18,359,experiment,168,↑,up,↑,0.40034380002180114,True,18
X026-02K18,360,experiment,156,←,right,→,0.4731104999955278,False,18
X026-02K18,361,experiment,168,→,right,→,0.5563058000116143,True,18
X026-02K18,362,experiment,36,→,right,→,1.3027942999906372,True,18
X026-02K18,363,experiment,72,↓,down,↓,0.8665919000050053,True,18
X026-02K18,364,experiment,48,→,right,→,1.2068652999878395,True,18
X026-02K18,365,experiment,84,↑,up,↑,0.5255590999731794,True,18
X026-02K18,366,experiment,120,↑,up,↑,1.1052795999858063,True,18
X026-02K18,367,experiment,36,←,left,←,0.5054020999814384,True,18
X026-02K18,368,experiment,108,←,left,←,0.5006116000004113,True,18
X026-02K18,369,experiment,120,↑,up,↑,0.5964836000057403,True,18
X026-02K18,370,experiment,108,↓,up,↑,0.6601250999956392,False,18
X026-02K18,371,experiment,180,↑,up,↑,0.5339825999981258,True,18
X026-02K18,372,experiment,132,↑,up,↑,0.5746691999956965,True,18
X026-02K18,373,experiment,84,↑,up,↑,0.49113739997847006,True,18
X026-02K18,374,experiment,12,→,right,→,0.6506276000000071,True,18
X026-02K18,375,experiment,60,←,left,←,0.5788663999992423,True,18
X026-02K18,376,experiment,12,↑,up,↑,0.5203588999866042,True,18
X026-02K18,377,experiment,84,→,right,→,0.5657736999855842,True,18
X026-02K18,378,experiment,108,↓,down,↓,1.017695399990771,True,18
X026-02K18,379,experiment,72,↓,down,↓,0.6946584999968763,True,18
X026-02K18,380,experiment,156,↓,down,↓,0.7668128999939654,True,18
X026-02K18,381,experiment,72,←,right,→,0.6311342999979388,False,18
X026-02K18,382,experiment,180,↑,up,↑,0.6484704999893438,True,18
X026-02K18,383,experiment,48,←,right,→,1.455780100019183,False,18
X026-02K18,384,experiment,180,↑,up,↑,0.4936472999979742,True,18
X026-02K18,385,experiment,108,↓,down,↓,0.7239128999935929,True,18
X026-02K18,386,experiment,24,←,left,←,0.6971945000113919,True,18
X026-02K18,387,experiment,36,→,right,→,0.5704372999898624,True,18
X026-02K18,388,experiment,144,↓,right,→,0.43370080000022426,False,18
X026-02K18,389,experiment,36,←,right,→,0.6671905999828596,False,18
X026-02K18,390,experiment,144,↑,up,↑,0.8236493000003975,True,18
X026-02K18,391,experiment,96,↓,down,↓,0.7665815000073053,True,18
X026-02K18,392,experiment,156,←,left,←,0.8313543999975082,True,18
X026-02K18,393,experiment,144,↓,down,↓,0.9205858999921475,True,18
X026-02K18,394,experiment,168,↓,down,↓,0.8065289999940433,True,18
X026-02K18,395,experiment,96,↓,up,↑,0.9255004999868106,False,18
X026-02K18,396,experiment,24,→,right,→,0.5899558000091929,True,18
X026-02K18,397,experiment,120,→,right,→,0.652782200020738,True,18
X026-02K18,398,experiment,48,↓,down,↓,0.9181398000218906,True,18
X026-02K18,399,experiment,12,↑,up,↑,0.5805467999889515,True,18
X026-02K18,400,experiment,72,→,right,→,0.5725358000199776,True,18
X026-02K18,401,experiment,12,↑,up,↑,0.6617828000162262,True,18
X026-02K18,402,experiment,132,→,right,→,0.5461758000019472,True,18
X026-02K18,403,experiment,120,→,right,→,0.4333274000091478,True,18
X026-02K18,404,experiment,60,←,left,←,0.729869000002509,True,18
X026-02K18,405,experiment,24,↓,up,↑,1.3062853000010364,False,18
X026-02K18,406,experiment,24,↑,up,↑,1.4037240000034217,True,18
X026-02K18,407,experiment,60,→,right,→,0.5980411999917123,True,18
X026-02K18,408,experiment,96,←,left,←,0.6022136000101455,True,18
X026-02K18,409,training,36,←,right,→,0.76424020002014,False,18
X026-02K18,410,training,132,←,left,←,0.6836774999974295,True,18
X026-02K18,411,training,180,→,right,→,0.5593741000047885,True,18
X026-02K18,412,experiment,168,→,right,→,1.19555709999986,True,18
X026-02K18,413,experiment,48,↑,up,↑,0.7405631000001449,True,18
X026-02K18,414,experiment,72,↓,down,↓,0.8043291999783833,True,18
X026-02K18,415,experiment,108,↑,up,↑,1.088122499990277,True,18
X026-02K18,416,experiment,36,↑,up,↑,0.5362447999941651,True,18
X026-02K18,417,experiment,72,←,right,→,0.8738997000036761,False,18
X026-02K18,418,experiment,96,→,right,→,0.5859383000060916,True,18
X026-02K18,419,experiment,36,→,right,→,1.1460496000072453,True,18
X026-02K18,420,experiment,60,→,right,→,0.4005192999902647,True,18
X026-02K18,421,experiment,144,↑,up,↑,0.5226902000140399,True,18
X026-02K18,422,experiment,84,↓,up,↑,0.5266468999907374,False,18
X026-02K18,423,experiment,108,→,right,→,0.5832705000066198,True,18
X026-02K18,424,experiment,132,↓,down,↓,0.7269822000234853,True,18
X026-02K18,425,experiment,12,↑,up,↑,0.5924150999926496,True,18
X026-02K18,426,experiment,156,↑,down,↓,0.6754549999895971,False,18
X026-02K18,427,experiment,120,↓,down,↓,0.7486585000006016,True,18
X026-02K18,428,experiment,36,↑,up,↑,1.0996694999921601,True,18
X026-02K18,429,experiment,12,↑,up,↑,0.6198564000078477,True,18
X026-02K18,430,experiment,24,→,right,→,0.6713859000010416,True,18
X026-02K18,431,experiment,60,→,right,→,0.76749529998051,True,18
X026-02K18,432,experiment,96,→,right,→,0.5961251000117045,True,18
X026-02K18,433,experiment,12,→,right,→,0.5845275999745354,True,18
X026-02K18,434,experiment,36,↓,down,↓,0.7281226000050083,True,18
X026-02K18,435,experiment,156,↑,up,↑,0.9157410000043456,True,18
X026-02K18,436,experiment,60,←,left,←,0.7354411000269465,True,18
X026-02K18,437,experiment,168,↓,down,↓,0.7445621999795549,True,18
X026-02K18,438,experiment,120,←,left,←,1.2509390999912284,True,18
X026-02K18,439,experiment,72,↑,up,↑,0.550287499994738,True,18
X026-02K18,440,experiment,60,↓,down,↓,0.6700066000048537,True,18
X026-02K18,441,experiment,132,←,left,←,0.7945653000206221,True,18
X026-02K18,442,experiment,144,←,left,←,1.0891322999959812,True,18
X026-02K18,443,experiment,168,↓,up,↑,0.9194682999805082,False,18
X026-02K18,444,experiment,12,↑,up,↑,0.7931075999804307,True,18
X026-02K18,445,experiment,108,←,left,←,0.6437750999757554,True,18
X026-02K18,446,experiment,48,←,left,←,0.7561406999884639,True,18
X026-02K18,447,experiment,156,←,left,←,0.6040970999747515,True,18
X026-02K18,448,experiment,24,←,left,←,0.6977010999980848,True,18
X026-02K18,449,experiment,120,↑,up,↑,0.7343007000163198,True,18
X026-02K18,450,experiment,84,↓,down,↓,0.8726079000043683,True,18
X026-02K18,451,experiment,180,←,left,←,0.49596730002667755,True,18
X026-02K18,452,experiment,96,↑,up,↑,0.726027199998498,True,18
X026-02K18,453,experiment,132,↓,down,↓,0.6835268000140786,True,18
X026-02K18,454,experiment,48,→,right,→,1.1299366000166629,True,18
X026-02K18,455,experiment,180,→,right,→,0.61537870002212,True,18
X026-02K18,456,experiment,144,↑,up,↑,0.5761015999887604,True,18
X026-02K18,457,experiment,24,→,right,→,0.7641054000123404,True,18
X026-02K18,458,experiment,180,↑,down,↓,1.1328931000025477,False,18
X026-02K18,459,experiment,144,↓,up,↑,0.6749659999914002,False,18
X026-02K18,460,experiment,84,→,right,→,0.5364869999757502,True,18
X026-02K18,461,experiment,48,↓,down,↓,0.7288195000146516,True,18
X026-02K18,462,experiment,180,↑,up,↑,0.6345419999852311,True,18
X026-02K18,463,experiment,72,→,right,→,0.9735814999730792,True,18
X026-02K18,464,experiment,120,↑,up,↑,0.41712299999198876,True,18
X026-02K18,465,experiment,132,←,right,→,0.5596294999995735,False,18
X026-02K18,466,experiment,108,↑,up,↑,0.8012643000110984,True,18
X026-02K18,467,experiment,168,↓,down,↓,0.8393089000019245,True,18
X026-02K18,468,experiment,84,→,right,→,0.5446067999873776,True,18
X026-02K18,469,experiment,156,→,right,→,0.4930041000188794,True,18
X026-02K18,470,experiment,96,→,left,←,0.8362500000221189,False,18
X026-02K18,471,experiment,24,↑,up,↑,0.552218199998606,True,18
X026-02K18,472,training,72,↑,up,↑,0.5133020000066608,True,18
X026-02K18,473,training,84,↑,up,↑,1.0658089999924414,True,18
X026-02K18,474,training,180,↓,up,↑,0.4006214999826625,False,18
X026-02K18,475,experiment,96,↓,down,↓,0.6286621000035666,True,18
X026-02K18,476,experiment,120,↓,up,↑,0.80770930001745,False,18
X026-02K18,477,experiment,156,←,left,←,0.5084372999845073,True,18
X026-02K18,478,experiment,96,←,left,←,0.7616446000174619,True,18
X026-02K18,479,experiment,180,↑,up,↑,0.6371252000099048,True,18
X026-02K18,480,experiment,156,↓,down,↓,0.8278035999974236,True,18
X026-02K18,481,experiment,48,↑,up,↑,0.5999248999869451,True,18
X026-02K18,482,experiment,156,←,left,←,0.6747165999840945,True,18
X026-02K18,483,experiment,60,↑,up,↑,0.5712954000046011,True,18
X026-02K18,484,experiment,72,→,left,←,0.5342502999992575,False,18
X026-02K18,485,experiment,132,↑,up,↑,0.3839031000097748,True,18
X026-02K18,486,experiment,144,←,left,←,0.5526084000011906,True,18
X026-02K18,487,experiment,24,↓,up,↑,0.5549245000001974,False,18
X026-02K18,488,experiment,12,←,left,←,0.6233989000029396,True,18
X026-02K18,489,experiment,144,←,left,←,0.48390430002473295,True,18
X026-02K18,490,experiment,120,↑,up,↑,1.2143937000073493,True,18
X026-02K18,491,experiment,180,↑,up,↑,0.7044973000010941,True,18
X026-02K18,492,experiment,84,→,right,→,0.6219714999897406,True,18
X026-02K18,493,experiment,12,↓,up,↑,0.6430324999964796,False,18
X026-02K18,494,experiment,48,↑,down,↓,1.6369728000136092,False,18
X026-02K18,495,experiment,48,←,left,←,0.4885663999884855,True,18
X026-02K18,496,experiment,60,←,left,←,0.47064090002095327,True,18
X026-02K18,497,experiment,96,→,right,→,0.678965099999914,True,18
X026-02K18,498,experiment,108,↑,up,↑,0.5548661999928299,True,18
X026-02K18,499,experiment,12,→,right,→,0.6677395000006072,True,18
X026-02K18,500,experiment,24,→,left,←,0.5143286999955308,False,18
X026-02K18,501,experiment,132,→,right,→,0.587255099992035,True,18
X026-02K18,502,experiment,60,←,left,←,0.8337354999966919,True,18
X026-02K18,503,experiment,180,↑,up,↑,0.5085908999899402,True,18
X026-02K18,504,experiment,108,↓,up,↑,0.4338502000027802,False,18
X026-02K18,505,experiment,36,→,right,→,0.6348970999824814,True,18
X026-02K18,506,experiment,48,←,left,←,0.5975098999915645,True,18
X026-02K18,507,experiment,36,→,left,←,0.47887940000509843,False,18
X026-02K18,508,experiment,84,←,left,←,0.6713602000090759,True,18
X026-02K18,509,experiment,24,↑,up,↑,0.6230200999998488,True,18
X026-02K18,510,experiment,84,←,left,←,0.8046643000270706,True,18
X026-02K18,511,experiment,12,↓,down,↓,0.7090579000068828,True,18
X026-02K18,512,experiment,168,↓,down,↓,0.7514303000061773,True,18
X026-02K18,513,experiment,96,←,left,←,0.43373889999929816,True,18
X026-02K18,514,experiment,132,↑,up,↑,0.7939459000190254,True,18
X026-02K18,515,experiment,36,←,left,←,0.6982776999939233,True,18
X026-02K18,516,experiment,84,←,right,→,0.6284616000193637,False,18
X026-02K18,517,experiment,144,→,right,→,0.6278370999789331,True,18
X026-02K18,518,experiment,72,←,left,←,0.581944100005785,True,18
X026-02K18,519,experiment,108,↑,up,↑,0.6313832000014372,True,18
X026-02K18,520,experiment,108,↓,down,↓,0.9264168000081554,True,18
X026-02K18,521,experiment,168,←,left,←,0.633841000002576,True,18
X026-02K18,522,experiment,144,←,left,←,0.7184553999977652,True,18
X026-02K18,523,experiment,132,←,left,←,0.5289467000111472,True,18
X026-02K18,524,experiment,36,↓,down,↓,0.864017200015951,True,18
X026-02K18,525,experiment,72,←,left,←,0.6551732000079937,True,18
X026-02K18,526,experiment,156,↑,up,↑,0.7722393000149168,True,18
X026-02K18,527,experiment,168,←,left,←,0.5860448000021279,True,18
X026-02K18,528,experiment,180,↑,up,↑,0.5662676999927498,True,18
X026-02K18,529,experiment,24,↓,down,↓,0.8116658000217285,True,18
X026-02K18,530,experiment,120,↓,down,↓,0.6819747000117786,True,18
X026-02K18,531,experiment,120,↑,up,↑,0.6214435999863781,True,18
X026-02K18,532,experiment,72,→,right,→,0.5795721999893431,True,18
X026-02K18,533,experiment,60,↓,down,↓,0.7319093000260182,True,18
X026-02K18,534,experiment,168,→,right,→,0.6771314000070561,True,18
X026-02K18,535,training,120,←,left,←,1.0245212999871,True,18
X026-02K18,536,training,48,→,right,→,0.5318489000201225,True,18
X026-02K18,537,training,132,→,right,→,0.5742216999933589,True,18
X026-02K18,538,experiment,36,↑,up,↑,0.6486165999958757,True,18
X026-02K18,539,experiment,156,←,right,→,0.6804949000070337,False,18
X026-02K18,540,experiment,168,↑,up,↑,0.5520962000009604,True,18
X026-02K18,541,experiment,96,↓,down,↓,0.7849095000128727,True,18
X026-02K18,542,experiment,168,↓,down,↓,0.6713569000130519,True,18
X026-02K18,543,experiment,144,→,right,→,0.5608460999792442,True,18
X026-02K18,544,experiment,144,→,left,←,0.8193858999875374,False,18
X026-02K18,545,experiment,132,↓,down,↓,0.6647156999970321,True,18
X026-02K18,546,experiment,108,↑,up,↑,0.7876363000250421,True,18
X026-02K18,547,experiment,48,→,right,→,0.5304050999984611,True,18
X026-02K18,548,experiment,12,↑,up,↑,0.6697114999988116,True,18
X026-02K18,549,experiment,168,←,left,←,0.5458769999968354,True,18
X026-02K18,550,experiment,84,→,right,→,0.5803135999885853,True,18
X026-02K18,551,experiment,24,↑,up,↑,0.6268220999918412,True,18
X026-02K18,552,experiment,108,↓,down,↓,1.0868641000124626,True,18
X026-02K18,553,experiment,72,→,right,→,0.6235261000110768,True,18
X026-02K18,554,experiment,12,→,right,→,0.528358899988234,True,18
X026-02K18,555,experiment,60,←,left,←,0.6578106000088155,True,18
X026-02K18,556,experiment,36,↑,down,↓,0.7686432000191417,False,18
X026-02K18,557,experiment,84,↑,up,↑,0.4002397000149358,True,18
X026-02K18,558,experiment,60,↓,down,↓,0.8039208000118379,True,18
X026-02K18,559,experiment,120,↓,down,↓,0.7604317000077572,True,18
X026-02K18,560,experiment,168,→,right,→,0.5803889999806415,True,18
X026-02K18,561,experiment,60,←,left,←,0.6232121999782976,True,18
X026-02K18,562,experiment,132,↓,down,↓,0.68511639998178,True,18
X026-02K18,563,experiment,96,↑,up,↑,0.6951757000060752,True,18
X026-02K18,564,experiment,180,↑,up,↑,0.6772839000041131,True,18
X026-02K18,565,experiment,72,↓,down,↓,0.7626650000165682,True,18
X026-02K18,566,experiment,72,↓,down,↓,0.6222973999974784,True,18
X026-02K18,567,experiment,144,←,right,→,0.504638700018404,False,18
X026-02K18,568,experiment,108,↓,down,↓,0.6075043000164442,True,18
X026-02K18,569,experiment,12,→,right,→,0.49929080001311377,True,18
X026-02K18,570,experiment,132,←,down,↓,0.9895474000077229,False,18
X026-02K18,571,experiment,156,↓,down,↓,0.9658962999819778,True,18
X026-02K18,572,experiment,144,→,left,←,0.7705319999950007,False,18
X026-02K18,573,experiment,96,→,left,←,0.4697866000060458,False,18
X026-02K18,574,experiment,48,↓,down,↓,0.7280159000074491,True,18
X026-02K18,575,experiment,96,→,left,←,0.5831400000024587,False,18
X026-02K18,576,experiment,12,→,right,→,0.5997067999851424,True,18
X026-02K18,577,experiment,36,←,left,←,0.49195150000741705,True,18
X026-02K18,578,experiment,84,↓,down,↓,0.7048728999798186,True,18
X026-02K18,579,experiment,72,↑,up,↑,0.5715300000156276,True,18
X026-02K18,580,experiment,132,↓,down,↓,0.6130891999928281,True,18
X026-02K18,581,experiment,180,→,left,←,0.6805728999897838,False,18
X026-02K18,582,experiment,156,↓,left,←,0.3671320999856107,False,18
X026-02K18,583,experiment,36,←,left,←,0.7562100999930408,True,18
X026-02K18,584,experiment,120,↓,down,↓,0.7792687000182923,True,18
X026-02K18,585,experiment,156,←,up,↑,0.28396120000979863,False,18
X026-02K18,586,experiment,60,↑,down,↓,1.5717370000202209,False,18
X026-02K18,587,experiment,24,↓,down,↓,0.8576868000091054,True,18
X026-02K18,588,experiment,180,←,left,←,0.595661100000143,True,18
X026-02K18,589,experiment,120,←,right,→,0.40038770000683144,False,18
X026-02K18,590,experiment,108,→,left,←,0.6103240999800619,False,18
X026-02K18,591,experiment,180,→,right,→,0.611437500017928,True,18
X026-02K18,592,experiment,48,↑,up,↑,0.7080419999838341,True,18
X026-02K18,593,experiment,120,↓,down,↓,0.5759019000106491,True,18
X026-02K18,594,experiment,84,←,left,←,0.695095000002766,True,18
X026-02K18,595,experiment,24,↓,down,↓,0.7104546999908052,True,18
X026-02K18,596,experiment,24,↑,up,↑,0.7013866000052076,True,18
X026-02K18,597,experiment,48,↑,up,↑,1.247178999998141,True,18
X026-02K18,598,training,168,→,right,→,0.5427757000143174,True,18
X026-02K18,599,training,48,→,right,→,0.4823006000078749,True,18
X026-02K18,600,training,24,→,right,→,0.5308621000149287,True,18
X026-02K18,601,experiment,48,↑,up,↑,0.6131232000188902,True,18
X026-02K18,602,experiment,108,↓,down,↓,0.7340420999971684,True,18
X026-02K18,603,experiment,144,→,right,→,0.47979559999657795,True,18
X026-02K18,604,experiment,180,↑,up,↑,0.4339149000006728,True,18
X026-02K18,605,experiment,12,←,right,→,1.0345117999822833,False,18
X026-02K18,606,experiment,132,↓,down,↓,0.5956770999764558,True,18
X026-02K18,607,experiment,72,→,right,→,0.43363279997720383,True,18
X026-02K18,608,experiment,168,←,left,←,0.43390949998865835,True,18
X026-02K18,609,experiment,60,↓,down,↓,0.6821262000012212,True,18
X026-02K18,610,experiment,144,↑,up,↑,0.6911820000095759,True,18
X026-02K18,611,experiment,84,↑,down,↓,0.9219837999844458,False,18
X026-02K18,612,experiment,24,←,left,←,0.5195877999940421,True,18
X026-02K18,613,experiment,108,↑,down,↓,1.0180637999728788,False,18
X026-02K18,614,experiment,72,↓,up,↑,0.6160012999898754,False,18
X026-02K18,615,experiment,84,→,right,→,0.7839050000184216,True,18
X026-02K18,616,experiment,72,→,left,←,0.38407079997705296,False,18
X026-02K18,617,experiment,36,→,right,→,1.1707711000053678,True,18
X026-02K18,618,experiment,84,↑,up,↑,0.6477525999944191,True,18
X026-02K18,619,experiment,180,←,left,←,0.555598100007046,True,18
X026-02K18,620,experiment,24,←,left,←,0.8632101000112016,True,18
X026-02K18,621,experiment,108,↓,down,↓,0.7946892000036314,True,18
X026-02K18,622,experiment,12,←,down,↓,1.1559593999991193,False,18
X026-02K18,623,experiment,132,←,left,←,0.36738599999807775,True,18
X026-02K18,624,experiment,120,←,left,←,0.5457371999800671,True,18
X026-02K18,625,experiment,60,↓,down,↓,0.9393362999835517,True,18
X026-02K18,626,experiment,156,↑,down,↓,1.1819966999755707,False,18
X026-02K18,627,experiment,132,↑,down,↓,0.7039328000100795,False,18
X026-02K18,628,experiment,168,↓,down,↓,0.6984916999936104,True,18
X026-02K18,629,experiment,48,→,right,→,0.7283688000170514,True,18
X026-02K18,630,experiment,168,↑,up,↑,0.7750224000192247,True,18
X026-02K18,631,experiment,156,↑,up,↑,0.546468200016534,True,18
X026-02K18,632,experiment,72,←,right,→,1.085601900005713,False,18
X026-02K18,633,experiment,168,←,left,←,0.569712199998321,True,18
X026-02K18,634,experiment,60,←,left,←,0.7077083000040147,True,18
X026-02K18,635,experiment,96,↑,up,↑,0.7439116000023205,True,18
X026-02K18,636,experiment,96,↓,down,↓,0.6748500999819953,True,18
X026-02K18,637,experiment,84,↑,up,↑,0.6140251999895554,True,18
X026-02K18,638,experiment,12,↓,up,↑,0.5094855000206735,False,18
X026-02K18,639,experiment,48,←,left,←,0.637141299986979,True,18
X026-02K18,640,experiment,120,↓,down,↓,0.702325699996436,True,18
X026-02K18,641,experiment,48,↓,down,↓,0.6809089999878779,True,18
X026-02K18,642,experiment,96,→,right,→,0.5724906999967061,True,18
X026-02K18,643,experiment,36,↑,up,↑,0.713798200013116,True,18
X026-02K18,644,experiment,180,↑,up,↑,0.6656179999990854,True,18
X026-02K18,645,experiment,180,←,left,←,1.234308900020551,True,18
X026-02K18,646,experiment,60,←,up,↑,0.7221686999837402,False,18
X026-02K18,647,experiment,24,→,right,→,1.1224667000060435,True,18
X026-02K18,648,experiment,36,←,right,→,0.4768798000004608,False,18
X026-02K18,649,experiment,120,→,right,→,0.5106261000037193,True,18
X026-02K18,650,experiment,156,↓,down,↓,0.78882230000454,True,18
X026-02K18,651,experiment,24,→,right,→,0.6708630000066478,True,18
X026-02K18,652,experiment,132,↑,up,↑,0.8757299999997485,True,18
X026-02K18,653,experiment,144,↓,down,↓,0.6734232000017073,True,18
X026-02K18,654,experiment,108,↑,up,↑,0.5483515000087209,True,18
X026-02K18,655,experiment,156,↑,up,↑,0.7925093999947421,True,18
X026-02K18,656,experiment,120,↑,up,↑,0.6072553999838419,True,18
X026-02K18,657,experiment,12,↓,down,↓,0.8402162000129465,True,18
X026-02K18,658,experiment,144,←,left,←,0.6263728000049014,True,18
X026-02K18,659,experiment,36,→,right,→,0.6495346000010613,True,18
X026-02K18,660,experiment,96,→,right,→,0.6150655999954324,True,18
X026-02K18,661,training,96,↑,up,↑,0.6324677000229713,True,18
X026-02K18,662,training,120,←,right,→,0.793699400004698,False,18
X026-02K18,663,training,180,↓,left,←,0.4004204000229947,False,18
X026-02K18,664,experiment,24,↑,up,↑,1.1673932000121567,True,18
X026-02K18,665,experiment,84,↑,up,↑,0.4696256000024732,True,18
X026-02K18,666,experiment,12,↓,down,↓,0.7814610000059474,True,18
X026-02K18,667,experiment,36,↓,down,↓,0.6640491999860387,True,18
X026-02K18,668,experiment,120,←,right,→,0.6886801999935415,False,18
X026-02K18,669,experiment,12,↑,up,↑,0.6267416000191588,True,18
X026-02K18,670,experiment,144,→,right,→,0.5987185999983922,True,18
X026-02K18,671,experiment,48,→,right,→,0.5814300000201911,True,18
X026-02K18,672,experiment,144,↑,up,↑,0.5621800000080839,True,18
X026-02K18,673,experiment,72,→,right,→,0.518892699998105,True,18
X026-02K18,674,experiment,120,↓,down,↓,0.8058943999931216,True,18
X026-02K18,675,experiment,48,↑,up,↑,0.5540515999891795,True,18
X026-02K18,676,experiment,24,↓,down,↓,0.760083700006362,True,18
X026-02K18,677,experiment,108,→,right,→,0.5746939000091515,True,18
X026-02K18,678,experiment,180,→,right,→,0.47994479999761097,True,18
X026-02K18,679,experiment,60,↑,up,↑,0.8774319000076503,True,18
X026-02K18,680,experiment,36,↑,up,↑,0.6295878000091761,True,18
X026-02K18,681,experiment,12,←,right,→,0.9213552000001073,False,18
X026-02K18,682,experiment,156,→,right,→,0.6115580999758095,True,18
X026-02K18,683,experiment,96,←,left,←,0.7346784999826923,True,18
X026-02K18,684,experiment,60,←,left,←,0.9456885000108741,True,18
X026-02K18,685,experiment,144,↓,down,↓,0.7809357999940403,True,18
X026-02K18,686,experiment,144,←,left,←,0.7659805000002962,True,18
X026-02K18,687,experiment,156,←,right,→,0.6059406000131276,False,18
X026-02K18,688,experiment,84,↑,up,↑,0.6027990999864414,True,18
X026-02K18,689,experiment,180,→,left,←,0.5246497000043746,False,18
X026-02K18,690,experiment,120,→,right,→,0.5574922999949194,True,18
X026-02K18,691,experiment,12,←,up,↑,0.9552247000101488,False,18
X026-02K18,692,experiment,72,←,left,←,1.0083261999825481,True,18
X026-02K18,693,experiment,108,↑,up,↑,0.7061572999809869,True,18
X026-02K18,694,experiment,72,←,left,←,0.6901057000213768,True,18
X026-02K18,695,experiment,132,→,right,→,0.6388385999889579,True,18
X026-02K18,696,experiment,168,↓,down,↓,0.7669039999891538,True,18
X026-02K18,697,experiment,96,↑,up,↑,0.5570196000044234,True,18
X026-02K18,698,experiment,60,↑,up,↑,0.5300232000008691,True,18
X026-02K18,699,experiment,48,↑,up,↑,0.6039129999990109,True,18
X026-02K18,700,experiment,24,→,right,→,0.6602134999993723,True,18
X026-02K18,701,experiment,108,←,right,→,0.5610672000038903,False,18
X026-02K18,702,experiment,180,↓,up,↑,0.5289532000024337,False,18
X026-02K18,703,experiment,120,↓,down,↓,0.6825561999867205,True,18
X026-02K18,704,experiment,72,→,right,→,0.6362919000093825,True,18
X026-02K18,705,experiment,84,←,left,←,0.7141191999835428,True,18
X026-02K18,706,experiment,36,←,right,→,0.8116313999926206,False,18
X026-02K18,707,experiment,168,↑,up,↑,0.6324438999872655,True,18
X026-02K18,708,experiment,168,←,left,←,0.6258036000072025,True,18
X026-02K18,709,experiment,24,→,right,→,0.7381431000248995,True,18
X026-02K18,710,experiment,132,↑,up,↑,0.5908201999845915,True,18
X026-02K18,711,experiment,60,→,right,→,0.5814843999978621,True,18
X026-02K18,712,experiment,48,↑,up,↑,0.5255967999983113,True,18
X026-02K18,713,experiment,96,↓,down,↓,0.7495129000162706,True,18
X026-02K18,714,experiment,132,→,right,→,0.5876467000052799,True,18
X026-02K18,715,experiment,36,↓,down,↓,0.7067299999762326,True,18
X026-02K18,716,experiment,156,→,right,→,0.5613052000117023,True,18
X026-02K18,717,experiment,96,↑,up,↑,0.8458759000059217,True,18
X026-02K18,718,experiment,108,↓,down,↓,0.628826600004686,True,18
X026-02K18,719,experiment,180,↓,down,↓,0.6552258000010625,True,18
X026-02K18,720,experiment,132,↑,up,↑,0.784437499998603,True,18
X026-02K18,721,experiment,84,←,left,←,0.6755352999898605,True,18
X026-02K18,722,experiment,168,←,left,←,0.6386590000183787,True,18
X026-02K18,723,experiment,156,→,right,→,0.5535012000182178,True,18
X026-02K18,724,training,60,→,right,→,0.9875591000018176,True,18
X026-02K18,725,training,120,↑,up,↑,0.6087056999967899,True,18
X026-02K18,726,training,60,↑,up,↑,0.41732429998228326,True,18
X026-02K18,727,experiment,84,↑,up,↑,0.494287199981045,True,18
X026-02K18,728,experiment,12,→,right,→,0.5484348000027239,True,18
X026-02K18,729,experiment,12,↑,up,↑,0.4834633000136819,True,18
X026-02K18,730,experiment,180,↑,up,↑,0.4962758999899961,True,18
X026-02K18,731,experiment,156,←,left,←,1.2747382999805268,True,18
X026-02K18,732,experiment,144,↑,up,↑,0.550967600021977,True,18
X026-02K18,733,experiment,72,↑,up,↑,0.5399535000033211,True,18
X026-02K18,734,experiment,120,←,left,←,0.6116729000059422,True,18
X026-02K18,735,experiment,24,←,left,←,0.7485528999823146,True,18
X026-02K18,736,experiment,96,←,left,←,0.6224469000007957,True,18
X026-02K18,737,experiment,168,←,left,←,0.6493829000100959,True,18
X026-02K18,738,experiment,168,←,left,←,0.5307425000064541,True,18
X026-02K18,739,experiment,36,↑,up,↑,0.6221832000010181,True,18
X026-02K18,740,experiment,132,→,right,→,0.6636868999921717,True,18
X026-02K18,741,experiment,36,↓,down,↓,0.9270865999860689,True,18
X026-02K18,742,experiment,156,↓,down,↓,0.7018051000195555,True,18
X026-02K18,743,experiment,84,←,left,←,0.689771599980304,True,18
X026-02K18,744,experiment,108,↑,up,↑,0.703298399981577,True,18
X026-02K18,745,experiment,132,←,right,→,0.6401845999935176,False,18
X026-02K18,746,experiment,72,↓,down,↓,0.7171399999933783,True,18
X026-02K18,747,experiment,60,→,right,→,0.9256819000001997,True,18
X026-02K18,748,experiment,72,→,up,↑,0.685862200014526,False,18
X026-02K18,749,experiment,132,↑,up,↑,0.7189940999960527,True,18
X026-02K18,750,experiment,84,↓,down,↓,0.671447700005956,True,18
X026-02K18,751,experiment,24,↑,up,↑,0.7010313000064343,True,18
X026-02K18,752,experiment,132,↑,up,↑,0.5137341000081506,True,18
X026-02K18,753,experiment,84,→,down,↓,0.3672777999890968,False,18
X026-02K18,754,experiment,180,↓,right,→,0.18378459999803454,False,18
X026-02K18,755,experiment,48,↓,down,↓,0.6177617000066675,True,18
X026-02K18,756,experiment,48,→,right,→,0.5461149000038859,True,18
X026-02K18,757,experiment,144,↑,up,↑,0.7423142000043299,True,18
X026-02K18,758,experiment,72,↑,up,↑,0.9635634000005666,True,18
X026-02K18,759,experiment,96,↑,up,↑,0.5525330000091344,True,18
X026-02K18,760,experiment,156,↓,down,↓,0.7330055999918841,True,18
X026-02K18,761,experiment,180,←,right,→,0.5408368999778759,False,18
X026-02K18,762,experiment,120,→,left,←,0.4001836999959778,False,18
X026-02K18,763,experiment,96,↑,up,↑,0.539619200018933,True,18
X026-02K18,764,experiment,108,←,left,←,0.7262115000048652,True,18
X026-02K18,765,experiment,36,↓,up,↑,0.7940209000080358,False,18
X026-02K18,766,experiment,12,→,right,→,0.8732213999901433,True,18
X026-02K18,767,experiment,168,→,right,→,0.5433944000105839,True,18
X026-02K18,768,experiment,48,←,right,→,0.4975552000105381,False,18
X026-02K18,769,experiment,120,↑,up,↑,0.650421099999221,True,18
X026-02K18,770,experiment,144,→,right,→,0.6148335000034422,True,18
X026-02K18,771,experiment,60,↑,up,↑,0.5962246999843046,True,18
X026-02K18,772,experiment,48,←,left,←,0.6753565999970306,True,18
X026-02K18,773,experiment,12,↑,up,↑,1.3004468999861274,True,18
X026-02K18,774,experiment,108,↓,down,↓,0.7964231999940239,True,18
X026-02K18,775,experiment,168,→,right,→,0.5646872000070289,True,18
X026-02K18,776,experiment,24,↑,up,↑,0.5996304999862332,True,18
X026-02K18,777,experiment,24,↓,down,↓,0.74843839998357,True,18
X026-02K18,778,experiment,96,↓,down,↓,0.8604557999933604,True,18
X026-02K18,779,experiment,156,→,right,→,0.5265528000018094,True,18
X026-02K18,780,experiment,144,↓,down,↓,0.7617180999950506,True,18
X026-02K18,781,experiment,180,↑,right,→,0.5365288000029977,False,18
X026-02K18,782,experiment,120,→,right,→,0.5065643000125419,True,18
X026-02K18,783,experiment,60,↑,up,↑,0.654025099996943,True,18
X026-02K18,784,experiment,60,↑,up,↑,1.1489807000034489,True,18
X026-02K18,785,experiment,36,↓,up,↑,0.6829578999895602,False,18
X026-02K18,786,experiment,108,←,right,→,0.475318500015419,False,18
X026-02K18,787,training,24,←,up,↑,0.9087483999901451,False,18
X026-02K18,788,training,168,←,left,←,0.5451843999908306,True,18
X026-02K18,789,training,96,↑,up,↑,0.6548858000023756,True,18
X026-02K18,790,experiment,132,→,right,→,0.6827253999945242,True,18
X026-02K18,791,experiment,108,↓,down,↓,0.716470199986361,True,18
X026-02K18,792,experiment,120,→,right,→,0.6076194000197574,True,18
X026-02K18,793,experiment,120,←,left,←,0.6707296000095084,True,18
X026-02K18,794,experiment,132,↑,up,↑,0.49034150000079535,True,18
X026-02K18,795,experiment,144,↓,up,↑,0.6969312999863178,False,18
X026-02K18,796,experiment,12,←,left,←,0.7025470999942627,True,18
X026-02K18,797,experiment,72,→,left,←,0.4172614999988582,False,18
X026-02K18,798,experiment,180,↑,up,↑,0.5388009000162128,True,18
X026-02K18,799,experiment,96,↓,down,↓,0.8868042999820318,True,18
X026-02K18,800,experiment,84,↓,up,↑,0.7509325999999419,False,18
X026-02K18,801,experiment,156,↑,up,↑,0.657671399996616,True,18
X026-02K18,802,experiment,84,→,right,→,0.6279773999995086,True,18
X026-02K18,803,experiment,60,→,right,→,0.5933275999850594,True,18
X026-02K18,804,experiment,144,←,left,←,0.635736199998064,True,18
X026-02K18,805,experiment,12,↓,down,↓,0.7187514000106603,True,18
X026-02K18,806,experiment,132,→,right,→,0.7354173999920022,True,18
X026-02K18,807,experiment,36,↓,down,↓,0.7835947999847122,True,18
X026-02K18,808,experiment,96,←,up,↑,0.383866099989973,False,18
X026-02K18,809,experiment,168,↓,right,→,0.18415079999249429,False,18
X026-02K18,810,experiment,156,↑,up,↑,0.18379099998855963,True,18
X026-02K18,811,experiment,72,↓,left,←,0.28384759998880327,False,18
X026-02K18,812,experiment,48,↑,left,←,0.36694920001900755,False,18
X026-02K18,813,experiment,72,↑,down,↓,0.5003270999877714,False,18
X026-02K18,814,experiment,84,↓,right,→,0.0338159000093583,False,18
X026-02K18,815,experiment,168,↑,up,↑,0.5248845999885816,True,18
X026-02K18,816,experiment,168,←,up,↑,0.5992074000241701,False,18
X026-02K18,817,experiment,168,↓,up,↑,1.1858999000105541,False,18
X026-02K18,818,experiment,36,↑,up,↑,0.9256781000003684,True,18
X026-02K18,819,experiment,180,↑,up,↑,0.49481450000894256,True,18
X026-02K18,820,experiment,156,←,left,←,0.983794100000523,True,18
X026-02K18,821,experiment,108,↑,up,↑,0.47382779998588376,True,18
X026-02K18,822,experiment,60,↓,down,↓,0.6814503000059631,True,18
X026-02K18,823,experiment,48,↑,up,↑,0.5597899999993388,True,18
X026-02K18,824,experiment,48,→,right,→,0.5018827999883797,True,18
X026-02K18,825,experiment,180,↑,up,↑,1.0362373999960255,True,18
X026-02K18,826,experiment,96,←,right,→,1.0866354000172578,False,18
X026-02K18,827,experiment,120,↑,up,↑,0.5356544999813195,True,18
X026-02K18,828,experiment,24,↓,down,↓,0.911303200002294,True,18
X026-02K18,829,experiment,132,↓,down,↓,0.7057460999931209,True,18
X026-02K18,830,experiment,156,↑,up,↑,0.776706100004958,True,18
X026-02K18,831,experiment,12,↑,no_key,no_letter,-1.0,False,18
X026-02K18,832,experiment,180,←,right,→,0.5575868999876548,False,18
X026-02K18,833,experiment,144,↑,up,↑,0.8373781999980565,True,18
X026-02K18,834,experiment,36,→,right,→,0.4696442999993451,True,18
X026-02K18,835,experiment,24,↓,down,↓,0.757584599981783,True,18
X026-02K18,836,experiment,60,→,right,→,0.6373804999748245,True,18
X026-02K18,837,experiment,108,→,left,←,0.5067643000220414,False,18
X026-02K18,838,experiment,60,↓,down,↓,0.8207078000123147,True,18
X026-02K18,839,experiment,36,→,right,→,0.5667029999895021,True,18
X026-02K18,840,experiment,12,↑,up,↑,0.5457306000171229,True,18
X026-02K18,841,experiment,96,←,up,↑,0.5550388999981806,False,18
X026-02K18,842,experiment,24,↓,down,↓,0.6714625000022352,True,18
X026-02K18,843,experiment,108,→,right,→,0.5495323000068311,True,18
X026-02K18,844,experiment,120,←,right,→,0.33391580000170507,False,18
X026-02K18,845,experiment,48,→,left,←,0.6223752000078093,False,18
X026-02K18,846,experiment,72,→,right,→,0.6110844999784604,True,18
X026-02K18,847,experiment,144,↑,right,→,0.4003636999987066,False,18
X026-02K18,848,experiment,84,←,left,←,0.5719503999862354,True,18
X026-02K18,849,experiment,24,←,right,→,0.5383582999929786,False,18
