PART_ID,Trial_no,Trial_type,PDI,Stim_letter,Key_pressed,letter_choose,Rt,Corr,Stimulus Time
X027K24,1,training,10,↓,no_key,no_letter,-1.0,False,30
X027K24,2,training,10,↑,up,↑,0.6918742000125349,True,30
X027K24,3,training,10,→,down,↓,0.5338437000173144,False,30
X027K24,4,training,10,↓,down,↓,0.9663554999860935,True,30
X027K24,5,training,10,↓,down,↓,0.6010948999901302,True,30
X027K24,6,training,10,↓,down,↓,0.5838180999853648,True,30
X027K24,7,training,10,←,down,↓,0.4338763999985531,False,30
X027K24,8,training,10,←,right,→,0.5674195000319742,False,30
X027K24,9,training,10,↑,down,↓,0.517325599968899,False,30
X027K24,10,training,10,←,down,↓,0.7878717999556102,False,30
X027K24,11,training,10,→,no_key,no_letter,-1.0,False,30
X027K24,12,training,10,←,down,↓,0.5342074999934994,False,30
X027K24,13,training,10,→,right,→,1.7170779999578372,True,30
X027K24,14,training,10,↓,up,↑,1.4325335000175983,False,30
X027K24,15,training,10,→,right,→,1.0954690999933518,True,30
X027K24,16,training,10,→,right,→,0.7134530000039376,True,30
X027K24,17,training,10,↑,up,↑,0.5673393000033684,True,30
X027K24,18,training,10,↑,up,↑,0.7657800000160933,True,30
X027K24,19,training,10,↓,up,↑,1.2907341999816708,False,30
X027K24,20,training,10,↓,down,↓,0.7810046999948099,True,30
X027K24,21,training,10,↓,down,↓,0.5689975999994203,True,18
X027K24,22,training,10,→,right,→,0.567926499992609,True,18
X027K24,23,training,10,←,down,↓,0.2680526999756694,False,18
X027K24,24,training,10,→,right,→,0.4676678000250831,True,18
X027K24,25,training,10,↑,up,↑,0.4833156000240706,True,18
X027K24,26,training,10,→,right,→,0.6869161000358872,True,18
X027K24,27,training,10,↑,no_key,no_letter,-1.0,False,18
X027K24,28,training,10,↓,down,↓,1.4101830000290647,True,18
X027K24,29,training,10,↑,down,↓,1.304559700016398,False,18
X027K24,30,training,10,↓,right,→,0.5204280999605544,False,18
X027K24,31,training,168,→,right,→,0.994668899977114,True,15
X027K24,32,training,60,←,down,↓,0.5726091000251472,False,15
X027K24,33,training,180,↑,right,→,0.9206165999639779,False,15
X027K24,34,experiment,156,↓,down,↓,0.7946035000495613,True,15
X027K24,35,experiment,24,↓,down,↓,1.4988366000470705,True,15
X027K24,36,experiment,96,→,left,←,1.029672299977392,False,15
X027K24,37,experiment,96,↓,down,↓,0.6411471999599598,True,15
X027K24,38,experiment,120,→,right,→,0.8132857999880798,True,15
X027K24,39,experiment,48,↓,down,↓,0.5701944000320509,True,15
X027K24,40,experiment,144,↑,up,↑,0.4838762999861501,True,15
X027K24,41,experiment,60,↓,down,↓,0.6455259999493137,True,15
X027K24,42,experiment,144,←,left,←,0.6680882999789901,True,15
X027K24,43,experiment,96,→,right,→,0.49957119999453425,True,15
X027K24,44,experiment,60,←,left,←,0.6637617999804206,True,15
X027K24,45,experiment,48,←,left,←,0.4951875999686308,True,15
X027K24,46,experiment,120,↑,up,↑,0.7763573999982327,True,15
X027K24,47,experiment,144,→,right,→,0.5728670000098646,True,15
X027K24,48,experiment,168,←,right,→,0.5551176000153646,False,15
X027K24,49,experiment,168,→,right,→,0.7471126000164077,True,15
X027K24,50,experiment,24,→,left,←,0.5241326999966986,False,15
X027K24,51,experiment,156,↑,up,↑,0.5443338999757543,True,15
X027K24,52,experiment,24,↑,down,↓,1.2165929999900982,False,15
X027K24,53,experiment,72,→,right,→,0.6612631000461988,True,15
X027K24,54,experiment,108,←,left,←,0.7889403000008315,True,15
X027K24,55,experiment,84,←,left,←,0.48872449999907985,True,15
X027K24,56,experiment,168,↓,down,↓,0.6683704000315629,True,15
X027K24,57,experiment,96,←,left,←,0.5170880000223406,True,15
X027K24,58,experiment,120,↓,down,↓,1.1178876000340097,True,15
X027K24,59,experiment,84,↓,down,↓,0.6525978000136092,True,15
X027K24,60,experiment,12,↓,left,←,0.6269528000266291,False,15
X027K24,61,experiment,108,←,left,←,0.5999093999853358,True,15
X027K24,62,experiment,72,↑,up,↑,0.6651663999655284,True,15
X027K24,63,experiment,132,↑,up,↑,0.5873538000159897,True,15
X027K24,64,experiment,36,↓,down,↓,0.5042640999890864,True,15
X027K24,65,experiment,48,↑,up,↑,0.4983685000333935,True,15
X027K24,66,experiment,12,→,left,←,0.6238245000131428,False,15
X027K24,67,experiment,180,↑,up,↑,0.5750766000128351,True,15
X027K24,68,experiment,144,↑,left,←,0.6712024000007659,False,15
X027K24,69,experiment,84,→,right,→,1.8502537999884225,True,15
X027K24,70,experiment,132,↑,up,↑,0.5704218999599107,True,15
X027K24,71,experiment,72,↑,up,↑,0.8942080999840982,True,15
X027K24,72,experiment,84,→,down,↓,0.7292012000107206,False,15
X027K24,73,experiment,108,↓,right,→,0.9256703999708407,False,15
X027K24,74,experiment,48,→,right,→,0.7963770999922417,True,15
X027K24,75,experiment,168,←,down,↓,0.7362724000122398,False,15
X027K24,76,experiment,156,↑,up,↑,0.5681735000107437,True,15
X027K24,77,experiment,72,↑,up,↑,0.6833050000132062,True,15
X027K24,78,experiment,180,→,left,←,0.9085463999654166,False,15
X027K24,79,experiment,60,↓,down,↓,0.5771782000083476,True,15
X027K24,80,experiment,108,←,left,←,0.5350313999806531,True,15
X027K24,81,experiment,120,←,left,←,0.5259135999949649,True,15
X027K24,82,experiment,156,↓,right,→,1.4676373000256717,False,15
X027K24,83,experiment,24,→,left,←,0.8461037999950349,False,15
X027K24,84,experiment,36,←,left,←,0.7889498000149615,True,15
X027K24,85,experiment,60,→,right,→,0.5651718999724835,True,15
X027K24,86,experiment,180,↓,down,↓,0.6252609000075608,True,15
X027K24,87,experiment,12,←,left,←,0.6129607000038959,True,15
X027K24,88,experiment,132,↓,left,←,0.6802812999812886,False,15
X027K24,89,experiment,12,↑,up,↑,0.8580023999675177,True,15
X027K24,90,experiment,132,→,right,→,0.6948447999893688,True,15
X027K24,91,experiment,36,↑,up,↑,0.7243470000103116,True,15
X027K24,92,experiment,36,→,right,→,0.7603979000123218,True,15
X027K24,93,experiment,180,↑,up,↑,0.6793988000135869,True,15
X027K24,94,training,156,→,left,←,0.44153780001215637,False,15
X027K24,95,training,156,←,left,←,0.7563184999744408,True,15
X027K24,96,training,84,→,right,→,1.8172357000294141,True,15
X027K24,97,experiment,156,→,right,→,0.6991289999568835,True,15
X027K24,98,experiment,84,↑,up,↑,0.7494806000031531,True,15
X027K24,99,experiment,60,←,right,→,1.467847799998708,False,15
X027K24,100,experiment,24,↑,left,←,0.8763446999946609,False,15
X027K24,101,experiment,156,→,right,→,0.8251356999971904,True,15
X027K24,102,experiment,12,↓,down,↓,0.6597949000424705,True,15
X027K24,103,experiment,60,←,no_key,no_letter,-1.0,False,15
X027K24,104,experiment,24,↑,no_key,no_letter,-1.0,False,15
X027K24,105,experiment,168,→,right,→,0.6915144000086002,True,15
X027K24,106,experiment,72,↓,down,↓,0.7232217999990098,True,15
X027K24,107,experiment,36,←,right,→,1.04728509997949,False,15
X027K24,108,experiment,96,↑,left,←,0.8752454000059515,False,15
X027K24,109,experiment,96,→,left,←,0.5506085000233725,False,15
X027K24,110,experiment,84,←,left,←,0.7028783999849111,True,15
X027K24,111,experiment,120,→,right,→,0.6799269000184722,True,15
X027K24,112,experiment,108,↑,down,↓,1.3786880999687128,False,15
X027K24,113,experiment,132,←,left,←,0.6133381999679841,True,15
X027K24,114,experiment,84,→,right,→,0.6400100999744609,True,15
X027K24,115,experiment,156,→,right,→,0.5964927000459284,True,15
X027K24,116,experiment,96,↑,up,↑,0.643151200027205,True,15
X027K24,117,experiment,132,←,left,←,0.5933374000014737,True,15
X027K24,118,experiment,144,↓,right,→,1.0720897000283003,False,15
X027K24,119,experiment,108,↓,down,↓,1.0391511999769136,True,15
X027K24,120,experiment,48,↓,down,↓,0.7016497000004165,True,15
X027K24,121,experiment,168,→,right,→,0.9636205999995582,True,15
X027K24,122,experiment,132,↑,up,↑,0.6270846999832429,True,15
X027K24,123,experiment,144,→,right,→,1.3318054999690503,True,15
X027K24,124,experiment,12,↑,up,↑,0.6283403999987058,True,15
X027K24,125,experiment,144,↑,down,↓,0.6606573999742977,False,15
X027K24,126,experiment,120,→,right,→,0.6419340000138618,True,15
X027K24,127,experiment,48,↑,up,↑,0.7047279999824241,True,15
X027K24,128,experiment,36,↑,up,↑,0.7047450999962166,True,15
X027K24,129,experiment,12,→,right,→,0.8115443999995477,True,15
X027K24,130,experiment,96,↑,up,↑,0.757813400006853,True,15
X027K24,131,experiment,156,←,left,←,0.6569318000110798,True,15
X027K24,132,experiment,72,→,up,↑,0.7139676000224426,False,15
X027K24,133,experiment,180,←,left,←,0.8881737000192516,True,15
X027K24,134,experiment,168,↓,down,↓,0.8177225000108592,True,15
X027K24,135,experiment,60,→,right,→,0.8366997000412084,True,15
X027K24,136,experiment,120,←,left,←,0.5947620999650098,True,15
X027K24,137,experiment,60,←,left,←,0.6624517000163905,True,15
X027K24,138,experiment,72,↓,down,↓,0.8053683000034653,True,15
X027K24,139,experiment,24,↓,down,↓,0.8421110999770463,True,15
X027K24,140,experiment,48,↑,up,↑,0.5729025999899022,True,15
X027K24,141,experiment,108,↓,down,↓,0.6839006000082009,True,15
X027K24,142,experiment,12,→,right,→,0.852679800009355,True,15
X027K24,143,experiment,144,←,no_key,no_letter,-1.0,False,15
X027K24,144,experiment,72,→,right,→,0.5956702000112273,True,15
X027K24,145,experiment,180,↑,up,↑,0.6218130000052042,True,15
X027K24,146,experiment,36,←,left,←,0.8697416999493726,True,15
X027K24,147,experiment,24,↓,down,↓,0.692506100051105,True,15
X027K24,148,experiment,180,↑,up,↑,0.4982983999652788,True,15
X027K24,149,experiment,132,↓,down,↓,0.49700659996597096,True,15
X027K24,150,experiment,120,↑,up,↑,0.4460265999659896,True,15
X027K24,151,experiment,84,↓,down,↓,0.5341171000036411,True,15
X027K24,152,experiment,108,←,left,←,0.630072999978438,True,15
X027K24,153,experiment,180,←,left,←,0.7988989999867044,True,15
X027K24,154,experiment,168,→,right,→,0.656783299986273,True,15
X027K24,155,experiment,36,←,left,←,0.8203780999756418,True,15
X027K24,156,experiment,48,←,left,←,0.5254946000059135,True,15
X027K24,157,training,120,↓,down,↓,0.6172125000157394,True,15
X027K24,158,training,24,→,right,→,0.6246936999959871,True,15
X027K24,159,training,108,↑,up,↑,0.5172504000365734,True,15
X027K24,160,experiment,84,↓,down,↓,0.6816303000086918,True,15
X027K24,161,experiment,84,←,left,←,0.9180037000332959,True,15
X027K24,162,experiment,108,↓,down,↓,0.5491319000138901,True,15
X027K24,163,experiment,12,↓,down,↓,0.592516400036402,True,15
X027K24,164,experiment,108,→,right,→,0.8245436999714002,True,15
X027K24,165,experiment,144,↑,up,↑,0.8983297999948263,True,15
X027K24,166,experiment,156,↑,up,↑,0.7112241000286303,True,15
X027K24,167,experiment,180,↓,down,↓,0.6515834000310861,True,15
X027K24,168,experiment,144,↑,up,↑,0.5958450000034645,True,15
X027K24,169,experiment,120,←,right,→,0.8209986000438221,False,15
X027K24,170,experiment,156,←,left,←,0.7063657999970019,True,15
X027K24,171,experiment,108,→,right,→,0.6827810000395402,True,15
X027K24,172,experiment,132,←,left,←,0.5892946000094526,True,15
X027K24,173,experiment,120,↓,down,↓,0.8109911999781616,True,15
X027K24,174,experiment,24,↑,right,→,0.8314274000003934,False,15
X027K24,175,experiment,24,→,right,→,1.0791021999903023,True,15
X027K24,176,experiment,144,←,left,←,0.6495758999953978,True,15
X027K24,177,experiment,168,↑,up,↑,0.7068350000190549,True,15
X027K24,178,experiment,96,→,right,→,1.1688606000388972,True,15
X027K24,179,experiment,12,↓,down,↓,0.588701399974525,True,15
X027K24,180,experiment,144,←,left,←,0.5443489999743178,True,15
X027K24,181,experiment,84,↑,up,↑,0.5263883000006899,True,15
X027K24,182,experiment,12,→,right,→,0.9757498999824747,True,15
X027K24,183,experiment,120,←,right,→,0.7741943000000902,False,15
X027K24,184,experiment,60,→,right,→,0.561054999998305,True,15
X027K24,185,experiment,48,↑,up,↑,0.5051304000080563,True,15
X027K24,186,experiment,72,↓,no_key,no_letter,-1.0,False,15
X027K24,187,experiment,24,→,right,→,0.5991332000121474,True,15
X027K24,188,experiment,96,↓,down,↓,0.6744214000063948,True,15
X027K24,189,experiment,180,→,right,→,0.6682431000517681,True,15
X027K24,190,experiment,132,←,left,←,0.664645099954214,True,15
X027K24,191,experiment,168,↑,up,↑,0.7346997000277042,True,15
X027K24,192,experiment,60,↑,up,↑,0.7211379000218585,True,15
X027K24,193,experiment,36,→,right,→,0.5887550000334159,True,15
X027K24,194,experiment,84,↑,right,→,0.7314580000238493,False,15
X027K24,195,experiment,156,↓,down,↓,0.6261669000377879,True,15
X027K24,196,experiment,72,↓,up,↑,0.9449574999744073,False,15
X027K24,197,experiment,180,←,left,←,0.8357328999554738,True,15
X027K24,198,experiment,156,↓,down,↓,0.7148959999904037,True,15
X027K24,199,experiment,60,↓,no_key,no_letter,-1.0,False,15
X027K24,200,experiment,36,←,down,↓,0.9582658000290394,False,15
X027K24,201,experiment,60,←,right,→,0.926589899987448,False,15
X027K24,202,experiment,48,→,right,→,0.5719902000273578,True,15
X027K24,203,experiment,72,↑,up,↑,0.6755288999993354,True,15
X027K24,204,experiment,108,←,left,←,0.6260554999462329,True,15
X027K24,205,experiment,96,→,right,→,0.6024809000082314,True,15
X027K24,206,experiment,48,←,left,←,0.5891178000019863,True,15
X027K24,207,experiment,120,→,right,→,0.5553555999649689,True,15
X027K24,208,experiment,168,↓,down,↓,0.5453066999907605,True,15
X027K24,209,experiment,36,↑,up,↑,0.4933970000129193,True,15
X027K24,210,experiment,48,→,right,→,0.5294690000009723,True,15
X027K24,211,experiment,132,←,right,→,0.5338805000064895,False,15
X027K24,212,experiment,72,→,right,→,0.6593313000048511,True,15
X027K24,213,experiment,168,↓,down,↓,0.6615797999547794,True,15
X027K24,214,experiment,96,←,right,→,0.528813699958846,False,15
X027K24,215,experiment,180,↓,down,↓,1.3575997999869287,True,15
X027K24,216,experiment,12,←,right,→,1.2443634999799542,False,15
X027K24,217,experiment,132,←,left,←,0.9337627000059001,True,15
X027K24,218,experiment,24,↑,up,↑,0.7675294000073336,True,15
X027K24,219,experiment,36,←,left,←,0.6749188999528997,True,15
X027K24,220,training,96,↓,down,↓,1.6800289999810047,True,15
X027K24,221,training,96,←,left,←,0.7480822000070475,True,15
X027K24,222,training,108,↓,down,↓,0.616838000016287,True,15
X027K24,223,experiment,156,←,left,←,0.6818613999639638,True,15
X027K24,224,experiment,24,↑,up,↑,0.7191526999813505,True,15
X027K24,225,experiment,36,←,left,←,0.5507397999754176,True,15
X027K24,226,experiment,48,←,left,←,0.7783450999995694,True,15
X027K24,227,experiment,120,→,right,→,0.8119512000121176,True,15
X027K24,228,experiment,180,←,up,↑,0.7893641999689862,False,15
X027K24,229,experiment,144,←,left,←,0.7518313999753445,True,15
X027K24,230,experiment,36,↑,up,↑,0.7756189000210725,True,15
X027K24,231,experiment,144,←,no_key,no_letter,-1.0,False,15
X027K24,232,experiment,120,↑,up,↑,0.8275982000050135,True,15
X027K24,233,experiment,156,→,right,→,0.8365532999741845,True,15
X027K24,234,experiment,144,↑,no_key,no_letter,-1.0,False,15
X027K24,235,experiment,12,←,no_key,no_letter,-1.0,False,15
X027K24,236,experiment,132,↓,no_key,no_letter,-1.0,False,15
X027K24,237,experiment,60,↓,down,↓,0.6562561999890022,True,15
X027K24,238,experiment,168,↑,up,↑,0.5920210999902338,True,15
X027K24,239,experiment,96,↑,up,↑,0.664928299956955,True,15
X027K24,240,experiment,12,↓,no_key,no_letter,-1.0,False,15
X027K24,241,experiment,72,←,left,←,0.5625379999983124,True,15
X027K24,242,experiment,180,←,left,←,0.8916774999815971,True,15
X027K24,243,experiment,24,↓,up,↑,0.6564647000050172,False,15
X027K24,244,experiment,168,←,left,←,0.5230091999983415,True,15
X027K24,245,experiment,180,↓,up,↑,0.7971568999928422,False,15
X027K24,246,experiment,156,←,no_key,no_letter,-1.0,False,15
X027K24,247,experiment,12,→,no_key,no_letter,-1.0,False,15
X027K24,248,experiment,132,↑,up,↑,0.5664555999683216,True,15
X027K24,249,experiment,96,→,right,→,0.5433752000099048,True,15
X027K24,250,experiment,108,←,left,←,0.5052774999639951,True,15
X027K24,251,experiment,132,↑,up,↑,0.5685839999932796,True,15
X027K24,252,experiment,48,→,right,→,0.5556061000097543,True,15
X027K24,253,experiment,168,←,down,↓,1.5685896000359207,False,15
X027K24,254,experiment,72,←,no_key,no_letter,-1.0,False,15
X027K24,255,experiment,60,←,left,←,0.5597530000377446,True,15
X027K24,256,experiment,84,→,right,→,0.5229577000136487,True,15
X027K24,257,experiment,96,←,right,→,0.8387076999642886,False,15
X027K24,258,experiment,120,←,left,←,0.6781153000192717,True,15
X027K24,259,experiment,24,↑,no_key,no_letter,-1.0,False,15
X027K24,260,experiment,36,←,left,←,0.8628741999855265,True,15
X027K24,261,experiment,60,↑,up,↑,0.5260889999917708,True,15
X027K24,262,experiment,132,↑,up,↑,0.6610943999839947,True,15
X027K24,263,experiment,12,↓,down,↓,1.0433952000457793,True,15
X027K24,264,experiment,84,↑,up,↑,0.5701130999950692,True,15
X027K24,265,experiment,72,→,right,→,0.5862800999893807,True,15
X027K24,266,experiment,48,←,left,←,0.5630018000374548,True,15
X027K24,267,experiment,72,↑,up,↑,0.6104817999876104,True,15
X027K24,268,experiment,168,→,right,→,0.5044957000063732,True,15
X027K24,269,experiment,24,←,left,←,0.687232700001914,True,15
X027K24,270,experiment,144,→,right,→,0.8986986000090837,True,15
X027K24,271,experiment,48,←,left,←,0.6146027999930084,True,15
X027K24,272,experiment,84,←,left,←,0.5405395999550819,True,15
X027K24,273,experiment,84,↓,down,↓,0.7173319000285119,True,15
X027K24,274,experiment,36,↑,right,→,1.6565993000403978,False,15
X027K24,275,experiment,120,↓,down,↓,0.6391376000246964,True,15
X027K24,276,experiment,108,↑,up,↑,0.5185893999878317,True,15
X027K24,277,experiment,60,→,right,→,0.6407884000218473,True,15
X027K24,278,experiment,96,←,down,↓,1.165943600004539,False,15
X027K24,279,experiment,108,→,no_key,no_letter,-1.0,False,15
X027K24,280,experiment,108,↓,down,↓,0.5877854999853298,True,15
X027K24,281,experiment,156,←,left,←,0.7820451000006869,True,15
X027K24,282,experiment,180,↑,up,↑,0.8601767999934964,True,15
X027K24,283,training,84,↓,down,↓,0.7379274000413716,True,15
X027K24,284,training,168,↓,down,↓,0.575366499950178,True,15
X027K24,285,training,72,↓,down,↓,0.5372142000123858,True,15
X027K24,286,experiment,120,↑,up,↑,0.5410058000124991,True,15
X027K24,287,experiment,132,→,right,→,0.6063931999960914,True,15
X027K24,288,experiment,156,↓,up,↑,0.48247309995349497,False,15
X027K24,289,experiment,144,←,left,←,0.7502110000350513,True,15
X027K24,290,experiment,144,↓,down,↓,0.6151518999831751,True,15
X027K24,291,experiment,24,←,left,←,0.9914544000057504,True,15
X027K24,292,experiment,84,↓,down,↓,0.5382244000211358,True,15
X027K24,293,experiment,108,→,right,→,0.5455423000385053,True,15
X027K24,294,experiment,144,→,right,→,0.6516301000374369,True,15
X027K24,295,experiment,48,→,right,→,0.9302053999854252,True,15
X027K24,296,experiment,84,↑,no_key,no_letter,-1.0,False,15
X027K24,297,experiment,168,←,left,←,1.4740469999960624,True,15
X027K24,298,experiment,24,←,no_key,no_letter,-1.0,False,15
X027K24,299,experiment,132,↓,down,↓,0.5871618999517523,True,15
X027K24,300,experiment,72,↓,down,↓,0.6723321999888867,True,15
X027K24,301,experiment,132,↓,down,↓,0.6405387999839149,True,15
X027K24,302,experiment,36,→,right,→,0.5965513000264764,True,15
X027K24,303,experiment,120,↑,up,↑,0.5381768000079319,True,15
X027K24,304,experiment,120,→,right,→,0.723513400007505,True,15
X027K24,305,experiment,60,↓,down,↓,0.5787096999702044,True,15
X027K24,306,experiment,48,↑,up,↑,0.5098709999583662,True,15
X027K24,307,experiment,24,→,left,←,0.6736707999953069,False,15
X027K24,308,experiment,12,↑,up,↑,0.6018675999948755,True,15
X027K24,309,experiment,120,↓,down,↓,0.8137520999880508,True,15
X027K24,310,experiment,12,↓,down,↓,0.5856916000484489,True,15
X027K24,311,experiment,72,←,right,→,0.8717878999887034,False,15
X027K24,312,experiment,180,←,left,←,0.5557232000282966,True,15
X027K24,313,experiment,96,←,left,←,0.8457072000019252,True,15
X027K24,314,experiment,48,←,left,←,0.63335180003196,True,15
X027K24,315,experiment,60,↓,down,↓,0.5296046000439674,True,15
X027K24,316,experiment,84,→,right,→,0.6048749000183307,True,15
X027K24,317,experiment,96,→,right,→,0.5930916999932379,True,15
X027K24,318,experiment,60,↑,up,↑,0.6762682999833487,True,15
X027K24,319,experiment,96,↓,down,↓,0.5905380999902263,True,15
X027K24,320,experiment,168,←,left,←,1.2580831000232138,True,15
X027K24,321,experiment,108,↑,up,↑,0.4890502999769524,True,15
X027K24,322,experiment,156,↓,down,↓,0.6457465999992564,True,15
X027K24,323,experiment,12,↑,up,↑,0.5542644000379369,True,15
X027K24,324,experiment,108,↓,up,↑,1.2830502000288107,False,15
X027K24,325,experiment,84,↑,up,↑,0.9352431999868713,True,15
X027K24,326,experiment,12,↑,up,↑,0.6770317000336945,True,15
X027K24,327,experiment,60,→,right,→,0.5446152000222355,True,15
X027K24,328,experiment,180,↓,down,↓,0.6721216000150889,True,15
X027K24,329,experiment,36,→,right,→,0.5924896000069566,True,15
X027K24,330,experiment,24,←,right,→,1.16781189996982,False,15
X027K24,331,experiment,156,←,left,←,0.9943373000132851,True,15
X027K24,332,experiment,168,↓,down,↓,0.9305220000096597,True,15
X027K24,333,experiment,48,←,left,←,0.6605567999649793,True,15
X027K24,334,experiment,156,←,left,←,0.8016940000234172,True,15
X027K24,335,experiment,168,←,left,←,0.8080468000262044,True,15
X027K24,336,experiment,72,←,left,←,0.599566999997478,True,15
X027K24,337,experiment,36,←,left,←,0.5251319000381045,True,15
X027K24,338,experiment,132,↑,up,↑,0.5390803000191227,True,15
X027K24,339,experiment,36,↑,up,↑,0.6621976000024006,True,15
X027K24,340,experiment,180,↑,up,↑,0.8875114999827929,True,15
X027K24,341,experiment,108,←,left,←,0.5915198000147939,True,15
X027K24,342,experiment,96,↓,left,←,0.83721389999846,False,15
X027K24,343,experiment,144,↑,up,↑,0.6917124000028707,True,15
X027K24,344,experiment,180,←,right,→,0.6550368999596685,False,15
X027K24,345,experiment,72,↓,right,→,1.0385345999966376,False,15
X027K24,346,training,24,↑,left,←,1.0368738999823108,False,15
X027K24,347,training,168,→,right,→,0.871983899967745,True,15
X027K24,348,training,96,↑,left,←,1.1089384999941103,False,15
X027K24,349,experiment,24,↓,down,↓,0.7268293999950401,True,15
X027K24,350,experiment,72,←,left,←,0.6133530999650247,True,15
X027K24,351,experiment,96,→,right,→,0.583995099994354,True,15
X027K24,352,experiment,168,→,right,→,0.670335500035435,True,15
X027K24,353,experiment,120,→,left,←,0.9648967999964952,False,15
X027K24,354,experiment,108,↑,up,↑,0.5558492999989539,True,15
X027K24,355,experiment,180,↑,up,↑,0.5224880000459962,True,15
X027K24,356,experiment,12,↑,up,↑,0.5139070000150241,True,15
X027K24,357,experiment,144,→,right,→,0.6629533999948762,True,15
X027K24,358,experiment,84,→,right,→,0.5255575000192039,True,15
X027K24,359,experiment,144,→,right,→,0.7691531000309624,True,15
X027K24,360,experiment,144,↓,down,↓,0.6020238000201061,True,15
X027K24,361,experiment,24,↑,up,↑,0.7360258999979123,True,15
X027K24,362,experiment,132,→,right,→,0.4198776000412181,True,15
X027K24,363,experiment,60,↓,down,↓,0.537564400001429,True,15
X027K24,364,experiment,108,←,right,→,0.7357957999920473,False,15
X027K24,365,experiment,132,↓,down,↓,0.5031530000269413,True,15
X027K24,366,experiment,60,↑,up,↑,0.7545869000023231,True,15
X027K24,367,experiment,132,→,right,→,0.576154200010933,True,15
X027K24,368,experiment,36,↑,up,↑,0.6066671999869868,True,15
X027K24,369,experiment,48,←,right,→,0.5621391999884509,False,15
X027K24,370,experiment,36,←,left,←,0.5547293999698013,True,15
X027K24,371,experiment,48,→,right,→,0.613577600044664,True,15
X027K24,372,experiment,120,→,right,→,1.0054683000198565,True,15
X027K24,373,experiment,48,←,left,←,0.6094429999939166,True,15
X027K24,374,experiment,156,↓,down,↓,0.6255194999976084,True,15
X027K24,375,experiment,72,←,left,←,0.596971399965696,True,15
X027K24,376,experiment,36,→,right,→,0.5668807000038214,True,15
X027K24,377,experiment,168,↓,down,↓,0.5079885000013746,True,15
X027K24,378,experiment,12,↓,right,→,1.018733999982942,False,15
X027K24,379,experiment,144,←,left,←,0.6278053999994881,True,15
X027K24,380,experiment,96,↑,left,←,1.1266446000081487,False,15
X027K24,381,experiment,24,↑,up,↑,0.6147706999909133,True,15
X027K24,382,experiment,84,←,right,→,0.6214502999791875,False,15
X027K24,383,experiment,108,→,right,→,0.6540075999801047,True,15
X027K24,384,experiment,180,→,right,→,0.5210084000136703,True,15
X027K24,385,experiment,120,→,right,→,0.832172000024002,True,15
X027K24,386,experiment,96,↓,left,←,0.7422860999940895,False,15
X027K24,387,experiment,12,←,right,→,0.5899971000035293,False,15
X027K24,388,experiment,72,→,right,→,0.5738968999939971,True,15
X027K24,389,experiment,84,↓,down,↓,0.6749111000099219,True,15
X027K24,390,experiment,72,↓,right,→,0.9194713999750093,False,15
X027K24,391,experiment,12,←,left,←,0.8601201000274159,True,15
X027K24,392,experiment,108,→,right,→,0.5515747999888845,True,15
X027K24,393,experiment,180,↑,up,↑,0.5526453000493348,True,15
X027K24,394,experiment,60,←,left,←,0.6423716000281274,True,15
X027K24,395,experiment,168,←,left,←,0.825877399998717,True,15
X027K24,396,experiment,84,↓,up,↑,0.9691132999723777,False,15
X027K24,397,experiment,156,←,left,←,0.8165356999961659,True,15
X027K24,398,experiment,48,→,right,→,0.5746923999977298,True,15
X027K24,399,experiment,168,→,right,→,0.46691449999343604,True,15
X027K24,400,experiment,156,↑,up,↑,0.8240351999993436,True,15
X027K24,401,experiment,60,→,right,→,0.7168426000280306,True,15
X027K24,402,experiment,132,←,left,←,0.6074060000246391,True,15
X027K24,403,experiment,36,↑,up,↑,0.5307129000429995,True,15
X027K24,404,experiment,96,→,left,←,0.5679592000087723,False,15
X027K24,405,experiment,156,←,left,←,1.0400072999764234,True,15
X027K24,406,experiment,180,→,right,→,0.5052658999920823,True,15
X027K24,407,experiment,24,↓,no_key,no_letter,-1.0,False,15
X027K24,408,experiment,120,→,right,→,0.5058865000028163,True,15
X027K24,409,training,24,↓,down,↓,0.6640955999610014,True,15
X027K24,410,training,36,↑,up,↑,0.6426907000131905,True,15
X027K24,411,training,48,→,right,→,0.44450309994863346,True,15
X027K24,412,experiment,132,←,left,←,0.6492088999948464,True,15
X027K24,413,experiment,180,↑,left,←,0.6064046999672428,False,15
X027K24,414,experiment,120,←,right,→,0.7926280000247061,False,15
X027K24,415,experiment,24,→,left,←,0.5380018000141717,False,15
X027K24,416,experiment,96,←,left,←,0.5502126000355929,True,15
X027K24,417,experiment,12,←,right,→,0.5269649000256322,False,15
X027K24,418,experiment,72,↑,down,↓,0.6009975999477319,False,15
X027K24,419,experiment,96,←,right,→,0.7168646000209264,False,15
X027K24,420,experiment,84,↑,up,↑,0.5949326999834739,True,15
X027K24,421,experiment,96,↑,up,↑,0.5023223999887705,True,15
X027K24,422,experiment,180,↑,up,↑,0.491194500005804,True,15
X027K24,423,experiment,144,←,right,→,0.5975433000130579,False,15
X027K24,424,experiment,36,→,right,→,0.594617799972184,True,15
X027K24,425,experiment,108,→,right,→,0.5191315999836661,True,15
X027K24,426,experiment,168,↑,up,↑,0.5565246000187472,True,15
X027K24,427,experiment,156,↓,down,↓,0.5434322999790311,True,15
X027K24,428,experiment,132,←,right,→,0.6149420999572612,False,15
X027K24,429,experiment,84,←,left,←,0.8306419999571517,True,15
X027K24,430,experiment,120,←,left,←,0.6693977999966592,True,15
X027K24,431,experiment,168,↑,up,↑,0.7231361999874935,True,15
X027K24,432,experiment,180,↓,down,↓,0.6208010999835096,True,15
X027K24,433,experiment,48,→,right,→,0.5119842999847606,True,15
X027K24,434,experiment,48,↑,up,↑,0.45516770001268014,True,15
X027K24,435,experiment,156,↑,up,↑,0.5174095999682322,True,15
X027K24,436,experiment,168,→,right,→,0.7619756000349298,True,15
X027K24,437,experiment,144,←,right,→,0.6194281000061892,False,15
X027K24,438,experiment,24,↑,down,↓,0.9349205000326037,False,15
X027K24,439,experiment,120,↑,up,↑,0.6484421999775805,True,15
X027K24,440,experiment,156,→,right,→,0.6145488999900408,True,15
X027K24,441,experiment,108,↓,up,↑,0.7493115999968722,False,15
X027K24,442,experiment,72,↓,right,→,1.3826868000323884,False,15
X027K24,443,experiment,144,↑,up,↑,0.5579449000069872,True,15
X027K24,444,experiment,48,↑,no_key,no_letter,-1.0,False,15
X027K24,445,experiment,36,→,right,→,0.9456351000117138,True,15
X027K24,446,experiment,24,←,right,→,0.6228107999777421,False,15
X027K24,447,experiment,180,←,right,→,0.570475299959071,False,15
X027K24,448,experiment,24,←,right,→,0.6743597000022419,False,15
X027K24,449,experiment,156,↑,up,↑,0.5535479999962263,True,15
X027K24,450,experiment,120,↑,up,↑,1.0383196000475436,True,15
X027K24,451,experiment,72,→,right,→,0.7059508000384085,True,15
X027K24,452,experiment,144,↓,down,↓,0.8076732000336051,True,15
X027K24,453,experiment,108,↓,down,↓,0.7205876000225544,True,15
X027K24,454,experiment,12,↓,down,↓,0.5979753999854438,True,15
X027K24,455,experiment,60,↓,down,↓,0.6070297000114806,True,15
X027K24,456,experiment,60,→,down,↓,0.654429699992761,False,15
X027K24,457,experiment,12,→,right,→,0.6948740999796428,True,15
X027K24,458,experiment,72,←,left,←,0.5187078000162728,True,15
X027K24,459,experiment,96,→,right,→,0.521980400022585,True,15
X027K24,460,experiment,60,↓,down,↓,0.5287216999568045,True,15
X027K24,461,experiment,12,→,right,→,0.5479480000212789,True,15
X027K24,462,experiment,108,→,right,→,0.5224410999799147,True,15
X027K24,463,experiment,84,↑,up,↑,0.5722026999574155,True,15
X027K24,464,experiment,84,←,left,←,0.6781973000033759,True,15
X027K24,465,experiment,48,→,right,→,0.6112910999800079,True,15
X027K24,466,experiment,36,↓,down,↓,0.5363625999889337,True,15
X027K24,467,experiment,36,→,right,→,0.8759986000368372,True,15
X027K24,468,experiment,132,↑,up,↑,0.5500142999808304,True,15
X027K24,469,experiment,60,→,right,→,0.60121649998473,True,15
X027K24,470,experiment,132,→,right,→,0.5266368999728002,True,15
X027K24,471,experiment,168,→,right,→,0.7260513999499381,True,15
X027K24,472,training,132,↓,down,↓,0.6472947999718599,True,15
X027K24,473,training,36,↑,left,←,0.6634349999949336,False,15
X027K24,474,training,180,↓,down,↓,0.5660317000001669,True,15
X027K24,475,experiment,120,↓,left,←,0.5604876999859698,False,15
X027K24,476,experiment,144,↓,down,↓,0.5124400000204332,True,15
X027K24,477,experiment,156,↓,no_key,no_letter,-1.0,False,15
X027K24,478,experiment,60,↓,down,↓,0.5874271999928169,True,15
X027K24,479,experiment,96,→,left,←,0.6003930000006221,False,15
X027K24,480,experiment,180,→,right,→,0.4763418000075035,True,15
X027K24,481,experiment,60,→,right,→,0.48619710002094507,True,15
X027K24,482,experiment,12,→,left,←,1.1388270999887027,False,15
X027K24,483,experiment,12,←,left,←,0.49597689998336136,True,15
X027K24,484,experiment,48,←,left,←,0.4960510000237264,True,15
X027K24,485,experiment,24,←,left,←,0.4880709000281058,True,15
X027K24,486,experiment,108,→,right,→,0.698696999985259,True,15
X027K24,487,experiment,96,←,right,→,0.48618080001324415,False,15
X027K24,488,experiment,108,→,right,→,0.6028430000296794,True,15
X027K24,489,experiment,120,→,right,→,0.5944783000159077,True,15
X027K24,490,experiment,48,←,right,→,0.6405878000077792,False,15
X027K24,491,experiment,132,↓,down,↓,0.7491121999919415,True,15
X027K24,492,experiment,156,→,right,→,0.6139228999963962,True,15
X027K24,493,experiment,156,↓,down,↓,0.5887252999818884,True,15
X027K24,494,experiment,72,↑,up,↑,0.6265278000500984,True,15
X027K24,495,experiment,36,←,left,←,0.547074599948246,True,15
X027K24,496,experiment,108,→,right,→,0.5476924999966286,True,15
X027K24,497,experiment,156,←,right,→,0.6219656999455765,False,15
X027K24,498,experiment,24,↑,up,↑,0.7554139000130817,True,15
X027K24,499,experiment,72,↓,left,←,0.9272316999849863,False,15
X027K24,500,experiment,132,→,right,→,0.42314709996571764,True,15
X027K24,501,experiment,180,→,right,→,0.47239360003732145,True,15
X027K24,502,experiment,36,→,left,←,0.7606321999919601,False,15
X027K24,503,experiment,24,↓,up,↑,0.615770899981726,False,15
X027K24,504,experiment,120,↑,down,↓,0.7307498999871314,False,15
X027K24,505,experiment,180,←,left,←,0.5277520000236109,True,15
X027K24,506,experiment,84,↑,down,↓,0.6377800999907777,False,15
X027K24,507,experiment,144,↓,down,↓,0.5141661000088789,True,15
X027K24,508,experiment,168,←,left,←,0.5327432999620214,True,15
X027K24,509,experiment,84,↓,down,↓,0.5095420999568887,True,15
X027K24,510,experiment,144,↑,down,↓,0.7046855000080541,False,15
X027K24,511,experiment,72,↑,up,↑,0.6666934000095353,True,15
X027K24,512,experiment,24,←,left,←,0.6149570000125095,True,15
X027K24,513,experiment,108,↓,down,↓,0.47774699999717996,True,15
X027K24,514,experiment,132,←,right,→,0.6790644999709912,False,15
X027K24,515,experiment,180,↑,up,↑,0.6673363999580033,True,15
X027K24,516,experiment,60,←,left,←,0.4908813000074588,True,15
X027K24,517,experiment,36,↓,down,↓,0.8063826999859884,True,15
X027K24,518,experiment,72,←,left,←,0.6583580000442453,True,15
X027K24,519,experiment,48,↑,up,↑,0.5172062999918126,True,15
X027K24,520,experiment,132,↑,up,↑,0.7884449000121094,True,15
X027K24,521,experiment,96,→,right,→,0.5570874999975786,True,15
X027K24,522,experiment,84,←,left,←,0.4558553000097163,True,15
X027K24,523,experiment,168,↓,down,↓,0.5564882999751717,True,15
X027K24,524,experiment,12,↓,down,↓,0.6241589999990538,True,15
X027K24,525,experiment,96,←,left,←,0.6483173000160605,True,15
X027K24,526,experiment,60,↑,up,↑,0.5185264000319876,True,15
X027K24,527,experiment,84,↑,left,←,0.8467713000136428,False,15
X027K24,528,experiment,12,←,left,←,0.6764729999704286,True,15
X027K24,529,experiment,48,↑,up,↑,0.6421205999795347,True,15
X027K24,530,experiment,168,→,right,→,0.7560045999707654,True,15
X027K24,531,experiment,168,↑,left,←,0.8317954000085592,False,15
X027K24,532,experiment,36,→,right,→,1.1801977999857627,True,15
X027K24,533,experiment,120,←,left,←,0.6175231999950483,True,15
X027K24,534,experiment,144,←,left,←,0.6133720999932848,True,15
X027K24,535,training,120,↓,down,↓,0.5912116000545211,True,15
X027K24,536,training,48,↓,left,←,0.7561339000239968,False,15
X027K24,537,training,108,→,right,→,0.5130440999637358,True,15
X027K24,538,experiment,84,←,left,←,0.4892097999691032,True,15
X027K24,539,experiment,144,←,left,←,0.519998499948997,True,15
X027K24,540,experiment,168,→,right,→,0.4891670999932103,True,15
X027K24,541,experiment,156,↑,up,↑,0.5263246999820694,True,15
X027K24,542,experiment,36,→,right,→,0.566988600010518,True,15
X027K24,543,experiment,36,←,left,←,0.5248936000280082,True,15
X027K24,544,experiment,132,↑,up,↑,0.4777571000158787,True,15
X027K24,545,experiment,144,↓,no_key,no_letter,-1.0,False,15
X027K24,546,experiment,144,←,left,←,0.5950079999747686,True,15
X027K24,547,experiment,120,→,right,→,0.6065339000197127,True,15
X027K24,548,experiment,120,→,right,→,0.4913584999740124,True,15
X027K24,549,experiment,48,→,right,→,0.5889277999522164,True,15
X027K24,550,experiment,180,→,right,→,0.6864898999920115,True,15
X027K24,551,experiment,12,↑,no_key,no_letter,-1.0,False,15
X027K24,552,experiment,144,←,left,←,0.6926554000237957,True,15
X027K24,553,experiment,60,↑,up,↑,0.49158669996540993,True,15
X027K24,554,experiment,156,←,no_key,no_letter,-1.0,False,15
X027K24,555,experiment,24,↓,down,↓,0.5959089999669231,True,15
X027K24,556,experiment,36,↑,up,↑,0.6812655999674462,True,15
X027K24,557,experiment,72,→,right,→,0.4707936000195332,True,15
X027K24,558,experiment,84,→,right,→,0.47659410000778735,True,15
X027K24,559,experiment,108,→,left,←,0.45977299998048693,False,15
X027K24,560,experiment,168,→,right,→,0.4963811000343412,True,15
X027K24,561,experiment,96,↑,up,↑,0.5579662999953143,True,15
X027K24,562,experiment,72,←,right,→,0.5087148000020534,False,15
X027K24,563,experiment,168,←,left,←,0.6162226999877021,True,15
X027K24,564,experiment,48,↓,down,↓,0.5716056999517605,True,15
X027K24,565,experiment,132,←,right,→,0.8861282000434585,False,15
X027K24,566,experiment,24,↑,no_key,no_letter,-1.0,False,15
X027K24,567,experiment,12,↑,up,↑,0.8286455000052229,True,15
X027K24,568,experiment,24,←,left,←,0.6247275999630801,True,15
X027K24,569,experiment,24,←,left,←,0.5763687000144273,True,15
X027K24,570,experiment,48,↑,up,↑,0.5643287000129931,True,15
X027K24,571,experiment,120,↑,up,↑,0.6317502000019886,True,15
X027K24,572,experiment,60,→,left,←,0.5781265000114217,False,15
X027K24,573,experiment,108,←,left,←,0.7532180999987759,True,15
X027K24,574,experiment,96,↑,up,↑,0.5165470000356436,True,15
X027K24,575,experiment,180,→,right,→,0.6335926000028849,True,15
X027K24,576,experiment,156,←,left,←,0.5634529999806546,True,15
X027K24,577,experiment,180,↓,up,↑,0.6130075000110082,False,15
X027K24,578,experiment,96,→,right,→,0.7232389000128023,True,15
X027K24,579,experiment,72,←,left,←,0.5599710999522358,True,15
X027K24,580,experiment,60,↓,up,↑,0.6173235000460409,False,15
X027K24,581,experiment,48,→,left,←,0.7510849999962375,False,15
X027K24,582,experiment,120,←,left,←,0.5570706000435166,True,15
X027K24,583,experiment,72,←,left,←,0.5937599000171758,True,15
X027K24,584,experiment,60,→,right,→,0.5626442999928258,True,15
X027K24,585,experiment,132,←,left,←,0.5795105000142939,True,15
X027K24,586,experiment,36,→,left,←,0.5578817000496201,False,15
X027K24,587,experiment,168,→,right,→,0.5152756000170484,True,15
X027K24,588,experiment,156,→,right,→,0.8057939999853261,True,15
X027K24,589,experiment,96,←,right,→,0.5300977000151761,False,15
X027K24,590,experiment,12,→,right,→,0.674730000027921,True,15
X027K24,591,experiment,132,↑,up,↑,0.5367584999767132,True,15
X027K24,592,experiment,108,←,left,←,0.45540150004671887,True,15
X027K24,593,experiment,108,→,right,→,0.5062228000024334,True,15
X027K24,594,experiment,84,↑,up,↑,0.6232504000072367,True,15
X027K24,595,experiment,84,↓,down,↓,0.5731278999592178,True,15
X027K24,596,experiment,12,←,left,←,0.6139759999932721,True,15
X027K24,597,experiment,180,→,no_key,no_letter,-1.0,False,15
X027K24,598,training,48,←,left,←,0.6735399000463076,True,15
X027K24,599,training,108,←,left,←,0.5525076999911107,True,15
X027K24,600,training,168,↓,down,↓,0.6545983999967575,True,15
X027K24,601,experiment,24,←,left,←,0.748684799997136,True,15
X027K24,602,experiment,180,←,left,←,0.6951117999851704,True,15
X027K24,603,experiment,24,↑,left,←,0.9397002000478096,False,15
X027K24,604,experiment,132,→,right,→,0.556914400018286,True,15
X027K24,605,experiment,12,↑,right,→,0.6152375999954529,False,15
X027K24,606,experiment,144,→,right,→,0.5869631000095978,True,15
X027K24,607,experiment,180,↓,down,↓,0.6171826999634504,True,15
X027K24,608,experiment,108,↓,down,↓,0.6787318999995477,True,15
X027K24,609,experiment,84,→,right,→,0.5326009999844246,True,15
X027K24,610,experiment,48,→,no_key,no_letter,-1.0,False,15
X027K24,611,experiment,36,→,right,→,0.4791689999983646,True,15
X027K24,612,experiment,108,←,left,←,0.5239448000211269,True,15
X027K24,613,experiment,36,←,right,→,0.5207639000145718,False,15
X027K24,614,experiment,180,←,left,←,0.5674357999814674,True,15
X027K24,615,experiment,60,↑,up,↑,0.6238719000248238,True,15
X027K24,616,experiment,96,↑,up,↑,0.44572370004607365,True,15
X027K24,617,experiment,168,↑,up,↑,0.6875953000271693,True,15
X027K24,618,experiment,180,↑,up,↑,0.4943504999973811,True,15
X027K24,619,experiment,12,←,no_key,no_letter,-1.0,False,15
X027K24,620,experiment,108,↑,up,↑,0.476808599953074,True,15
X027K24,621,experiment,156,↓,up,↑,0.5148885000380687,False,15
X027K24,622,experiment,132,↑,up,↑,0.5771591000375338,True,15
X027K24,623,experiment,24,←,left,←,0.5832189999637194,True,15
X027K24,624,experiment,132,↓,up,↑,0.4227746999822557,False,15
X027K24,625,experiment,84,↑,up,↑,0.707951000018511,True,15
X027K24,626,experiment,96,↑,up,↑,0.5076336999773048,True,15
X027K24,627,experiment,36,↑,up,↑,0.4625913000199944,True,15
X027K24,628,experiment,84,→,right,→,0.5833394000073895,True,15
X027K24,629,experiment,156,→,right,→,0.5387906999676488,True,15
X027K24,630,experiment,48,→,left,←,0.6935260000173002,False,15
X027K24,631,experiment,168,←,left,←,0.5372271999949589,True,15
X027K24,632,experiment,48,↑,up,↑,0.4950378999928944,True,15
X027K24,633,experiment,84,↑,up,↑,0.5416056000394747,True,15
X027K24,634,experiment,156,↑,up,↑,0.5657148999744095,True,15
X027K24,635,experiment,120,↓,down,↓,0.5789501999970526,True,15
X027K24,636,experiment,96,→,right,→,0.5197438999894075,True,15
X027K24,637,experiment,60,←,no_key,no_letter,-1.0,False,15
X027K24,638,experiment,168,←,right,→,0.6495608999975957,False,15
X027K24,639,experiment,24,←,left,←,0.604797099949792,True,15
X027K24,640,experiment,144,←,left,←,0.4973994999891147,True,15
X027K24,641,experiment,12,→,left,←,0.6667396000120789,False,15
X027K24,642,experiment,120,↑,up,↑,0.5347398999729194,True,15
X027K24,643,experiment,12,←,right,→,0.5612497999682091,False,15
X027K24,644,experiment,72,←,left,←,0.5534527000272647,True,15
X027K24,645,experiment,168,↓,down,↓,0.6322696999995969,True,15
X027K24,646,experiment,48,↓,down,↓,0.595530399994459,True,15
X027K24,647,experiment,36,↓,down,↓,0.7262343000038527,True,15
X027K24,648,experiment,60,↓,up,↑,0.7674066000035964,False,15
X027K24,649,experiment,108,←,left,←,0.6894345000036992,True,15
X027K24,650,experiment,72,→,right,→,0.5293644999619573,True,15
X027K24,651,experiment,144,→,right,→,0.5392157000023872,True,15
X027K24,652,experiment,156,↑,no_key,no_letter,-1.0,False,15
X027K24,653,experiment,60,↓,down,↓,0.6064145000418648,True,15
X027K24,654,experiment,132,←,left,←,0.5744474999955855,True,15
X027K24,655,experiment,72,↑,up,↑,0.5259883999824524,True,15
X027K24,656,experiment,96,↑,up,↑,0.49892490002093837,True,15
X027K24,657,experiment,72,↓,down,↓,0.6445262000197545,True,15
X027K24,658,experiment,120,→,right,→,0.518065900017973,True,15
X027K24,659,experiment,144,↓,no_key,no_letter,-1.0,False,15
X027K24,660,experiment,120,←,no_key,no_letter,-1.0,False,15
X027K24,661,training,24,→,right,→,0.6562667000107467,True,15
X027K24,662,training,96,→,right,→,0.5746962000266649,True,15
X027K24,663,training,24,→,right,→,0.6045173999737017,True,15
X027K24,664,experiment,84,↓,down,↓,0.5114554000319913,True,15
X027K24,665,experiment,108,↑,up,↑,0.5533763999701478,True,15
X027K24,666,experiment,36,↑,up,↑,0.6029547000071034,True,15
X027K24,667,experiment,108,↑,up,↑,1.0944485000218265,True,15
X027K24,668,experiment,72,↓,down,↓,0.7443870999850333,True,15
X027K24,669,experiment,168,↑,up,↑,0.5140094999806024,True,15
X027K24,670,experiment,72,→,right,→,0.5673362999805249,True,15
X027K24,671,experiment,36,↑,up,↑,0.7872987000155263,True,15
X027K24,672,experiment,24,↑,up,↑,0.5668180999928154,True,15
X027K24,673,experiment,156,↓,no_key,no_letter,-1.0,False,15
X027K24,674,experiment,48,←,left,←,0.5485024000518024,True,15
X027K24,675,experiment,120,↓,down,↓,0.6201293999911286,True,15
X027K24,676,experiment,108,↑,no_key,no_letter,-1.0,False,15
X027K24,677,experiment,96,←,left,←,0.6562749000149779,True,15
X027K24,678,experiment,96,↓,no_key,no_letter,-1.0,False,15
X027K24,679,experiment,144,→,no_key,no_letter,-1.0,False,15
X027K24,680,experiment,24,↑,up,↑,0.5292557000066154,True,15
X027K24,681,experiment,168,→,right,→,0.6884882999584079,True,15
X027K24,682,experiment,168,↓,down,↓,0.5933300000033341,True,15
X027K24,683,experiment,48,→,right,→,0.5649464000016451,True,15
X027K24,684,experiment,12,↑,up,↑,0.5628207999980077,True,15
X027K24,685,experiment,132,←,left,←,0.5272860000259243,True,15
X027K24,686,experiment,156,↑,up,↑,0.6483438999857754,True,15
X027K24,687,experiment,120,←,left,←,0.6758776999777183,True,15
X027K24,688,experiment,132,→,right,→,0.46768110000994056,True,15
X027K24,689,experiment,12,→,right,→,0.5922334999777377,True,15
X027K24,690,experiment,180,↑,up,↑,0.5490728999720886,True,15
X027K24,691,experiment,120,→,right,→,0.4579639000003226,True,15
X027K24,692,experiment,180,→,right,→,0.5254766000434756,True,15
X027K24,693,experiment,144,→,right,→,0.46552470000460744,True,15
X027K24,694,experiment,24,↓,up,↑,0.8150069999974221,False,15
X027K24,695,experiment,180,←,left,←,0.5311455000191927,True,15
X027K24,696,experiment,12,→,right,→,0.5300995000288822,True,15
X027K24,697,experiment,84,→,right,→,0.49103490001289174,True,15
X027K24,698,experiment,60,↓,down,↓,0.532346099964343,True,15
X027K24,699,experiment,168,←,right,→,0.5100441999966279,False,15
X027K24,700,experiment,24,←,left,←,0.7419395999750122,True,15
X027K24,701,experiment,84,→,right,→,0.48280709999380633,True,15
X027K24,702,experiment,84,←,right,→,0.49010629998520017,False,15
X027K24,703,experiment,60,↓,down,↓,0.5222507999860682,True,15
X027K24,704,experiment,12,↓,down,↓,0.6719511999981478,True,15
X027K24,705,experiment,36,↑,up,↑,0.5800029000383802,True,15
X027K24,706,experiment,60,←,left,←,0.5123647000291385,True,15
X027K24,707,experiment,72,↑,left,←,0.7271827000076883,False,15
X027K24,708,experiment,60,↓,down,↓,0.7975839999853633,True,15
X027K24,709,experiment,180,↑,up,↑,0.7708709000144154,True,15
X027K24,710,experiment,108,→,right,→,0.5509503000066616,True,15
X027K24,711,experiment,144,←,left,←,0.7157619000063278,True,15
X027K24,712,experiment,120,→,right,→,0.5029579999973066,True,15
X027K24,713,experiment,72,→,right,→,0.4961728000198491,True,15
X027K24,714,experiment,36,↑,up,↑,0.6089386999956332,True,15
X027K24,715,experiment,156,→,right,→,0.5436959000071511,True,15
X027K24,716,experiment,132,→,down,↓,0.65634190000128,False,15
X027K24,717,experiment,48,↑,up,↑,0.774758700048551,True,15
X027K24,718,experiment,96,←,left,←,0.5097740999772213,True,15
X027K24,719,experiment,156,←,right,→,0.5410276000038721,False,15
X027K24,720,experiment,96,←,left,←,0.5731178999994881,True,15
X027K24,721,experiment,132,←,left,←,0.5607063000206836,True,15
X027K24,722,experiment,48,←,left,←,0.5686647999682464,True,15
X027K24,723,experiment,144,↑,up,↑,0.4452750000054948,True,15
X027K24,724,training,132,→,right,→,0.651553200033959,True,15
X027K24,725,training,72,↑,up,↑,0.4946561999968253,True,15
X027K24,726,training,48,↑,up,↑,0.6222349000163376,True,15
X027K24,727,experiment,108,←,left,←,0.5039392999606207,True,15
X027K24,728,experiment,156,→,right,→,0.5242481000022963,True,15
X027K24,729,experiment,168,→,right,→,0.4747408999828622,True,15
X027K24,730,experiment,72,↑,up,↑,0.4460825999849476,True,15
X027K24,731,experiment,72,→,right,→,0.5317373999860138,True,15
X027K24,732,experiment,96,↑,up,↑,0.4738177999970503,True,15
X027K24,733,experiment,12,←,left,←,0.7364570999634452,True,15
X027K24,734,experiment,144,←,no_key,no_letter,-1.0,False,15
X027K24,735,experiment,96,→,right,→,0.6234745999681763,True,15
X027K24,736,experiment,48,←,left,←,0.4856067000073381,True,15
X027K24,737,experiment,132,←,left,←,0.5510508000152186,True,15
X027K24,738,experiment,36,↓,up,↑,0.667664100008551,False,15
X027K24,739,experiment,36,↓,up,↑,0.5448111000005156,False,15
X027K24,740,experiment,84,←,left,←,0.6071439000079408,True,15
X027K24,741,experiment,96,↑,up,↑,0.6078547000070103,True,15
X027K24,742,experiment,36,→,right,→,0.9116186000173911,True,15
X027K24,743,experiment,108,↓,down,↓,0.6299572000280023,True,15
X027K24,744,experiment,60,↓,down,↓,0.6945197000168264,True,15
X027K24,745,experiment,84,↑,up,↑,0.5904864000040106,True,15
X027K24,746,experiment,180,→,right,→,0.5627642999752425,True,15
X027K24,747,experiment,72,↑,up,↑,0.5309578999876976,True,15
X027K24,748,experiment,156,↓,down,↓,0.5480178000289015,True,15
X027K24,749,experiment,144,↓,up,↑,0.4996114000095986,False,15
X027K24,750,experiment,120,↓,down,↓,0.5820589999784715,True,15
X027K24,751,experiment,84,↑,up,↑,0.6349787000217475,True,15
X027K24,752,experiment,36,←,left,←,0.6215931000187993,True,15
X027K24,753,experiment,48,→,right,→,0.7357125999988057,True,15
X027K24,754,experiment,84,→,left,←,0.5708754999795929,False,15
X027K24,755,experiment,12,↑,left,←,1.0001977999927476,False,15
X027K24,756,experiment,180,↑,up,↑,0.5430522999959067,True,15
X027K24,757,experiment,168,↑,left,←,0.47295239998493344,False,15
X027K24,758,experiment,48,→,left,←,0.5797652999754064,False,15
X027K24,759,experiment,24,↓,down,↓,0.57888109999476,True,15
X027K24,760,experiment,168,↓,up,↑,0.5599325000075623,False,15
X027K24,761,experiment,156,→,right,→,0.5866929999901913,True,15
X027K24,762,experiment,108,→,right,→,0.580571600003168,True,15
X027K24,763,experiment,24,↑,up,↑,0.5531084000249393,True,15
X027K24,764,experiment,108,←,left,←,0.585925200022757,True,15
X027K24,765,experiment,96,↓,up,↑,0.5964556999970227,False,15
X027K24,766,experiment,180,→,right,→,0.6400346999871545,True,15
X027K24,767,experiment,120,←,left,←,0.5421622000285424,True,15
X027K24,768,experiment,132,↑,up,↑,0.4842200000421144,True,15
X027K24,769,experiment,60,↑,up,↑,0.9103998999926262,True,15
X027K24,770,experiment,60,↑,up,↑,0.9851936000050046,True,15
X027K24,771,experiment,72,←,left,←,0.9139666999690235,True,15
X027K24,772,experiment,180,←,left,←,0.9789137999759987,True,15
X027K24,773,experiment,48,↑,up,↑,0.5069107000017539,True,15
X027K24,774,experiment,120,↑,up,↑,0.5252934000454843,True,15
X027K24,775,experiment,168,↑,up,↑,0.5581579999998212,True,15
X027K24,776,experiment,144,↑,up,↑,0.6053467000019737,True,15
X027K24,777,experiment,12,↑,right,→,0.8715387000120245,False,15
X027K24,778,experiment,132,↑,up,↑,0.46161579998442903,True,15
X027K24,779,experiment,132,←,left,←,0.6121089999796823,True,15
X027K24,780,experiment,60,→,right,→,0.6807581000030041,True,15
X027K24,781,experiment,24,↑,up,↑,0.6613812000141479,True,15
X027K24,782,experiment,120,↑,up,↑,1.1020720999804325,True,15
X027K24,783,experiment,156,↑,up,↑,0.5014704000204802,True,15
X027K24,784,experiment,24,←,left,←,0.6961988999973983,True,15
X027K24,785,experiment,144,↑,up,↑,0.5308050999883562,True,15
X027K24,786,experiment,12,↓,up,↑,0.7480591000057757,False,15
X027K24,787,training,108,↓,down,↓,0.760520700016059,True,15
X027K24,788,training,156,↓,down,↓,0.8039147999952547,True,15
X027K24,789,training,132,↑,up,↑,0.6675924999872223,True,15
X027K24,790,experiment,48,↓,left,←,0.7166449000360444,False,15
X027K24,791,experiment,96,↑,up,↑,0.5479122999822721,True,15
X027K24,792,experiment,12,←,down,↓,0.8234853000030853,False,15
X027K24,793,experiment,84,↑,up,↑,0.5282003000029363,True,15
X027K24,794,experiment,108,↓,down,↓,0.6818359000026248,True,15
X027K24,795,experiment,84,←,left,←,0.5461223000311293,True,15
X027K24,796,experiment,144,↓,up,↑,0.587841100001242,False,15
X027K24,797,experiment,96,↓,down,↓,0.6082545999670401,True,15
X027K24,798,experiment,72,↑,up,↑,0.6357250000000931,True,15
X027K24,799,experiment,60,←,right,→,0.9083006999571808,False,15
X027K24,800,experiment,180,↓,down,↓,0.5937471999786794,True,15
X027K24,801,experiment,108,↑,up,↑,0.6232895999564789,True,15
X027K24,802,experiment,36,↓,down,↓,0.5871274000382982,True,15
X027K24,803,experiment,180,→,right,→,0.5579831000068225,True,15
X027K24,804,experiment,96,↓,right,→,0.8186817999812774,False,15
X027K24,805,experiment,132,→,right,→,0.5621835999772884,True,15
X027K24,806,experiment,156,←,left,←,0.7802940000547096,True,15
X027K24,807,experiment,120,←,left,←,0.5063206000486389,True,15
X027K24,808,experiment,24,↓,down,↓,0.5984897000016645,True,15
X027K24,809,experiment,144,↑,up,↑,0.7261273000040092,True,15
X027K24,810,experiment,12,←,right,→,0.9262521999771707,False,15
X027K24,811,experiment,180,↑,up,↑,0.8780609999666922,True,15
X027K24,812,experiment,84,↑,up,↑,0.6735139999655075,True,15
X027K24,813,experiment,132,↑,right,→,0.9610293000005186,False,15
X027K24,814,experiment,72,→,right,→,0.613982799986843,True,15
X027K24,815,experiment,60,↑,up,↑,0.6167642999789678,True,15
X027K24,816,experiment,72,↓,up,↑,0.8447977000032552,False,15
X027K24,817,experiment,36,↓,right,→,1.0101911000092514,False,15
X027K24,818,experiment,36,↑,up,↑,0.8630520000006072,True,15
X027K24,819,experiment,168,→,right,→,0.5962296000216156,True,15
X027K24,820,experiment,12,→,right,→,0.7822649000445381,True,15
X027K24,821,experiment,120,↑,up,↑,0.680350799986627,True,15
X027K24,822,experiment,60,↑,no_key,no_letter,-1.0,False,15
X027K24,823,experiment,156,←,left,←,0.70467969996389,True,15
X027K24,824,experiment,48,→,right,→,0.5670655000139959,True,15
X027K24,825,experiment,144,←,left,←,0.5994283999898471,True,15
X027K24,826,experiment,132,↓,down,↓,0.62522370001534,True,15
X027K24,827,experiment,48,→,right,→,0.5517662999918684,True,15
X027K24,828,experiment,60,←,left,←,0.4973217999795452,True,15
X027K24,829,experiment,84,↓,right,→,0.8698721000109799,False,15
X027K24,830,experiment,168,←,left,←,0.6584446999477223,True,15
X027K24,831,experiment,24,←,right,→,0.690184400009457,False,15
X027K24,832,experiment,120,→,right,→,0.8560604000231251,True,15
X027K24,833,experiment,156,↑,up,↑,0.4607614000560716,True,15
X027K24,834,experiment,180,↓,down,↓,0.6136872000060976,True,15
X027K24,835,experiment,24,←,left,←,1.1272045000223443,True,15
X027K24,836,experiment,108,↓,down,↓,0.6137656000209972,True,15
X027K24,837,experiment,108,↓,down,↓,0.7414495999692008,True,15
X027K24,838,experiment,168,→,right,→,0.5368530999985524,True,15
X027K24,839,experiment,120,↑,up,↑,0.771974399976898,True,15
X027K24,840,experiment,24,←,left,←,0.6829418999841437,True,15
X027K24,841,experiment,168,↑,up,↑,0.8462504000053741,True,15
X027K24,842,experiment,144,↓,down,↓,0.6389472999726422,True,15
X027K24,843,experiment,132,→,right,→,0.6113718999549747,True,15
X027K24,844,experiment,72,↑,up,↑,0.8039483999600634,True,15
X027K24,845,experiment,36,←,right,→,0.5488455999875441,False,15
X027K24,846,experiment,96,↓,down,↓,0.5869149999925867,True,15
X027K24,847,experiment,48,↑,up,↑,0.5724116999772377,True,15
X027K24,848,experiment,156,←,left,←,0.71931279997807,True,15
X027K24,849,experiment,12,←,left,←,0.7491156999603845,True,15
