PART_ID,Trial_no,Trial_type,PDI,Stim_letter,Key_pressed,letter_choose,Rt,Corr,Stimulus Time
X028K20,1,training,10,↑,no_key,no_letter,-1.0,False,30
X028K20,2,training,10,←,right,→,0.6169819999777246,False,30
X028K20,3,training,10,←,down,↓,0.5672143000119831,False,30
X028K20,4,training,10,↑,left,←,1.3835646000225097,False,30
X028K20,5,training,10,↑,up,↑,2.0773924000095576,True,30
X028K20,6,training,10,→,right,→,0.8490611000161152,True,30
X028K20,7,training,10,←,left,←,0.8732202000101097,True,30
X028K20,8,training,10,←,left,←,0.6004141999874264,True,30
X028K20,9,training,10,↓,down,↓,0.7192627000040375,True,30
X028K20,10,training,10,↑,up,↑,0.567030700010946,True,30
X028K20,11,training,10,↓,down,↓,0.48395770002389327,True,30
X028K20,12,training,10,↓,up,↑,0.6001211999973748,False,30
X028K20,13,training,10,↑,up,↑,0.5672160999965854,True,30
X028K20,14,training,10,→,right,→,0.500691299996106,True,30
X028K20,15,training,10,←,left,←,0.5489674000127707,True,30
X028K20,16,training,10,↑,up,↑,0.43384419998619705,True,30
X028K20,17,training,10,→,right,→,0.3669874999905005,True,30
X028K20,18,training,10,↓,down,↓,0.46789900001022033,True,30
X028K20,19,training,10,↓,down,↓,0.38405989998136647,True,30
X028K20,20,training,10,→,right,→,0.7802436999918427,True,30
X028K20,21,training,10,↑,right,→,1.012325999996392,False,18
X028K20,22,training,10,→,right,→,0.5308275999850594,True,18
X028K20,23,training,10,↓,down,↓,1.2136461000191048,True,18
X028K20,24,training,10,↑,left,←,1.0007765000045765,False,18
X028K20,25,training,10,↑,right,→,0.9653779000218492,False,18
X028K20,26,training,10,↓,left,←,0.9331233999982942,False,18
X028K20,27,training,10,→,right,→,0.7719056000059936,True,18
X028K20,28,training,10,→,right,→,0.48577349999686703,True,18
X028K20,29,training,10,↑,right,→,1.3798545000026934,False,18
X028K20,30,training,10,→,right,→,0.7262473999871872,True,18
X028K20,31,training,156,←,left,←,1.4521494999935385,True,15
X028K20,32,training,132,↓,right,→,0.9595056000107434,False,15
X028K20,33,training,36,↓,right,→,0.9171211000066251,False,15
X028K20,34,experiment,156,←,right,→,1.053012199990917,False,15
X028K20,35,experiment,24,→,left,←,1.258209200022975,False,15
X028K20,36,experiment,168,↓,right,→,0.9297756000014488,False,15
X028K20,37,experiment,120,↑,right,→,1.0587965000013355,False,15
X028K20,38,experiment,36,↓,right,→,1.12935460000881,False,15
X028K20,39,experiment,84,↓,down,↓,0.5677140000043437,True,15
X028K20,40,experiment,132,←,left,←,0.5990044000209309,True,15
X028K20,41,experiment,144,↑,up,↑,0.6484877000038978,True,15
X028K20,42,experiment,180,↓,right,→,0.9632810000039171,False,15
X028K20,43,experiment,120,→,right,→,0.8960220000008121,True,15
X028K20,44,experiment,156,↓,down,↓,0.6190185000014026,True,15
X028K20,45,experiment,144,↓,down,↓,0.6930501000024378,True,15
X028K20,46,experiment,12,→,right,→,0.6676658999931533,True,15
X028K20,47,experiment,96,↑,up,↑,0.5628098000015598,True,15
X028K20,48,experiment,180,↓,right,→,1.0112827999982983,False,15
X028K20,49,experiment,60,←,left,←,0.5794827000063378,True,15
X028K20,50,experiment,84,↓,down,↓,0.46586610001395456,True,15
X028K20,51,experiment,36,←,left,←,0.5553359999903478,True,15
X028K20,52,experiment,60,→,left,←,0.7194308000034653,False,15
X028K20,53,experiment,108,←,right,→,0.8499828000203706,False,15
X028K20,54,experiment,72,↓,down,↓,0.45461499999510124,True,15
X028K20,55,experiment,48,↓,down,↓,0.7150131000089459,True,15
X028K20,56,experiment,168,←,right,→,0.9329581999918446,False,15
X028K20,57,experiment,84,↓,down,↓,0.4862598000036087,True,15
X028K20,58,experiment,24,↓,right,→,1.1535619999922346,False,15
X028K20,59,experiment,12,↓,right,→,0.9686637000122573,False,15
X028K20,60,experiment,72,↓,down,↓,0.5197003000066616,True,15
X028K20,61,experiment,108,↓,down,↓,0.5274446999828797,True,15
X028K20,62,experiment,60,↑,up,↑,0.5565464000101201,True,15
X028K20,63,experiment,180,←,left,←,0.5125052999937907,True,15
X028K20,64,experiment,24,→,right,→,1.518437199993059,True,15
X028K20,65,experiment,48,↓,right,→,0.879436799994437,False,15
X028K20,66,experiment,132,→,right,→,0.4923869999765884,True,15
X028K20,67,experiment,108,→,right,→,0.6138498999935109,True,15
X028K20,68,experiment,84,↓,left,←,0.8275298000080511,False,15
X028K20,69,experiment,120,↓,right,→,0.9670160999812651,False,15
X028K20,70,experiment,60,→,left,←,1.1911871999909636,False,15
X028K20,71,experiment,48,→,right,→,0.5157232000201475,True,15
X028K20,72,experiment,12,↑,up,↑,0.8015133000153583,True,15
X028K20,73,experiment,132,←,left,←,0.6464789999881759,True,15
X028K20,74,experiment,48,←,right,→,0.8591702000121586,False,15
X028K20,75,experiment,168,→,right,→,0.739913900004467,True,15
X028K20,76,experiment,144,←,left,←,0.729166199977044,True,15
X028K20,77,experiment,96,↑,up,↑,0.42386479998822324,True,15
X028K20,78,experiment,120,↑,right,→,0.6457139999838546,False,15
X028K20,79,experiment,156,↑,up,↑,0.47539080001297407,True,15
X028K20,80,experiment,180,↓,down,↓,0.5976853000174742,True,15
X028K20,81,experiment,12,↑,up,↑,0.7222285000025295,True,15
X028K20,82,experiment,96,←,left,←,0.5712220999994315,True,15
X028K20,83,experiment,72,←,up,↑,0.884730000019772,False,15
X028K20,84,experiment,132,↓,down,↓,0.5181640999799129,True,15
X028K20,85,experiment,144,↓,up,↑,1.1141862999938894,False,15
X028K20,86,experiment,96,↓,up,↑,0.7800324999843724,False,15
X028K20,87,experiment,108,↓,right,→,1.1914956999826245,False,15
X028K20,88,experiment,156,↑,up,↑,0.6532108999963384,True,15
X028K20,89,experiment,168,→,right,→,0.620804300007876,True,15
X028K20,90,experiment,36,→,right,→,0.5746576999954414,True,15
X028K20,91,experiment,72,↑,up,↑,0.5040122999926098,True,15
X028K20,92,experiment,24,↓,up,↑,0.8096378000045661,False,15
X028K20,93,experiment,36,↓,down,↓,0.5253740999905858,True,15
X028K20,94,training,180,←,right,→,0.9563612999918405,False,15
X028K20,95,training,144,←,right,→,0.8378720000036992,False,15
X028K20,96,training,168,↑,down,↓,0.9549318999925163,False,15
X028K20,97,experiment,156,↓,right,→,1.229475400003139,False,15
X028K20,98,experiment,168,↓,down,↓,0.6628453999874182,True,15
X028K20,99,experiment,180,↓,down,↓,0.6719191999873146,True,15
X028K20,100,experiment,132,↑,right,→,1.290207600017311,False,15
X028K20,101,experiment,120,→,right,→,0.653309299988905,True,15
X028K20,102,experiment,84,↓,down,↓,0.6762393999961205,True,15
X028K20,103,experiment,48,↓,down,↓,0.6420694999978878,True,15
X028K20,104,experiment,108,↑,up,↑,0.6095755000133067,True,15
X028K20,105,experiment,72,↓,right,→,0.9637369999836665,False,15
X028K20,106,experiment,156,↓,right,→,1.0088324999960605,False,15
X028K20,107,experiment,132,↓,down,↓,0.6350272000127006,True,15
X028K20,108,experiment,60,↓,down,↓,0.5860202999901958,True,15
X028K20,109,experiment,48,→,left,←,0.9820278999977745,False,15
X028K20,110,experiment,108,←,left,←,0.4540338999941014,True,15
X028K20,111,experiment,144,↑,up,↑,0.6598121999995783,True,15
X028K20,112,experiment,72,↑,up,↑,0.5271246999909636,True,15
X028K20,113,experiment,156,←,left,←,0.5294865000178106,True,15
X028K20,114,experiment,36,→,left,←,0.5472843000025023,False,15
X028K20,115,experiment,48,↓,up,↑,1.1193080000230111,False,15
X028K20,116,experiment,180,→,right,→,0.5561619999934919,True,15
X028K20,117,experiment,84,↓,up,↑,0.8608189999940805,False,15
X028K20,118,experiment,96,↓,down,↓,0.6796240000112448,True,15
X028K20,119,experiment,24,↓,down,↓,0.7143400000059046,True,15
X028K20,120,experiment,96,←,left,←,0.6461558000009973,True,15
X028K20,121,experiment,168,↓,left,←,0.8839348999899812,False,15
X028K20,122,experiment,168,→,right,→,0.4553658999793697,True,15
X028K20,123,experiment,144,↓,down,↓,0.6359671000100207,True,15
X028K20,124,experiment,48,→,left,←,1.3622405999922194,False,15
X028K20,125,experiment,12,↓,down,↓,0.5146314000012353,True,15
X028K20,126,experiment,132,↑,up,↑,0.4805996000068262,True,15
X028K20,127,experiment,84,↓,up,↑,0.841433199995663,False,15
X028K20,128,experiment,180,→,right,→,0.7442519000032917,True,15
X028K20,129,experiment,36,↑,up,↑,0.8331451999838464,True,15
X028K20,130,experiment,24,↑,up,↑,0.6644742999924347,True,15
X028K20,131,experiment,144,↓,down,↓,0.5604184000112582,True,15
X028K20,132,experiment,120,↓,down,↓,0.5192524000012781,True,15
X028K20,133,experiment,12,↑,up,↑,0.5232132000091951,True,15
X028K20,134,experiment,108,↓,down,↓,0.4813849000202026,True,15
X028K20,135,experiment,36,→,right,→,1.1498867999762297,True,15
X028K20,136,experiment,12,←,right,→,1.5964158999850042,False,15
X028K20,137,experiment,120,↑,up,↑,0.5616478000010829,True,15
X028K20,138,experiment,180,↓,down,↓,0.7084061999921687,True,15
X028K20,139,experiment,12,→,down,↓,1.2724264999851584,False,15
X028K20,140,experiment,60,↓,down,↓,0.5919585999799892,True,15
X028K20,141,experiment,60,←,right,→,1.02076680000755,False,15
X028K20,142,experiment,168,↓,down,↓,0.8343815999978688,True,15
X028K20,143,experiment,144,↑,down,↓,1.8306130999990273,False,15
X028K20,144,experiment,72,↓,down,↓,0.8161585000052582,True,15
X028K20,145,experiment,84,↑,up,↑,0.7092063999734819,True,15
X028K20,146,experiment,36,→,up,↑,1.6610830999852624,False,15
X028K20,147,experiment,96,↑,up,↑,1.1738972000021022,True,15
X028K20,148,experiment,24,↑,up,↑,1.0524173000012524,True,15
X028K20,149,experiment,60,→,up,↑,0.890557800012175,False,15
X028K20,150,experiment,108,→,down,↓,0.9457563000032678,False,15
X028K20,151,experiment,156,→,up,↑,0.7147976999985985,False,15
X028K20,152,experiment,132,→,down,↓,0.8247100999869872,False,15
X028K20,153,experiment,72,←,up,↑,1.1524271999951452,False,15
X028K20,154,experiment,24,↓,right,→,1.0300857000111137,False,15
X028K20,155,experiment,120,→,right,→,1.8589127000013832,True,15
X028K20,156,experiment,96,←,right,→,0.735242399998242,False,15
X028K20,157,training,36,→,right,→,0.7964115999930073,True,15
X028K20,158,training,156,↓,up,↑,1.7366595000203233,False,15
X028K20,159,training,84,↓,down,↓,0.43822750000981614,True,15
X028K20,160,experiment,36,↓,down,↓,0.7072103999962565,True,15
X028K20,161,experiment,60,←,left,←,0.6935149999917485,True,15
X028K20,162,experiment,180,↓,down,↓,0.47520210000220686,True,15
X028K20,163,experiment,36,→,down,↓,0.7717357000219636,False,15
X028K20,164,experiment,132,←,left,←,0.5338222999998834,True,15
X028K20,165,experiment,24,→,right,→,0.8059683000028599,True,15
X028K20,166,experiment,12,←,left,←,0.605332900013309,True,15
X028K20,167,experiment,36,↑,left,←,1.443222700007027,False,15
X028K20,168,experiment,84,↑,up,↑,1.2261392000073101,True,15
X028K20,169,experiment,108,←,right,→,1.051532200013753,False,15
X028K20,170,experiment,84,↓,down,↓,0.6380026000260841,True,15
X028K20,171,experiment,120,↓,down,↓,0.47223220000159927,True,15
X028K20,172,experiment,60,↓,down,↓,0.7991854999854695,True,15
X028K20,173,experiment,48,↑,up,↑,0.7446161000116263,True,15
X028K20,174,experiment,48,←,up,↑,1.1092691000085324,False,15
X028K20,175,experiment,108,↓,no_key,no_letter,-1.0,False,15
X028K20,176,experiment,84,↓,down,↓,0.49927140001091175,True,15
X028K20,177,experiment,96,←,left,←,0.7143681999878027,True,15
X028K20,178,experiment,156,↓,down,↓,0.7226243000186514,True,15
X028K20,179,experiment,180,←,left,←,0.525028400006704,True,15
X028K20,180,experiment,168,↓,down,↓,0.704429599980358,True,15
X028K20,181,experiment,96,→,right,→,0.4727165999938734,True,15
X028K20,182,experiment,12,↓,down,↓,0.7944009999919217,True,15
X028K20,183,experiment,108,→,right,→,0.6117530999763403,True,15
X028K20,184,experiment,180,←,left,←,0.9221024999860674,True,15
X028K20,185,experiment,132,←,left,←,0.7628337999922223,True,15
X028K20,186,experiment,60,→,left,←,0.7610482000163756,False,15
X028K20,187,experiment,180,←,right,→,0.8092356999986805,False,15
X028K20,188,experiment,144,→,right,→,0.4751265999802854,True,15
X028K20,189,experiment,120,↓,up,↑,0.823197199992137,False,15
X028K20,190,experiment,108,→,right,→,0.8708656000089832,True,15
X028K20,191,experiment,96,←,down,↓,0.8492384999990463,False,15
X028K20,192,experiment,12,↑,up,↑,0.8078420999809168,True,15
X028K20,193,experiment,24,→,right,→,0.880065100005595,True,15
X028K20,194,experiment,144,←,left,←,1.1179177000012714,True,15
X028K20,195,experiment,156,←,left,←,0.5376510999922175,True,15
X028K20,196,experiment,84,←,left,←,0.806063299998641,True,15
X028K20,197,experiment,132,↑,left,←,0.8273069999995641,False,15
X028K20,198,experiment,24,←,left,←,0.9169832000043243,True,15
X028K20,199,experiment,120,↓,left,←,0.9042424000217579,False,15
X028K20,200,experiment,72,↑,right,→,0.7831179999921005,False,15
X028K20,201,experiment,72,→,right,→,0.7063750000088476,True,15
X028K20,202,experiment,156,↑,up,↑,0.78118849999737,True,15
X028K20,203,experiment,72,→,right,→,0.6977132000029087,True,15
X028K20,204,experiment,60,←,down,↓,1.178321399987908,False,15
X028K20,205,experiment,72,↓,up,↑,0.72474420000799,False,15
X028K20,206,experiment,144,→,left,←,0.8314927999745123,False,15
X028K20,207,experiment,120,↑,up,↑,0.8664011000073515,True,15
X028K20,208,experiment,48,→,up,↑,0.852192099991953,False,15
X028K20,209,experiment,168,→,right,→,0.5083864000043832,True,15
X028K20,210,experiment,12,↓,down,↓,1.1292940999846905,True,15
X028K20,211,experiment,36,↑,left,←,0.8833455000130925,False,15
X028K20,212,experiment,96,→,up,↑,0.9106820000160951,False,15
X028K20,213,experiment,156,↑,up,↑,0.7556583999830764,True,15
X028K20,214,experiment,48,↑,up,↑,0.8032223000191152,True,15
X028K20,215,experiment,24,↑,up,↑,0.6997291999869049,True,15
X028K20,216,experiment,132,↓,down,↓,0.5642570999916643,True,15
X028K20,217,experiment,168,→,right,→,0.9107846000115387,True,15
X028K20,218,experiment,168,↓,down,↓,0.6596392999927048,True,15
X028K20,219,experiment,144,↑,up,↑,0.556982500012964,True,15
X028K20,220,training,48,↑,up,↑,1.1319110000040382,True,15
X028K20,221,training,132,←,left,←,0.44731119999778457,True,15
X028K20,222,training,132,↓,up,↑,0.8898846000083722,False,15
X028K20,223,experiment,96,↓,down,↓,0.5739653999917209,True,15
X028K20,224,experiment,120,→,down,↓,0.9500198000168893,False,15
X028K20,225,experiment,12,↓,right,→,0.907025499996962,False,15
X028K20,226,experiment,36,↓,up,↑,0.7820334999996703,False,15
X028K20,227,experiment,36,→,down,↓,1.1757456999912392,False,15
X028K20,228,experiment,60,←,right,→,1.114058200008003,False,15
X028K20,229,experiment,144,←,no_key,no_letter,-1.0,False,15
X028K20,230,experiment,36,↑,left,←,1.1164364999858662,False,15
X028K20,231,experiment,156,↓,down,↓,0.5564452999969944,True,15
X028K20,232,experiment,24,↑,up,↑,0.8986868000065442,True,15
X028K20,233,experiment,144,↑,up,↑,0.47556790002272464,True,15
X028K20,234,experiment,180,←,left,←,0.7191272999916691,True,15
X028K20,235,experiment,144,↑,up,↑,0.49335180001799017,True,15
X028K20,236,experiment,96,→,left,←,1.0545021999860182,False,15
X028K20,237,experiment,156,→,right,→,0.542124600004172,True,15
X028K20,238,experiment,168,↑,left,←,0.9286077000142541,False,15
X028K20,239,experiment,120,→,left,←,1.27686499999254,False,15
X028K20,240,experiment,108,↓,right,→,1.167060700012371,False,15
X028K20,241,experiment,72,↑,up,↑,0.9558826999855228,True,15
X028K20,242,experiment,180,→,right,→,0.9619476000079885,True,15
X028K20,243,experiment,96,←,right,→,1.2410145000030752,False,15
X028K20,244,experiment,108,↑,up,↑,0.6521014000172727,True,15
X028K20,245,experiment,108,↑,up,↑,0.7552855999965686,True,15
X028K20,246,experiment,180,↑,up,↑,0.43068140000104904,True,15
X028K20,247,experiment,24,↓,down,↓,0.6093781999952625,True,15
X028K20,248,experiment,12,←,right,→,0.8474817000096664,False,15
X028K20,249,experiment,132,↓,down,↓,0.47150310000870377,True,15
X028K20,250,experiment,12,↓,down,↓,0.465654400002677,True,15
X028K20,251,experiment,120,→,up,↑,0.8398878999869339,False,15
X028K20,252,experiment,48,→,up,↑,0.6155695999914315,False,15
X028K20,253,experiment,36,→,right,→,0.6281015999848023,True,15
X028K20,254,experiment,24,↑,right,→,0.8230794999981299,False,15
X028K20,255,experiment,84,←,up,↑,1.1279155999945942,False,15
X028K20,256,experiment,48,→,left,←,1.5416002999991179,False,15
X028K20,257,experiment,168,←,right,→,0.6935560000129044,False,15
X028K20,258,experiment,24,←,right,→,0.6937063000223134,False,15
X028K20,259,experiment,12,←,no_key,no_letter,-1.0,False,15
X028K20,260,experiment,132,→,no_key,no_letter,-1.0,False,15
X028K20,261,experiment,60,←,right,→,0.5128132000099868,False,15
X028K20,262,experiment,180,↑,right,→,0.7020246000029147,False,15
X028K20,263,experiment,84,→,up,↑,0.3505884000041988,False,15
X028K20,264,experiment,156,→,down,↓,0.6839127000130247,False,15
X028K20,265,experiment,84,←,right,→,1.3961458000121638,False,15
X028K20,266,experiment,48,→,left,←,0.8130399000074249,False,15
X028K20,267,experiment,84,↑,left,←,0.8578180999902543,False,15
X028K20,268,experiment,72,←,up,↑,0.5568051000009291,False,15
X028K20,269,experiment,60,→,down,↓,0.6414883999968879,False,15
X028K20,270,experiment,72,→,right,→,0.3841594999830704,True,15
X028K20,271,experiment,156,↓,down,↓,0.4533409000141546,True,15
X028K20,272,experiment,120,←,right,→,0.7628020999836735,False,15
X028K20,273,experiment,168,←,right,→,0.6826202000083867,False,15
X028K20,274,experiment,132,↓,up,↑,0.8422965999925509,False,15
X028K20,275,experiment,72,←,up,↑,0.6773239000176545,False,15
X028K20,276,experiment,132,→,right,→,0.7436489000101574,True,15
X028K20,277,experiment,96,↓,up,↑,0.7799000999948476,False,15
X028K20,278,experiment,144,→,up,↑,1.3642463000142016,False,15
X028K20,279,experiment,168,↓,down,↓,0.3673776000214275,True,15
X028K20,280,experiment,108,↓,down,↓,0.6404667000169866,True,15
X028K20,281,experiment,48,←,down,↓,0.8079905000049621,False,15
X028K20,282,experiment,60,↓,down,↓,0.6493134000047576,True,15
X028K20,283,training,36,↑,left,←,1.1330738999822643,False,16
X028K20,284,training,156,↑,up,↑,1.7664489999879152,True,16
X028K20,285,training,108,←,left,←,0.9680309999966994,True,16
X028K20,286,experiment,36,←,left,←,0.7305754999979399,True,16
X028K20,287,experiment,12,→,left,←,0.5995253000000957,False,16
X028K20,288,experiment,12,←,down,↓,0.7760722999810241,False,16
X028K20,289,experiment,36,→,up,↑,0.8167828999867197,False,16
X028K20,290,experiment,72,←,left,←,0.5138733999920078,True,16
X028K20,291,experiment,60,→,left,←,0.904512099979911,False,16
X028K20,292,experiment,60,↑,up,↑,0.5869199999724515,True,16
X028K20,293,experiment,24,↑,down,↓,1.0579805999877863,False,16
X028K20,294,experiment,12,→,right,→,0.9755471000098623,True,16
X028K20,295,experiment,24,→,right,→,0.6107368000084534,True,16
X028K20,296,experiment,120,←,up,↑,0.8814706999983173,False,16
X028K20,297,experiment,60,↑,right,→,1.246300800004974,False,16
X028K20,298,experiment,120,↓,up,↑,0.8733068000001367,False,16
X028K20,299,experiment,144,→,up,↑,1.1622609999903943,False,16
X028K20,300,experiment,24,←,right,→,1.6203081000130624,False,16
X028K20,301,experiment,144,↓,left,←,1.5864041000022553,False,16
X028K20,302,experiment,24,↓,no_key,no_letter,-1.0,False,16
X028K20,303,experiment,84,↓,up,↑,1.0224050999968313,False,16
X028K20,304,experiment,48,→,right,→,1.0799539999861736,True,16
X028K20,305,experiment,84,↓,down,↓,0.6626492000068538,True,16
X028K20,306,experiment,144,↑,up,↑,0.6099981000006665,True,16
X028K20,307,experiment,120,←,up,↑,1.649113399995258,False,16
X028K20,308,experiment,168,↓,down,↓,0.5713050000194926,True,16
X028K20,309,experiment,144,↓,down,↓,1.1014454999822192,True,16
X028K20,310,experiment,156,↑,up,↑,0.5964987000043038,True,16
X028K20,311,experiment,156,→,right,→,0.55052550000255,True,16
X028K20,312,experiment,168,←,right,→,0.8862626999907661,False,16
X028K20,313,experiment,96,→,left,←,1.7730043000192381,False,16
X028K20,314,experiment,132,→,no_key,no_letter,-1.0,False,16
X028K20,315,experiment,168,←,right,→,0.8758322000212502,False,16
X028K20,316,experiment,132,←,left,←,0.8081317000032868,True,16
X028K20,317,experiment,60,←,right,→,0.5995223000063561,False,16
X028K20,318,experiment,168,↑,down,↓,1.1752137999865226,False,16
X028K20,319,experiment,36,←,no_key,no_letter,-1.0,False,16
X028K20,320,experiment,132,↓,up,↑,0.8049746000033338,False,16
X028K20,321,experiment,108,↓,up,↑,1.2370879999944009,False,16
X028K20,322,experiment,72,←,left,←,0.5878795000026003,True,16
X028K20,323,experiment,180,←,right,→,0.7332694999931846,False,16
X028K20,324,experiment,156,↑,up,↑,0.43794179998803884,True,16
X028K20,325,experiment,48,↓,up,↑,1.7728343000053428,False,16
X028K20,326,experiment,108,←,left,←,0.646557500003837,True,16
X028K20,327,experiment,12,←,left,←,0.9712824000162072,True,16
X028K20,328,experiment,72,↑,up,↑,0.686910300020827,True,16
X028K20,329,experiment,84,→,left,←,0.765179200010607,False,16
X028K20,330,experiment,108,←,left,←,1.2298046000069007,True,16
X028K20,331,experiment,96,←,left,←,0.769625899993116,True,16
X028K20,332,experiment,84,↓,down,↓,0.5709045999974478,True,16
X028K20,333,experiment,180,←,down,↓,0.9708360999939032,False,16
X028K20,334,experiment,108,↑,up,↑,0.833496200008085,True,16
X028K20,335,experiment,96,↓,down,↓,0.881915999983903,True,16
X028K20,336,experiment,132,→,up,↑,1.242374800000107,False,16
X028K20,337,experiment,96,→,up,↑,0.7453733999864198,False,16
X028K20,338,experiment,180,→,up,↑,1.473266099987086,False,16
X028K20,339,experiment,120,↑,up,↑,0.4884149999998044,True,16
X028K20,340,experiment,48,←,up,↑,0.7708174999861512,False,16
X028K20,341,experiment,48,→,up,↑,1.5367749000142794,False,16
X028K20,342,experiment,72,←,left,←,0.5822022999927867,True,16
X028K20,343,experiment,180,↑,right,→,0.5166508999827784,False,16
X028K20,344,experiment,36,→,right,→,0.5579370000050403,True,16
X028K20,345,experiment,156,→,no_key,no_letter,-1.0,False,16
X028K20,346,training,12,↓,down,↓,1.2624988000025041,True,17
X028K20,347,training,180,↓,down,↓,0.649684400006663,True,17
X028K20,348,training,24,↓,down,↓,0.8541766999987885,True,17
X028K20,349,experiment,72,↑,up,↑,0.49135779999778606,True,17
X028K20,350,experiment,12,↑,up,↑,1.6138359000033233,True,17
X028K20,351,experiment,12,↓,up,↑,0.982686899980763,False,17
X028K20,352,experiment,156,→,right,→,0.7553268000192475,True,17
X028K20,353,experiment,120,←,left,←,0.8271479000104591,True,17
X028K20,354,experiment,168,↓,left,←,1.29048279998824,False,17
X028K20,355,experiment,48,←,left,←,0.7074236999906134,True,17
X028K20,356,experiment,36,↓,up,↑,1.1006296999985352,False,17
X028K20,357,experiment,24,↓,left,←,0.6890192000137176,False,17
X028K20,358,experiment,12,→,right,→,0.6581290000176523,True,17
X028K20,359,experiment,72,↓,down,↓,0.6124116999853868,True,17
X028K20,360,experiment,156,↑,up,↑,0.8559781999792904,True,17
X028K20,361,experiment,60,↑,up,↑,0.8868503000121564,True,17
X028K20,362,experiment,96,←,no_key,no_letter,-1.0,False,17
X028K20,363,experiment,168,↑,up,↑,0.9329315999930259,True,17
X028K20,364,experiment,156,↑,right,→,0.8711014000000432,False,17
X028K20,365,experiment,132,↓,down,↓,0.8143324000120629,True,17
X028K20,366,experiment,48,→,down,↓,1.0837337999837473,False,17
X028K20,367,experiment,144,→,right,→,0.5272416000079829,True,17
X028K20,368,experiment,180,↓,up,↑,0.7602726000186522,False,17
X028K20,369,experiment,144,↓,right,→,0.7330236000125296,False,17
X028K20,370,experiment,24,↓,down,↓,0.7704632999957539,True,17
X028K20,371,experiment,84,↑,right,→,0.8180720999953337,False,17
X028K20,372,experiment,12,↑,no_key,no_letter,-1.0,False,17
X028K20,373,experiment,24,↓,down,↓,0.6666646999947261,True,17
X028K20,374,experiment,120,↓,down,↓,0.9577387000026647,True,17
X028K20,375,experiment,36,←,left,←,1.3286894999910146,True,17
X028K20,376,experiment,168,←,up,↑,0.7314127999998163,False,17
X028K20,377,experiment,168,→,down,↓,1.070543000008911,False,17
X028K20,378,experiment,36,↓,right,→,0.8384305000072345,False,17
X028K20,379,experiment,84,←,down,↓,0.6052888999984134,False,17
X028K20,380,experiment,108,→,right,→,1.0370901999995112,True,17
X028K20,381,experiment,48,↓,down,↓,0.6900371000228915,True,17
X028K20,382,experiment,108,→,right,→,0.6504204999946523,True,17
X028K20,383,experiment,72,↓,down,↓,0.7555280999804381,True,17
X028K20,384,experiment,72,←,left,←,0.6523353999946266,True,17
X028K20,385,experiment,108,→,right,→,0.5847460000077263,True,17
X028K20,386,experiment,120,→,left,←,1.121660900011193,False,17
X028K20,387,experiment,24,←,up,↑,1.6333448000077624,False,17
X028K20,388,experiment,36,↑,down,↓,0.8507382000098005,False,17
X028K20,389,experiment,96,→,right,→,0.9746278999955393,True,17
X028K20,390,experiment,48,↓,down,↓,0.6411968999891542,True,17
X028K20,391,experiment,180,→,right,→,1.2054697000130545,True,17
X028K20,392,experiment,132,←,left,←,0.9677087999880314,True,17
X028K20,393,experiment,60,→,down,↓,0.8679645000083838,False,17
X028K20,394,experiment,84,→,right,→,0.613668299978599,True,17
X028K20,395,experiment,120,←,left,←,0.4983672999951523,True,17
X028K20,396,experiment,60,→,right,→,0.6794114999938756,True,17
X028K20,397,experiment,180,↓,down,↓,0.7358871000178624,True,17
X028K20,398,experiment,132,↓,down,↓,0.8881088999914937,True,17
X028K20,399,experiment,108,↑,right,→,1.3859421000233851,False,17
X028K20,400,experiment,96,↑,up,↑,0.7421333999955095,True,17
X028K20,401,experiment,144,←,down,↓,0.7198041999945417,False,17
X028K20,402,experiment,144,→,up,↑,1.0062908999971114,False,17
X028K20,403,experiment,60,←,no_key,no_letter,-1.0,False,17
X028K20,404,experiment,156,→,right,→,0.783395099977497,True,17
X028K20,405,experiment,96,↑,right,→,1.69095020001987,False,17
X028K20,406,experiment,84,↓,no_key,no_letter,-1.0,False,17
X028K20,407,experiment,180,→,left,←,0.5399737000116147,False,17
X028K20,408,experiment,132,←,left,←,0.969438000000082,True,17
X028K20,409,training,108,↓,down,↓,0.5790885000023991,True,18
X028K20,410,training,72,↓,down,↓,0.7565231999906246,True,18
X028K20,411,training,156,→,right,→,1.238335600006394,True,18
X028K20,412,experiment,96,↑,left,←,1.1484574000060093,False,18
X028K20,413,experiment,108,→,up,↑,0.768535500013968,False,18
X028K20,414,experiment,48,↑,no_key,no_letter,-1.0,False,18
X028K20,415,experiment,144,↓,down,↓,0.8419751000183169,True,18
X028K20,416,experiment,60,↑,down,↓,0.7934603999892715,False,18
X028K20,417,experiment,12,←,left,←,0.6822464000142645,True,18
X028K20,418,experiment,12,↓,down,↓,0.7176678999967407,True,18
X028K20,419,experiment,180,↓,right,→,0.8151470999873709,False,18
X028K20,420,experiment,168,↑,up,↑,0.6537351000006311,True,18
X028K20,421,experiment,108,←,left,←,0.748278199986089,True,18
X028K20,422,experiment,108,→,left,←,1.1468336999823805,False,18
X028K20,423,experiment,180,→,no_key,no_letter,-1.0,False,18
X028K20,424,experiment,72,→,left,←,1.1956248999922536,False,18
X028K20,425,experiment,12,←,no_key,no_letter,-1.0,False,18
X028K20,426,experiment,36,←,left,←,0.6737553999992087,True,18
X028K20,427,experiment,168,↓,down,↓,1.2057048999995459,True,18
X028K20,428,experiment,144,→,right,→,0.4985304999863729,True,18
X028K20,429,experiment,120,→,right,→,1.1256024000176694,True,18
X028K20,430,experiment,144,→,right,→,0.9395921999821439,True,18
X028K20,431,experiment,156,←,right,→,0.40073819999815896,False,18
X028K20,432,experiment,120,↓,down,↓,0.6251336999994237,True,18
X028K20,433,experiment,60,←,left,←,0.46972209998057224,True,18
X028K20,434,experiment,144,←,up,↑,0.9230379000073299,False,18
X028K20,435,experiment,120,→,left,←,0.5095120000187308,False,18
X028K20,436,experiment,96,↓,down,↓,0.7691486999974586,True,18
X028K20,437,experiment,48,←,no_key,no_letter,-1.0,False,18
X028K20,438,experiment,96,←,left,←,0.6270807000109926,True,18
X028K20,439,experiment,60,→,right,→,0.5779405999928713,True,18
X028K20,440,experiment,72,→,up,↑,1.0513947999861557,False,18
X028K20,441,experiment,72,←,down,↓,1.5074336999969091,False,18
X028K20,442,experiment,168,↓,up,↑,0.9692845999961719,False,18
X028K20,443,experiment,156,↑,up,↑,0.9410761999897659,True,18
X028K20,444,experiment,24,↓,up,↑,0.8738602999947034,False,18
X028K20,445,experiment,132,↑,up,↑,1.207356599974446,True,18
X028K20,446,experiment,24,↑,right,→,1.2012747999979183,False,18
X028K20,447,experiment,24,↑,up,↑,0.6883493000059389,True,18
X028K20,448,experiment,156,→,right,→,0.5502447999897413,True,18
X028K20,449,experiment,96,↑,up,↑,0.701833600003738,True,18
X028K20,450,experiment,48,←,left,←,0.7087005999928806,True,18
X028K20,451,experiment,120,←,left,←,0.8808646999823395,True,18
X028K20,452,experiment,24,↑,right,→,1.244907400017837,False,18
X028K20,453,experiment,180,←,left,←,1.0719150999793783,True,18
X028K20,454,experiment,48,↓,left,←,1.0649331999884453,False,18
X028K20,455,experiment,36,→,no_key,no_letter,-1.0,False,18
X028K20,456,experiment,132,↑,up,↑,0.7440038000058848,True,18
X028K20,457,experiment,168,↑,up,↑,0.806962000002386,True,18
X028K20,458,experiment,132,←,left,←,0.6109665000112727,True,18
X028K20,459,experiment,60,↓,down,↓,0.7000210999976844,True,18
X028K20,460,experiment,84,↓,down,↓,0.7898772000044119,True,18
X028K20,461,experiment,132,→,left,←,1.1376521000056528,False,18
X028K20,462,experiment,108,↓,down,↓,1.0917859999754,True,18
X028K20,463,experiment,84,↓,up,↑,1.9016970999946352,False,18
X028K20,464,experiment,156,↓,no_key,no_letter,-1.0,False,18
X028K20,465,experiment,36,←,right,→,1.07966060002218,False,18
X028K20,466,experiment,12,↑,right,→,0.7127925000095274,False,18
X028K20,467,experiment,84,→,down,↓,0.6868878999957815,False,18
X028K20,468,experiment,84,↑,up,↑,0.4172199000022374,True,18
X028K20,469,experiment,180,←,left,←,0.9502936000062618,True,18
X028K20,470,experiment,36,←,left,←,0.6031164000160061,True,18
X028K20,471,experiment,72,↑,up,↑,1.4646374999720138,True,18
X028K20,472,training,84,↓,down,↓,1.0621350999863353,True,18
X028K20,473,training,60,←,left,←,0.49718430000939406,True,18
X028K20,474,training,48,←,right,→,0.8468714999908116,False,18
X028K20,475,experiment,144,↓,down,↓,0.40022229999885894,True,18
X028K20,476,experiment,60,→,right,→,0.6235956000164151,True,18
X028K20,477,experiment,180,←,right,→,0.6745037999935448,False,18
X028K20,478,experiment,132,↓,down,↓,0.7588787999993656,True,18
X028K20,479,experiment,48,↑,down,↓,0.5893123999994714,False,18
X028K20,480,experiment,84,←,left,←,0.5475613000162411,True,18
X028K20,481,experiment,156,→,down,↓,0.9505059999937657,False,18
X028K20,482,experiment,24,↓,down,↓,0.5618750000139698,True,18
X028K20,483,experiment,180,↓,up,↑,0.9858548999764025,False,18
X028K20,484,experiment,168,↓,down,↓,0.8590741000080016,True,18
X028K20,485,experiment,36,↓,down,↓,0.7934326999820769,True,18
X028K20,486,experiment,36,↓,down,↓,0.6438296999840531,True,18
X028K20,487,experiment,168,↓,down,↓,1.2280409000231884,True,18
X028K20,488,experiment,168,←,no_key,no_letter,-1.0,False,18
X028K20,489,experiment,168,→,left,←,1.0661608999944292,False,18
X028K20,490,experiment,60,↑,up,↑,0.717264700011583,True,18
X028K20,491,experiment,12,↑,up,↑,0.6184944999986328,True,18
X028K20,492,experiment,72,←,left,←,0.5626737999846227,True,18
X028K20,493,experiment,84,←,right,→,0.8513243999914266,False,18
X028K20,494,experiment,36,↑,right,→,0.9426111999782734,False,18
X028K20,495,experiment,84,←,left,←,0.7145232000038959,True,18
X028K20,496,experiment,156,←,right,→,0.7670337000163272,False,18
X028K20,497,experiment,108,↑,up,↑,0.5540863000205718,True,18
X028K20,498,experiment,120,↓,up,↑,0.8399972000042908,False,18
X028K20,499,experiment,120,↑,right,→,1.2527374999772292,False,18
X028K20,500,experiment,60,↓,up,↑,1.072511799982749,False,18
X028K20,501,experiment,108,↓,down,↓,0.8523079000005964,True,18
X028K20,502,experiment,12,↑,no_key,no_letter,-1.0,False,18
X028K20,503,experiment,60,←,left,←,0.5468715999741107,True,18
X028K20,504,experiment,180,←,left,←,1.203040599997621,True,18
X028K20,505,experiment,84,↓,left,←,0.9200565999781247,False,18
X028K20,506,experiment,144,→,no_key,no_letter,-1.0,False,18
X028K20,507,experiment,180,↑,right,→,1.115924100013217,False,18
X028K20,508,experiment,72,↓,down,↓,0.6728157000034116,True,18
X028K20,509,experiment,48,↑,down,↓,0.7613263000093866,False,18
X028K20,510,experiment,48,↓,up,↑,0.619376699993154,False,18
X028K20,511,experiment,96,←,down,↓,1.2274289000197314,False,18
X028K20,512,experiment,108,←,right,→,1.894897000020137,False,18
X028K20,513,experiment,156,←,down,↓,0.8139244000194594,False,18
X028K20,514,experiment,72,↑,down,↓,0.948349500016775,False,18
X028K20,515,experiment,24,↓,down,↓,0.5713600000017323,True,18
X028K20,516,experiment,120,←,left,←,1.5659481000038795,True,18
X028K20,517,experiment,96,→,right,→,1.4485103999904823,True,18
X028K20,518,experiment,12,←,left,←,0.4790103000123054,True,18
X028K20,519,experiment,156,↑,no_key,no_letter,-1.0,False,18
X028K20,520,experiment,96,→,right,→,0.7295639999792911,True,18
X028K20,521,experiment,48,↓,down,↓,0.6020407000032719,True,18
X028K20,522,experiment,24,↓,down,↓,0.500430200016126,True,18
X028K20,523,experiment,132,↓,down,↓,0.384002499980852,True,18
X028K20,524,experiment,120,←,left,←,0.6546986000030302,True,18
X028K20,525,experiment,96,→,right,→,0.7105050000245683,True,18
X028K20,526,experiment,72,↑,up,↑,0.6062169999931939,True,18
X028K20,527,experiment,144,↓,up,↑,0.6371550000039861,False,18
X028K20,528,experiment,132,↓,down,↓,1.254474500019569,True,18
X028K20,529,experiment,36,↑,up,↑,0.8876679000095464,True,18
X028K20,530,experiment,108,↓,up,↑,0.5322751000057906,False,18
X028K20,531,experiment,144,←,left,←,1.6238186999980826,True,18
X028K20,532,experiment,12,←,right,→,0.8455788000137545,False,18
X028K20,533,experiment,132,↓,down,↓,0.3840708000061568,True,18
X028K20,534,experiment,24,↑,up,↑,0.6662748999951873,True,18
X028K20,535,training,132,←,right,→,0.7849117000005208,False,18
X028K20,536,training,96,↑,up,↑,0.49779140000464395,True,18
X028K20,537,training,60,↓,up,↑,0.8294588999997359,False,18
X028K20,538,experiment,144,↓,down,↓,0.6203891999903135,True,18
X028K20,539,experiment,156,↑,right,→,0.9094951000006404,False,18
X028K20,540,experiment,60,↑,up,↑,0.8738492999982554,True,18
X028K20,541,experiment,24,↑,up,↑,0.6561843999952544,True,18
X028K20,542,experiment,108,→,right,→,0.6141859999916051,True,18
X028K20,543,experiment,120,←,left,←,0.7911861000175122,True,18
X028K20,544,experiment,180,↓,left,←,0.8732536000024993,False,18
X028K20,545,experiment,48,↓,left,←,1.1916868000116665,False,18
X028K20,546,experiment,12,→,no_key,no_letter,-1.0,False,18
X028K20,547,experiment,156,↓,up,↑,1.5293372000160161,False,18
X028K20,548,experiment,48,→,right,→,0.5683972999977414,True,18
X028K20,549,experiment,180,→,right,→,0.38374000001931563,True,18
X028K20,550,experiment,120,↑,up,↑,1.56770700000925,True,18
X028K20,551,experiment,12,↓,up,↑,0.6431110999837983,False,18
X028K20,552,experiment,168,→,right,→,0.5188013000006322,True,18
X028K20,553,experiment,60,→,right,→,0.47116869999445044,True,18
X028K20,554,experiment,12,↑,up,↑,0.5548956000129692,True,18
X028K20,555,experiment,96,↑,right,→,0.7235891000018455,False,18
X028K20,556,experiment,36,↓,down,↓,0.6365443000104278,True,18
X028K20,557,experiment,180,↓,down,↓,0.7665404000144918,True,18
X028K20,558,experiment,36,↓,down,↓,1.1068777000182308,True,18
X028K20,559,experiment,144,→,right,→,1.4807963999919593,True,18
X028K20,560,experiment,168,←,right,→,0.7613885999890044,False,18
X028K20,561,experiment,168,←,left,←,1.003876599977957,True,18
X028K20,562,experiment,180,↓,up,↑,0.8576684000145178,False,18
X028K20,563,experiment,36,→,up,↑,0.8836479000165127,False,18
X028K20,564,experiment,120,↑,left,←,0.769554500002414,False,18
X028K20,565,experiment,108,↓,right,→,0.8333584000065457,False,18
X028K20,566,experiment,48,↓,down,↓,0.9109880999894813,True,18
X028K20,567,experiment,96,→,down,↓,0.818739899987122,False,18
X028K20,568,experiment,144,↓,down,↓,0.8162838999996893,True,18
X028K20,569,experiment,84,→,right,→,0.8347590000194032,True,18
X028K20,570,experiment,108,→,right,→,0.5855994000157807,True,18
X028K20,571,experiment,72,↓,down,↓,0.7906566000019666,True,18
X028K20,572,experiment,132,→,right,→,0.6920862999977544,True,18
X028K20,573,experiment,72,←,right,→,0.8594328999752179,False,18
X028K20,574,experiment,60,←,right,→,0.9616753000009339,False,18
X028K20,575,experiment,156,↓,up,↑,0.8911739999894053,False,18
X028K20,576,experiment,108,↓,no_key,no_letter,-1.0,False,18
X028K20,577,experiment,144,←,right,→,0.7153350999869872,False,18
X028K20,578,experiment,84,←,left,←,1.2355610000086017,True,18
X028K20,579,experiment,72,→,left,←,0.9607796000200324,False,18
X028K20,580,experiment,36,→,left,←,0.7442652000172529,False,18
X028K20,581,experiment,60,←,left,←,0.47654259999399073,True,18
X028K20,582,experiment,96,↑,left,←,0.7455824000062421,False,18
X028K20,583,experiment,132,→,left,←,1.0993326999887358,False,18
X028K20,584,experiment,96,←,left,←,0.4964056999888271,True,18
X028K20,585,experiment,120,→,left,←,0.5850465999974404,False,18
X028K20,586,experiment,132,←,left,←,0.8075147999916226,True,18
X028K20,587,experiment,24,↑,up,↑,0.38393120002001524,True,18
X028K20,588,experiment,48,↓,down,↓,0.5030474999803118,True,18
X028K20,589,experiment,12,↓,down,↓,0.43382580002071336,True,18
X028K20,590,experiment,84,↑,up,↑,0.41835389999323525,True,18
X028K20,591,experiment,132,↓,down,↓,0.6856712999870069,True,18
X028K20,592,experiment,72,←,down,↓,0.7947426999744494,False,18
X028K20,593,experiment,24,→,no_key,no_letter,-1.0,False,18
X028K20,594,experiment,84,↓,right,→,0.9184129000059329,False,18
X028K20,595,experiment,156,→,no_key,no_letter,-1.0,False,18
X028K20,596,experiment,168,↑,right,→,0.7517765999946278,False,18
X028K20,597,experiment,24,→,right,→,0.5783539999974892,True,18
X028K20,598,training,168,↑,up,↑,0.4339484999945853,True,18
X028K20,599,training,84,↓,up,↑,0.6838669000135269,False,18
X028K20,600,training,96,↓,down,↓,0.6659973000059836,True,18
X028K20,601,experiment,24,↓,down,↓,0.38370990002295,True,18
X028K20,602,experiment,24,↓,down,↓,0.4001705000118818,True,18
X028K20,603,experiment,108,↓,down,↓,0.3669489999883808,True,18
X028K20,604,experiment,84,→,down,↓,0.8644232999940868,False,18
X028K20,605,experiment,72,↑,down,↓,0.649479900021106,False,18
X028K20,606,experiment,36,←,left,←,0.6075615000154357,True,18
X028K20,607,experiment,84,↓,down,↓,0.5425756000040565,True,18
X028K20,608,experiment,96,→,right,→,0.4003323999932036,True,18
X028K20,609,experiment,72,←,left,←,0.510819499992067,True,18
X028K20,610,experiment,108,→,right,→,0.31721559999277815,True,18
X028K20,611,experiment,24,↑,left,←,0.5227883000043221,False,18
X028K20,612,experiment,168,↑,up,↑,0.8950538999924902,True,18
X028K20,613,experiment,144,↓,up,↑,1.3962400000018533,False,18
X028K20,614,experiment,12,↑,up,↑,0.7379326999944169,True,18
X028K20,615,experiment,60,→,right,→,0.5430316999845672,True,18
X028K20,616,experiment,36,↓,left,←,0.9232469999988098,False,18
X028K20,617,experiment,156,↓,down,↓,0.7835389999963809,True,18
X028K20,618,experiment,168,→,down,↓,0.7432619000028353,False,18
X028K20,619,experiment,180,←,down,↓,0.8879489999962971,False,18
X028K20,620,experiment,12,↓,no_key,no_letter,-1.0,False,18
X028K20,621,experiment,84,→,left,←,0.7557109000044875,False,18
X028K20,622,experiment,108,←,left,←,1.8474920000007842,True,18
X028K20,623,experiment,144,↑,up,↑,0.3672812999866437,True,18
X028K20,624,experiment,156,↓,up,↑,0.788284999987809,False,18
X028K20,625,experiment,96,↑,up,↑,0.7406093999743462,True,18
X028K20,626,experiment,180,←,left,←,0.6119045999948867,True,18
X028K20,627,experiment,84,↓,up,↑,0.9149741999863181,False,18
X028K20,628,experiment,60,←,left,←,0.48009519997867756,True,18
X028K20,629,experiment,120,↑,down,↓,0.7244499999796972,False,18
X028K20,630,experiment,156,←,left,←,0.6404829999955837,True,18
X028K20,631,experiment,108,→,right,→,0.5303751000028569,True,18
X028K20,632,experiment,48,→,right,→,0.4338298999937251,True,18
X028K20,633,experiment,132,→,left,←,0.6577615000132937,False,18
X028K20,634,experiment,48,↑,up,↑,0.5309275999898091,True,18
X028K20,635,experiment,96,↓,down,↓,0.6481444000091869,True,18
X028K20,636,experiment,96,↓,up,↑,0.9938903000147548,False,18
X028K20,637,experiment,72,→,up,↑,0.8544603000045754,False,18
X028K20,638,experiment,120,↑,up,↑,1.0754797999979928,True,18
X028K20,639,experiment,132,←,right,→,0.4171805999940261,False,18
X028K20,640,experiment,144,←,no_key,no_letter,-1.0,False,18
X028K20,641,experiment,36,↑,left,←,0.6216981000034139,False,18
X028K20,642,experiment,180,←,up,↑,1.0144588999974076,False,18
X028K20,643,experiment,156,→,down,↓,0.6207874000247102,False,18
X028K20,644,experiment,48,↓,down,↓,0.5703801999916323,True,18
X028K20,645,experiment,36,↑,up,↑,0.5510242000163998,True,18
X028K20,646,experiment,168,↑,up,↑,0.5630606999911834,True,18
X028K20,647,experiment,120,←,left,←,0.4706912999972701,True,18
X028K20,648,experiment,72,↓,down,↓,0.5020735999860335,True,18
X028K20,649,experiment,48,→,left,←,0.7976165000000037,False,18
X028K20,650,experiment,180,→,right,→,0.6092343000054825,True,18
X028K20,651,experiment,60,↓,down,↓,0.5885740999947302,True,18
X028K20,652,experiment,168,→,down,↓,0.6112519000016619,False,18
X028K20,653,experiment,144,↓,down,↓,0.9237082999898121,True,18
X028K20,654,experiment,12,→,up,↑,1.144112200010568,False,18
X028K20,655,experiment,12,→,right,→,0.6192262999829836,True,18
X028K20,656,experiment,24,→,right,→,0.38305119998403825,True,18
X028K20,657,experiment,132,←,left,←,0.4338203999795951,True,18
X028K20,658,experiment,120,←,left,←,0.41722550001577474,True,18
X028K20,659,experiment,60,→,right,→,0.43381670000962913,True,18
X028K20,660,experiment,132,↓,down,↓,0.5372478000062983,True,18
X028K20,661,training,72,←,left,←,0.40068339998833835,True,18
X028K20,662,training,180,→,right,→,0.6342641999945045,True,18
X028K20,663,training,120,↓,down,↓,0.8559530999918934,True,18
X028K20,664,experiment,36,←,left,←,0.7171875000058208,True,18
X028K20,665,experiment,96,→,right,→,0.3999284000019543,True,18
X028K20,666,experiment,72,←,left,←,1.8707694999757223,True,18
X028K20,667,experiment,96,↓,down,↓,1.477547799993772,True,18
X028K20,668,experiment,180,←,left,←,0.47358569997595623,True,18
X028K20,669,experiment,60,↓,down,↓,0.46969549998175353,True,18
X028K20,670,experiment,156,←,left,←,0.6798466999898665,True,18
X028K20,671,experiment,144,←,left,←,0.5312551000097301,True,18
X028K20,672,experiment,24,←,left,←,0.49902970000403,True,18
X028K20,673,experiment,36,→,left,←,0.7366889000113588,False,18
X028K20,674,experiment,24,↑,up,↑,0.417252000013832,True,18
X028K20,675,experiment,180,→,right,→,0.4972600000037346,True,18
X028K20,676,experiment,168,←,left,←,0.5259375000023283,True,18
X028K20,677,experiment,60,←,left,←,0.7090351000078954,True,18
X028K20,678,experiment,96,↑,up,↑,0.4336730999930296,True,18
X028K20,679,experiment,132,↑,up,↑,0.7298936000152025,True,18
X028K20,680,experiment,156,→,up,↑,0.7973263000021689,False,18
X028K20,681,experiment,84,←,left,←,0.709117199992761,True,18
X028K20,682,experiment,168,↑,up,↑,0.5286208000034094,True,18
X028K20,683,experiment,120,←,left,←,1.2018934999941848,True,18
X028K20,684,experiment,48,↓,down,↓,0.5272828000015579,True,18
X028K20,685,experiment,108,↑,down,↓,0.821893500018632,False,18
X028K20,686,experiment,108,↑,up,↑,0.6693541000131518,True,18
X028K20,687,experiment,168,↑,up,↑,0.6647997000254691,True,18
X028K20,688,experiment,132,↑,up,↑,1.2469133000122383,True,18
X028K20,689,experiment,132,←,left,←,0.5218647999863606,True,18
X028K20,690,experiment,24,↓,down,↓,0.5808012999768835,True,18
X028K20,691,experiment,48,→,right,→,0.5004363000043668,True,18
X028K20,692,experiment,84,↑,up,↑,0.41730569998617284,True,18
X028K20,693,experiment,108,↓,up,↑,0.7317793999973219,False,18
X028K20,694,experiment,156,↑,up,↑,1.0896016000187956,True,18
X028K20,695,experiment,156,→,right,→,0.36782929999753833,True,18
X028K20,696,experiment,120,↓,up,↑,0.7625605000066571,False,18
X028K20,697,experiment,12,→,right,→,0.6973019000142813,True,18
X028K20,698,experiment,168,←,left,←,0.7649391999875661,True,18
X028K20,699,experiment,24,↓,down,↓,0.8195895999961067,True,18
X028K20,700,experiment,48,↑,up,↑,0.6313816999900155,True,18
X028K20,701,experiment,132,↓,up,↑,0.7166970999969635,False,18
X028K20,702,experiment,108,→,right,→,0.5560351999884006,True,18
X028K20,703,experiment,60,→,right,→,0.6940581000235397,True,18
X028K20,704,experiment,72,→,right,→,0.7775668000103906,True,18
X028K20,705,experiment,144,↓,down,↓,0.7698963999864645,True,18
X028K20,706,experiment,180,→,down,↓,0.9353773000184447,False,18
X028K20,707,experiment,60,↓,down,↓,0.5285669000004418,True,18
X028K20,708,experiment,144,→,right,→,0.865355100017041,True,18
X028K20,709,experiment,144,↑,up,↑,0.43384969999897294,True,18
X028K20,710,experiment,12,↓,up,↑,1.0812883999897167,False,18
X028K20,711,experiment,96,↓,up,↑,0.6810332000022754,False,18
X028K20,712,experiment,84,→,right,→,0.3506494999746792,True,18
X028K20,713,experiment,180,←,right,→,0.5395035000110511,False,18
X028K20,714,experiment,36,↑,up,↑,0.6544697000063024,True,18
X028K20,715,experiment,84,→,right,→,0.5851775000046473,True,18
X028K20,716,experiment,120,↑,up,↑,0.6837238000007346,True,18
X028K20,717,experiment,72,→,right,→,1.2370635000115726,True,18
X028K20,718,experiment,12,←,right,→,0.9200350999890361,False,18
X028K20,719,experiment,72,↓,down,↓,0.600848500005668,True,18
X028K20,720,experiment,48,↑,up,↑,1.1534397999930661,True,18
X028K20,721,experiment,120,↓,up,↑,0.5272679000045173,False,18
X028K20,722,experiment,12,↓,down,↓,0.9419088999857195,True,18
X028K20,723,experiment,36,←,left,←,0.6575860999873839,True,18
X028K20,724,training,96,←,left,←,0.9446390999946743,True,18
X028K20,725,training,60,↑,up,↑,1.4344544000050519,True,18
X028K20,726,training,108,↑,up,↑,0.40044540000963025,True,18
X028K20,727,experiment,24,↓,up,↑,0.7979811000113841,False,18
X028K20,728,experiment,12,→,up,↑,0.7151100999908522,False,18
X028K20,729,experiment,132,←,up,↑,0.6673390000069048,False,18
X028K20,730,experiment,168,→,right,→,0.41789260000223294,True,18
X028K20,731,experiment,24,↓,down,↓,0.4961256999813486,True,18
X028K20,732,experiment,36,←,left,←,0.4337200000009034,True,18
X028K20,733,experiment,48,→,right,→,0.40043700000387616,True,18
X028K20,734,experiment,132,↑,up,↑,0.4003804000094533,True,18
X028K20,735,experiment,168,↓,up,↑,0.63919079999323,False,18
X028K20,736,experiment,120,←,left,←,0.562096699984977,True,18
X028K20,737,experiment,36,→,right,→,0.517932800023118,True,18
X028K20,738,experiment,144,←,left,←,1.3036853999947198,True,18
X028K20,739,experiment,168,→,right,→,0.4338331999897491,True,18
X028K20,740,experiment,72,←,left,←,0.6594125000119675,True,18
X028K20,741,experiment,84,→,right,→,0.6531776000047103,True,18
X028K20,742,experiment,120,↓,down,↓,0.6072668000124395,True,18
X028K20,743,experiment,12,↓,down,↓,0.7556506000109948,True,18
X028K20,744,experiment,96,↓,up,↑,1.0997010999999475,False,18
X028K20,745,experiment,132,↑,up,↑,0.4696111000084784,True,18
X028K20,746,experiment,84,↑,up,↑,0.38388469998608343,True,18
X028K20,747,experiment,156,→,right,→,0.6618034999992233,True,18
X028K20,748,experiment,108,→,right,→,0.6408257000148296,True,18
X028K20,749,experiment,60,→,right,→,0.38387790002161637,True,18
X028K20,750,experiment,168,←,right,→,0.6519589000090491,False,18
X028K20,751,experiment,72,→,right,→,0.6285626000026241,True,18
X028K20,752,experiment,180,↑,up,↑,0.6299335999938194,True,18
X028K20,753,experiment,36,↑,up,↑,0.5990263000130653,True,18
X028K20,754,experiment,48,←,left,←,0.6987339000042994,True,18
X028K20,755,experiment,72,↓,down,↓,0.89820680001867,True,18
X028K20,756,experiment,96,↑,down,↓,0.777456500014523,False,18
X028K20,757,experiment,84,↓,down,↓,0.5237381999904756,True,18
X028K20,758,experiment,24,←,left,←,0.7132836000237148,True,18
X028K20,759,experiment,144,↑,left,←,0.7682666000036988,False,18
X028K20,760,experiment,48,↑,up,↑,1.3334556000190787,True,18
X028K20,761,experiment,36,↑,up,↑,0.4172428000019863,True,18
X028K20,762,experiment,180,↑,up,↑,0.471815000026254,True,18
X028K20,763,experiment,60,←,left,←,0.8719220999919344,True,18
X028K20,764,experiment,156,←,left,←,0.5940539000148419,True,18
X028K20,765,experiment,132,←,left,←,0.5499638000037521,True,18
X028K20,766,experiment,180,↑,up,↑,0.5923859000031371,True,18
X028K20,767,experiment,180,←,left,←,0.5514628000091761,True,18
X028K20,768,experiment,96,→,right,→,0.41704939998453483,True,18
X028K20,769,experiment,12,↑,up,↑,0.4957279000082053,True,18
X028K20,770,experiment,120,↑,up,↑,0.4005728999909479,True,18
X028K20,771,experiment,72,↓,down,↓,0.5573025000048801,True,18
X028K20,772,experiment,96,←,left,←,0.6544389000046067,True,18
X028K20,773,experiment,144,←,left,←,0.6512562000134494,True,18
X028K20,774,experiment,108,→,right,→,0.4170379999850411,True,18
X028K20,775,experiment,120,→,left,←,0.7365291999885812,False,18
X028K20,776,experiment,24,↑,up,↑,0.7860785000084434,True,18
X028K20,777,experiment,60,→,right,→,0.6055619000107981,True,18
X028K20,778,experiment,156,↑,up,↑,0.6921561000053771,True,18
X028K20,779,experiment,108,←,left,←,0.41719010000815615,True,18
X028K20,780,experiment,48,←,left,←,0.43374830001266673,True,18
X028K20,781,experiment,60,↑,left,←,0.5660937000066042,False,18
X028K20,782,experiment,156,↓,down,↓,0.5295462000067346,True,18
X028K20,783,experiment,84,↓,down,↓,0.4915771000087261,True,18
X028K20,784,experiment,12,→,left,←,0.70945130000473,False,18
X028K20,785,experiment,108,→,left,←,0.6806278000003658,False,18
X028K20,786,experiment,144,←,left,←,0.3837542000110261,True,18
X028K20,787,training,12,←,left,←,0.7045949999883305,True,18
X028K20,788,training,48,→,right,→,0.5000431000080425,True,18
X028K20,789,training,12,↑,up,↑,0.8457291999948211,True,18
X028K20,790,experiment,60,←,left,←,1.5047566999855917,True,18
X028K20,791,experiment,24,←,left,←,0.40038420000928454,True,18
X028K20,792,experiment,108,→,right,→,0.4171323000045959,True,18
X028K20,793,experiment,96,→,right,→,0.5227363999874797,True,18
X028K20,794,experiment,96,←,left,←,1.1658508000255097,True,18
X028K20,795,experiment,12,→,right,→,0.8812222999986261,True,18
X028K20,796,experiment,132,↓,down,↓,0.8257439000008162,True,18
X028K20,797,experiment,96,↓,down,↓,0.7305522999959067,True,18
X028K20,798,experiment,108,→,left,←,0.7997875999717508,False,18
X028K20,799,experiment,180,←,left,←,0.6959605000156444,True,18
X028K20,800,experiment,132,↑,up,↑,1.0858405000180937,True,18
X028K20,801,experiment,120,←,left,←,0.6990405000105966,True,18
X028K20,802,experiment,48,↑,up,↑,0.5841770000115503,True,18
X028K20,803,experiment,156,↓,down,↓,0.7663549999997485,True,18
X028K20,804,experiment,120,←,left,←,0.4988004000042565,True,18
X028K20,805,experiment,48,↓,down,↓,0.805931300012162,True,18
X028K20,806,experiment,24,→,down,↓,0.7523718999873381,False,18
X028K20,807,experiment,12,↓,down,↓,0.5410694000020158,True,18
X028K20,808,experiment,180,↑,right,→,0.6770411999896169,False,18
X028K20,809,experiment,48,←,left,←,0.5346750000026077,True,18
X028K20,810,experiment,96,→,right,→,0.4851257000118494,True,18
X028K20,811,experiment,84,↓,down,↓,0.770025199977681,True,18
X028K20,812,experiment,72,→,right,→,0.6599745999847073,True,18
X028K20,813,experiment,12,→,right,→,1.0514776000054553,True,18
X028K20,814,experiment,168,←,left,←,0.5621796999766957,True,18
X028K20,815,experiment,156,←,left,←,0.6499841000186279,True,18
X028K20,816,experiment,72,↑,left,←,0.8252528000157326,False,18
X028K20,817,experiment,144,←,left,←,1.1598368000122719,True,18
X028K20,818,experiment,36,←,left,←,0.8338294000132009,True,18
X028K20,819,experiment,24,←,left,←,0.9310165999922901,True,18
X028K20,820,experiment,156,←,left,←,0.730493299983209,True,18
X028K20,821,experiment,84,←,left,←,0.6577157000137959,True,18
X028K20,822,experiment,72,↑,up,↑,0.7519101000216324,True,18
X028K20,823,experiment,72,←,left,←,0.6581412999948952,True,18
X028K20,824,experiment,120,↓,down,↓,0.7016193000017665,True,18
X028K20,825,experiment,144,→,left,←,0.6392636999953538,False,18
X028K20,826,experiment,180,↑,up,↑,0.5910742000269238,True,18
X028K20,827,experiment,144,→,right,→,0.6399745999951847,True,18
X028K20,828,experiment,36,←,right,→,0.6636410999926738,False,18
X028K20,829,experiment,132,↑,up,↑,0.5709611999918707,True,18
X028K20,830,experiment,36,↓,up,↑,0.9900076999911107,False,18
X028K20,831,experiment,60,↓,down,↓,0.4003509000176564,True,18
X028K20,832,experiment,156,↑,up,↑,0.38373880001017824,True,18
X028K20,833,experiment,168,↑,up,↑,1.1192073000129312,True,18
X028K20,834,experiment,84,↓,down,↓,0.7258531000115909,True,18
X028K20,835,experiment,144,←,left,←,0.7164459000050556,True,18
X028K20,836,experiment,132,→,down,↓,0.976721400016686,False,18
X028K20,837,experiment,168,↓,down,↓,0.6277479999989737,True,18
X028K20,838,experiment,84,↑,down,↓,0.6698865999933332,False,18
X028K20,839,experiment,48,↑,up,↑,0.41713549999985844,True,18
X028K20,840,experiment,168,→,right,→,0.46869939999305643,True,18
X028K20,841,experiment,60,↑,up,↑,0.7654597999935504,True,18
X028K20,842,experiment,24,←,left,←,0.6838087000069208,True,18
X028K20,843,experiment,120,→,right,→,0.41720060000079684,True,18
X028K20,844,experiment,180,←,left,←,1.1001428000163287,True,18
X028K20,845,experiment,12,↓,down,↓,1.010602199996356,True,18
X028K20,846,experiment,60,↑,up,↑,0.5415340999898035,True,18
X028K20,847,experiment,108,↑,down,↓,0.9394119000062346,False,18
X028K20,848,experiment,108,←,down,↓,0.8720085000095423,False,18
X028K20,849,experiment,36,←,left,←,0.8504699000041,True,18
