PART_ID,Trial_no,Trial_type,PDI,Stim_letter,Key_pressed,letter_choose,Rt,Corr,Stimulus Time
X031K20,1,training,10,→,no_key,no_letter,-1.0,False,30
X031K20,2,training,10,↓,down,↓,1.5742686000303365,True,30
X031K20,3,training,10,→,left,←,1.393018500006292,False,30
X031K20,4,training,10,→,down,↓,1.487913999997545,False,30
X031K20,5,training,10,→,right,→,1.3183677999768406,True,30
X031K20,6,training,10,↓,down,↓,1.1713943000067957,True,30
X031K20,7,training,10,↓,down,↓,0.9967793999821879,True,30
X031K20,8,training,10,↓,down,↓,0.7431413000449538,True,30
X031K20,9,training,10,→,right,→,1.0812020999728702,True,30
X031K20,10,training,10,→,right,→,0.9067430000286549,True,30
X031K20,11,training,10,↑,up,↑,1.1648303999681957,True,30
X031K20,12,training,10,←,left,←,0.7348981999675743,True,30
X031K20,13,training,10,↑,up,↑,1.4227547000045888,True,30
X031K20,14,training,10,←,left,←,0.8967200000188313,True,30
X031K20,15,training,10,↓,down,↓,0.8011621999903582,True,30
X031K20,16,training,10,↓,down,↓,0.780574299977161,True,30
X031K20,17,training,10,↓,down,↓,0.7061664999928325,True,30
X031K20,18,training,10,↑,up,↑,0.8504856000072323,True,30
X031K20,19,training,10,→,right,→,0.7841351000242867,True,30
X031K20,20,training,10,→,right,→,0.9316028999746777,True,30
X031K20,21,training,10,↓,down,↓,0.8471729999873787,True,18
X031K20,22,training,10,↓,down,↓,0.7925377999781631,True,18
X031K20,23,training,10,←,left,←,0.6877041999832727,True,18
X031K20,24,training,10,↓,down,↓,0.8196772999945097,True,18
X031K20,25,training,10,←,left,←,0.7154078000457957,True,18
X031K20,26,training,10,←,left,←,0.682010899996385,True,18
X031K20,27,training,10,←,left,←,0.7703758999705315,True,18
X031K20,28,training,10,→,right,→,0.7419017999782227,True,18
X031K20,29,training,10,→,right,→,0.6358547999989241,True,18
X031K20,30,training,10,→,right,→,0.6457912999903783,True,18
X031K20,31,training,108,↓,right,→,1.0424937999923714,False,15
X031K20,32,training,96,→,right,→,1.1049082999816164,True,15
X031K20,33,training,180,↑,up,↑,0.85800670000026,True,15
X031K20,34,experiment,144,↓,down,↓,0.7080226999823935,True,15
X031K20,35,experiment,24,↑,down,↓,1.0036185000208206,False,15
X031K20,36,experiment,168,↑,up,↑,0.9288333000149578,True,15
X031K20,37,experiment,132,↑,up,↑,0.7839049000176601,True,15
X031K20,38,experiment,72,→,right,→,0.6473840999533422,True,15
X031K20,39,experiment,12,↑,left,←,0.749215500021819,False,15
X031K20,40,experiment,72,↑,up,↑,0.6767726999823935,True,15
X031K20,41,experiment,96,→,right,→,0.6065747999818996,True,15
X031K20,42,experiment,120,←,left,←,0.7069392999983393,True,15
X031K20,43,experiment,180,↓,down,↓,0.6430362000246532,True,15
X031K20,44,experiment,96,↓,down,↓,0.543430800025817,True,15
X031K20,45,experiment,156,↓,down,↓,0.7820044999825768,True,15
X031K20,46,experiment,156,↓,up,↑,1.0040004000184126,False,15
X031K20,47,experiment,84,←,right,→,0.6499756000121124,False,15
X031K20,48,experiment,24,←,left,←,0.791707799944561,True,15
X031K20,49,experiment,120,↑,right,→,0.6315070000127889,False,15
X031K20,50,experiment,24,←,left,←,0.5657610999769531,True,15
X031K20,51,experiment,48,←,left,←,0.6029965999769047,True,15
X031K20,52,experiment,96,←,left,←,0.8212274999823421,True,15
X031K20,53,experiment,108,←,right,→,0.6523280999972485,False,15
X031K20,54,experiment,48,↓,down,↓,0.6773315999889746,True,15
X031K20,55,experiment,96,↑,up,↑,0.6218284000060521,True,15
X031K20,56,experiment,144,↓,up,↑,0.8283600999857299,False,15
X031K20,57,experiment,48,←,left,←,0.5455289999954402,True,15
X031K20,58,experiment,12,↓,right,→,0.6994988999795169,False,15
X031K20,59,experiment,60,↓,left,←,1.110001099994406,False,15
X031K20,60,experiment,48,↓,up,↑,0.977173599996604,False,15
X031K20,61,experiment,72,↑,up,↑,0.6469281999743544,True,15
X031K20,62,experiment,132,↑,up,↑,0.6580810000305064,True,15
X031K20,63,experiment,12,→,right,→,0.6199923999956809,True,15
X031K20,64,experiment,144,↓,down,↓,0.6503263000049628,True,15
X031K20,65,experiment,84,→,left,←,0.9812320999917574,False,15
X031K20,66,experiment,168,↓,down,↓,0.8434778999653645,True,15
X031K20,67,experiment,84,←,left,←,0.7358509000041522,True,15
X031K20,68,experiment,60,→,right,→,0.6810324999969453,True,15
X031K20,69,experiment,168,→,right,→,0.6169845999684185,True,15
X031K20,70,experiment,60,↓,up,↑,0.7198344999924302,False,15
X031K20,71,experiment,156,→,right,→,0.5579707000288181,True,15
X031K20,72,experiment,120,←,left,←,0.6814870000234805,True,15
X031K20,73,experiment,84,←,right,→,0.6827856000163592,False,15
X031K20,74,experiment,180,↓,up,↑,1.264878600020893,False,15
X031K20,75,experiment,144,↓,down,↓,0.7995104999863543,True,15
X031K20,76,experiment,108,→,right,→,0.7632138000335544,True,15
X031K20,77,experiment,156,↓,down,↓,0.9930592999444343,True,15
X031K20,78,experiment,36,←,right,→,0.6227307000081055,False,15
X031K20,79,experiment,180,←,left,←,0.6673942999914289,True,15
X031K20,80,experiment,24,→,right,→,0.6105777999619022,True,15
X031K20,81,experiment,36,←,left,←,0.46038440003758296,True,15
X031K20,82,experiment,108,←,left,←,0.46267630002694204,True,15
X031K20,83,experiment,36,↓,left,←,0.36772850004490465,False,15
X031K20,84,experiment,180,→,right,→,0.9378123999922536,True,15
X031K20,85,experiment,168,→,right,→,0.7066253999946639,True,15
X031K20,86,experiment,120,↑,up,↑,0.5251685000257567,True,15
X031K20,87,experiment,12,→,right,→,0.8813380000065081,True,15
X031K20,88,experiment,36,→,right,→,0.5838093999773264,True,15
X031K20,89,experiment,72,↑,up,↑,0.6386865000240505,True,15
X031K20,90,experiment,132,↓,up,↑,0.7295962000498548,False,15
X031K20,91,experiment,132,←,left,←,0.6860024000052363,True,15
X031K20,92,experiment,60,←,left,←,0.8080624000285752,True,15
X031K20,93,experiment,108,→,right,→,0.5807570000179112,True,15
X031K20,94,training,108,←,left,←,1.299372499983292,True,15
X031K20,95,training,132,↓,up,↑,1.6702119000256062,False,15
X031K20,96,training,144,↑,up,↑,0.9261853999923915,True,15
X031K20,97,experiment,12,←,left,←,0.695640399993863,True,15
X031K20,98,experiment,180,→,left,←,0.697340099955909,False,15
X031K20,99,experiment,144,←,left,←,0.876334400032647,True,15
X031K20,100,experiment,24,↑,up,↑,0.8081870999885723,True,15
X031K20,101,experiment,12,←,right,→,0.9175859999959357,False,15
X031K20,102,experiment,96,↓,down,↓,0.9736144000198692,True,15
X031K20,103,experiment,96,→,right,→,0.738543400017079,True,15
X031K20,104,experiment,144,↑,up,↑,0.7875541999819688,True,15
X031K20,105,experiment,156,↓,down,↓,0.849328400043305,True,15
X031K20,106,experiment,168,→,right,→,0.6331203999579884,True,15
X031K20,107,experiment,132,→,right,→,0.5823551000212319,True,15
X031K20,108,experiment,36,←,left,←,1.0233412000234239,True,15
X031K20,109,experiment,144,↑,up,↑,0.6129816999891773,True,15
X031K20,110,experiment,96,→,right,→,0.7796471000183374,True,15
X031K20,111,experiment,156,↑,up,↑,0.5948155999649316,True,15
X031K20,112,experiment,84,←,right,→,0.6213432000367902,False,15
X031K20,113,experiment,96,↓,up,↑,0.9992781999753788,False,15
X031K20,114,experiment,24,→,right,→,0.6140034000272863,True,15
X031K20,115,experiment,36,←,right,→,0.7892118000308983,False,15
X031K20,116,experiment,156,→,right,→,0.7254232999985106,True,15
X031K20,117,experiment,108,→,right,→,0.8848827000474557,True,15
X031K20,118,experiment,48,→,right,→,0.6651087999925949,True,15
X031K20,119,experiment,60,↑,up,↑,0.5883082999498583,True,15
X031K20,120,experiment,168,↓,down,↓,0.7449898999766447,True,15
X031K20,121,experiment,36,→,left,←,1.096308099979069,False,15
X031K20,122,experiment,48,←,left,←,0.9917156999581493,True,15
X031K20,123,experiment,120,→,right,→,0.6265533000114374,True,15
X031K20,124,experiment,120,←,left,←,0.900463400001172,True,15
X031K20,125,experiment,24,↓,down,↓,0.9746286000008695,True,15
X031K20,126,experiment,180,←,left,←,0.6452077999711037,True,15
X031K20,127,experiment,168,←,left,←,0.6853341999812983,True,15
X031K20,128,experiment,60,↑,up,↑,0.6679857000126503,True,15
X031K20,129,experiment,72,↓,down,↓,0.753870900021866,True,15
X031K20,130,experiment,180,→,right,→,0.5834260999690741,True,15
X031K20,131,experiment,84,↑,up,↑,0.6028758999891579,True,15
X031K20,132,experiment,108,→,right,→,0.5351323999930173,True,15
X031K20,133,experiment,12,↑,down,↓,0.8936586999916472,False,15
X031K20,134,experiment,60,→,right,→,0.9649898000061512,True,15
X031K20,135,experiment,108,←,right,→,0.5769584999652579,False,15
X031K20,136,experiment,48,→,right,→,0.712162499956321,True,15
X031K20,137,experiment,168,↑,up,↑,0.5476678000413813,True,15
X031K20,138,experiment,132,↑,up,↑,0.5738766999565996,True,15
X031K20,139,experiment,36,←,left,←,0.7735569999786094,True,15
X031K20,140,experiment,144,↑,up,↑,0.877805600001011,True,15
X031K20,141,experiment,72,↑,up,↑,0.5635284999734722,True,15
X031K20,142,experiment,180,←,left,←,0.5716051000053994,True,15
X031K20,143,experiment,84,↑,up,↑,0.7098366999998689,True,15
X031K20,144,experiment,108,↑,up,↑,0.5634767999872565,True,15
X031K20,145,experiment,60,→,right,→,1.0478177000186406,True,15
X031K20,146,experiment,24,↑,up,↑,0.8974289000034332,True,15
X031K20,147,experiment,72,↑,up,↑,1.204803999979049,True,15
X031K20,148,experiment,120,↓,up,↑,0.977154900028836,False,15
X031K20,149,experiment,72,↑,up,↑,0.6383777000010014,True,15
X031K20,150,experiment,132,↓,down,↓,0.727645399980247,True,15
X031K20,151,experiment,120,↓,down,↓,0.6026454000384547,True,15
X031K20,152,experiment,48,←,left,←,0.6597401000326499,True,15
X031K20,153,experiment,84,→,right,→,0.5796214999863878,True,15
X031K20,154,experiment,12,↑,right,→,1.234312599990517,False,15
X031K20,155,experiment,132,↑,up,↑,0.5549843999906443,True,15
X031K20,156,experiment,156,↓,down,↓,0.6679882000316866,True,15
X031K20,157,training,168,↑,up,↑,0.704173100006301,True,15
X031K20,158,training,72,←,left,←,0.5188571000471711,True,15
X031K20,159,training,168,→,right,→,0.5836384000140242,True,15
X031K20,160,experiment,132,←,left,←,0.4634004000108689,True,15
X031K20,161,experiment,12,←,no_key,no_letter,-1.0,False,15
X031K20,162,experiment,24,←,left,←,0.5369874000316486,True,15
X031K20,163,experiment,168,←,right,→,0.6951060999999754,False,15
X031K20,164,experiment,180,↓,down,↓,0.8091842000139877,True,15
X031K20,165,experiment,60,←,right,→,0.606223399983719,False,15
X031K20,166,experiment,72,←,right,→,0.8986238000215963,False,15
X031K20,167,experiment,168,←,left,←,0.7055431000189856,True,15
X031K20,168,experiment,120,→,right,→,0.6013803000096232,True,15
X031K20,169,experiment,36,←,right,→,0.5211145000066608,False,15
X031K20,170,experiment,24,→,right,→,0.8751414999715053,True,15
X031K20,171,experiment,12,←,left,←,0.6090078999986872,True,15
X031K20,172,experiment,24,↑,up,↑,0.7093556000036187,True,15
X031K20,173,experiment,108,←,left,←,0.78507730003912,True,15
X031K20,174,experiment,120,↑,up,↑,0.5988264000043273,True,15
X031K20,175,experiment,156,↓,down,↓,0.9408788000000641,True,15
X031K20,176,experiment,60,←,right,→,0.726446200045757,False,15
X031K20,177,experiment,72,↓,down,↓,0.6861917999922298,True,15
X031K20,178,experiment,108,→,right,→,0.6567149999900721,True,15
X031K20,179,experiment,72,→,right,→,0.6563451000256464,True,15
X031K20,180,experiment,132,←,left,←,0.9481664000195451,True,15
X031K20,181,experiment,84,↓,down,↓,0.6444824000354856,True,15
X031K20,182,experiment,108,→,right,→,0.5480924000148661,True,15
X031K20,183,experiment,156,←,left,←,0.5408347999909893,True,15
X031K20,184,experiment,48,↑,up,↑,0.6060572999995202,True,15
X031K20,185,experiment,156,↓,down,↓,0.6289841000107117,True,15
X031K20,186,experiment,84,←,left,←,0.5257293000468053,True,15
X031K20,187,experiment,144,→,left,←,0.7350311000482179,False,15
X031K20,188,experiment,144,→,right,→,0.7050111999851651,True,15
X031K20,189,experiment,60,→,right,→,0.5354404000099748,True,15
X031K20,190,experiment,144,←,left,←,0.7299329999950714,True,15
X031K20,191,experiment,96,↓,down,↓,0.6981898000231013,True,15
X031K20,192,experiment,60,↓,down,↓,0.6415307000279427,True,15
X031K20,193,experiment,180,←,left,←,0.6793985000113025,True,15
X031K20,194,experiment,144,↓,down,↓,0.6471868000226095,True,15
X031K20,195,experiment,120,↑,up,↑,0.6580475000082515,True,15
X031K20,196,experiment,180,↑,up,↑,0.7168218999868259,True,15
X031K20,197,experiment,168,←,right,→,1.17504950001603,False,15
X031K20,198,experiment,120,↓,down,↓,0.8106923999730498,True,15
X031K20,199,experiment,36,←,left,←,0.6929778999765404,True,15
X031K20,200,experiment,12,→,right,→,0.5094641000032425,True,15
X031K20,201,experiment,132,←,right,→,0.6416062000207603,False,15
X031K20,202,experiment,72,→,right,→,0.5744414999498986,True,15
X031K20,203,experiment,84,→,right,→,0.5523468999890611,True,15
X031K20,204,experiment,96,←,left,←,0.9463740999926813,True,15
X031K20,205,experiment,156,↑,up,↑,0.7795544000109658,True,15
X031K20,206,experiment,96,↑,up,↑,0.5658552999957465,True,15
X031K20,207,experiment,180,↓,down,↓,0.7360647000023164,True,15
X031K20,208,experiment,96,←,left,←,1.1077566999592818,True,15
X031K20,209,experiment,168,↑,up,↑,0.687725399970077,True,15
X031K20,210,experiment,48,←,left,←,0.5288144000223838,True,15
X031K20,211,experiment,36,→,right,→,0.780629199987743,True,15
X031K20,212,experiment,132,↓,down,↓,0.6628051999723539,True,15
X031K20,213,experiment,12,↓,down,↓,1.1303468000260182,True,15
X031K20,214,experiment,48,↑,up,↑,0.7146692000096664,True,15
X031K20,215,experiment,24,↓,down,↓,0.6287702000117861,True,15
X031K20,216,experiment,108,←,left,←,0.6518036000197753,True,15
X031K20,217,experiment,36,→,left,←,0.6992706999881193,False,15
X031K20,218,experiment,84,→,right,→,0.5791321999859065,True,15
X031K20,219,experiment,48,→,right,→,0.4866572000319138,True,15
X031K20,220,training,48,←,left,←,0.6351081000175327,True,15
X031K20,221,training,156,←,left,←,0.7205826999852434,True,15
X031K20,222,training,36,←,left,←,0.6063485000049695,True,15
X031K20,223,experiment,48,↓,down,↓,0.6912279999814928,True,15
X031K20,224,experiment,180,→,right,→,0.64501769997878,True,15
X031K20,225,experiment,108,→,right,→,0.5202762000262737,True,15
X031K20,226,experiment,120,↑,up,↑,0.8654002000112087,True,15
X031K20,227,experiment,156,→,right,→,0.5567025999771431,True,15
X031K20,228,experiment,12,→,left,←,1.3357523999875411,False,15
X031K20,229,experiment,36,→,right,→,0.5717889000079595,True,15
X031K20,230,experiment,60,→,right,→,0.5481548000243492,True,15
X031K20,231,experiment,12,→,left,←,1.2817178000113927,False,15
X031K20,232,experiment,168,←,right,→,0.5628735999925993,False,15
X031K20,233,experiment,180,↓,down,↓,0.5985156000242569,True,15
X031K20,234,experiment,84,→,right,→,0.6104136999929324,True,15
X031K20,235,experiment,24,↓,left,←,0.8794447000254877,False,15
X031K20,236,experiment,84,↓,left,←,0.9732457000063732,False,15
X031K20,237,experiment,132,→,right,→,0.5996067000087351,True,15
X031K20,238,experiment,72,→,right,→,0.7153459999826737,True,15
X031K20,239,experiment,156,↑,up,↑,0.5561708000022918,True,15
X031K20,240,experiment,24,↑,down,↓,1.0986776999779977,False,15
X031K20,241,experiment,72,←,right,→,0.5443696000147611,False,15
X031K20,242,experiment,96,↓,up,↑,1.1504852999933064,False,15
X031K20,243,experiment,132,→,right,→,0.7533513000234962,True,15
X031K20,244,experiment,72,→,right,→,0.6386858000187203,True,15
X031K20,245,experiment,108,←,left,←,0.6135608000331558,True,15
X031K20,246,experiment,96,↓,down,↓,0.8170737000182271,True,15
X031K20,247,experiment,24,→,right,→,0.6754087000153959,True,15
X031K20,248,experiment,48,←,left,←,0.61359339999035,True,15
X031K20,249,experiment,36,→,right,→,1.246538800012786,True,15
X031K20,250,experiment,36,→,right,→,0.760676899983082,True,15
X031K20,251,experiment,120,→,right,→,0.6102771000005305,True,15
X031K20,252,experiment,120,←,left,←,0.6893151000258513,True,15
X031K20,253,experiment,96,↑,up,↑,0.5211557999718934,True,15
X031K20,254,experiment,132,↑,up,↑,0.6732276999973692,True,15
X031K20,255,experiment,108,←,left,←,0.6431999999913387,True,15
X031K20,256,experiment,144,↑,up,↑,0.5712006000103429,True,15
X031K20,257,experiment,48,←,left,←,0.6257723000016995,True,15
X031K20,258,experiment,156,←,left,←,0.4462663999875076,True,15
X031K20,259,experiment,180,→,right,→,0.7006799000082538,True,15
X031K20,260,experiment,72,↑,up,↑,0.6407397000002675,True,15
X031K20,261,experiment,84,↑,up,↑,0.5400258000008762,True,15
X031K20,262,experiment,36,↓,up,↑,0.8133578000124544,False,15
X031K20,263,experiment,156,→,up,↑,0.8992351000197232,False,15
X031K20,264,experiment,180,→,right,→,0.6302715999772772,True,15
X031K20,265,experiment,144,↓,down,↓,0.7443760999594815,True,15
X031K20,266,experiment,144,↑,up,↑,0.698040499992203,True,15
X031K20,267,experiment,168,→,left,←,0.547215899976436,False,15
X031K20,268,experiment,12,↓,down,↓,0.6734660999500193,True,15
X031K20,269,experiment,60,→,up,↑,0.6556431999779306,False,15
X031K20,270,experiment,144,→,right,→,0.6030768000055104,True,15
X031K20,271,experiment,24,←,left,←,0.5564887999789789,True,15
X031K20,272,experiment,168,→,left,←,0.677674799982924,False,15
X031K20,273,experiment,60,←,left,←,0.5961997000267729,True,15
X031K20,274,experiment,12,↓,up,↑,0.6074799999478273,False,15
X031K20,275,experiment,120,↓,up,↑,0.5624056999804452,False,15
X031K20,276,experiment,96,↓,down,↓,0.7593365000211634,True,15
X031K20,277,experiment,168,↑,up,↑,0.5240463999798521,True,15
X031K20,278,experiment,84,↓,down,↓,0.6759859999874607,True,15
X031K20,279,experiment,132,↑,right,→,0.7078099999926053,False,15
X031K20,280,experiment,108,↑,up,↑,0.5945924000116065,True,15
X031K20,281,experiment,48,←,left,←,0.48005479999119416,True,15
X031K20,282,experiment,60,↑,up,↑,0.8971021000179462,True,15
X031K20,283,training,60,←,left,←,0.5721398000023328,True,15
X031K20,284,training,156,↓,down,↓,0.6809897000202909,True,15
X031K20,285,training,108,↑,down,↓,0.7627011999720708,False,15
X031K20,286,experiment,120,↑,up,↑,0.549656400049571,True,15
X031K20,287,experiment,36,←,left,←,0.5394166000187397,True,15
X031K20,288,experiment,156,→,right,→,0.6624730000039563,True,15
X031K20,289,experiment,168,→,right,→,0.744695600005798,True,15
X031K20,290,experiment,156,←,left,←,0.6008892999961972,True,15
X031K20,291,experiment,168,→,right,→,0.5812536999583244,True,15
X031K20,292,experiment,72,↑,up,↑,0.6026525999768637,True,15
X031K20,293,experiment,156,↑,up,↑,0.5514473000075668,True,15
X031K20,294,experiment,48,←,left,←,0.7383154000272043,True,15
X031K20,295,experiment,168,↑,up,↑,0.5828590000164695,True,15
X031K20,296,experiment,72,←,left,←,0.5034471999970265,True,15
X031K20,297,experiment,24,→,right,→,0.6226585000404157,True,15
X031K20,298,experiment,24,↓,down,↓,0.7006008999887854,True,15
X031K20,299,experiment,48,↑,up,↑,0.5414632000029087,True,15
X031K20,300,experiment,120,→,right,→,0.5326807000092231,True,15
X031K20,301,experiment,60,↓,up,↑,1.2510248000035062,False,15
X031K20,302,experiment,108,↑,down,↓,0.9890443999902345,False,15
X031K20,303,experiment,36,↑,up,↑,0.8241873999941163,True,15
X031K20,304,experiment,108,↑,up,↑,0.5601955000311136,True,15
X031K20,305,experiment,36,↓,down,↓,0.7953036000253633,True,15
X031K20,306,experiment,120,←,left,←,1.1143326999736018,True,15
X031K20,307,experiment,60,←,left,←,0.7244241000153124,True,15
X031K20,308,experiment,96,↓,down,↓,0.7330564000294544,True,15
X031K20,309,experiment,84,←,left,←,0.7279599999892525,True,15
X031K20,310,experiment,72,←,left,←,0.5405487000243738,True,15
X031K20,311,experiment,144,→,right,→,0.5601819000439718,True,15
X031K20,312,experiment,48,→,right,→,0.7374447000329383,True,15
X031K20,313,experiment,144,↑,up,↑,0.6304315000306815,True,15
X031K20,314,experiment,24,→,right,→,0.6170744000119157,True,15
X031K20,315,experiment,84,↓,down,↓,0.7803396999952383,True,15
X031K20,316,experiment,144,←,left,←,0.635999999998603,True,15
X031K20,317,experiment,132,→,right,→,0.5341069999849424,True,15
X031K20,318,experiment,180,↓,down,↓,0.6774079000460915,True,15
X031K20,319,experiment,108,↑,up,↑,0.6085232999757864,True,15
X031K20,320,experiment,84,↑,up,↑,0.4853637999622151,True,15
X031K20,321,experiment,60,→,right,→,0.5279258000082336,True,15
X031K20,322,experiment,156,↓,down,↓,0.6852969999890774,True,15
X031K20,323,experiment,132,↓,down,↓,0.6113828000379726,True,15
X031K20,324,experiment,132,→,right,→,0.5234711000230163,True,15
X031K20,325,experiment,12,↑,up,↑,0.5745537999900989,True,15
X031K20,326,experiment,36,↓,down,↓,0.6223998000496067,True,15
X031K20,327,experiment,120,↑,up,↑,0.48202320002019405,True,15
X031K20,328,experiment,96,←,left,←,0.6449428999912925,True,15
X031K20,329,experiment,72,↑,up,↑,0.4773276000050828,True,15
X031K20,330,experiment,12,←,left,←,0.42006999999284744,True,15
X031K20,331,experiment,180,↓,down,↓,0.6040988999884576,True,15
X031K20,332,experiment,168,↓,left,←,0.4378366000019014,False,15
X031K20,333,experiment,96,↑,up,↑,0.5780288000241853,True,15
X031K20,334,experiment,144,→,right,→,0.48126239998964593,True,15
X031K20,335,experiment,60,↑,up,↑,1.267399000003934,True,15
X031K20,336,experiment,108,→,right,→,0.4799174999934621,True,15
X031K20,337,experiment,12,←,right,→,0.5259349999832921,False,15
X031K20,338,experiment,132,↓,down,↓,0.6991338999941945,True,15
X031K20,339,experiment,180,↑,up,↑,0.6857767000328749,True,15
X031K20,340,experiment,84,→,right,→,0.6664512999705039,True,15
X031K20,341,experiment,96,→,right,→,0.5372741000028327,True,15
X031K20,342,experiment,24,←,left,←,0.797054999973625,True,15
X031K20,343,experiment,180,→,right,→,0.5795322000049055,True,15
X031K20,344,experiment,12,↓,down,↓,0.929378499975428,True,15
X031K20,345,experiment,48,←,left,←,0.5021725000115111,True,15
X031K20,346,training,120,←,right,→,0.6056887999875471,False,14
X031K20,347,training,120,↑,up,↑,0.5144230000441894,True,14
X031K20,348,training,168,↑,up,↑,0.7088487999862991,True,14
X031K20,349,experiment,36,←,left,←,0.6448888999875635,True,14
X031K20,350,experiment,12,←,left,←,0.6090606999932788,True,14
X031K20,351,experiment,168,←,left,←,0.5711941999616101,True,14
X031K20,352,experiment,156,→,left,←,0.6515841000364162,False,14
X031K20,353,experiment,144,↑,up,↑,0.6423514999914914,True,14
X031K20,354,experiment,180,↑,up,↑,0.562310199951753,True,14
X031K20,355,experiment,120,↑,up,↑,0.49569230002816767,True,14
X031K20,356,experiment,132,↓,up,↑,0.8559516000095755,False,14
X031K20,357,experiment,180,←,left,←,0.55184690002352,True,14
X031K20,358,experiment,60,←,left,←,0.8545782000292093,True,14
X031K20,359,experiment,84,←,left,←,0.5821122999768704,True,14
X031K20,360,experiment,36,↓,down,↓,0.7751975000137463,True,14
X031K20,361,experiment,120,↑,up,↑,0.9330842000199482,True,14
X031K20,362,experiment,72,↑,up,↑,0.7935523000196554,True,14
X031K20,363,experiment,180,↑,up,↑,0.5575380000518635,True,14
X031K20,364,experiment,96,↑,up,↑,0.5898044999921694,True,14
X031K20,365,experiment,108,→,right,→,0.6334781999466941,True,14
X031K20,366,experiment,84,→,right,→,0.5208440999849699,True,14
X031K20,367,experiment,132,←,left,←,0.6465029999963008,True,14
X031K20,368,experiment,168,→,right,→,1.3688554999534972,True,14
X031K20,369,experiment,60,↓,down,↓,0.7271156000206247,True,14
X031K20,370,experiment,84,→,right,→,0.5951281999587081,True,14
X031K20,371,experiment,108,←,right,→,0.5713725000387058,False,14
X031K20,372,experiment,72,↑,up,↑,0.5099079000065103,True,14
X031K20,373,experiment,24,←,left,←,0.5348792000440881,True,14
X031K20,374,experiment,48,↑,left,←,0.6699054000200704,False,14
X031K20,375,experiment,36,←,right,→,0.6971748000360094,False,14
X031K20,376,experiment,120,↑,up,↑,0.5239568999968469,True,14
X031K20,377,experiment,24,←,left,←,0.6530966999707744,True,14
X031K20,378,experiment,156,↓,up,↑,0.6251829999964684,False,14
X031K20,379,experiment,108,→,left,←,0.7630913999746554,False,14
X031K20,380,experiment,36,←,left,←,0.619279499980621,True,14
X031K20,381,experiment,84,→,right,→,0.585000500024762,True,14
X031K20,382,experiment,48,↑,up,↑,0.5816164999851026,True,14
X031K20,383,experiment,12,←,left,←,0.7131209999788553,True,14
X031K20,384,experiment,132,→,right,→,0.5630996000254527,True,14
X031K20,385,experiment,96,↑,up,↑,0.992944700003136,True,14
X031K20,386,experiment,156,→,right,→,0.75163190002786,True,14
X031K20,387,experiment,168,↓,down,↓,0.669491000007838,True,14
X031K20,388,experiment,120,←,right,→,0.7032689999905415,False,14
X031K20,389,experiment,24,→,left,←,0.6667738999822177,False,14
X031K20,390,experiment,72,↑,up,↑,0.5034282999695279,True,14
X031K20,391,experiment,144,↓,down,↓,0.607550100015942,True,14
X031K20,392,experiment,60,→,right,→,0.45043229998555034,True,14
X031K20,393,experiment,12,→,right,→,0.6276719000306912,True,14
X031K20,394,experiment,144,←,left,←,0.5203743000165559,True,14
X031K20,395,experiment,60,←,left,←,0.6964144000085071,True,14
X031K20,396,experiment,24,→,left,←,1.2242328999564052,False,14
X031K20,397,experiment,108,→,left,←,0.6332798000075854,False,14
X031K20,398,experiment,168,→,right,→,0.5578585999901406,True,14
X031K20,399,experiment,180,↑,up,↑,0.5914025999954902,True,14
X031K20,400,experiment,156,↑,up,↑,0.5574137999792583,True,14
X031K20,401,experiment,12,↓,right,→,1.095432800007984,False,14
X031K20,402,experiment,144,→,left,←,0.6218146000173874,False,14
X031K20,403,experiment,96,→,right,→,0.7450014000060037,True,14
X031K20,404,experiment,96,↑,up,↑,0.5613747999886982,True,14
X031K20,405,experiment,48,↑,up,↑,0.5696201999671757,True,14
X031K20,406,experiment,72,→,right,→,0.5427732999669388,True,14
X031K20,407,experiment,48,→,right,→,0.6540688999812119,True,14
X031K20,408,experiment,132,↑,up,↑,0.5865319999866188,True,14
X031K20,409,training,36,→,right,→,0.6709692000295036,True,14
X031K20,410,training,120,↑,up,↑,0.5885273999883793,True,14
X031K20,411,training,132,↓,left,←,0.454200399981346,False,14
X031K20,412,experiment,12,←,left,←,0.5743759999750182,True,14
X031K20,413,experiment,60,↑,up,↑,0.6107372000114992,True,14
X031K20,414,experiment,24,←,left,←,0.6644203999894671,True,14
X031K20,415,experiment,36,↓,down,↓,0.7377124999766238,True,14
X031K20,416,experiment,48,←,left,←,0.6848487000097521,True,14
X031K20,417,experiment,84,→,right,→,0.7343792999745347,True,14
X031K20,418,experiment,60,↑,up,↑,0.7343337000347674,True,14
X031K20,419,experiment,108,↓,up,↑,0.6236014000023715,False,14
X031K20,420,experiment,120,↓,down,↓,0.6255673000123352,True,14
X031K20,421,experiment,96,↓,down,↓,0.6832554999855347,True,14
X031K20,422,experiment,180,↓,up,↑,0.5671693000476807,False,14
X031K20,423,experiment,144,←,left,←,0.6761231999844313,True,14
X031K20,424,experiment,168,↑,up,↑,0.7366508999839425,True,14
X031K20,425,experiment,12,↓,left,←,1.033092099998612,False,14
X031K20,426,experiment,84,→,left,←,0.7926005000481382,False,14
X031K20,427,experiment,60,↓,left,←,1.0078985000145622,False,14
X031K20,428,experiment,48,→,right,→,0.5474325999966823,True,14
X031K20,429,experiment,36,←,right,→,0.9520321000018157,False,14
X031K20,430,experiment,168,↑,up,↑,0.5848513999953866,True,14
X031K20,431,experiment,108,→,right,→,0.703825400036294,True,14
X031K20,432,experiment,96,←,left,←,0.7483401999925263,True,14
X031K20,433,experiment,108,↓,down,↓,0.6321944000083022,True,14
X031K20,434,experiment,84,↓,down,↓,0.7020944000105374,True,14
X031K20,435,experiment,144,↑,down,↓,0.8096196000115015,False,14
X031K20,436,experiment,132,→,right,→,0.5725774999591522,True,14
X031K20,437,experiment,36,↓,down,↓,0.7418019000324421,True,14
X031K20,438,experiment,48,↑,down,↓,0.7738034999929368,False,14
X031K20,439,experiment,168,→,right,→,0.5627141000004485,True,14
X031K20,440,experiment,144,→,right,→,0.5603385999565944,True,14
X031K20,441,experiment,144,↑,up,↑,0.49180399999022484,True,14
X031K20,442,experiment,132,↓,down,↓,0.605806399951689,True,14
X031K20,443,experiment,24,↑,left,←,0.6008205999969505,False,14
X031K20,444,experiment,108,→,right,→,0.5445946999825537,True,14
X031K20,445,experiment,132,→,right,→,0.5057510000187904,True,14
X031K20,446,experiment,36,→,right,→,0.513654200010933,True,14
X031K20,447,experiment,72,↑,up,↑,0.5829000999801792,True,14
X031K20,448,experiment,120,↓,right,→,1.0378778000012971,False,14
X031K20,449,experiment,96,↓,down,↓,0.7110739999916404,True,14
X031K20,450,experiment,156,↓,up,↑,1.0631059000152163,False,14
X031K20,451,experiment,24,←,left,←,0.6175071999896318,True,14
X031K20,452,experiment,156,→,right,→,0.4854264999739826,True,14
X031K20,453,experiment,180,↓,right,→,0.8872013999498449,False,14
X031K20,454,experiment,120,←,left,←,0.5093478999915533,True,14
X031K20,455,experiment,84,↓,down,↓,0.6948088999488391,True,14
X031K20,456,experiment,60,↑,up,↑,0.778664999990724,True,14
X031K20,457,experiment,156,←,left,←,0.4635755000053905,True,14
X031K20,458,experiment,156,↓,down,↓,0.7452053999877535,True,14
X031K20,459,experiment,120,↓,down,↓,0.946734800003469,True,14
X031K20,460,experiment,180,↑,up,↑,0.6941869999864139,True,14
X031K20,461,experiment,24,↑,up,↑,0.7322936999844387,True,14
X031K20,462,experiment,12,↓,down,↓,0.6338008999591693,True,14
X031K20,463,experiment,168,←,left,←,0.5207260000170209,True,14
X031K20,464,experiment,12,←,left,←,0.4863892999710515,True,14
X031K20,465,experiment,72,→,right,→,0.6221503000124358,True,14
X031K20,466,experiment,180,→,right,→,0.4690197999589145,True,14
X031K20,467,experiment,72,↑,left,←,0.7420659000054002,False,14
X031K20,468,experiment,48,↓,up,↑,0.5513210000353865,False,14
X031K20,469,experiment,132,←,left,←,0.5446356000029482,True,14
X031K20,470,experiment,96,←,left,←,0.504141699988395,True,14
X031K20,471,experiment,72,→,right,→,0.4696801000391133,True,14
X031K20,472,training,36,←,right,→,0.7130130000296049,False,14
X031K20,473,training,132,←,right,→,0.8769792999955826,False,14
X031K20,474,training,108,→,right,→,0.8324394999654032,True,14
X031K20,475,experiment,108,←,left,←,0.5418989000027068,True,14
X031K20,476,experiment,156,→,right,→,0.761283400002867,True,14
X031K20,477,experiment,24,→,right,→,0.6112590999691747,True,14
X031K20,478,experiment,120,→,right,→,0.5514887000317685,True,14
X031K20,479,experiment,168,↓,left,←,1.1791079000104219,False,14
X031K20,480,experiment,156,↓,down,↓,0.6570292999967933,True,14
X031K20,481,experiment,108,←,right,→,0.8039219999918714,False,14
X031K20,482,experiment,12,↓,down,↓,1.4305072999559343,True,14
X031K20,483,experiment,60,↑,down,↓,0.7289901000331156,False,14
X031K20,484,experiment,144,←,left,←,1.2003821000107564,True,14
X031K20,485,experiment,36,↓,left,←,0.6836173000046983,False,14
X031K20,486,experiment,156,↑,left,←,0.8197541999979876,False,14
X031K20,487,experiment,96,↓,up,↑,0.6582694000098854,False,14
X031K20,488,experiment,96,→,left,←,0.5015461000148207,False,14
X031K20,489,experiment,156,→,right,→,0.5775643000379205,True,14
X031K20,490,experiment,168,↑,right,→,0.7221096000284888,False,14
X031K20,491,experiment,144,←,left,←,1.0093599000247195,True,14
X031K20,492,experiment,168,↓,down,↓,0.7381535000167787,True,14
X031K20,493,experiment,96,↓,up,↑,0.6350459000095725,False,14
X031K20,494,experiment,180,↓,down,↓,0.6892458000220358,True,14
X031K20,495,experiment,12,↑,up,↑,0.7575005000107922,True,14
X031K20,496,experiment,24,↑,up,↑,0.46191909996559843,True,14
X031K20,497,experiment,72,↑,up,↑,0.5853483999962918,True,14
X031K20,498,experiment,180,←,right,→,0.6401601999532431,False,14
X031K20,499,experiment,72,→,right,→,0.4450850000139326,True,14
X031K20,500,experiment,132,↑,up,↑,0.5522555999923497,True,14
X031K20,501,experiment,60,↑,up,↑,0.5357710000243969,True,14
X031K20,502,experiment,84,↓,left,←,1.2692814999609254,False,14
X031K20,503,experiment,72,←,right,→,0.5050993000040762,False,14
X031K20,504,experiment,108,↓,down,↓,0.8209973000339232,True,14
X031K20,505,experiment,12,↓,down,↓,0.8733916999772191,True,14
X031K20,506,experiment,24,←,left,←,0.5541742999921553,True,14
X031K20,507,experiment,180,↑,up,↑,0.6234527999768034,True,14
X031K20,508,experiment,36,←,left,←,0.4485337000223808,True,14
X031K20,509,experiment,120,←,left,←,0.49487799999769777,True,14
X031K20,510,experiment,48,→,right,→,0.5517504999879748,True,14
X031K20,511,experiment,84,↓,down,↓,0.6269888000097126,True,14
X031K20,512,experiment,48,←,right,→,0.9177868000115268,False,14
X031K20,513,experiment,168,←,right,→,0.4943963999976404,False,14
X031K20,514,experiment,180,→,right,→,0.530133799999021,True,14
X031K20,515,experiment,132,←,left,←,0.7859937999746762,True,14
X031K20,516,experiment,120,↑,up,↑,0.5863520000129938,True,14
X031K20,517,experiment,36,↑,up,↑,0.5165508999489248,True,14
X031K20,518,experiment,60,↓,down,↓,0.6138085999991745,True,14
X031K20,519,experiment,84,↓,up,↑,1.1946848000516184,False,14
X031K20,520,experiment,132,↑,up,↑,0.5324776000343263,True,14
X031K20,521,experiment,132,↑,up,↑,0.5712830999982543,True,14
X031K20,522,experiment,144,↓,down,↓,0.7299091000459157,True,14
X031K20,523,experiment,24,→,right,→,0.7757607999956235,True,14
X031K20,524,experiment,108,→,right,→,0.48285969998687506,True,14
X031K20,525,experiment,12,↑,down,↓,1.0395225000102073,False,14
X031K20,526,experiment,144,↑,up,↑,0.5938402999890968,True,14
X031K20,527,experiment,84,↓,down,↓,0.6651043999590911,True,14
X031K20,528,experiment,48,←,right,→,0.5759751000441611,False,14
X031K20,529,experiment,120,↑,up,↑,0.5290442999685183,True,14
X031K20,530,experiment,96,↑,up,↑,0.4558913999935612,True,14
X031K20,531,experiment,36,→,right,→,0.5365701999980956,True,14
X031K20,532,experiment,48,←,left,←,0.6608575999853201,True,14
X031K20,533,experiment,72,↓,down,↓,0.7728438000194728,True,14
X031K20,534,experiment,60,↑,up,↑,0.5092607999686152,True,14
X031K20,535,training,168,↑,up,↑,0.613830299989786,True,14
X031K20,536,training,84,→,right,→,0.4581976000335999,True,14
X031K20,537,training,84,↓,down,↓,0.6627455999841914,True,14
X031K20,538,experiment,48,↑,down,↓,1.2593339000013657,False,14
X031K20,539,experiment,120,←,left,←,0.5797768000047654,True,14
X031K20,540,experiment,132,↓,down,↓,0.7080520000308752,True,14
X031K20,541,experiment,48,→,right,→,0.46556859998963773,True,14
X031K20,542,experiment,120,↓,down,↓,0.7270720000378788,True,14
X031K20,543,experiment,72,↑,up,↑,0.47894579998683184,True,14
X031K20,544,experiment,156,→,right,→,0.4136451000231318,True,14
X031K20,545,experiment,180,→,right,→,0.49270599998999387,True,14
X031K20,546,experiment,96,→,right,→,0.4316367999999784,True,14
X031K20,547,experiment,132,↓,down,↓,0.7291622999473475,True,14
X031K20,548,experiment,180,→,right,→,0.510720600024797,True,14
X031K20,549,experiment,84,↑,up,↑,0.8044701000326313,True,14
X031K20,550,experiment,24,→,right,→,0.6357117999577895,True,14
X031K20,551,experiment,108,←,left,←,0.4230955000384711,True,14
X031K20,552,experiment,84,↑,down,↓,0.6887966999784112,False,14
X031K20,553,experiment,180,←,left,←,0.5603992000105791,True,14
X031K20,554,experiment,60,↓,down,↓,0.5985867999843322,True,14
X031K20,555,experiment,144,↑,up,↑,0.5150432999944314,True,14
X031K20,556,experiment,24,↑,up,↑,0.4881427999935113,True,14
X031K20,557,experiment,60,←,left,←,0.5938123000087216,True,14
X031K20,558,experiment,72,→,right,→,0.4195326999761164,True,14
X031K20,559,experiment,108,←,left,←,0.6322501999675296,True,14
X031K20,560,experiment,12,↓,down,↓,0.582370100019034,True,14
X031K20,561,experiment,84,←,left,←,0.6567329000099562,True,14
X031K20,562,experiment,72,←,left,←,0.453026500006672,True,14
X031K20,563,experiment,24,↑,up,↑,0.6223565999534912,True,14
X031K20,564,experiment,60,↑,up,↑,0.49947350000729784,True,14
X031K20,565,experiment,36,↑,up,↑,0.45189749996643513,True,14
X031K20,566,experiment,96,↑,up,↑,0.7806710000149906,True,14
X031K20,567,experiment,108,↑,up,↑,1.2230104000191204,True,14
X031K20,568,experiment,108,↑,up,↑,0.5154965000110678,True,14
X031K20,569,experiment,156,→,right,→,0.8871246999478899,True,14
X031K20,570,experiment,48,←,right,→,0.4929818999953568,False,14
X031K20,571,experiment,168,→,right,→,0.5414101000060327,True,14
X031K20,572,experiment,36,→,right,→,0.8766896000015549,True,14
X031K20,573,experiment,168,↑,up,↑,0.5124871999723837,True,14
X031K20,574,experiment,132,↓,up,↑,1.126846699975431,False,14
X031K20,575,experiment,36,→,left,←,0.7025913000106812,False,14
X031K20,576,experiment,96,↑,up,↑,0.5964876000070944,True,14
X031K20,577,experiment,12,↑,up,↑,0.5666217000107281,True,14
X031K20,578,experiment,24,←,left,←,0.5593035999918357,True,14
X031K20,579,experiment,144,→,left,←,0.5811948000336997,False,14
X031K20,580,experiment,120,←,left,←,0.68293559999438,True,14
X031K20,581,experiment,132,→,left,←,0.7506744000129402,False,14
X031K20,582,experiment,96,←,left,←,0.6222074000397697,True,14
X031K20,583,experiment,12,←,left,←,0.6137340000132099,True,14
X031K20,584,experiment,144,↑,left,←,1.0670903999707662,False,14
X031K20,585,experiment,156,←,left,←,0.5371930000255816,True,14
X031K20,586,experiment,144,↓,down,↓,0.8413197000045329,True,14
X031K20,587,experiment,48,→,right,→,0.5213979000109248,True,14
X031K20,588,experiment,168,↑,down,↓,0.7046488000196405,False,14
X031K20,589,experiment,60,→,right,→,0.5275089999777265,True,14
X031K20,590,experiment,180,→,left,←,0.5195115000242367,False,14
X031K20,591,experiment,120,→,right,→,0.5448479999904521,True,14
X031K20,592,experiment,84,→,left,←,0.538853999983985,False,14
X031K20,593,experiment,72,↑,up,↑,0.6000458999769762,True,14
X031K20,594,experiment,36,↓,up,↑,0.4761750000179745,False,14
X031K20,595,experiment,12,←,left,←,0.481040499988012,True,14
X031K20,596,experiment,168,↓,down,↓,0.6129864000249654,True,14
X031K20,597,experiment,156,↓,down,↓,0.5505773000186309,True,14
X031K20,598,training,108,↓,down,↓,1.4155947999679483,True,14
X031K20,599,training,156,←,left,←,0.48744779999833554,True,14
X031K20,600,training,72,→,right,→,0.4158214000053704,True,14
X031K20,601,experiment,132,↑,up,↑,0.5977576999575831,True,14
X031K20,602,experiment,144,↑,up,↑,0.6781335000414401,True,14
X031K20,603,experiment,144,↑,up,↑,0.5425513000227511,True,14
X031K20,604,experiment,180,↑,up,↑,0.5300237000337802,True,14
X031K20,605,experiment,36,←,right,→,0.5722508000326343,False,14
X031K20,606,experiment,144,↑,up,↑,0.5311876999912784,True,14
X031K20,607,experiment,96,↑,up,↑,0.4613177999854088,True,14
X031K20,608,experiment,108,↓,up,↑,0.5933406999683939,False,14
X031K20,609,experiment,96,↓,up,↑,0.458275799988769,False,14
X031K20,610,experiment,60,→,right,→,0.5461011999868788,True,14
X031K20,611,experiment,72,←,left,←,0.6038845999864861,True,14
X031K20,612,experiment,48,→,right,→,0.49666860001161695,True,14
X031K20,613,experiment,48,↓,down,↓,0.6955308000324294,True,14
X031K20,614,experiment,168,↓,up,↑,0.7006888999603689,False,14
X031K20,615,experiment,72,↓,up,↑,0.7059985999949276,False,14
X031K20,616,experiment,156,↑,up,↑,0.531360799970571,True,14
X031K20,617,experiment,84,→,left,←,0.5602015000185929,False,14
X031K20,618,experiment,156,↓,down,↓,0.6794317000312731,True,14
X031K20,619,experiment,24,↓,down,↓,0.663165999983903,True,14
X031K20,620,experiment,96,↑,up,↑,0.7922705999808386,True,14
X031K20,621,experiment,72,↓,up,↑,0.9017524000373669,False,14
X031K20,622,experiment,120,←,left,←,0.5570177999907173,True,14
X031K20,623,experiment,24,→,left,←,0.6239041999797337,False,14
X031K20,624,experiment,72,←,left,←,0.5312373000197113,True,14
X031K20,625,experiment,96,→,left,←,0.6015147999860346,False,14
X031K20,626,experiment,108,↑,up,↑,0.6707539000199176,True,14
X031K20,627,experiment,12,←,no_key,no_letter,-1.0,False,14
X031K20,628,experiment,12,↓,left,←,0.7742564000072889,False,14
X031K20,629,experiment,48,←,left,←,0.5517787999706343,True,14
X031K20,630,experiment,12,←,left,←,0.8368737999699079,True,14
X031K20,631,experiment,156,→,right,→,0.7601548000238836,True,14
X031K20,632,experiment,144,↑,up,↑,0.5572479999973439,True,14
X031K20,633,experiment,108,→,left,←,0.43580360000487417,False,14
X031K20,634,experiment,24,←,right,→,0.47117650002473965,False,14
X031K20,635,experiment,84,→,right,→,0.5204821000224911,True,14
X031K20,636,experiment,132,↓,up,↑,0.7859729999909177,False,14
X031K20,637,experiment,120,←,left,←,0.6259690999868326,True,14
X031K20,638,experiment,108,←,left,←,0.5105966000119224,True,14
X031K20,639,experiment,60,↑,up,↑,1.140574499964714,True,14
X031K20,640,experiment,120,←,right,→,0.8425641999929212,False,14
X031K20,641,experiment,120,→,right,→,0.8777979000005871,True,14
X031K20,642,experiment,180,→,right,→,0.6376588999992236,True,14
X031K20,643,experiment,24,→,right,→,0.48219770001014695,True,14
X031K20,644,experiment,180,↓,down,↓,0.6405985999736004,True,14
X031K20,645,experiment,60,→,right,→,0.6293161999783479,True,14
X031K20,646,experiment,84,→,right,→,0.48367980000330135,True,14
X031K20,647,experiment,156,↓,down,↓,0.5993990999995731,True,14
X031K20,648,experiment,132,←,left,←,0.5001531000016257,True,14
X031K20,649,experiment,12,←,left,←,0.47639980004169047,True,14
X031K20,650,experiment,36,→,right,→,0.5651976999943145,True,14
X031K20,651,experiment,168,↓,down,↓,0.5816888000117615,True,14
X031K20,652,experiment,180,→,right,→,0.549637200019788,True,14
X031K20,653,experiment,168,←,left,←,0.55955800000811,True,14
X031K20,654,experiment,132,→,right,→,0.5202173999859951,True,14
X031K20,655,experiment,36,↓,down,↓,0.5441577000310645,True,14
X031K20,656,experiment,36,←,left,←,0.8115734000457451,True,14
X031K20,657,experiment,84,↑,up,↑,0.8402436000178568,True,14
X031K20,658,experiment,60,←,left,←,0.7923837000271305,True,14
X031K20,659,experiment,48,↑,down,↓,0.550733299984131,False,14
X031K20,660,experiment,168,→,left,←,0.5549768999917433,False,14
X031K20,661,training,60,→,left,←,0.8448610000195913,False,14
X031K20,662,training,120,→,left,←,0.6323578999727033,False,14
X031K20,663,training,120,→,left,←,0.4747344999923371,False,14
X031K20,664,experiment,168,→,right,→,0.5039641999755986,True,14
X031K20,665,experiment,144,←,left,←,0.6819736000034027,True,14
X031K20,666,experiment,132,←,left,←,0.5532567999907769,True,14
X031K20,667,experiment,24,←,left,←,0.5164967000018805,True,14
X031K20,668,experiment,168,←,left,←,0.4858595000114292,True,14
X031K20,669,experiment,96,↓,down,↓,0.5750731999869458,True,14
X031K20,670,experiment,36,←,left,←,0.62714340002276,True,14
X031K20,671,experiment,36,↑,up,↑,0.5373860000399873,True,14
X031K20,672,experiment,12,↓,up,↑,0.9631343000219204,False,14
X031K20,673,experiment,96,→,left,←,0.469580200035125,False,14
X031K20,674,experiment,48,↓,down,↓,0.599144600040745,True,14
X031K20,675,experiment,120,→,right,→,0.6954227000242099,True,14
X031K20,676,experiment,36,→,right,→,0.5151667000027373,True,14
X031K20,677,experiment,108,↑,up,↑,0.626281899982132,True,14
X031K20,678,experiment,132,↓,down,↓,0.5787209999980405,True,14
X031K20,679,experiment,156,←,left,←,0.48938419995829463,True,14
X031K20,680,experiment,156,←,left,←,0.4661321999737993,True,14
X031K20,681,experiment,60,→,right,→,0.6902271999861114,True,14
X031K20,682,experiment,180,←,left,←,0.46127739996882156,True,14
X031K20,683,experiment,156,→,right,→,0.5315262000076473,True,14
X031K20,684,experiment,84,↓,left,←,1.2713795999879949,False,14
X031K20,685,experiment,144,→,right,→,0.584880999987945,True,14
X031K20,686,experiment,96,←,left,←,0.6654681999934837,True,14
X031K20,687,experiment,48,↑,up,↑,0.5756970999646001,True,14
X031K20,688,experiment,72,←,right,→,0.5118103999993764,False,14
X031K20,689,experiment,84,→,right,→,0.7386829000315629,True,14
X031K20,690,experiment,144,←,left,←,0.48416599998017773,True,14
X031K20,691,experiment,144,→,right,→,0.5401258000056259,True,14
X031K20,692,experiment,24,↓,down,↓,0.8228807999985293,True,14
X031K20,693,experiment,12,↓,down,↓,0.6725519000319764,True,14
X031K20,694,experiment,108,↑,up,↑,0.4896518000168726,True,14
X031K20,695,experiment,24,←,left,←,0.6280951999942772,True,14
X031K20,696,experiment,132,→,right,→,0.6189968000398949,True,14
X031K20,697,experiment,96,↑,up,↑,0.6165201999829151,True,14
X031K20,698,experiment,168,→,right,→,0.6299343000282533,True,14
X031K20,699,experiment,60,→,right,→,0.49688450002577156,True,14
X031K20,700,experiment,168,↑,up,↑,0.5018392999772914,True,14
X031K20,701,experiment,180,↑,up,↑,0.4821908000158146,True,14
X031K20,702,experiment,108,→,right,→,0.5509288000175729,True,14
X031K20,703,experiment,48,←,right,→,0.4638622000347823,False,14
X031K20,704,experiment,156,↓,down,↓,0.6948537999996915,True,14
X031K20,705,experiment,48,↓,down,↓,0.6345130000263453,True,14
X031K20,706,experiment,120,↑,up,↑,0.4737005999777466,True,14
X031K20,707,experiment,84,↑,up,↑,0.5062482000212185,True,14
X031K20,708,experiment,72,↓,up,↑,0.49196070001926273,False,14
X031K20,709,experiment,72,↑,up,↑,0.6850622000056319,True,14
X031K20,710,experiment,132,↑,up,↑,0.45453240000642836,True,14
X031K20,711,experiment,120,←,left,←,0.5155551999923773,True,14
X031K20,712,experiment,24,↑,up,↑,0.8654262000345625,True,14
X031K20,713,experiment,12,→,right,→,0.7688033999875188,True,14
X031K20,714,experiment,60,↓,up,↑,0.4287412000121549,False,14
X031K20,715,experiment,60,←,left,←,0.5626881999778561,True,14
X031K20,716,experiment,180,↓,down,↓,0.6079655999783427,True,14
X031K20,717,experiment,180,↑,down,↓,0.6220969999558292,False,14
X031K20,718,experiment,36,→,right,→,0.5134767999988981,True,14
X031K20,719,experiment,12,↓,down,↓,0.6615676000365056,True,14
X031K20,720,experiment,72,↓,down,↓,0.562861000013072,True,14
X031K20,721,experiment,84,→,right,→,0.5128366000135429,True,14
X031K20,722,experiment,120,↑,up,↑,0.7139960000058636,True,14
X031K20,723,experiment,108,↑,up,↑,0.5358757000067271,True,14
X031K20,724,training,84,→,right,→,0.4991122999927029,True,14
X031K20,725,training,24,↓,down,↓,0.6931302000302821,True,14
X031K20,726,training,24,←,right,→,0.8113172000157647,False,14
X031K20,727,experiment,120,→,right,→,0.4987813000334427,True,14
X031K20,728,experiment,168,→,right,→,0.47442640003282577,True,14
X031K20,729,experiment,36,→,right,→,0.5660680999862961,True,14
X031K20,730,experiment,24,↑,up,↑,0.6081949999788776,True,14
X031K20,731,experiment,96,←,right,→,0.4126477999961935,False,14
X031K20,732,experiment,168,←,left,←,0.5890856999903917,True,14
X031K20,733,experiment,12,←,left,←,0.558164999994915,True,14
X031K20,734,experiment,84,→,right,→,0.6321417999570258,True,14
X031K20,735,experiment,144,→,right,→,0.6855758000165224,True,14
X031K20,736,experiment,156,↓,down,↓,0.681657399982214,True,14
X031K20,737,experiment,72,↑,down,↓,1.0134978999849409,False,14
X031K20,738,experiment,168,↓,up,↑,0.906334400002379,False,14
X031K20,739,experiment,72,←,left,←,0.5493524000048637,True,14
X031K20,740,experiment,180,↓,down,↓,0.645252000016626,True,14
X031K20,741,experiment,180,↓,down,↓,0.6063964000204578,True,14
X031K20,742,experiment,132,←,right,→,0.5672148000448942,False,14
X031K20,743,experiment,108,↓,down,↓,0.5942524999845773,True,14
X031K20,744,experiment,180,↓,down,↓,0.5524458000436425,True,14
X031K20,745,experiment,168,↓,down,↓,0.5166085999808274,True,14
X031K20,746,experiment,144,↑,down,↓,0.5212448000092991,False,14
X031K20,747,experiment,72,→,left,←,0.4793521999963559,False,14
X031K20,748,experiment,108,↑,up,↑,0.6616222999873571,True,14
X031K20,749,experiment,132,→,right,→,0.50260479998542,True,14
X031K20,750,experiment,96,↑,up,↑,0.8397373000043444,True,14
X031K20,751,experiment,180,↑,up,↑,0.7294818999944255,True,14
X031K20,752,experiment,132,←,left,←,0.5993247000151314,True,14
X031K20,753,experiment,108,←,left,←,0.433062499971129,True,14
X031K20,754,experiment,156,↓,down,↓,0.5800094000296667,True,14
X031K20,755,experiment,84,→,right,→,0.5784893000381999,True,14
X031K20,756,experiment,120,↓,down,↓,0.6850967999780551,True,14
X031K20,757,experiment,60,↓,down,↓,0.6227613000082783,True,14
X031K20,758,experiment,156,↑,down,↓,0.6150124999694526,False,14
X031K20,759,experiment,84,←,left,←,0.6533957999781705,True,14
X031K20,760,experiment,144,↑,up,↑,0.5062496999744326,True,14
X031K20,761,experiment,156,→,right,→,0.4713463999796659,True,14
X031K20,762,experiment,72,↑,up,↑,0.8036300000385381,True,14
X031K20,763,experiment,12,→,right,→,0.50733210000908,True,14
X031K20,764,experiment,84,←,left,←,0.4195018000318669,True,14
X031K20,765,experiment,108,↑,up,↑,0.5741184999933466,True,14
X031K20,766,experiment,96,↑,up,↑,0.5349215000169352,True,14
X031K20,767,experiment,12,↓,up,↑,0.5525373999844305,False,14
X031K20,768,experiment,36,→,right,→,0.5628434999962337,True,14
X031K20,769,experiment,96,↑,up,↑,0.5336907000164501,True,14
X031K20,770,experiment,48,→,right,→,0.6129176000249572,True,14
X031K20,771,experiment,60,←,left,←,0.6291778999730013,True,14
X031K20,772,experiment,48,↓,up,↑,0.574082599952817,False,14
X031K20,773,experiment,144,↓,down,↓,0.7255179000203498,True,14
X031K20,774,experiment,36,↓,up,↑,0.6692341999732889,False,14
X031K20,775,experiment,24,→,right,→,0.6203418999793939,True,14
X031K20,776,experiment,120,→,right,→,1.0019780999864452,True,14
X031K20,777,experiment,48,↓,right,→,0.8814191999845207,False,14
X031K20,778,experiment,60,↑,up,↑,0.5223878999822773,True,14
X031K20,779,experiment,12,↓,down,↓,0.6898752000415698,True,14
X031K20,780,experiment,36,←,left,←,0.8809503999655135,True,14
X031K20,781,experiment,24,←,left,←,0.5298594000050798,True,14
X031K20,782,experiment,132,↓,up,↑,0.7829497000202537,False,14
X031K20,783,experiment,24,↓,down,↓,0.5602032000315376,True,14
X031K20,784,experiment,60,↓,up,↑,0.8919553000014275,False,14
X031K20,785,experiment,48,↑,up,↑,0.7995663000037894,True,14
X031K20,786,experiment,120,→,right,→,0.5046096000005491,True,14
X031K20,787,training,132,←,left,←,0.5089156999601983,True,14
X031K20,788,training,96,←,left,←,0.6171128999558277,True,14
X031K20,789,training,108,←,left,←,0.5149839000077918,True,14
X031K20,790,experiment,156,←,right,→,0.4995669000199996,False,14
X031K20,791,experiment,24,→,right,→,0.5707859999965876,True,14
X031K20,792,experiment,144,←,left,←,0.5169768999912776,True,14
X031K20,793,experiment,48,→,left,←,0.4584006000077352,False,14
X031K20,794,experiment,84,↓,down,↓,0.607709999952931,True,14
X031K20,795,experiment,168,↓,down,↓,0.7142622999963351,True,14
X031K20,796,experiment,108,→,right,→,0.5722368999850005,True,14
X031K20,797,experiment,24,↓,up,↑,0.9747516000061296,False,14
X031K20,798,experiment,180,→,right,→,0.5261601000092924,True,14
X031K20,799,experiment,156,←,left,←,0.5419610999524593,True,14
X031K20,800,experiment,84,→,right,→,0.4681278999778442,True,14
X031K20,801,experiment,48,←,right,→,0.9035456000128761,False,14
X031K20,802,experiment,36,←,left,←,0.5571325999917462,True,14
X031K20,803,experiment,156,↓,down,↓,0.6556998000014573,True,14
X031K20,804,experiment,180,←,left,←,0.515359700017143,True,14
X031K20,805,experiment,24,↓,left,←,0.8990755000268109,False,14
X031K20,806,experiment,12,↓,down,↓,0.640861899999436,True,14
X031K20,807,experiment,48,→,right,→,0.9478424999979325,True,14
X031K20,808,experiment,36,↓,down,↓,0.6123870000010356,True,14
X031K20,809,experiment,120,↑,down,↓,0.536996699986048,False,14
X031K20,810,experiment,96,←,left,←,0.4781963999848813,True,14
X031K20,811,experiment,108,→,right,→,0.4691158999921754,True,14
X031K20,812,experiment,132,→,left,←,0.4257868999848142,False,14
X031K20,813,experiment,96,→,left,←,0.5909447000012733,False,14
X031K20,814,experiment,60,↑,up,↑,0.6327690000180155,True,14
X031K20,815,experiment,168,←,right,→,0.7670591000351124,False,14
X031K20,816,experiment,60,←,left,←,0.5430561999673955,True,14
X031K20,817,experiment,144,↓,down,↓,0.6992747000185773,True,14
X031K20,818,experiment,144,←,left,←,0.44876210001530126,True,14
X031K20,819,experiment,168,→,right,→,0.45619439997244626,True,14
X031K20,820,experiment,180,↓,up,↑,0.6189586999826133,False,14
X031K20,821,experiment,36,↑,up,↑,0.5310241000261158,True,14
X031K20,822,experiment,156,←,right,→,0.5519874000456184,False,14
X031K20,823,experiment,24,←,left,←,0.5168834999785759,True,14
X031K20,824,experiment,120,←,right,→,0.5669291000231169,False,14
X031K20,825,experiment,72,↑,up,↑,0.7153687999816611,True,14
X031K20,826,experiment,108,↓,down,↓,0.6510338999796659,True,14
X031K20,827,experiment,60,→,right,→,0.5625306000001729,True,14
X031K20,828,experiment,72,→,right,→,0.4926456999965012,True,14
X031K20,829,experiment,12,↓,left,←,0.6721680999617092,False,14
X031K20,830,experiment,168,→,right,→,0.7270146000082605,True,14
X031K20,831,experiment,96,↓,down,↓,0.6399223000044003,True,14
X031K20,832,experiment,48,↑,down,↓,0.8194165000459179,False,14
X031K20,833,experiment,96,↑,up,↑,0.5486015000496991,True,14
X031K20,834,experiment,132,←,right,→,0.8906977999722585,False,14
X031K20,835,experiment,84,↑,up,↑,0.5579350999905728,True,14
X031K20,836,experiment,144,←,right,→,0.5679451999603771,False,14
X031K20,837,experiment,132,→,right,→,0.6042904000496492,True,14
X031K20,838,experiment,84,→,right,→,0.5366054000332952,True,14
X031K20,839,experiment,36,→,left,←,0.6328411999857053,False,14
X031K20,840,experiment,132,↓,up,↑,0.5562101999530569,False,14
X031K20,841,experiment,120,↓,right,→,0.8544316000188701,False,14
X031K20,842,experiment,180,←,right,→,0.5877075999742374,False,14
X031K20,843,experiment,12,↓,left,←,0.6308767000446096,False,14
X031K20,844,experiment,72,→,left,←,0.6080016000196338,False,14
X031K20,845,experiment,108,↓,down,↓,0.6899764999980107,True,14
X031K20,846,experiment,12,←,right,→,0.607174800010398,False,14
X031K20,847,experiment,60,←,left,←,0.5583024999941699,True,14
X031K20,848,experiment,72,↓,down,↓,0.6192196000483818,True,14
X031K20,849,experiment,120,↑,up,↑,0.7126262999954633,True,14
