PART_ID,Trial_no,Trial_type,PDI,Stim_letter,Key_pressed,letter_choose,Rt,Corr,Stimulus Time
X032K19,1,training,10,↑,no_key,no_letter,-1.0,False,30
X032K19,2,training,10,→,right,→,0.467436800012365,True,30
X032K19,3,training,10,↑,up,↑,0.550302300020121,True,30
X032K19,4,training,10,→,right,→,0.3840327999787405,True,30
X032K19,5,training,10,↓,down,↓,0.7904005999444053,True,30
X032K19,6,training,10,↓,down,↓,0.5505793000338599,True,30
X032K19,7,training,10,→,right,→,0.6006411999696866,True,30
X032K19,8,training,10,←,left,←,0.4840022000716999,True,30
X032K19,9,training,10,→,right,→,0.5163610000163317,True,30
X032K19,10,training,10,←,left,←,0.5005220000166446,True,30
X032K19,11,training,10,↓,down,↓,0.7707492999034002,True,30
X032K19,12,training,10,↓,down,↓,0.8824999999487773,True,30
X032K19,13,training,10,→,right,→,0.6007414000341669,True,30
X032K19,14,training,10,↑,up,↑,0.6953083000844344,True,30
X032K19,15,training,10,→,right,→,0.633988399989903,True,30
X032K19,16,training,10,↓,down,↓,1.75188499991782,True,30
X032K19,17,training,10,→,no_key,no_letter,-1.0,False,30
X032K19,18,training,10,↓,down,↓,0.6340392999118194,True,30
X032K19,19,training,10,→,right,→,0.5170182000147179,True,30
X032K19,20,training,10,↓,down,↓,0.5672441000351682,True,30
X032K19,21,training,10,→,right,→,1.2838526000268757,True,18
X032K19,22,training,10,→,right,→,0.9965948000317439,True,18
X032K19,23,training,10,↓,down,↓,0.7891657000873238,True,18
X032K19,24,training,10,↓,down,↓,0.5742067999672145,True,18
X032K19,25,training,10,→,right,→,0.5381517999339849,True,18
X032K19,26,training,10,←,left,←,0.8805089000379667,True,18
X032K19,27,training,10,↑,up,↑,0.8597492999397218,True,18
X032K19,28,training,10,↓,down,↓,0.7792109000729397,True,18
X032K19,29,training,10,↑,up,↑,0.6214486999670044,True,18
X032K19,30,training,10,→,right,→,0.580714000039734,True,18
X032K19,31,training,132,↑,up,↑,0.8673413000069559,True,15
X032K19,32,training,108,←,left,←,0.5255806000204757,True,15
X032K19,33,training,72,↑,up,↑,0.8217803000006825,True,15
X032K19,34,experiment,144,←,left,←,0.5913763000862673,True,15
X032K19,35,experiment,48,↓,down,↓,0.7679148999741301,True,15
X032K19,36,experiment,180,↑,up,↑,0.8344664999749511,True,15
X032K19,37,experiment,168,←,left,←,0.7010821999283507,True,15
X032K19,38,experiment,60,↑,up,↑,0.5505271999863908,True,15
X032K19,39,experiment,60,↑,up,↑,0.6204514999408275,True,15
X032K19,40,experiment,108,←,left,←,0.5603347000433132,True,15
X032K19,41,experiment,72,↓,down,↓,0.7902906000381336,True,15
X032K19,42,experiment,48,←,left,←,0.5770465000532568,True,15
X032K19,43,experiment,144,↓,down,↓,0.6099572000093758,True,15
X032K19,44,experiment,84,→,right,→,0.47445970005355775,True,15
X032K19,45,experiment,48,←,left,←,0.5806814000243321,True,15
X032K19,46,experiment,132,↓,down,↓,0.7490605999482796,True,15
X032K19,47,experiment,24,→,right,→,0.5534334999974817,True,15
X032K19,48,experiment,132,↑,down,↓,0.7844054999295622,False,15
X032K19,49,experiment,168,→,right,→,0.6088177999481559,True,15
X032K19,50,experiment,144,↓,down,↓,0.6189322000136599,True,15
X032K19,51,experiment,24,↓,down,↓,0.7367724999785423,True,15
X032K19,52,experiment,132,↑,up,↑,0.6618554999586195,True,15
X032K19,53,experiment,96,↑,up,↑,0.6139669000403956,True,15
X032K19,54,experiment,108,↓,down,↓,0.7115185000002384,True,15
X032K19,55,experiment,180,↓,down,↓,0.7335450999671593,True,15
X032K19,56,experiment,60,←,left,←,0.8089220999972895,True,15
X032K19,57,experiment,180,←,left,←,0.7227358999662101,True,15
X032K19,58,experiment,156,←,right,→,0.8069772999733686,False,15
X032K19,59,experiment,12,←,left,←,0.6881196000613272,True,15
X032K19,60,experiment,108,→,left,←,0.763620600104332,False,15
X032K19,61,experiment,12,←,left,←,0.9343944999855012,True,15
X032K19,62,experiment,24,→,right,→,0.6452884000027552,True,15
X032K19,63,experiment,96,↑,up,↑,0.7362274000188336,True,15
X032K19,64,experiment,72,←,left,←,0.7500384000595659,True,15
X032K19,65,experiment,72,↓,down,↓,0.6013697000453249,True,15
X032K19,66,experiment,156,↑,up,↑,0.8534750998951495,True,15
X032K19,67,experiment,24,→,right,→,0.5682924999855459,True,15
X032K19,68,experiment,96,↓,down,↓,0.7014145000139251,True,15
X032K19,69,experiment,120,↑,up,↑,0.4957592999562621,True,15
X032K19,70,experiment,84,→,right,→,0.6551177999936044,True,15
X032K19,71,experiment,120,→,right,→,0.7516162000829354,True,15
X032K19,72,experiment,156,↓,down,↓,0.822970199980773,True,15
X032K19,73,experiment,12,↑,no_key,no_letter,-1.0,False,15
X032K19,74,experiment,132,↓,down,↓,0.6538052000105381,True,15
X032K19,75,experiment,120,↓,down,↓,0.7012904000002891,True,15
X032K19,76,experiment,84,↑,up,↑,1.2280626000138,True,15
X032K19,77,experiment,180,↓,down,↓,0.8673895000247285,True,15
X032K19,78,experiment,144,←,left,←,0.6403127999510616,True,15
X032K19,79,experiment,72,←,left,←,0.9418091999832541,True,15
X032K19,80,experiment,156,↓,down,↓,0.6266952999867499,True,15
X032K19,81,experiment,168,←,left,←,0.6752814000938088,True,15
X032K19,82,experiment,36,←,left,←,0.719930800027214,True,15
X032K19,83,experiment,36,→,right,→,1.0341605000430718,True,15
X032K19,84,experiment,36,←,no_key,no_letter,-1.0,False,15
X032K19,85,experiment,84,↓,down,↓,0.6064832999836653,True,15
X032K19,86,experiment,96,→,right,→,0.5629943999228999,True,15
X032K19,87,experiment,12,←,left,←,0.6334391999989748,True,15
X032K19,88,experiment,48,←,left,←,0.638161199982278,True,15
X032K19,89,experiment,168,←,left,←,0.65113160002511,True,15
X032K19,90,experiment,36,←,no_key,no_letter,-1.0,False,15
X032K19,91,experiment,60,←,right,→,1.063253799919039,False,15
X032K19,92,experiment,108,←,up,↑,1.253256700001657,False,15
X032K19,93,experiment,120,←,left,←,0.6183806000044569,True,15
X032K19,94,training,48,←,left,←,0.5811324000824243,True,15
X032K19,95,training,48,→,right,→,0.5750472000800073,True,15
X032K19,96,training,96,←,left,←,0.5414975000312552,True,15
X032K19,97,experiment,168,←,left,←,0.49265739996917546,True,15
X032K19,98,experiment,84,↑,up,↑,0.5832207000348717,True,15
X032K19,99,experiment,120,↑,up,↑,0.35059619997628033,True,15
X032K19,100,experiment,48,↓,down,↓,0.650387000059709,True,15
X032K19,101,experiment,60,↑,up,↑,0.4300568999024108,True,15
X032K19,102,experiment,24,↑,up,↑,0.806578200077638,True,15
X032K19,103,experiment,132,←,left,←,0.45360629993956536,True,15
X032K19,104,experiment,36,←,left,←,1.0247512999922037,True,15
X032K19,105,experiment,180,↓,down,↓,0.7416517999954522,True,15
X032K19,106,experiment,120,↓,up,↑,1.5853054999606684,False,15
X032K19,107,experiment,60,↓,down,↓,0.9123325999826193,True,15
X032K19,108,experiment,36,↓,down,↓,0.7174905999563634,True,15
X032K19,109,experiment,108,↓,left,←,0.996607199893333,False,15
X032K19,110,experiment,24,←,left,←,0.607160999905318,True,15
X032K19,111,experiment,108,→,right,→,0.5857171999523416,True,15
X032K19,112,experiment,84,↓,left,←,1.0499897999688983,False,15
X032K19,113,experiment,96,→,right,→,0.6416688000317663,True,15
X032K19,114,experiment,96,↓,down,↓,0.5957737999269739,True,15
X032K19,115,experiment,180,↓,down,↓,0.6730632000835612,True,15
X032K19,116,experiment,12,↓,down,↓,0.5666614000219852,True,15
X032K19,117,experiment,84,↑,up,↑,0.49208450003061444,True,15
X032K19,118,experiment,60,←,left,←,0.4607639000751078,True,15
X032K19,119,experiment,132,←,left,←,0.4187854001065716,True,15
X032K19,120,experiment,12,→,right,→,0.472171499975957,True,15
X032K19,121,experiment,156,↓,down,↓,0.7351447000401095,True,15
X032K19,122,experiment,168,↓,down,↓,0.5973606000188738,True,15
X032K19,123,experiment,72,↓,down,↓,0.4386114999651909,True,15
X032K19,124,experiment,24,→,right,→,0.4782708000857383,True,15
X032K19,125,experiment,144,→,left,←,0.7791941999457777,False,15
X032K19,126,experiment,168,↑,up,↑,0.565856600063853,True,15
X032K19,127,experiment,144,↑,up,↑,0.9193285999353975,True,15
X032K19,128,experiment,132,↑,up,↑,0.44067849998828024,True,15
X032K19,129,experiment,180,←,left,←,0.7496991000371054,True,15
X032K19,130,experiment,72,↓,down,↓,0.6732616999652237,True,15
X032K19,131,experiment,48,→,left,←,0.8393119000829756,False,15
X032K19,132,experiment,144,→,right,→,0.9007677999325097,True,15
X032K19,133,experiment,108,←,left,←,0.5435969000682235,True,15
X032K19,134,experiment,144,↑,up,↑,0.47243389999493957,True,15
X032K19,135,experiment,12,↓,down,↓,0.6125070999842137,True,15
X032K19,136,experiment,168,←,left,←,0.8532479000277817,True,15
X032K19,137,experiment,60,↑,right,→,1.1716240000678226,False,15
X032K19,138,experiment,156,←,left,←,0.5059520999202505,True,15
X032K19,139,experiment,12,↑,up,↑,0.42433469998650253,True,15
X032K19,140,experiment,180,↑,up,↑,0.4361367999808863,True,15
X032K19,141,experiment,84,→,left,←,0.7519207999575883,False,15
X032K19,142,experiment,120,→,right,→,0.6962448001140729,True,15
X032K19,143,experiment,48,←,left,←,0.5144244000548497,True,15
X032K19,144,experiment,36,←,right,→,1.5185810000402853,False,15
X032K19,145,experiment,156,↓,up,↑,1.1928367000073195,False,15
X032K19,146,experiment,108,→,right,→,0.48637029994279146,True,15
X032K19,147,experiment,72,→,right,→,1.148089399910532,True,15
X032K19,148,experiment,72,↓,down,↓,0.6208766999188811,True,15
X032K19,149,experiment,24,←,left,←,0.4846525000175461,True,15
X032K19,150,experiment,132,↓,down,↓,0.788066300097853,True,15
X032K19,151,experiment,156,↑,no_key,no_letter,-1.0,False,15
X032K19,152,experiment,96,↓,down,↓,0.5664222999475896,True,15
X032K19,153,experiment,48,→,right,→,0.4419954000040889,True,15
X032K19,154,experiment,120,↑,up,↑,0.8797141000395641,True,15
X032K19,155,experiment,36,↑,up,↑,0.5001454000594094,True,15
X032K19,156,experiment,96,←,left,←,0.5612303999951109,True,15
X032K19,157,training,108,→,right,→,0.47200249996967614,True,15
X032K19,158,training,36,→,left,←,0.9822076000273228,False,15
X032K19,159,training,84,←,left,←,0.5790470000356436,True,15
X032K19,160,experiment,168,→,left,←,1.11956410005223,False,15
X032K19,161,experiment,96,↑,up,↑,1.501507499953732,True,15
X032K19,162,experiment,144,↓,down,↓,0.7797254000324756,True,15
X032K19,163,experiment,156,←,left,←,0.6170693000312895,True,15
X032K19,164,experiment,120,↓,down,↓,0.7644597999751568,True,15
X032K19,165,experiment,12,←,left,←,0.5619922999758273,True,15
X032K19,166,experiment,48,↓,down,↓,0.5733485999517143,True,15
X032K19,167,experiment,60,↑,down,↓,0.7819276000373065,False,15
X032K19,168,experiment,96,→,right,→,0.510102599975653,True,15
X032K19,169,experiment,108,↑,up,↑,0.4489413999253884,True,15
X032K19,170,experiment,168,↑,left,←,0.8531834000023082,False,15
X032K19,171,experiment,24,→,right,→,0.4666478999424726,True,15
X032K19,172,experiment,120,→,right,→,0.46797989995684475,True,15
X032K19,173,experiment,144,↓,down,↓,1.1328886999981478,True,15
X032K19,174,experiment,156,←,left,←,0.6664242000551894,True,15
X032K19,175,experiment,120,←,left,←,0.6965010999701917,True,15
X032K19,176,experiment,168,↑,up,↑,0.6952493999851868,True,15
X032K19,177,experiment,24,↑,up,↑,1.1301583000458777,True,15
X032K19,178,experiment,180,←,left,←,0.5923106999834999,True,15
X032K19,179,experiment,96,→,right,→,1.5084151000482962,True,15
X032K19,180,experiment,120,→,left,←,1.0710946000181139,False,15
X032K19,181,experiment,24,↓,down,↓,1.0713617999572307,True,15
X032K19,182,experiment,12,←,left,←,0.5075418000342324,True,15
X032K19,183,experiment,36,←,left,←,0.683245399966836,True,15
X032K19,184,experiment,72,←,left,←,0.5383244999684393,True,15
X032K19,185,experiment,168,↑,no_key,no_letter,-1.0,False,15
X032K19,186,experiment,72,←,left,←,0.5378710000077263,True,15
X032K19,187,experiment,24,←,left,←,0.778413699939847,True,15
X032K19,188,experiment,12,→,left,←,0.8833311999915168,False,15
X032K19,189,experiment,48,↓,down,↓,0.6255699000321329,True,15
X032K19,190,experiment,12,→,right,→,0.4233828999567777,True,15
X032K19,191,experiment,84,↓,up,↑,0.6248688000487164,False,15
X032K19,192,experiment,48,↓,right,→,0.8703173999674618,False,15
X032K19,193,experiment,36,↓,down,↓,0.8350514000048861,True,15
X032K19,194,experiment,144,←,left,←,0.4684466999024153,True,15
X032K19,195,experiment,84,→,left,←,0.9007219000486657,False,15
X032K19,196,experiment,156,↓,down,↓,0.7191230000462383,True,15
X032K19,197,experiment,180,→,right,→,0.6488588999491185,True,15
X032K19,198,experiment,180,↑,up,↑,0.4678800000110641,True,15
X032K19,199,experiment,36,→,right,→,0.42902509996201843,True,15
X032K19,200,experiment,96,←,left,←,0.4334858999354765,True,15
X032K19,201,experiment,48,↓,down,↓,0.6471451999386773,True,15
X032K19,202,experiment,144,↑,up,↑,0.3171855000546202,True,15
X032K19,203,experiment,84,←,down,↓,0.3507608000654727,False,15
X032K19,204,experiment,108,↓,down,↓,0.7675339000998065,True,15
X032K19,205,experiment,180,↓,down,↓,0.8362684999592602,True,15
X032K19,206,experiment,156,→,right,→,0.4360216000350192,True,15
X032K19,207,experiment,108,←,left,←,0.4354410000378266,True,15
X032K19,208,experiment,84,↓,down,↓,1.332842400064692,True,15
X032K19,209,experiment,108,←,left,←,0.4798108999384567,True,15
X032K19,210,experiment,36,←,left,←,0.7563204999314621,True,15
X032K19,211,experiment,132,↑,up,↑,0.6610258999280632,True,15
X032K19,212,experiment,60,↓,down,↓,0.876086000003852,True,15
X032K19,213,experiment,132,→,right,→,0.5932690999470651,True,15
X032K19,214,experiment,72,←,left,←,0.5872944999719039,True,15
X032K19,215,experiment,60,→,right,→,0.6352621999103576,True,15
X032K19,216,experiment,132,↓,down,↓,0.6223688999889418,True,15
X032K19,217,experiment,132,↑,up,↑,0.4853218999924138,True,15
X032K19,218,experiment,60,←,left,←,0.764771300018765,True,15
X032K19,219,experiment,72,→,right,→,1.0192966000176966,True,15
X032K19,220,training,120,↑,up,↑,0.5823400999652222,True,15
X032K19,221,training,96,→,right,→,0.46187250001821667,True,15
X032K19,222,training,84,↑,down,↓,0.8766735000535846,False,15
X032K19,223,experiment,156,↑,up,↑,0.48037750006187707,True,15
X032K19,224,experiment,144,↓,down,↓,0.8524456000886858,True,15
X032K19,225,experiment,156,→,right,→,0.584055699990131,True,15
X032K19,226,experiment,168,→,right,→,0.5781273000175133,True,15
X032K19,227,experiment,24,↑,up,↑,0.908750000060536,True,15
X032K19,228,experiment,120,→,right,→,0.4786597000202164,True,15
X032K19,229,experiment,84,↑,up,↑,0.6803564000874758,True,15
X032K19,230,experiment,108,↑,up,↑,0.4232070998987183,True,15
X032K19,231,experiment,36,↑,down,↓,1.4132106999168172,False,15
X032K19,232,experiment,144,→,left,←,0.8664668999845162,False,15
X032K19,233,experiment,120,↑,up,↑,0.9111248999834061,True,15
X032K19,234,experiment,168,←,left,←,0.5335381999611855,True,15
X032K19,235,experiment,108,→,right,→,0.616082499967888,True,15
X032K19,236,experiment,156,→,right,→,0.7372844000346959,True,15
X032K19,237,experiment,48,→,right,→,1.01572209992446,True,15
X032K19,238,experiment,60,→,up,↑,0.9978248999686912,False,15
X032K19,239,experiment,120,↑,up,↑,1.381704100058414,True,15
X032K19,240,experiment,84,↑,up,↑,0.9379116999916732,True,15
X032K19,241,experiment,180,←,left,←,0.5506542000221089,True,15
X032K19,242,experiment,132,↓,down,↓,0.8103714999742806,True,15
X032K19,243,experiment,60,↑,down,↓,0.8013705000048503,False,15
X032K19,244,experiment,96,↑,up,↑,0.7410756999161094,True,15
X032K19,245,experiment,120,→,right,→,0.44534120010212064,True,15
X032K19,246,experiment,24,→,right,→,1.1421793999616057,True,15
X032K19,247,experiment,48,↓,down,↓,0.8098832999821752,True,15
X032K19,248,experiment,84,↑,up,↑,0.45226160006131977,True,15
X032K19,249,experiment,108,←,left,←,0.6469892000313848,True,15
X032K19,250,experiment,48,↑,up,↑,0.43852520000655204,True,15
X032K19,251,experiment,24,↓,down,↓,0.9711000999668613,True,15
X032K19,252,experiment,96,↓,down,↓,0.5983206999953836,True,15
X032K19,253,experiment,132,→,right,→,0.5088432000484318,True,15
X032K19,254,experiment,12,↑,left,←,0.9802191000198945,False,15
X032K19,255,experiment,36,↑,up,↑,0.6010317000327632,True,15
X032K19,256,experiment,72,↓,down,↓,0.645977700012736,True,15
X032K19,257,experiment,72,↓,down,↓,1.5821971000405028,True,15
X032K19,258,experiment,36,↑,up,↑,0.8221066000405699,True,15
X032K19,259,experiment,132,↑,up,↑,0.9113534000935033,True,15
X032K19,260,experiment,132,→,right,→,0.6645983000053093,True,15
X032K19,261,experiment,144,↓,down,↓,0.6010183000471443,True,15
X032K19,262,experiment,72,↓,down,↓,0.6444531999295577,True,15
X032K19,263,experiment,24,↓,down,↓,0.5487493000691757,True,15
X032K19,264,experiment,12,↑,up,↑,0.9140983000397682,True,15
X032K19,265,experiment,84,→,left,←,1.5188318999717012,False,15
X032K19,266,experiment,36,↑,up,↑,0.4527741000056267,True,15
X032K19,267,experiment,12,↓,up,↑,1.1557392000686377,False,15
X032K19,268,experiment,60,←,left,←,0.6592884999699891,True,15
X032K19,269,experiment,144,↓,down,↓,0.566701199975796,True,15
X032K19,270,experiment,96,→,right,→,1.6779462000122294,True,15
X032K19,271,experiment,48,↑,up,↑,0.8392035999568179,True,15
X032K19,272,experiment,60,↓,down,↓,0.5742368999635801,True,15
X032K19,273,experiment,168,↑,up,↑,0.6827636000234634,True,15
X032K19,274,experiment,168,←,left,←,0.615971100050956,True,15
X032K19,275,experiment,156,↑,up,↑,0.694554099929519,True,15
X032K19,276,experiment,180,←,left,←,0.5123170000733808,True,15
X032K19,277,experiment,12,↓,up,↑,1.2871168999699876,False,15
X032K19,278,experiment,180,↓,down,↓,0.6673571000574157,True,15
X032K19,279,experiment,96,↓,down,↓,0.5209968000417575,True,15
X032K19,280,experiment,180,↓,down,↓,0.5933050999883562,True,15
X032K19,281,experiment,72,→,right,→,0.4831639000913128,True,15
X032K19,282,experiment,108,↑,up,↑,0.48265379993245006,True,15
X032K19,283,training,144,←,left,←,0.3841316000325605,True,15
X032K19,284,training,96,←,left,←,0.7177399999927729,True,15
X032K19,285,training,96,→,left,←,0.7989703000057489,False,15
X032K19,286,experiment,120,↑,up,↑,0.43697340006474406,True,15
X032K19,287,experiment,168,↑,up,↑,1.286902999971062,True,15
X032K19,288,experiment,72,→,right,→,0.6434279000386596,True,15
X032K19,289,experiment,132,↓,down,↓,0.6098247000481933,True,15
X032K19,290,experiment,96,→,right,→,0.5077655001077801,True,15
X032K19,291,experiment,60,→,right,→,1.1114927000598982,True,15
X032K19,292,experiment,48,↑,up,↑,0.8907407000660896,True,15
X032K19,293,experiment,72,→,right,→,0.3839498000452295,True,15
X032K19,294,experiment,168,←,left,←,0.5739291999489069,True,15
X032K19,295,experiment,144,↑,down,↓,0.9996651000110433,False,15
X032K19,296,experiment,48,→,left,←,0.8193471000995487,False,15
X032K19,297,experiment,60,↑,up,↑,0.5027803999837488,True,15
X032K19,298,experiment,108,↑,up,↑,0.6984755999874324,True,15
X032K19,299,experiment,108,↑,up,↑,1.183004799997434,True,15
X032K19,300,experiment,84,↑,up,↑,0.3338279000017792,True,15
X032K19,301,experiment,120,←,left,←,0.5056212999625131,True,15
X032K19,302,experiment,168,↑,up,↑,0.7124109000433236,True,15
X032K19,303,experiment,24,←,left,←,0.6053356999764219,True,15
X032K19,304,experiment,36,→,right,→,0.4464563000947237,True,15
X032K19,305,experiment,180,↓,down,↓,0.7234499000478536,True,15
X032K19,306,experiment,120,→,right,→,1.160831999965012,True,15
X032K19,307,experiment,36,↓,down,↓,0.5545978000154719,True,15
X032K19,308,experiment,144,↑,up,↑,0.5996541000204161,True,15
X032K19,309,experiment,72,←,left,←,0.7408473000396043,True,15
X032K19,310,experiment,156,↓,down,↓,0.9362765001133084,True,15
X032K19,311,experiment,84,↓,down,↓,0.9355780000332743,True,15
X032K19,312,experiment,60,↓,down,↓,0.6850864000152797,True,15
X032K19,313,experiment,24,←,left,←,0.772519399994053,True,15
X032K19,314,experiment,156,↓,down,↓,0.6131264000432566,True,15
X032K19,315,experiment,24,↑,up,↑,0.5229357000207528,True,15
X032K19,316,experiment,24,←,left,←,0.5060415000189096,True,15
X032K19,317,experiment,132,↑,no_key,no_letter,-1.0,False,15
X032K19,318,experiment,72,←,left,←,0.6595724000362679,True,15
X032K19,319,experiment,144,↑,up,↑,0.7598276000935584,True,15
X032K19,320,experiment,144,→,right,→,0.6797072999179363,True,15
X032K19,321,experiment,120,↑,up,↑,0.5716276000021026,True,15
X032K19,322,experiment,12,←,left,←,0.883860299945809,True,15
X032K19,323,experiment,36,↑,up,↑,0.5400251999963075,True,15
X032K19,324,experiment,132,→,right,→,0.7138387999730185,True,15
X032K19,325,experiment,108,→,right,→,0.7947582000633702,True,15
X032K19,326,experiment,96,↓,down,↓,0.7649537000106648,True,15
X032K19,327,experiment,168,↑,up,↑,0.47764910000842065,True,15
X032K19,328,experiment,48,←,right,→,1.2789215999655426,False,15
X032K19,329,experiment,12,↓,down,↓,0.6622366999508813,True,15
X032K19,330,experiment,180,↓,up,↑,0.8581931999651715,False,15
X032K19,331,experiment,180,↓,down,↓,0.5464964000275359,True,15
X032K19,332,experiment,12,↑,down,↓,0.9877553000114858,False,15
X032K19,333,experiment,96,→,right,→,0.459911199985072,True,15
X032K19,334,experiment,60,↓,down,↓,0.5207305999938399,True,15
X032K19,335,experiment,12,←,left,←,0.8307774000568315,True,15
X032K19,336,experiment,156,↓,down,↓,0.5625656000338495,True,15
X032K19,337,experiment,36,→,right,→,0.5603250999702141,True,15
X032K19,338,experiment,180,↑,down,↓,1.6323249000124633,False,15
X032K19,339,experiment,84,↑,up,↑,0.42185739998240024,True,15
X032K19,340,experiment,156,↓,down,↓,0.5681146000279114,True,15
X032K19,341,experiment,48,←,left,←,0.5703310000244528,True,15
X032K19,342,experiment,132,→,right,→,0.47903039993252605,True,15
X032K19,343,experiment,96,↑,left,←,0.7593914000317454,False,15
X032K19,344,experiment,84,←,left,←,0.6800315999425948,True,15
X032K19,345,experiment,108,←,left,←,0.4737863999325782,True,15
X032K19,346,training,144,←,left,←,0.4729861000087112,True,15
X032K19,347,training,72,↑,up,↑,0.6759555999888107,True,15
X032K19,348,training,12,←,down,↓,0.9164265000727028,False,15
X032K19,349,experiment,12,←,left,←,0.6565097999991849,True,15
X032K19,350,experiment,168,↑,up,↑,0.7381241000257432,True,15
X032K19,351,experiment,48,↑,up,↑,0.4498219999950379,True,15
X032K19,352,experiment,12,↑,down,↓,0.9740106000099331,False,15
X032K19,353,experiment,12,↓,up,↑,0.5752871000440791,False,15
X032K19,354,experiment,36,←,left,←,0.5795652000233531,True,15
X032K19,355,experiment,168,→,right,→,0.5638275999808684,True,15
X032K19,356,experiment,84,←,left,←,0.6556352999759838,True,15
X032K19,357,experiment,48,↓,down,↓,0.7680500000715256,True,15
X032K19,358,experiment,72,↓,down,↓,1.0903918999247253,True,15
X032K19,359,experiment,120,↑,up,↑,0.4608535999432206,True,15
X032K19,360,experiment,156,→,right,→,1.136880400008522,True,15
X032K19,361,experiment,96,↓,down,↓,0.6301886999281123,True,15
X032K19,362,experiment,120,←,left,←,0.5371632999740541,True,15
X032K19,363,experiment,120,←,left,←,0.7618629999924451,True,15
X032K19,364,experiment,132,→,right,→,0.3674802000168711,True,15
X032K19,365,experiment,180,←,left,←,0.45479220000561327,True,15
X032K19,366,experiment,132,↑,down,↓,0.8369243999477476,False,15
X032K19,367,experiment,108,↑,up,↑,0.8170363999670371,True,15
X032K19,368,experiment,180,←,left,←,0.6529854000546038,True,15
X032K19,369,experiment,144,←,left,←,1.379594299942255,True,15
X032K19,370,experiment,48,←,left,←,0.4321132000768557,True,15
X032K19,371,experiment,96,↑,up,↑,1.094935500063002,True,15
X032K19,372,experiment,168,→,right,→,1.0045311999274418,True,15
X032K19,373,experiment,72,→,right,→,0.6028491000179201,True,15
X032K19,374,experiment,96,↓,down,↓,0.7631629999959841,True,15
X032K19,375,experiment,72,←,up,↑,0.8013622000580654,False,15
X032K19,376,experiment,48,→,right,→,0.625711900065653,True,15
X032K19,377,experiment,36,←,right,→,0.9374997999984771,False,15
X032K19,378,experiment,108,→,right,→,0.3671176000498235,True,15
X032K19,379,experiment,96,←,left,←,0.6043896999908611,True,15
X032K19,380,experiment,24,↓,down,↓,0.5978416999569163,True,15
X032K19,381,experiment,36,↑,down,↓,0.7035621999530122,False,15
X032K19,382,experiment,180,↑,up,↑,0.6381988999200985,True,15
X032K19,383,experiment,144,→,right,→,0.5512602999806404,True,15
X032K19,384,experiment,84,↓,down,↓,0.7665770999155939,True,15
X032K19,385,experiment,84,→,right,→,1.1843947999877855,True,15
X032K19,386,experiment,156,↑,down,↓,1.100114000029862,False,15
X032K19,387,experiment,180,↑,up,↑,0.8118018000386655,True,15
X032K19,388,experiment,144,→,right,→,0.6246894999640062,True,15
X032K19,389,experiment,60,←,left,←,0.44843960006255656,True,15
X032K19,390,experiment,84,↑,up,↑,0.7867216999875382,True,15
X032K19,391,experiment,36,↓,down,↓,0.7123332000337541,True,15
X032K19,392,experiment,60,↓,down,↓,0.47500020009465516,True,15
X032K19,393,experiment,60,↓,down,↓,0.5225683000171557,True,15
X032K19,394,experiment,168,→,right,→,0.6150187000166625,True,15
X032K19,395,experiment,120,↓,down,↓,0.5541675999993458,True,15
X032K19,396,experiment,156,↓,down,↓,0.686850200057961,True,15
X032K19,397,experiment,132,←,left,←,0.7824622000334784,True,15
X032K19,398,experiment,156,←,left,←,0.6861869000131264,True,15
X032K19,399,experiment,12,↑,up,↑,0.6493353000842035,True,15
X032K19,400,experiment,72,↑,down,↓,1.0818222999805585,False,15
X032K19,401,experiment,24,↓,down,↓,0.5148982000537217,True,15
X032K19,402,experiment,108,←,left,←,0.5606991000240669,True,15
X032K19,403,experiment,132,←,left,←,0.5253297999734059,True,15
X032K19,404,experiment,60,→,right,→,0.6598511999472976,True,15
X032K19,405,experiment,108,←,left,←,0.5734088000608608,True,15
X032K19,406,experiment,24,↑,up,↑,0.6721630999818444,True,15
X032K19,407,experiment,144,↓,down,↓,0.5803354999516159,True,15
X032K19,408,experiment,24,←,left,←,0.6567790999542922,True,15
X032K19,409,training,96,→,left,←,0.5992473999504,False,15
X032K19,410,training,156,↑,up,↑,0.4691262000706047,True,15
X032K19,411,training,36,↑,up,↑,0.3504010000033304,True,15
X032K19,412,experiment,60,↑,up,↑,0.33403939998243004,True,15
X032K19,413,experiment,96,←,left,←,0.5804606999736279,True,15
X032K19,414,experiment,120,↓,down,↓,0.5365208999719471,True,15
X032K19,415,experiment,36,↓,down,↓,0.9158500001067296,True,15
X032K19,416,experiment,84,→,right,→,0.4203553000697866,True,15
X032K19,417,experiment,144,↑,up,↑,0.6567989999894053,True,15
X032K19,418,experiment,120,↑,up,↑,0.38414139999076724,True,15
X032K19,419,experiment,12,←,up,↑,1.246408800012432,False,15
X032K19,420,experiment,108,←,left,←,1.097059299936518,True,15
X032K19,421,experiment,72,←,left,←,0.5404253000160679,True,15
X032K19,422,experiment,84,←,left,←,0.48367520002648234,True,15
X032K19,423,experiment,72,→,right,→,0.6213387000607327,True,15
X032K19,424,experiment,48,↓,down,↓,0.8078350001014769,True,15
X032K19,425,experiment,132,↑,up,↑,0.6643991998862475,True,15
X032K19,426,experiment,108,→,right,→,1.000839599990286,True,15
X032K19,427,experiment,168,↓,down,↓,0.6972936000674963,True,15
X032K19,428,experiment,180,←,up,↑,1.0497313999803737,False,15
X032K19,429,experiment,36,→,right,→,0.44225900003220886,True,15
X032K19,430,experiment,72,←,left,←,0.7312246999936178,True,15
X032K19,431,experiment,180,←,left,←,0.6848070999840274,True,15
X032K19,432,experiment,48,↓,down,↓,0.7305171000771224,True,15
X032K19,433,experiment,60,←,left,←,0.6651535999262705,True,15
X032K19,434,experiment,48,↓,down,↓,0.581776500097476,True,15
X032K19,435,experiment,168,→,right,→,1.0220992000540718,True,15
X032K19,436,experiment,168,←,left,←,0.47844049998093396,True,15
X032K19,437,experiment,180,→,right,→,0.42132199998013675,True,15
X032K19,438,experiment,156,→,right,→,0.5066441000672057,True,15
X032K19,439,experiment,36,→,right,→,0.6114593999227509,True,15
X032K19,440,experiment,144,↓,down,↓,0.7285756999626756,True,15
X032K19,441,experiment,156,→,right,→,1.1095400999765843,True,15
X032K19,442,experiment,132,↓,down,↓,0.7533038000110537,True,15
X032K19,443,experiment,120,→,right,→,0.6460686998907477,True,15
X032K19,444,experiment,48,→,right,→,0.44659380009397864,True,15
X032K19,445,experiment,12,←,left,←,0.5070513999089599,True,15
X032K19,446,experiment,24,→,right,→,1.2982644999865443,True,15
X032K19,447,experiment,96,↑,down,↓,0.8569747000001371,False,15
X032K19,448,experiment,12,←,left,←,0.5794560000067577,True,15
X032K19,449,experiment,144,→,right,→,0.5693640999961644,True,15
X032K19,450,experiment,24,→,right,→,0.4541947999969125,True,15
X032K19,451,experiment,108,↑,up,↑,0.6204610998975113,True,15
X032K19,452,experiment,84,→,right,→,0.5407611000118777,True,15
X032K19,453,experiment,60,↑,up,↑,0.43140899995341897,True,15
X032K19,454,experiment,96,←,left,←,0.4331537999678403,True,15
X032K19,455,experiment,144,←,left,←,0.5211736999917775,True,15
X032K19,456,experiment,168,↑,up,↑,0.43752819998189807,True,15
X032K19,457,experiment,60,←,left,←,0.48172439995687455,True,15
X032K19,458,experiment,96,↑,up,↑,0.5581089000916108,True,15
X032K19,459,experiment,36,↓,down,↓,0.7553121999371797,True,15
X032K19,460,experiment,132,←,left,←,0.5709805000806227,True,15
X032K19,461,experiment,180,↑,down,↓,0.8140534999547526,False,15
X032K19,462,experiment,108,→,right,→,1.2184207999380305,True,15
X032K19,463,experiment,72,←,left,←,0.450485699926503,True,15
X032K19,464,experiment,84,↑,up,↑,0.6875525000505149,True,15
X032K19,465,experiment,156,→,right,→,0.43436989991459996,True,15
X032K19,466,experiment,156,↓,down,↓,0.9017294000368565,True,15
X032K19,467,experiment,132,←,left,←,0.5253156999824569,True,15
X032K19,468,experiment,24,↑,up,↑,0.7876455000368878,True,15
X032K19,469,experiment,24,↓,down,↓,0.6552023999392986,True,15
X032K19,470,experiment,12,↑,up,↑,0.5975923999212682,True,15
X032K19,471,experiment,120,↓,down,↓,0.5309316000202671,True,15
X032K19,472,training,60,←,left,←,0.6358163999393582,True,14
X032K19,473,training,156,↑,down,↓,0.5971810999326408,False,14
X032K19,474,training,156,←,left,←,0.46334440005011857,True,14
X032K19,475,experiment,12,←,left,←,0.44766529998742044,True,14
X032K19,476,experiment,108,→,right,→,0.4095402000239119,True,14
X032K19,477,experiment,84,→,right,→,0.40373739995993674,True,14
X032K19,478,experiment,48,↓,down,↓,0.6955039000604302,True,14
X032K19,479,experiment,168,→,right,→,1.0684435999719426,True,14
X032K19,480,experiment,12,→,right,→,0.6679306000005454,True,14
X032K19,481,experiment,144,←,left,←,0.6395463000517339,True,14
X032K19,482,experiment,168,↑,up,↑,0.6649935999885201,True,14
X032K19,483,experiment,108,←,left,←,0.6160840999800712,True,14
X032K19,484,experiment,144,↑,up,↑,1.0827438000123948,True,14
X032K19,485,experiment,84,→,right,→,0.9041872998932377,True,14
X032K19,486,experiment,156,↑,up,↑,0.46300430002156645,True,14
X032K19,487,experiment,84,↓,up,↑,0.6355213999049738,False,14
X032K19,488,experiment,180,→,left,←,0.7359653000021353,False,14
X032K19,489,experiment,96,↑,up,↑,0.5185004000086337,True,14
X032K19,490,experiment,120,←,left,←,0.6637209999607876,True,14
X032K19,491,experiment,144,↓,down,↓,0.7078765999758616,True,14
X032K19,492,experiment,120,↑,down,↓,0.618007600074634,False,14
X032K19,493,experiment,180,↓,down,↓,0.6374243000755087,True,14
X032K19,494,experiment,108,↓,down,↓,0.8179536999668926,True,14
X032K19,495,experiment,24,↓,down,↓,0.6450680000707507,True,14
X032K19,496,experiment,24,↑,up,↑,0.7670129999751225,True,14
X032K19,497,experiment,120,↑,up,↑,0.42730720003601164,True,14
X032K19,498,experiment,48,↓,down,↓,0.6202712000813335,True,14
X032K19,499,experiment,24,←,left,←,0.4483392999973148,True,14
X032K19,500,experiment,60,→,left,←,0.623663300066255,False,14
X032K19,501,experiment,72,→,left,←,0.7403303000610322,False,14
X032K19,502,experiment,72,↓,down,↓,0.7972317000385374,True,14
X032K19,503,experiment,132,→,right,→,0.4430742000695318,True,14
X032K19,504,experiment,144,↑,up,↑,1.2834170999703929,True,14
X032K19,505,experiment,12,←,left,←,0.4367558000376448,True,14
X032K19,506,experiment,180,↓,down,↓,0.5790828999597579,True,14
X032K19,507,experiment,72,↓,down,↓,0.8027671000454575,True,14
X032K19,508,experiment,48,↓,up,↑,0.8852727999910712,False,14
X032K19,509,experiment,60,→,right,→,0.6256419999990612,True,14
X032K19,510,experiment,60,→,right,→,0.6600403999909759,True,14
X032K19,511,experiment,36,↑,up,↑,0.5157960000215098,True,14
X032K19,512,experiment,36,↑,up,↑,0.4433179999468848,True,14
X032K19,513,experiment,60,↑,up,↑,1.049544799956493,True,14
X032K19,514,experiment,132,→,left,←,0.7709461000049487,False,14
X032K19,515,experiment,72,←,left,←,0.6999333000276238,True,14
X032K19,516,experiment,24,→,left,←,0.8966976000228897,False,14
X032K19,517,experiment,12,←,left,←,1.3248574000317603,True,14
X032K19,518,experiment,168,↑,up,↑,0.9965718999737874,True,14
X032K19,519,experiment,120,→,right,→,0.6399158999556676,True,14
X032K19,520,experiment,132,↓,down,↓,0.8537330999970436,True,14
X032K19,521,experiment,168,→,right,→,0.6004468000028282,True,14
X032K19,522,experiment,36,↑,up,↑,0.6102809999138117,True,14
X032K19,523,experiment,156,↑,up,↑,0.5435474999248981,True,14
X032K19,524,experiment,84,↑,down,↓,0.8014784000115469,False,14
X032K19,525,experiment,48,←,left,←,0.6039191000163555,True,14
X032K19,526,experiment,36,←,left,←,0.6267986999591812,True,14
X032K19,527,experiment,156,↑,up,↑,0.4176130999112502,True,14
X032K19,528,experiment,180,→,right,→,0.5639210999943316,True,14
X032K19,529,experiment,96,→,right,→,0.8656200000550598,True,14
X032K19,530,experiment,96,↑,up,↑,0.549776199972257,True,14
X032K19,531,experiment,108,↑,up,↑,1.0152908999007195,True,14
X032K19,532,experiment,132,↑,up,↑,0.5350190999452025,True,14
X032K19,533,experiment,96,↓,down,↓,0.6286726000253111,True,14
X032K19,534,experiment,156,←,left,←,0.49123809998854995,True,14
X032K19,535,training,12,←,left,←,1.0721022000070661,True,14
X032K19,536,training,156,→,left,←,0.6482388000003994,False,14
X032K19,537,training,108,↑,left,←,0.6701683999272063,False,14
X032K19,538,experiment,108,→,right,→,0.617347399936989,True,14
X032K19,539,experiment,156,↑,up,↑,0.618093799916096,True,14
X032K19,540,experiment,108,↑,up,↑,0.420664899982512,True,14
X032K19,541,experiment,24,↓,down,↓,0.6894988999702036,True,14
X032K19,542,experiment,12,←,left,←,0.4909766000928357,True,14
X032K19,543,experiment,96,→,right,→,1.149612299981527,True,14
X032K19,544,experiment,48,↑,up,↑,1.1090541000012308,True,14
X032K19,545,experiment,36,↑,up,↑,0.4401565999723971,True,14
X032K19,546,experiment,60,←,down,↓,0.9084573000436649,False,14
X032K19,547,experiment,180,↑,up,↑,0.4016777001088485,True,14
X032K19,548,experiment,48,←,left,←,0.6062977999681607,True,14
X032K19,549,experiment,168,→,right,→,0.47200800001155585,True,14
X032K19,550,experiment,132,←,left,←,0.6976151999551803,True,14
X032K19,551,experiment,24,→,left,←,0.7495987000875175,False,14
X032K19,552,experiment,72,←,left,←,0.3674464999930933,True,14
X032K19,553,experiment,120,→,right,→,0.5757122000213712,True,14
X032K19,554,experiment,120,↓,down,↓,0.6059342999942601,True,14
X032K19,555,experiment,120,↑,up,↑,0.49657349998597056,True,14
X032K19,556,experiment,36,↓,down,↓,0.4738845999818295,True,14
X032K19,557,experiment,48,↓,down,↓,0.706164599978365,True,14
X032K19,558,experiment,60,↑,up,↑,1.0532817000057548,True,14
X032K19,559,experiment,36,→,right,→,0.5644409999949858,True,14
X032K19,560,experiment,132,↑,right,→,0.8590362999821082,False,14
X032K19,561,experiment,12,←,left,←,0.5913993999129161,True,14
X032K19,562,experiment,108,←,left,←,0.571258999989368,True,14
X032K19,563,experiment,96,←,left,←,0.5675096999621019,True,14
X032K19,564,experiment,144,↑,left,←,0.8707153999712318,False,14
X032K19,565,experiment,144,→,left,←,0.64426850003656,False,14
X032K19,566,experiment,156,↓,down,↓,0.7021407999563962,True,14
X032K19,567,experiment,168,←,left,←,0.6475701000308618,True,14
X032K19,568,experiment,84,↓,down,↓,0.6872648999560624,True,14
X032K19,569,experiment,144,↓,down,↓,0.5498174999374896,True,14
X032K19,570,experiment,132,←,left,←,0.6117251999676228,True,14
X032K19,571,experiment,60,↑,up,↑,0.6212432000320405,True,14
X032K19,572,experiment,96,→,right,→,0.4372546999948099,True,14
X032K19,573,experiment,144,→,right,→,0.45904099999461323,True,14
X032K19,574,experiment,72,←,left,←,0.4752708999440074,True,14
X032K19,575,experiment,180,↑,down,↓,0.8113637999631464,False,14
X032K19,576,experiment,12,↓,down,↓,0.5476297999266535,True,14
X032K19,577,experiment,132,↓,down,↓,0.6712700000498444,True,14
X032K19,578,experiment,60,↑,up,↑,1.173398100072518,True,14
X032K19,579,experiment,180,↑,down,↓,0.7175511999521405,False,14
X032K19,580,experiment,156,↑,up,↑,0.5399519000202417,True,14
X032K19,581,experiment,72,↓,down,↓,0.714000100037083,True,14
X032K19,582,experiment,96,↓,down,↓,0.40521500003524125,True,14
X032K19,583,experiment,180,↑,up,↑,0.5857129999203607,True,14
X032K19,584,experiment,84,↑,down,↓,0.8637083999346942,False,14
X032K19,585,experiment,156,→,right,→,0.47030289995018393,True,14
X032K19,586,experiment,24,↓,down,↓,0.45761730009689927,True,14
X032K19,587,experiment,108,→,right,→,1.1181238000281155,True,14
X032K19,588,experiment,12,←,left,←,0.581183800008148,True,14
X032K19,589,experiment,84,↓,down,↓,0.5572397999931127,True,14
X032K19,590,experiment,120,←,right,→,0.6270055000204593,False,14
X032K19,591,experiment,36,↓,down,↓,0.41759699990507215,True,14
X032K19,592,experiment,48,←,left,←,0.7468060000101104,True,14
X032K19,593,experiment,84,←,right,→,0.6674760000314564,False,14
X032K19,594,experiment,168,↑,right,→,0.9324831999838352,False,14
X032K19,595,experiment,168,↑,up,↑,0.8717830999521539,True,14
X032K19,596,experiment,72,↑,up,↑,0.44379499997012317,True,14
X032K19,597,experiment,24,↑,up,↑,0.7749734999379143,True,14
X032K19,598,training,72,←,left,←,0.613393499981612,True,14
X032K19,599,training,60,←,right,→,0.3670636999886483,False,14
X032K19,600,training,96,↑,up,↑,0.4019907999318093,True,14
X032K19,601,experiment,60,←,left,←,1.1599998000310734,True,14
X032K19,602,experiment,132,↓,down,↓,0.40965899999719113,True,14
X032K19,603,experiment,108,→,left,←,0.7327608000487089,False,14
X032K19,604,experiment,156,←,left,←,0.5736283999867737,True,14
X032K19,605,experiment,72,←,left,←,0.952689400059171,True,14
X032K19,606,experiment,132,↑,left,←,0.6887984999921173,False,14
X032K19,607,experiment,48,←,left,←,0.7018108000047505,True,14
X032K19,608,experiment,84,↑,left,←,1.2786720999283716,False,14
X032K19,609,experiment,72,↓,down,↓,0.7797956999856979,True,14
X032K19,610,experiment,36,↑,down,↓,0.6815818999893963,False,14
X032K19,611,experiment,120,↑,up,↑,0.6350957999238744,True,14
X032K19,612,experiment,24,←,left,←,0.5266510000219569,True,14
X032K19,613,experiment,96,↑,no_key,no_letter,-1.0,False,14
X032K19,614,experiment,72,←,left,←,0.4871763000264764,True,14
X032K19,615,experiment,168,↑,up,↑,0.5607022999320179,True,14
X032K19,616,experiment,108,←,left,←,0.5223050001077354,True,14
X032K19,617,experiment,120,→,right,→,0.4813561000628397,True,14
X032K19,618,experiment,108,↓,down,↓,0.5688621000153944,True,14
X032K19,619,experiment,24,↑,down,↓,0.9642695999937132,False,14
X032K19,620,experiment,120,↓,down,↓,0.6295434000203386,True,14
X032K19,621,experiment,96,→,right,→,0.762847000034526,True,14
X032K19,622,experiment,156,↓,up,↑,0.9505647999467328,False,14
X032K19,623,experiment,144,↓,down,↓,0.6701962000224739,True,14
X032K19,624,experiment,96,←,right,→,0.7392277999315411,False,14
X032K19,625,experiment,24,→,right,→,0.4571858000708744,True,14
X032K19,626,experiment,36,↑,down,↓,0.8725034000817686,False,14
X032K19,627,experiment,132,→,right,→,0.6277985000051558,True,14
X032K19,628,experiment,12,↑,down,↓,0.852221000008285,False,14
X032K19,629,experiment,84,←,left,←,0.4713897999608889,True,14
X032K19,630,experiment,108,↓,down,↓,0.6320613001007587,True,14
X032K19,631,experiment,120,↓,down,↓,0.6875715999631211,True,14
X032K19,632,experiment,60,→,right,→,0.5307425999781117,True,14
X032K19,633,experiment,144,←,left,←,0.718896699952893,True,14
X032K19,634,experiment,168,↓,down,↓,0.526244799955748,True,14
X032K19,635,experiment,60,←,left,←,0.5217527999775484,True,14
X032K19,636,experiment,36,←,left,←,0.5115162999136373,True,14
X032K19,637,experiment,168,↓,down,↓,0.5791759000858292,True,14
X032K19,638,experiment,12,↑,down,↓,0.4769116999814287,False,14
X032K19,639,experiment,180,↑,up,↑,0.7278700000606477,True,14
X032K19,640,experiment,84,←,down,↓,0.7261200998909771,False,14
X032K19,641,experiment,24,↓,down,↓,0.4359520999714732,True,14
X032K19,642,experiment,144,↑,up,↑,1.0901090999832377,True,14
X032K19,643,experiment,36,←,left,←,0.48143089993391186,True,14
X032K19,644,experiment,168,→,right,→,0.3511216000188142,True,14
X032K19,645,experiment,60,←,left,←,0.6317659999476746,True,14
X032K19,646,experiment,48,→,right,→,0.8595072999596596,True,14
X032K19,647,experiment,180,↓,down,↓,0.41730179998558015,True,14
X032K19,648,experiment,12,↓,down,↓,0.7681681999238208,True,14
X032K19,649,experiment,180,↓,down,↓,0.5824413999216631,True,14
X032K19,650,experiment,156,←,left,←,0.48432160005904734,True,14
X032K19,651,experiment,132,←,left,←,0.44064049993176013,True,14
X032K19,652,experiment,156,↑,left,←,0.7615510999457911,False,14
X032K19,653,experiment,96,↑,up,↑,0.7962582000764087,True,14
X032K19,654,experiment,12,↓,down,↓,0.674439600086771,True,14
X032K19,655,experiment,180,↑,up,↑,1.0117508999537677,True,14
X032K19,656,experiment,48,→,right,→,0.8187684000004083,True,14
X032K19,657,experiment,72,→,right,→,1.0075310999527574,True,14
X032K19,658,experiment,144,←,left,←,0.5357736999867484,True,14
X032K19,659,experiment,84,←,left,←,0.6569122000364587,True,14
X032K19,660,experiment,48,↓,up,↑,0.9002319999272004,False,14
X032K19,661,training,108,←,left,←,0.608816200052388,True,14
X032K19,662,training,132,←,left,←,0.6088350000791252,True,14
X032K19,663,training,84,↓,down,↓,0.5569884000578895,True,14
X032K19,664,experiment,156,↑,up,↑,0.5026321999030188,True,14
X032K19,665,experiment,144,↑,up,↑,0.6516997999278829,True,14
X032K19,666,experiment,96,↑,up,↑,0.6289151000091806,True,14
X032K19,667,experiment,132,→,right,→,0.47751209989655763,True,14
X032K19,668,experiment,120,↓,down,↓,0.7216090000001714,True,14
X032K19,669,experiment,72,←,left,←,1.0102618999080732,True,14
X032K19,670,experiment,180,↓,up,↑,0.8836354999803007,False,14
X032K19,671,experiment,168,→,right,→,0.7094998999964446,True,14
X032K19,672,experiment,96,↑,up,↑,0.5491909999400377,True,14
X032K19,673,experiment,180,←,left,←,0.4667104999534786,True,14
X032K19,674,experiment,36,→,left,←,0.6428865999914706,False,14
X032K19,675,experiment,96,←,left,←,0.4524141999427229,True,14
X032K19,676,experiment,180,→,right,→,0.6366812000051141,True,14
X032K19,677,experiment,168,←,left,←,0.5726271999301389,True,14
X032K19,678,experiment,108,↑,up,↑,0.5106065000873059,True,14
X032K19,679,experiment,72,↓,down,↓,0.4331929999170825,True,14
X032K19,680,experiment,24,↑,down,↓,0.6749612999847159,False,14
X032K19,681,experiment,120,↑,up,↑,0.5789750999538228,True,14
X032K19,682,experiment,132,↑,right,→,0.9982824000762776,False,14
X032K19,683,experiment,120,↓,down,↓,0.7538893999299034,True,14
X032K19,684,experiment,108,↑,up,↑,0.4489078000187874,True,14
X032K19,685,experiment,156,↓,down,↓,0.7491623999085277,True,14
X032K19,686,experiment,48,↓,up,↑,0.6257335999980569,False,14
X032K19,687,experiment,36,↑,up,↑,0.5953359000850469,True,14
X032K19,688,experiment,12,←,left,←,0.5997375999577343,True,14
X032K19,689,experiment,84,↑,up,↑,0.7556368000805378,True,14
X032K19,690,experiment,48,→,right,→,0.42374080000445247,True,14
X032K19,691,experiment,60,←,left,←,0.43985710002016276,True,14
X032K19,692,experiment,24,↑,up,↑,0.8529754000483081,True,14
X032K19,693,experiment,108,→,right,→,0.6269492999417707,True,14
X032K19,694,experiment,72,↓,up,↑,0.8237551000202075,False,14
X032K19,695,experiment,156,→,right,→,0.4089791999431327,True,14
X032K19,696,experiment,60,↑,up,↑,0.48446210008114576,True,14
X032K19,697,experiment,168,↓,down,↓,0.525394199998118,True,14
X032K19,698,experiment,48,↓,down,↓,0.7175143000204116,True,14
X032K19,699,experiment,120,↓,up,↑,0.6150663000298664,False,14
X032K19,700,experiment,72,↓,down,↓,0.5156948000658303,True,14
X032K19,701,experiment,84,↑,down,↓,0.5267056999728084,False,14
X032K19,702,experiment,144,↑,up,↑,0.8657835000194609,True,14
X032K19,703,experiment,144,↑,right,→,1.3168399999849498,False,14
X032K19,704,experiment,12,←,left,←,0.4954326000297442,True,14
X032K19,705,experiment,132,→,right,→,0.6809133000206202,True,14
X032K19,706,experiment,24,←,left,←,0.611140999943018,True,14
X032K19,707,experiment,24,←,left,←,0.4353513000532985,True,14
X032K19,708,experiment,108,←,left,←,0.6058201999403536,True,14
X032K19,709,experiment,180,↑,up,↑,0.6236323999473825,True,14
X032K19,710,experiment,60,←,left,←,0.5365760999266058,True,14
X032K19,711,experiment,12,←,left,←,0.6271303000394255,True,14
X032K19,712,experiment,156,↓,down,↓,0.6726609000470489,True,14
X032K19,713,experiment,36,←,left,←,0.748910800088197,True,14
X032K19,714,experiment,36,→,right,→,0.5973811000585556,True,14
X032K19,715,experiment,144,←,left,←,0.4806245000800118,True,14
X032K19,716,experiment,132,↓,down,↓,0.694313200074248,True,14
X032K19,717,experiment,84,→,right,→,0.40815849998034537,True,14
X032K19,718,experiment,84,↑,up,↑,1.1122072000289336,True,14
X032K19,719,experiment,168,↑,up,↑,0.63149619998876,True,14
X032K19,720,experiment,48,↑,up,↑,0.5448481999337673,True,14
X032K19,721,experiment,12,↑,up,↑,0.4676525000249967,True,14
X032K19,722,experiment,96,←,left,←,1.2947355000069365,True,14
X032K19,723,experiment,60,↑,up,↑,0.5809560000197962,True,14
X032K19,724,training,96,←,left,←,0.4207541999639943,True,14
X032K19,725,training,12,↑,left,←,0.6761813999619335,False,14
X032K19,726,training,108,↓,down,↓,0.5433937999187037,True,14
X032K19,727,experiment,84,→,right,→,0.5991085999412462,True,14
X032K19,728,experiment,144,→,right,→,0.36701829999219626,True,14
X032K19,729,experiment,156,←,left,←,0.45059719996061176,True,14
X032K19,730,experiment,168,→,right,→,0.4318511999445036,True,14
X032K19,731,experiment,144,→,right,→,0.4578517999034375,True,14
X032K19,732,experiment,132,↑,up,↑,0.40487910003867,True,14
X032K19,733,experiment,144,↑,up,↑,0.44204270001500845,True,14
X032K19,734,experiment,120,↓,left,←,0.7935040999436751,False,14
X032K19,735,experiment,108,→,right,→,0.8510808000573888,True,14
X032K19,736,experiment,180,→,right,→,0.4441281999461353,True,14
X032K19,737,experiment,72,→,right,→,0.7177984999725595,True,14
X032K19,738,experiment,48,↓,down,↓,0.626111000077799,True,14
X032K19,739,experiment,84,↑,up,↑,0.9650446000741795,True,14
X032K19,740,experiment,72,→,left,←,0.765366300009191,False,14
X032K19,741,experiment,108,↑,down,↓,1.1700110000092536,False,14
X032K19,742,experiment,12,←,left,←,0.7544008999830112,True,14
X032K19,743,experiment,48,→,up,↑,0.574761199997738,False,14
X032K19,744,experiment,12,↓,down,↓,0.7280082000652328,True,14
X032K19,745,experiment,168,↓,down,↓,0.6342383000301197,True,14
X032K19,746,experiment,72,←,left,←,0.4752915999852121,True,14
X032K19,747,experiment,96,↓,down,↓,0.5973062000703067,True,14
X032K19,748,experiment,60,↓,down,↓,0.5439805999631062,True,14
X032K19,749,experiment,96,↑,up,↑,0.4654747999738902,True,14
X032K19,750,experiment,24,←,left,←,1.46312960004434,True,14
X032K19,751,experiment,72,←,left,←,0.5687909000553191,True,14
X032K19,752,experiment,24,↓,down,↓,0.9566964999539778,True,14
X032K19,753,experiment,24,↑,down,↓,0.6259089999366552,False,14
X032K19,754,experiment,108,↓,down,↓,0.43589099997188896,True,14
X032K19,755,experiment,60,←,left,←,0.4499811000423506,True,14
X032K19,756,experiment,60,↑,left,←,0.46834499994292855,False,14
X032K19,757,experiment,36,→,down,↓,0.3343588999705389,False,14
X032K19,758,experiment,132,←,left,←,0.461313399951905,True,14
X032K19,759,experiment,180,↓,down,↓,0.602731000049971,True,14
X032K19,760,experiment,120,→,right,→,1.2143081000540406,True,14
X032K19,761,experiment,168,→,left,←,0.6040258000139147,False,14
X032K19,762,experiment,36,→,right,→,0.7224929999792948,True,14
X032K19,763,experiment,12,→,right,→,0.7935039999429137,True,14
X032K19,764,experiment,120,↑,up,↑,1.0905826999805868,True,14
X032K19,765,experiment,60,→,right,→,0.4193534000078216,True,14
X032K19,766,experiment,120,←,right,→,0.8800698999548331,False,14
X032K19,767,experiment,144,↑,up,↑,0.8036238000495359,True,14
X032K19,768,experiment,36,←,left,←,0.6375528000062332,True,14
X032K19,769,experiment,84,↑,up,↑,0.7441628000233322,True,14
X032K19,770,experiment,132,→,right,→,0.5997959000524133,True,14
X032K19,771,experiment,96,↑,up,↑,0.450996300089173,True,14
X032K19,772,experiment,48,→,down,↓,1.0798206999897957,False,14
X032K19,773,experiment,36,↓,up,↑,0.6128027000231668,False,14
X032K19,774,experiment,84,↑,up,↑,0.8337744999444112,True,14
X032K19,775,experiment,48,↑,up,↑,0.43669839994981885,True,14
X032K19,776,experiment,96,←,left,←,0.6164969999808818,True,14
X032K19,777,experiment,108,↑,up,↑,0.5825939000351354,True,14
X032K19,778,experiment,156,↓,down,↓,0.5413180999457836,True,14
X032K19,779,experiment,12,↑,left,←,0.7733888999791816,False,14
X032K19,780,experiment,132,←,left,←,0.476054499973543,True,14
X032K19,781,experiment,180,↓,down,↓,1.0016846000216901,True,14
X032K19,782,experiment,156,↓,down,↓,0.5843732000794262,True,14
X032K19,783,experiment,168,↓,down,↓,0.9847043000627309,True,14
X032K19,784,experiment,180,→,right,→,0.9445544000482187,True,14
X032K19,785,experiment,156,↑,up,↑,0.9382105999393389,True,14
X032K19,786,experiment,24,↑,up,↑,0.5268070999300107,True,14
X032K19,787,training,132,↓,down,↓,0.49146839999593794,True,14
X032K19,788,training,12,→,left,←,0.6467294000321999,False,14
X032K19,789,training,96,→,right,→,0.334005199954845,True,14
X032K19,790,experiment,120,→,left,←,0.40963180002290756,False,14
X032K19,791,experiment,36,↑,up,↑,1.0716263999929652,True,14
X032K19,792,experiment,60,→,left,←,0.4136616999749094,False,14
X032K19,793,experiment,156,↑,up,↑,0.21687440003734082,True,14
X032K19,794,experiment,156,→,right,→,0.45115410001017153,True,14
X032K19,795,experiment,12,↑,left,←,0.587194399908185,False,14
X032K19,796,experiment,96,←,left,←,0.7260326000396162,True,14
X032K19,797,experiment,144,↑,up,↑,0.5911473000887781,True,14
X032K19,798,experiment,180,↓,down,↓,0.9713549999287352,True,14
X032K19,799,experiment,36,←,left,←,0.8363583000609651,True,14
X032K19,800,experiment,48,→,right,→,0.4238208000315353,True,14
X032K19,801,experiment,156,→,left,←,0.7627070000162348,False,14
X032K19,802,experiment,144,→,right,→,0.9469722000649199,True,14
X032K19,803,experiment,132,↓,down,↓,0.738407599972561,True,14
X032K19,804,experiment,156,→,left,←,0.664553300011903,False,14
X032K19,805,experiment,120,←,left,←,0.4611866999184713,True,14
X032K19,806,experiment,108,↑,up,↑,0.45727500005159527,True,14
X032K19,807,experiment,96,↑,down,↓,0.7762823000084609,False,14
X032K19,808,experiment,12,←,left,←,0.5223575999261811,True,14
X032K19,809,experiment,72,→,right,→,0.4396016000537202,True,14
X032K19,810,experiment,24,←,left,←,0.41258989996276796,True,14
X032K19,811,experiment,60,↑,up,↑,0.3339714000467211,True,14
X032K19,812,experiment,108,↓,down,↓,0.5335600000107661,True,14
X032K19,813,experiment,132,↑,up,↑,0.7714781999820843,True,14
X032K19,814,experiment,108,←,left,←,0.5282080000033602,True,14
X032K19,815,experiment,168,←,left,←,0.36712780001107603,True,14
X032K19,816,experiment,180,→,right,→,0.3672977000242099,True,14
X032K19,817,experiment,144,↑,left,←,0.651496300008148,False,14
X032K19,818,experiment,24,↓,down,↓,0.6402541999705136,True,14
X032K19,819,experiment,24,↑,up,↑,0.6094981000060216,True,14
X032K19,820,experiment,12,←,left,←,0.5404937999555841,True,14
X032K19,821,experiment,84,→,right,→,0.3671360000735149,True,14
X032K19,822,experiment,168,←,left,←,1.0436645000008866,True,14
X032K19,823,experiment,84,↑,up,↑,0.3673416000092402,True,14
X032K19,824,experiment,132,↑,up,↑,0.6314732000464574,True,14
X032K19,825,experiment,96,←,left,←,0.5681283000158146,True,14
X032K19,826,experiment,72,→,right,→,1.1040140999248251,True,14
X032K19,827,experiment,120,↓,down,↓,0.6167795999208465,True,14
X032K19,828,experiment,24,←,left,←,0.9080500999698415,True,14
X032K19,829,experiment,60,→,right,→,0.35014450002927333,True,14
X032K19,830,experiment,168,↑,left,←,0.7392741999356076,False,14
X032K19,831,experiment,180,→,right,→,0.9002004999201745,True,14
X032K19,832,experiment,12,↑,left,←,0.5374112999998033,False,14
X032K19,833,experiment,36,→,right,→,0.4289325000718236,True,14
X032K19,834,experiment,60,↑,up,↑,0.3503828999819234,True,14
X032K19,835,experiment,108,→,right,→,0.6541674000909552,True,14
X032K19,836,experiment,72,↓,down,↓,0.9233407999854535,True,14
X032K19,837,experiment,132,→,down,↓,0.3173540999414399,False,14
X032K19,838,experiment,48,→,right,→,0.4176830999786034,True,14
X032K19,839,experiment,120,→,right,→,0.6974281000439078,True,14
X032K19,840,experiment,168,↑,up,↑,0.5210623000748456,True,14
X032K19,841,experiment,96,→,left,←,0.6970784000586718,False,14
X032K19,842,experiment,48,←,right,→,0.5849289000034332,False,14
X032K19,843,experiment,144,←,left,←,0.5883020999608561,True,14
X032K19,844,experiment,180,→,right,→,0.6072715000482276,True,14
X032K19,845,experiment,48,→,left,←,0.7790080000413582,False,14
X032K19,846,experiment,72,↑,up,↑,0.46021599997766316,True,14
X032K19,847,experiment,84,↑,up,↑,0.7364441000390798,True,14
X032K19,848,experiment,36,↑,up,↑,0.44313869997859,True,14
X032K19,849,experiment,84,→,right,→,0.48216560005676,True,14
