PART_ID,Trial_no,Trial_type,PDI,Stim_letter,Key_pressed,letter_choose,Rt,Corr,Stimulus Time
X033K19,1,training,10,↓,left,←,2.1544032000238076,False,30
X033K19,2,training,10,↓,down,↓,1.4994816000107676,True,30
X033K19,3,training,10,↓,down,↓,1.4245399000355974,True,30
X033K19,4,training,10,↓,no_key,no_letter,-1.0,False,30
X033K19,5,training,10,↑,up,↑,1.1590889999642968,True,30
X033K19,6,training,10,↓,down,↓,0.8278112000552937,True,30
X033K19,7,training,10,↑,up,↑,1.0810572999762371,True,30
X033K19,8,training,10,↓,down,↓,0.869190700002946,True,30
X033K19,9,training,10,→,right,→,0.8829605999635532,True,30
X033K19,10,training,10,→,right,→,0.6724683999782428,True,30
X033K19,11,training,10,↑,up,↑,0.7835582999978215,True,30
X033K19,12,training,10,↑,up,↑,0.7908261000411585,True,30
X033K19,13,training,10,↑,up,↑,0.5509026000509039,True,30
X033K19,14,training,10,↓,down,↓,0.7851941999979317,True,30
X033K19,15,training,10,→,right,→,0.7079910000320524,True,30
X033K19,16,training,10,↑,up,↑,0.6869630999863148,True,30
X033K19,17,training,10,↓,down,↓,0.6339558999752626,True,30
X033K19,18,training,10,↓,down,↓,0.5674625000683591,True,30
X033K19,19,training,10,↓,down,↓,0.6338276999304071,True,30
X033K19,20,training,10,→,right,→,0.7496233999263495,True,30
X033K19,21,training,10,↑,up,↑,0.7662750000599772,True,18
X033K19,22,training,10,↑,up,↑,0.8196220999816433,True,18
X033K19,23,training,10,↑,up,↑,0.793295800103806,True,18
X033K19,24,training,10,→,right,→,0.5901920000324026,True,18
X033K19,25,training,10,↑,up,↑,0.554262200021185,True,18
X033K19,26,training,10,→,right,→,0.6079917000606656,True,18
X033K19,27,training,10,←,left,←,0.7375874000135809,True,18
X033K19,28,training,10,→,right,→,0.7422981000272557,True,18
X033K19,29,training,10,↓,down,↓,0.5998418000526726,True,18
X033K19,30,training,10,↑,up,↑,0.5684300999855623,True,18
X033K19,31,training,60,↑,up,↑,0.71177599998191,True,15
X033K19,32,training,144,←,right,→,0.8826060999417678,False,15
X033K19,33,training,144,↑,left,←,1.8961502999300137,False,15
X033K19,34,experiment,48,←,left,←,0.9355982999550179,True,15
X033K19,35,experiment,72,↓,left,←,1.0984642000403255,False,15
X033K19,36,experiment,108,↓,down,↓,0.6487426999956369,True,15
X033K19,37,experiment,24,→,right,→,0.6252746999962255,True,15
X033K19,38,experiment,120,↑,right,→,1.2652367999544367,False,15
X033K19,39,experiment,36,→,right,→,0.6727661999175325,True,15
X033K19,40,experiment,24,→,right,→,0.5290341000072658,True,15
X033K19,41,experiment,84,↓,down,↓,0.5958655000431463,True,15
X033K19,42,experiment,48,→,right,→,0.4589301999658346,True,15
X033K19,43,experiment,108,←,left,←,0.9578766999766231,True,15
X033K19,44,experiment,144,↑,up,↑,0.7210634000366554,True,15
X033K19,45,experiment,180,↑,up,↑,1.3000956000760198,True,15
X033K19,46,experiment,132,↓,down,↓,0.6741857000160962,True,15
X033K19,47,experiment,120,↑,down,↓,0.8130952999927104,False,15
X033K19,48,experiment,108,↓,down,↓,0.6662713000550866,True,15
X033K19,49,experiment,36,↑,down,↓,1.8211879999144003,False,15
X033K19,50,experiment,96,←,left,←,0.5091410999884829,True,15
X033K19,51,experiment,36,↓,down,↓,0.7703607999719679,True,15
X033K19,52,experiment,12,↑,down,↓,1.1251253000227734,False,15
X033K19,53,experiment,24,←,left,←,0.7250380999175832,True,15
X033K19,54,experiment,156,↓,down,↓,0.7246754999505356,True,15
X033K19,55,experiment,84,↓,down,↓,0.8412903000134975,True,15
X033K19,56,experiment,96,→,right,→,1.0384708000347018,True,15
X033K19,57,experiment,48,→,right,→,0.7446282999590039,True,15
X033K19,58,experiment,108,↓,left,←,1.2623204999836162,False,15
X033K19,59,experiment,72,→,right,→,0.7958030999870971,True,15
X033K19,60,experiment,72,←,left,←,0.6946040999609977,True,15
X033K19,61,experiment,156,↓,right,→,1.5348442998947576,False,15
X033K19,62,experiment,168,→,right,→,1.3090050000464544,True,15
X033K19,63,experiment,60,↓,down,↓,0.7582334000617266,True,15
X033K19,64,experiment,60,↓,down,↓,0.7676003000233322,True,15
X033K19,65,experiment,48,←,left,←,0.5292461999924853,True,15
X033K19,66,experiment,36,↑,up,↑,0.4936756999231875,True,15
X033K19,67,experiment,168,↓,down,↓,0.5957461999496445,True,15
X033K19,68,experiment,168,↑,up,↑,0.747425299952738,True,15
X033K19,69,experiment,60,↓,down,↓,0.6379137999610975,True,15
X033K19,70,experiment,72,↑,up,↑,0.4460410999599844,True,15
X033K19,71,experiment,24,↑,down,↓,0.9093739999225363,False,15
X033K19,72,experiment,144,↑,up,↑,0.837967999977991,True,15
X033K19,73,experiment,180,→,right,→,0.6871101000579074,True,15
X033K19,74,experiment,60,→,right,→,0.4751011000480503,True,15
X033K19,75,experiment,12,→,no_key,no_letter,-1.0,False,15
X033K19,76,experiment,132,←,left,←,1.1511325999163091,True,15
X033K19,77,experiment,144,→,right,→,0.726652399986051,True,15
X033K19,78,experiment,180,←,left,←,1.0384786000940949,True,15
X033K19,79,experiment,168,↓,left,←,0.849125900072977,False,15
X033K19,80,experiment,12,←,down,↓,1.8008940999861807,False,15
X033K19,81,experiment,12,←,left,←,1.3309436000417918,True,15
X033K19,82,experiment,180,→,right,→,0.7116021000547335,True,15
X033K19,83,experiment,132,←,left,←,0.7532254999969155,True,15
X033K19,84,experiment,84,↓,left,←,0.8082066000206396,False,15
X033K19,85,experiment,84,↓,down,↓,0.5753294999012724,True,15
X033K19,86,experiment,144,↓,down,↓,0.7330757000017911,True,15
X033K19,87,experiment,156,←,left,←,0.9068190000252798,True,15
X033K19,88,experiment,156,↑,up,↑,0.729757699999027,True,15
X033K19,89,experiment,96,↓,down,↓,0.7264681999804452,True,15
X033K19,90,experiment,120,↑,up,↑,0.6314413000363857,True,15
X033K19,91,experiment,96,↓,down,↓,0.6511135000037029,True,15
X033K19,92,experiment,120,←,left,←,0.7153120000148192,True,15
X033K19,93,experiment,132,↑,up,↑,0.547248899936676,True,15
X033K19,94,training,60,↓,down,↓,1.134845900000073,True,15
X033K19,95,training,168,↓,down,↓,0.6394418999552727,True,15
X033K19,96,training,48,↑,down,↓,0.8175487000262365,False,15
X033K19,97,experiment,156,↑,up,↑,0.8299394999630749,True,15
X033K19,98,experiment,180,↓,down,↓,0.6430705999955535,True,15
X033K19,99,experiment,168,→,down,↓,0.7600552999647334,False,15
X033K19,100,experiment,36,↑,up,↑,0.7977036000229418,True,15
X033K19,101,experiment,168,↑,up,↑,1.0732797000091523,True,15
X033K19,102,experiment,120,→,right,→,0.6300084000686184,True,15
X033K19,103,experiment,24,←,left,←,0.8971422000322491,True,15
X033K19,104,experiment,180,↑,left,←,0.730735499993898,False,15
X033K19,105,experiment,84,←,left,←,1.1772078999783844,True,15
X033K19,106,experiment,72,↑,up,↑,0.4693878999678418,True,15
X033K19,107,experiment,24,←,left,←,0.7798142000101507,True,15
X033K19,108,experiment,60,←,left,←,0.6377552000340074,True,15
X033K19,109,experiment,48,↓,left,←,0.8479807000840083,False,15
X033K19,110,experiment,180,←,left,←,1.665057500009425,True,15
X033K19,111,experiment,156,→,right,→,0.669971999945119,True,15
X033K19,112,experiment,168,↓,down,↓,0.5669510000152513,True,15
X033K19,113,experiment,36,←,left,←,0.6492096999427304,True,15
X033K19,114,experiment,84,←,left,←,0.5966631000628695,True,15
X033K19,115,experiment,144,↑,up,↑,0.6700959999579936,True,15
X033K19,116,experiment,12,↑,up,↑,0.6126753001008183,True,15
X033K19,117,experiment,72,↑,up,↑,0.5770099000073969,True,15
X033K19,118,experiment,144,←,left,←,0.6489239999791607,True,15
X033K19,119,experiment,72,←,left,←,0.6235726000741124,True,15
X033K19,120,experiment,12,→,right,→,0.6665219999849796,True,15
X033K19,121,experiment,96,→,right,→,0.5846592999296263,True,15
X033K19,122,experiment,36,←,left,←,0.5497919999761507,True,15
X033K19,123,experiment,96,↓,left,←,0.934425099985674,False,15
X033K19,124,experiment,156,→,right,→,0.6404679999686778,True,15
X033K19,125,experiment,48,↑,up,↑,1.1272521000355482,True,15
X033K19,126,experiment,120,↑,left,←,0.7711720999795943,False,15
X033K19,127,experiment,84,↑,left,←,0.6693639999721199,False,15
X033K19,128,experiment,132,↓,down,↓,0.694083199952729,True,15
X033K19,129,experiment,24,←,left,←,0.5779310000361875,True,15
X033K19,130,experiment,96,→,right,→,0.4240703000687063,True,15
X033K19,131,experiment,108,↑,left,←,0.6532324999570847,False,15
X033K19,132,experiment,156,↑,left,←,0.904646800016053,False,15
X033K19,133,experiment,48,←,right,→,1.1487138998927549,False,15
X033K19,134,experiment,60,↑,up,↑,0.6105756000615656,True,15
X033K19,135,experiment,24,←,left,←,0.6623791999882087,True,15
X033K19,136,experiment,96,↓,down,↓,0.9402654999867082,True,15
X033K19,137,experiment,72,↓,up,↑,1.3562396001070738,False,15
X033K19,138,experiment,108,←,left,←,0.5604293999494985,True,15
X033K19,139,experiment,84,←,left,←,0.36693699995521456,True,15
X033K19,140,experiment,12,↓,left,←,0.7681315999943763,False,15
X033K19,141,experiment,120,↓,down,↓,0.6257679999107495,True,15
X033K19,142,experiment,36,→,left,←,0.6977250999771059,False,15
X033K19,143,experiment,144,←,left,←,0.5860681999474764,True,15
X033K19,144,experiment,120,←,left,←,0.6330199999501929,True,15
X033K19,145,experiment,132,↑,up,↑,0.6790164000121877,True,15
X033K19,146,experiment,132,←,left,←,0.45397499995306134,True,15
X033K19,147,experiment,180,↓,left,←,1.6026949000079185,False,15
X033K19,148,experiment,168,→,right,→,0.52548900002148,True,15
X033K19,149,experiment,12,↓,down,↓,0.6985582000343129,True,15
X033K19,150,experiment,132,←,left,←,0.5644552999874577,True,15
X033K19,151,experiment,108,→,left,←,0.656491499976255,False,15
X033K19,152,experiment,48,↓,no_key,no_letter,-1.0,False,15
X033K19,153,experiment,60,↑,right,→,0.8091785999713466,False,15
X033K19,154,experiment,60,↓,down,↓,0.6663807999575511,True,15
X033K19,155,experiment,144,→,right,→,0.5288679000223055,True,15
X033K19,156,experiment,108,↓,down,↓,0.7457892999518663,True,15
X033K19,157,training,84,←,left,←,1.1603850999381393,True,15
X033K19,158,training,36,↓,down,↓,0.6552836999762803,True,15
X033K19,159,training,84,←,left,←,0.5409520999528468,True,15
X033K19,160,experiment,144,↓,down,↓,0.6071031999308616,True,15
X033K19,161,experiment,168,→,right,→,0.5899415999883786,True,15
X033K19,162,experiment,48,→,right,→,0.5620953000616282,True,15
X033K19,163,experiment,24,↓,down,↓,0.6373660999815911,True,15
X033K19,164,experiment,36,→,right,→,0.4298000999260694,True,15
X033K19,165,experiment,156,↑,down,↓,0.627481900039129,False,15
X033K19,166,experiment,12,→,right,→,0.6504263998940587,True,15
X033K19,167,experiment,180,→,right,→,0.6138723000185564,True,15
X033K19,168,experiment,12,↓,right,→,0.7984298999654129,False,15
X033K19,169,experiment,72,←,right,→,0.6548528999555856,False,15
X033K19,170,experiment,132,↓,down,↓,0.723199800006114,True,15
X033K19,171,experiment,156,→,right,→,1.1586331999860704,True,15
X033K19,172,experiment,108,↓,down,↓,0.4979796999832615,True,15
X033K19,173,experiment,60,→,right,→,0.48524740000721067,True,15
X033K19,174,experiment,36,→,right,→,0.5925865999888629,True,15
X033K19,175,experiment,156,↑,up,↑,0.6670875999843702,True,15
X033K19,176,experiment,132,↑,up,↑,0.6737649999558926,True,15
X033K19,177,experiment,84,→,right,→,0.5325093000428751,True,15
X033K19,178,experiment,144,↑,up,↑,0.5287811000598595,True,15
X033K19,179,experiment,132,↓,up,↑,0.8057837999658659,False,15
X033K19,180,experiment,120,↑,up,↑,0.5391700000036508,True,15
X033K19,181,experiment,180,→,right,→,0.4804076000582427,True,15
X033K19,182,experiment,36,↑,up,↑,0.52867819997482,True,15
X033K19,183,experiment,120,↓,down,↓,0.6342106000520289,True,15
X033K19,184,experiment,84,↑,up,↑,0.4533164999447763,True,15
X033K19,185,experiment,84,→,right,→,0.49284820002503693,True,15
X033K19,186,experiment,120,↑,up,↑,0.6076538000488654,True,15
X033K19,187,experiment,96,↓,down,↓,0.682534100022167,True,15
X033K19,188,experiment,108,→,right,→,0.5390216000378132,True,15
X033K19,189,experiment,48,↑,up,↑,0.5595075000310317,True,15
X033K19,190,experiment,24,→,right,→,0.5952922999858856,True,15
X033K19,191,experiment,108,↑,up,↑,0.4451953999232501,True,15
X033K19,192,experiment,108,←,left,←,0.5840290999040008,True,15
X033K19,193,experiment,132,↑,up,↑,0.5314333999995142,True,15
X033K19,194,experiment,180,↑,up,↑,0.46829210000578314,True,15
X033K19,195,experiment,12,↓,down,↓,0.7200022999895737,True,15
X033K19,196,experiment,120,↑,down,↓,0.8841039999388158,False,15
X033K19,197,experiment,72,↓,down,↓,0.7240086999954656,True,15
X033K19,198,experiment,24,↑,up,↑,0.5950314999790862,True,15
X033K19,199,experiment,96,→,right,→,0.527823599986732,True,15
X033K19,200,experiment,60,↑,up,↑,0.6797086000442505,True,15
X033K19,201,experiment,84,←,left,←,0.5602925999555737,True,15
X033K19,202,experiment,72,↑,up,↑,0.4218600000021979,True,15
X033K19,203,experiment,60,↑,up,↑,0.6814516000449657,True,15
X033K19,204,experiment,96,↓,down,↓,0.6334915000479668,True,15
X033K19,205,experiment,12,↑,down,↓,1.019465799909085,False,15
X033K19,206,experiment,48,→,right,→,0.5558989000273868,True,15
X033K19,207,experiment,144,↓,down,↓,0.5531482000369579,True,15
X033K19,208,experiment,168,↑,up,↑,0.5052078999578953,True,15
X033K19,209,experiment,48,→,right,→,0.5250748000107706,True,15
X033K19,210,experiment,24,↓,up,↑,1.4094225000590086,False,15
X033K19,211,experiment,36,↓,down,↓,0.6620641000336036,True,15
X033K19,212,experiment,72,↓,down,↓,0.5235907000023872,True,15
X033K19,213,experiment,96,↑,up,↑,0.49967889999970794,True,15
X033K19,214,experiment,168,←,left,←,0.6020321000833064,True,15
X033K19,215,experiment,168,←,left,←,0.4426990000065416,True,15
X033K19,216,experiment,156,↓,down,↓,0.6834997000405565,True,15
X033K19,217,experiment,144,→,right,→,0.6682621000800282,True,15
X033K19,218,experiment,60,↑,up,↑,0.7115811000112444,True,15
X033K19,219,experiment,180,←,left,←,0.9610113999806345,True,15
X033K19,220,training,96,↓,down,↓,1.0503362999297678,True,15
X033K19,221,training,48,→,right,→,0.5636258999584243,True,15
X033K19,222,training,132,←,left,←,0.6364558000350371,True,15
X033K19,223,experiment,132,→,right,→,0.5868557000067085,True,15
X033K19,224,experiment,144,↓,down,↓,0.6516221000347286,True,15
X033K19,225,experiment,36,→,right,→,0.6191380000673234,True,15
X033K19,226,experiment,168,←,left,←,0.6213201999198645,True,15
X033K19,227,experiment,168,→,right,→,0.47233589994721115,True,15
X033K19,228,experiment,108,→,right,→,0.6381837000371888,True,15
X033K19,229,experiment,96,↓,down,↓,0.5726632999721915,True,15
X033K19,230,experiment,120,↓,down,↓,0.4686076999641955,True,15
X033K19,231,experiment,120,←,right,→,0.7368208999978378,False,15
X033K19,232,experiment,180,↓,down,↓,0.49624440004117787,True,15
X033K19,233,experiment,156,↓,down,↓,1.2866412000730634,True,15
X033K19,234,experiment,180,↑,up,↑,0.9585336999734864,True,15
X033K19,235,experiment,156,→,right,→,0.7584166000597179,True,15
X033K19,236,experiment,144,←,left,←,0.5979948999593034,True,15
X033K19,237,experiment,36,→,right,→,0.5655267999973148,True,15
X033K19,238,experiment,180,↑,up,↑,0.5464913999894634,True,15
X033K19,239,experiment,144,↑,up,↑,0.481207900098525,True,15
X033K19,240,experiment,96,←,left,←,0.5069733000127599,True,15
X033K19,241,experiment,12,←,right,→,0.8441018000012264,False,15
X033K19,242,experiment,84,↑,up,↑,0.5714617000194266,True,15
X033K19,243,experiment,168,↑,up,↑,0.5246492000296712,True,15
X033K19,244,experiment,180,→,right,→,0.5062819999875501,True,15
X033K19,245,experiment,156,→,left,←,0.8844442000845447,False,15
X033K19,246,experiment,60,←,right,→,0.738493200042285,False,15
X033K19,247,experiment,132,↑,up,↑,0.5425351000158116,True,15
X033K19,248,experiment,60,→,right,→,0.6854785999748856,True,15
X033K19,249,experiment,84,↓,down,↓,0.5745991000439972,True,15
X033K19,250,experiment,108,↑,up,↑,0.6765950999688357,True,15
X033K19,251,experiment,60,→,right,→,1.5801924999104813,True,15
X033K19,252,experiment,96,↑,up,↑,0.6273946000728756,True,15
X033K19,253,experiment,132,←,left,←,0.7360433000139892,True,15
X033K19,254,experiment,156,←,left,←,0.5593145000748336,True,15
X033K19,255,experiment,12,→,right,→,0.5762126999907196,True,15
X033K19,256,experiment,24,↓,down,↓,0.7623954999726266,True,15
X033K19,257,experiment,72,↓,down,↓,0.6309330000076443,True,15
X033K19,258,experiment,168,↑,up,↑,0.6876880000345409,True,15
X033K19,259,experiment,72,↓,down,↓,0.5188139999518171,True,15
X033K19,260,experiment,144,↑,up,↑,0.7180271000834182,True,15
X033K19,261,experiment,120,↑,up,↑,0.6690411000745371,True,15
X033K19,262,experiment,48,↓,down,↓,0.6377697000280023,True,15
X033K19,263,experiment,108,→,up,↑,0.743466200074181,False,15
X033K19,264,experiment,36,→,right,→,0.554370200028643,True,15
X033K19,265,experiment,84,↓,down,↓,0.6678976999828592,True,15
X033K19,266,experiment,48,↓,down,↓,0.5677281999960542,True,15
X033K19,267,experiment,60,←,left,←,0.4475070000626147,True,15
X033K19,268,experiment,24,↓,down,↓,0.6489812999498099,True,15
X033K19,269,experiment,84,↑,down,↓,0.7517105999868363,False,15
X033K19,270,experiment,36,↓,down,↓,0.5117952999426052,True,15
X033K19,271,experiment,48,→,right,→,0.4654856000561267,True,15
X033K19,272,experiment,24,→,left,←,0.7823060000082478,False,15
X033K19,273,experiment,120,→,right,→,0.6834264000644907,True,15
X033K19,274,experiment,24,↑,up,↑,0.7257881000405177,True,15
X033K19,275,experiment,72,↓,up,↑,0.7525207999860868,False,15
X033K19,276,experiment,72,←,left,←,0.5089808999327943,True,15
X033K19,277,experiment,12,↓,down,↓,0.7322528000222519,True,15
X033K19,278,experiment,132,↑,up,↑,0.7059107999084517,True,15
X033K19,279,experiment,96,↑,up,↑,0.6612445999635383,True,15
X033K19,280,experiment,12,→,right,→,0.6531966000329703,True,15
X033K19,281,experiment,48,↑,up,↑,0.5330663999775425,True,15
X033K19,282,experiment,108,↓,up,↑,1.0703523999545723,False,15
X033K19,283,training,168,→,right,→,0.8018940000329167,True,15
X033K19,284,training,96,↑,up,↑,0.632351600099355,True,15
X033K19,285,training,84,→,right,→,0.4816522999899462,True,15
X033K19,286,experiment,180,→,right,→,0.5063962999265641,True,15
X033K19,287,experiment,48,↓,down,↓,0.6561602998990566,True,15
X033K19,288,experiment,60,↑,left,←,0.7434179000556469,False,15
X033K19,289,experiment,108,←,left,←,0.4936971999704838,True,15
X033K19,290,experiment,168,↓,down,↓,0.6052786000072956,True,15
X033K19,291,experiment,24,←,right,→,0.661607600050047,False,15
X033K19,292,experiment,108,→,right,→,0.5372854000888765,True,15
X033K19,293,experiment,84,→,right,→,0.4661955999908969,True,15
X033K19,294,experiment,132,←,left,←,0.76837540010456,True,15
X033K19,295,experiment,60,←,left,←,1.8683589999563992,True,15
X033K19,296,experiment,72,↓,down,↓,0.5701832000631839,True,15
X033K19,297,experiment,84,→,right,→,0.6027089999988675,True,15
X033K19,298,experiment,168,↓,down,↓,0.5631281000096351,True,15
X033K19,299,experiment,120,→,right,→,0.4499805000377819,True,15
X033K19,300,experiment,156,←,left,←,0.5830537000438198,True,15
X033K19,301,experiment,12,←,left,←,0.568339699995704,True,15
X033K19,302,experiment,24,→,left,←,0.667861899943091,False,15
X033K19,303,experiment,156,↑,up,↑,0.5572242999915034,True,15
X033K19,304,experiment,132,↓,down,↓,0.5624294999288395,True,15
X033K19,305,experiment,120,↑,down,↓,0.6522908998886123,False,15
X033K19,306,experiment,156,←,left,←,0.5897283999947831,True,15
X033K19,307,experiment,132,↑,up,↑,1.0797810000367463,True,15
X033K19,308,experiment,84,←,left,←,0.5362254999345168,True,15
X033K19,309,experiment,36,→,right,→,0.6687212999677286,True,15
X033K19,310,experiment,48,←,right,→,1.1631201000418514,False,15
X033K19,311,experiment,144,↓,down,↓,0.7473059999756515,True,15
X033K19,312,experiment,12,↓,up,↑,0.7498139999806881,False,15
X033K19,313,experiment,180,↑,up,↑,0.6072187999961898,True,15
X033K19,314,experiment,108,→,left,←,0.6739595000399277,False,15
X033K19,315,experiment,72,←,left,←,0.469991400022991,True,15
X033K19,316,experiment,36,→,left,←,0.6655054000439122,False,15
X033K19,317,experiment,96,↓,down,↓,0.7543530999682844,True,15
X033K19,318,experiment,48,→,right,→,0.5848927999613807,True,15
X033K19,319,experiment,168,→,right,→,0.47566779993940145,True,15
X033K19,320,experiment,168,→,right,→,0.45162469998467714,True,15
X033K19,321,experiment,144,↓,down,↓,0.7433724000584334,True,15
X033K19,322,experiment,180,↑,up,↑,0.5891518000280485,True,15
X033K19,323,experiment,36,→,right,→,0.460368899977766,True,15
X033K19,324,experiment,72,↓,down,↓,0.6900510999839753,True,15
X033K19,325,experiment,48,↑,up,↑,0.7558137000305578,True,15
X033K19,326,experiment,24,←,left,←,1.5291482999455184,True,15
X033K19,327,experiment,180,↑,up,↑,0.6650446999119595,True,15
X033K19,328,experiment,36,↓,down,↓,0.6081868000328541,True,15
X033K19,329,experiment,60,↓,down,↓,0.9153613999951631,True,15
X033K19,330,experiment,96,↑,up,↑,0.732417399995029,True,15
X033K19,331,experiment,96,→,up,↑,0.7362927999347448,False,15
X033K19,332,experiment,60,→,right,→,0.5166992000304163,True,15
X033K19,333,experiment,12,→,left,←,0.6129575999220833,False,15
X033K19,334,experiment,96,←,left,←,0.7172289999434724,True,15
X033K19,335,experiment,12,↑,down,↓,0.9178107000188902,False,15
X033K19,336,experiment,84,←,left,←,0.581308800028637,True,15
X033K19,337,experiment,24,→,right,→,0.45731990004424006,True,15
X033K19,338,experiment,120,↓,down,↓,0.7581510000163689,True,15
X033K19,339,experiment,132,↑,up,↑,0.6539894000161439,True,15
X033K19,340,experiment,144,↓,down,↓,0.8817273998865858,True,15
X033K19,341,experiment,72,←,left,←,0.6662639999995008,True,15
X033K19,342,experiment,120,←,left,←,0.5722606000490487,True,15
X033K19,343,experiment,144,→,right,→,0.6783681999659166,True,15
X033K19,344,experiment,108,↑,up,↑,0.6330049999523908,True,15
X033K19,345,experiment,156,→,right,→,0.6470665000379086,True,15
X033K19,346,training,24,←,right,→,1.017110199900344,False,15
X033K19,347,training,24,↑,up,↑,0.7345822000643238,True,15
X033K19,348,training,168,←,left,←,0.6667842000024393,True,15
X033K19,349,experiment,168,→,right,→,0.5486486000008881,True,15
X033K19,350,experiment,48,→,right,→,0.4471880999626592,True,15
X033K19,351,experiment,36,←,left,←,0.44203179993201047,True,15
X033K19,352,experiment,84,↑,up,↑,0.6202974000480026,True,15
X033K19,353,experiment,36,→,left,←,0.6177718000253662,False,15
X033K19,354,experiment,72,↑,up,↑,0.45329239999409765,True,15
X033K19,355,experiment,24,↓,up,↑,0.6969883000710979,False,15
X033K19,356,experiment,180,↑,up,↑,0.5511175999417901,True,15
X033K19,357,experiment,144,↑,up,↑,0.43671040004119277,True,15
X033K19,358,experiment,12,→,left,←,0.7774958000518382,False,15
X033K19,359,experiment,132,↓,down,↓,0.7832138000521809,True,15
X033K19,360,experiment,168,↓,down,↓,0.819264700054191,True,15
X033K19,361,experiment,120,↓,down,↓,0.860148600069806,True,15
X033K19,362,experiment,96,↑,up,↑,0.6290833000093699,True,15
X033K19,363,experiment,12,↓,down,↓,0.7899254999356344,True,15
X033K19,364,experiment,96,↑,up,↑,0.42971319996286184,True,15
X033K19,365,experiment,60,←,left,←,0.48887240001931787,True,15
X033K19,366,experiment,168,←,no_key,no_letter,-1.0,False,15
X033K19,367,experiment,24,→,right,→,0.8555228000041097,True,15
X033K19,368,experiment,96,←,left,←,0.662725199945271,True,15
X033K19,369,experiment,72,↑,up,↑,0.501063899951987,True,15
X033K19,370,experiment,168,←,left,←,0.502990199951455,True,15
X033K19,371,experiment,84,→,right,→,0.477477699983865,True,15
X033K19,372,experiment,48,→,no_key,no_letter,-1.0,False,15
X033K19,373,experiment,60,↓,down,↓,0.4769617000129074,True,15
X033K19,374,experiment,96,↓,down,↓,0.7092867000028491,True,15
X033K19,375,experiment,60,←,left,←,0.48798510001506656,True,15
X033K19,376,experiment,72,↓,down,↓,0.6533140999963507,True,15
X033K19,377,experiment,12,→,left,←,0.7493196000577882,False,15
X033K19,378,experiment,48,←,left,←,0.4295200000051409,True,15
X033K19,379,experiment,24,↓,down,↓,0.501401900080964,True,15
X033K19,380,experiment,156,↑,left,←,0.795543400105089,False,15
X033K19,381,experiment,48,←,left,←,0.5238916999660432,True,15
X033K19,382,experiment,132,→,left,←,0.5655585000058636,False,15
X033K19,383,experiment,180,←,left,←,0.47009479999542236,True,15
X033K19,384,experiment,120,↑,up,↑,0.5948944999836385,True,15
X033K19,385,experiment,84,←,left,←,0.6831723999930546,True,15
X033K19,386,experiment,84,→,left,←,0.4658974000485614,False,15
X033K19,387,experiment,12,→,right,→,0.6113137999782339,True,15
X033K19,388,experiment,120,↓,down,↓,0.6466906000860035,True,15
X033K19,389,experiment,156,←,left,←,0.5378425000235438,True,15
X033K19,390,experiment,180,↓,down,↓,0.5448092999868095,True,15
X033K19,391,experiment,132,↓,down,↓,0.57861490000505,True,15
X033K19,392,experiment,108,←,down,↓,1.443606200045906,False,15
X033K19,393,experiment,36,←,left,←,0.45343919994775206,True,15
X033K19,394,experiment,108,↓,down,↓,0.5509296000236645,True,15
X033K19,395,experiment,72,←,left,←,0.547560999984853,True,15
X033K19,396,experiment,108,↑,left,←,0.7451439000433311,False,15
X033K19,397,experiment,144,↓,down,↓,0.5019941000500694,True,15
X033K19,398,experiment,180,→,down,↓,0.6397527999943122,False,15
X033K19,399,experiment,36,↑,down,↓,0.6650855999905616,False,15
X033K19,400,experiment,156,→,right,→,0.6190378000028431,True,15
X033K19,401,experiment,120,←,left,←,0.6860107999527827,True,15
X033K19,402,experiment,144,→,right,→,0.5241744000231847,True,15
X033K19,403,experiment,132,↓,down,↓,0.6268145999638364,True,15
X033K19,404,experiment,24,↑,up,↑,0.721868299995549,True,15
X033K19,405,experiment,156,←,left,←,0.6591535999905318,True,15
X033K19,406,experiment,144,←,left,←,0.47494189999997616,True,15
X033K19,407,experiment,108,↓,down,↓,0.6903346000472084,True,15
X033K19,408,experiment,60,→,right,→,0.6646220000693575,True,15
X033K19,409,training,84,↓,down,↓,0.6898849999997765,True,15
X033K19,410,training,60,↓,down,↓,0.6015420000767335,True,15
X033K19,411,training,120,↓,down,↓,0.42862589994911104,True,15
X033K19,412,experiment,156,←,left,←,0.6600261999992654,True,15
X033K19,413,experiment,180,↑,up,↑,0.7143141999840736,True,15
X033K19,414,experiment,36,→,right,→,0.6881512999534607,True,15
X033K19,415,experiment,144,←,left,←,0.6184297000290826,True,15
X033K19,416,experiment,60,↓,left,←,0.6017854000674561,False,15
X033K19,417,experiment,12,→,right,→,0.5879321000538766,True,15
X033K19,418,experiment,168,←,left,←,0.8599585000192747,True,15
X033K19,419,experiment,72,→,right,→,0.6420687000500038,True,15
X033K19,420,experiment,96,↑,up,↑,0.6915723999263719,True,15
X033K19,421,experiment,60,↑,up,↑,0.5731285000219941,True,15
X033K19,422,experiment,168,←,left,←,0.6336188999703154,True,15
X033K19,423,experiment,144,←,left,←,0.56901450001169,True,15
X033K19,424,experiment,12,←,left,←,0.7130440999753773,True,15
X033K19,425,experiment,36,↓,left,←,0.63498630002141,False,15
X033K19,426,experiment,36,←,left,←,0.5719552000518888,True,15
X033K19,427,experiment,156,←,left,←,0.6788032000185922,True,15
X033K19,428,experiment,120,←,left,←,0.6348011000081897,True,15
X033K19,429,experiment,96,↑,up,↑,0.5487841999856755,True,15
X033K19,430,experiment,108,↑,up,↑,0.48922690004110336,True,15
X033K19,431,experiment,12,↓,down,↓,0.6738905999809504,True,15
X033K19,432,experiment,120,←,left,←,0.4686044999398291,True,15
X033K19,433,experiment,72,↑,up,↑,0.5996030999813229,True,15
X033K19,434,experiment,144,←,left,←,0.7074292999459431,True,15
X033K19,435,experiment,156,→,left,←,0.44405060005374253,False,15
X033K19,436,experiment,180,←,left,←,0.5471066000172868,True,15
X033K19,437,experiment,84,←,left,←,0.6365207000635564,True,15
X033K19,438,experiment,120,↓,down,↓,0.7628072999650612,True,15
X033K19,439,experiment,120,→,right,→,0.5276951000560075,True,15
X033K19,440,experiment,96,←,left,←,0.7214460000395775,True,15
X033K19,441,experiment,48,→,right,→,0.6385508000385016,True,15
X033K19,442,experiment,24,←,left,←,0.48383399995509535,True,15
X033K19,443,experiment,36,→,right,→,0.717300400021486,True,15
X033K19,444,experiment,84,↓,down,↓,0.7617705999873579,True,15
X033K19,445,experiment,48,↓,down,↓,0.5581983999582008,True,15
X033K19,446,experiment,72,↓,down,↓,0.5389756000367925,True,15
X033K19,447,experiment,132,↑,up,↑,0.8720738999545574,True,15
X033K19,448,experiment,72,↓,down,↓,0.45941140002105385,True,15
X033K19,449,experiment,60,↓,down,↓,0.5495988000184298,True,15
X033K19,450,experiment,24,→,right,→,0.5400465000420809,True,15
X033K19,451,experiment,24,←,right,→,0.6844319000374526,False,15
X033K19,452,experiment,132,←,left,←,0.7309975000098348,True,15
X033K19,453,experiment,180,↓,down,↓,0.46723750000819564,True,15
X033K19,454,experiment,180,↓,down,↓,0.46806039998773485,True,15
X033K19,455,experiment,84,→,right,→,0.4360284999711439,True,15
X033K19,456,experiment,108,→,right,→,0.4269332999829203,True,15
X033K19,457,experiment,132,→,right,→,0.568780199973844,True,15
X033K19,458,experiment,108,↑,up,↑,0.6986183000262827,True,15
X033K19,459,experiment,132,↓,down,↓,0.7653249999275431,True,15
X033K19,460,experiment,48,↓,down,↓,0.5057892999611795,True,15
X033K19,461,experiment,84,→,right,→,0.6275884000351653,True,15
X033K19,462,experiment,168,↓,down,↓,0.6004113999661058,True,15
X033K19,463,experiment,108,↓,down,↓,0.6222173999994993,True,15
X033K19,464,experiment,12,↓,down,↓,0.556307699996978,True,15
X033K19,465,experiment,24,←,left,←,0.5676410000305623,True,15
X033K19,466,experiment,60,←,left,←,0.5702706000301987,True,15
X033K19,467,experiment,96,↑,up,↑,0.5236618999624625,True,15
X033K19,468,experiment,144,←,left,←,0.5820009000599384,True,15
X033K19,469,experiment,168,→,right,→,0.47295919992029667,True,15
X033K19,470,experiment,156,←,left,←,0.4590185999404639,True,15
X033K19,471,experiment,48,↑,up,↑,0.5828166999854147,True,15
X033K19,472,training,156,→,right,→,0.4649134000064805,True,14
X033K19,473,training,180,↓,up,↑,0.5693439999595284,False,14
X033K19,474,training,24,↓,up,↑,0.6151794999605045,False,14
X033K19,475,experiment,168,↓,down,↓,0.644480700022541,True,14
X033K19,476,experiment,36,→,right,→,0.5802620000904426,True,14
X033K19,477,experiment,108,→,right,→,0.43577790004201233,True,14
X033K19,478,experiment,48,←,left,←,0.6882439999608323,True,14
X033K19,479,experiment,132,↑,no_key,no_letter,-1.0,False,14
X033K19,480,experiment,36,→,up,↑,0.9776492000091821,False,14
X033K19,481,experiment,36,→,right,→,0.6007084000157192,True,14
X033K19,482,experiment,72,↑,up,↑,0.5165371000766754,True,14
X033K19,483,experiment,120,→,right,→,0.581760699977167,True,14
X033K19,484,experiment,156,↓,down,↓,0.768902900046669,True,14
X033K19,485,experiment,156,↑,up,↑,0.5150768000166863,True,14
X033K19,486,experiment,144,←,right,→,0.6350590999936685,False,14
X033K19,487,experiment,84,↓,down,↓,0.6112689999863505,True,14
X033K19,488,experiment,132,←,left,←,0.5460065000224859,True,14
X033K19,489,experiment,24,↑,down,↓,0.6933786999434233,False,14
X033K19,490,experiment,180,↓,down,↓,0.6950254000257701,True,14
X033K19,491,experiment,12,←,left,←,0.57550550007727,True,14
X033K19,492,experiment,12,↓,down,↓,0.5896176000824198,True,14
X033K19,493,experiment,84,→,right,→,0.4976570999715477,True,14
X033K19,494,experiment,156,↓,down,↓,0.5274494000477716,True,14
X033K19,495,experiment,84,←,left,←,0.4750044000102207,True,14
X033K19,496,experiment,48,↓,down,↓,0.5095296000363305,True,14
X033K19,497,experiment,144,←,left,←,0.4416775000281632,True,14
X033K19,498,experiment,48,←,left,←,0.6497505999868736,True,14
X033K19,499,experiment,84,↑,up,↑,0.66319360001944,True,14
X033K19,500,experiment,156,←,up,↑,0.6085001000901684,False,14
X033K19,501,experiment,72,↓,down,↓,1.0301768000936136,True,14
X033K19,502,experiment,108,↑,up,↑,0.6783743998967111,True,14
X033K19,503,experiment,132,↑,up,↑,0.5700013999594375,True,14
X033K19,504,experiment,120,←,left,←,0.5728379999054596,True,14
X033K19,505,experiment,96,↓,down,↓,0.45836859999690205,True,14
X033K19,506,experiment,24,↑,up,↑,0.7326884999638423,True,14
X033K19,507,experiment,60,←,left,←,0.5673863000702113,True,14
X033K19,508,experiment,72,↓,down,↓,0.4805711000226438,True,14
X033K19,509,experiment,36,→,left,←,0.660200799931772,False,14
X033K19,510,experiment,144,→,right,→,0.5318666000384837,True,14
X033K19,511,experiment,132,→,right,→,0.6629039000254124,True,14
X033K19,512,experiment,96,→,right,→,0.506989200017415,True,14
X033K19,513,experiment,12,←,left,←,0.4835771000944078,True,14
X033K19,514,experiment,12,←,left,←,0.5571172999916598,True,14
X033K19,515,experiment,120,→,left,←,0.5960355999413878,False,14
X033K19,516,experiment,72,←,left,←,0.5725574000971392,True,14
X033K19,517,experiment,24,←,right,→,0.5591034999815747,False,14
X033K19,518,experiment,168,↓,down,↓,0.7917471999535337,True,14
X033K19,519,experiment,48,→,right,→,0.5206215999787673,True,14
X033K19,520,experiment,168,↑,up,↑,0.6274131999816746,True,14
X033K19,521,experiment,120,→,right,→,0.6146018999861553,True,14
X033K19,522,experiment,180,→,right,→,0.4373638000106439,True,14
X033K19,523,experiment,108,↓,down,↓,0.5997046999400482,True,14
X033K19,524,experiment,180,↓,down,↓,0.6564133999636397,True,14
X033K19,525,experiment,168,←,left,←,0.5594657999463379,True,14
X033K19,526,experiment,60,↓,down,↓,0.521400999976322,True,14
X033K19,527,experiment,24,←,left,←,0.7592314999783412,True,14
X033K19,528,experiment,108,↓,down,↓,0.5669212000211701,True,14
X033K19,529,experiment,180,←,left,←,0.519507700111717,True,14
X033K19,530,experiment,96,→,left,←,0.5599141999846324,False,14
X033K19,531,experiment,60,←,left,←,0.5365211000898853,True,14
X033K19,532,experiment,96,→,right,→,0.6105174999684095,True,14
X033K19,533,experiment,144,←,left,←,0.5823023000266403,True,14
X033K19,534,experiment,60,→,left,←,0.5726123000495136,False,14
X033K19,535,training,48,↓,down,↓,0.6487691999645904,True,14
X033K19,536,training,36,→,right,→,0.5261553999735042,True,14
X033K19,537,training,12,←,left,←,0.476764400023967,True,14
X033K19,538,experiment,12,→,right,→,0.45605429995339364,True,14
X033K19,539,experiment,48,↓,down,↓,0.5086095000151545,True,14
X033K19,540,experiment,48,←,left,←,0.5271056999918073,True,14
X033K19,541,experiment,72,←,left,←,0.4123297000769526,True,14
X033K19,542,experiment,156,↓,down,↓,0.4885301999747753,True,14
X033K19,543,experiment,12,↓,down,↓,0.5272419999819249,True,14
X033K19,544,experiment,144,←,left,←,0.5524597000330687,True,14
X033K19,545,experiment,96,←,left,←,0.4843496000394225,True,14
X033K19,546,experiment,48,↓,down,↓,0.5687217999948189,True,14
X033K19,547,experiment,120,→,left,←,0.5777334000449628,False,14
X033K19,548,experiment,168,↑,down,↓,0.616075599915348,False,14
X033K19,549,experiment,168,←,left,←,0.5435150000266731,True,14
X033K19,550,experiment,24,←,left,←,0.4320477000437677,True,14
X033K19,551,experiment,12,→,left,←,0.5624880000250414,False,14
X033K19,552,experiment,72,↑,right,→,0.903567900066264,False,14
X033K19,553,experiment,72,↑,up,↑,0.7320838999003172,True,14
X033K19,554,experiment,72,→,right,→,0.5046714000636712,True,14
X033K19,555,experiment,36,↓,down,↓,0.484598399954848,True,14
X033K19,556,experiment,36,↑,up,↑,0.6633992000715807,True,14
X033K19,557,experiment,120,↓,down,↓,0.4778880000812933,True,14
X033K19,558,experiment,132,↓,down,↓,0.43305340001825243,True,14
X033K19,559,experiment,36,←,left,←,0.6150567999575287,True,14
X033K19,560,experiment,84,←,left,←,0.4734535999596119,True,14
X033K19,561,experiment,108,↑,up,↑,0.7193185000214726,True,14
X033K19,562,experiment,144,↑,up,↑,0.4038373000221327,True,14
X033K19,563,experiment,96,←,left,←,0.462111399974674,True,14
X033K19,564,experiment,180,↓,down,↓,0.5439207999734208,True,14
X033K19,565,experiment,168,↑,up,↑,0.5442748999921605,True,14
X033K19,566,experiment,144,←,left,←,0.6245515000773594,True,14
X033K19,567,experiment,180,↓,down,↓,0.6799334000097588,True,14
X033K19,568,experiment,84,←,left,←,0.57725610001944,True,14
X033K19,569,experiment,24,→,left,←,0.46660699998028576,False,14
X033K19,570,experiment,180,←,right,→,0.5894809999736026,False,14
X033K19,571,experiment,60,→,right,→,0.48769720003474504,True,14
X033K19,572,experiment,96,↑,up,↑,0.4890613000607118,True,14
X033K19,573,experiment,84,↓,up,↑,0.6760464000981301,False,14
X033K19,574,experiment,120,←,up,↑,0.6552557999966666,False,14
X033K19,575,experiment,144,←,right,→,0.6121319000376388,False,14
X033K19,576,experiment,156,↓,down,↓,0.5509548999834806,True,14
X033K19,577,experiment,24,→,left,←,0.6568751999875531,False,14
X033K19,578,experiment,108,↓,down,↓,0.5956046999199316,True,14
X033K19,579,experiment,24,↓,down,↓,0.46326059999410063,True,14
X033K19,580,experiment,168,↑,down,↓,0.7123268999857828,False,14
X033K19,581,experiment,120,←,left,←,0.5628830000059679,True,14
X033K19,582,experiment,132,↑,down,↓,0.6735876000020653,False,14
X033K19,583,experiment,48,←,up,↑,0.6066414999077097,False,14
X033K19,584,experiment,108,←,left,←,0.5222120999824256,True,14
X033K19,585,experiment,96,↓,down,↓,0.5731104000005871,True,14
X033K19,586,experiment,108,←,left,←,0.4888202999718487,True,14
X033K19,587,experiment,84,↑,up,↑,0.7372387999203056,True,14
X033K19,588,experiment,12,↓,down,↓,0.5935042999917641,True,14
X033K19,589,experiment,132,↓,down,↓,0.850408999947831,True,14
X033K19,590,experiment,156,↑,down,↓,0.580487500061281,False,14
X033K19,591,experiment,156,←,left,←,0.588458799989894,True,14
X033K19,592,experiment,132,↓,down,↓,0.48151139996480197,True,14
X033K19,593,experiment,36,→,right,→,0.5058402998838574,True,14
X033K19,594,experiment,60,↑,up,↑,0.6309519000351429,True,14
X033K19,595,experiment,60,↓,down,↓,0.6096936999820173,True,14
X033K19,596,experiment,60,↑,up,↑,0.6423774999566376,True,14
X033K19,597,experiment,180,↑,up,↑,0.5370705999666825,True,14
X033K19,598,training,96,←,left,←,0.5452217999845743,True,14
X033K19,599,training,180,↑,up,↑,0.4951078000012785,True,14
X033K19,600,training,72,→,right,→,0.6137432999676093,True,14
X033K19,601,experiment,72,↑,up,↑,0.44819769996684045,True,14
X033K19,602,experiment,144,↑,up,↑,0.4822967000072822,True,14
X033K19,603,experiment,168,↑,up,↑,0.5364074999233708,True,14
X033K19,604,experiment,48,→,right,→,0.6627748999744654,True,14
X033K19,605,experiment,168,→,right,→,0.6775218999246135,True,14
X033K19,606,experiment,60,↑,up,↑,0.5894540000008419,True,14
X033K19,607,experiment,24,←,left,←,0.535237199976109,True,14
X033K19,608,experiment,12,↑,up,↑,0.5709586000302806,True,14
X033K19,609,experiment,48,↑,up,↑,0.36730899999383837,True,14
X033K19,610,experiment,96,↑,up,↑,0.4796030999859795,True,14
X033K19,611,experiment,24,↓,up,↑,0.687526399968192,False,14
X033K19,612,experiment,132,←,right,→,0.5670570000074804,False,14
X033K19,613,experiment,72,←,left,←,0.5761701000155881,True,14
X033K19,614,experiment,132,↑,up,↑,0.6646782000316307,True,14
X033K19,615,experiment,132,↑,down,↓,1.168013299931772,False,14
X033K19,616,experiment,156,↑,up,↑,0.7515472000231966,True,14
X033K19,617,experiment,60,↑,up,↑,0.5052339000394568,True,14
X033K19,618,experiment,60,↓,up,↑,0.6870176000520587,False,14
X033K19,619,experiment,84,↓,down,↓,0.6146923000924289,True,14
X033K19,620,experiment,156,↑,up,↑,0.5823032000334933,True,14
X033K19,621,experiment,108,↑,up,↑,0.679035900044255,True,14
X033K19,622,experiment,24,↓,down,↓,0.6637488000560552,True,14
X033K19,623,experiment,144,↓,down,↓,0.6982986000366509,True,14
X033K19,624,experiment,12,←,down,↓,0.7789041999494657,False,14
X033K19,625,experiment,180,←,left,←,0.5665086999069899,True,14
X033K19,626,experiment,120,←,left,←,0.45812389999628067,True,14
X033K19,627,experiment,12,→,right,→,0.5313440000172704,True,14
X033K19,628,experiment,96,↑,up,↑,0.45475479995366186,True,14
X033K19,629,experiment,156,↑,up,↑,0.5531131000025198,True,14
X033K19,630,experiment,84,↓,down,↓,0.5882930998923257,True,14
X033K19,631,experiment,48,←,right,→,0.5956489999080077,False,14
X033K19,632,experiment,144,→,right,→,0.7836189999943599,True,14
X033K19,633,experiment,180,←,left,←,0.5212452000705525,True,14
X033K19,634,experiment,180,←,right,→,0.5480423999251798,False,14
X033K19,635,experiment,120,→,left,←,0.4775072999764234,False,14
X033K19,636,experiment,36,←,left,←,0.5047368000959978,True,14
X033K19,637,experiment,120,↓,down,↓,0.6752386000007391,True,14
X033K19,638,experiment,168,→,right,→,0.46481360006146133,True,14
X033K19,639,experiment,108,↓,down,↓,0.5280898000346497,True,14
X033K19,640,experiment,156,→,right,→,0.5479527999414131,True,14
X033K19,641,experiment,84,↑,up,↑,0.6256500000599772,True,14
X033K19,642,experiment,96,←,left,←,1.1995097000617534,True,14
X033K19,643,experiment,72,↓,down,↓,1.194630700047128,True,14
X033K19,644,experiment,84,↑,down,↓,0.5312994999112561,False,14
X033K19,645,experiment,72,↑,up,↑,0.6744849000824615,True,14
X033K19,646,experiment,108,→,right,→,0.5058815000811592,True,14
X033K19,647,experiment,36,↑,right,→,1.017074599978514,False,14
X033K19,648,experiment,36,←,right,→,0.7287337000016123,False,14
X033K19,649,experiment,180,→,right,→,0.6903490000404418,True,14
X033K19,650,experiment,132,↑,up,↑,0.8131815999513492,True,14
X033K19,651,experiment,60,←,left,←,0.6505257000681013,True,14
X033K19,652,experiment,168,↓,down,↓,0.5656293999636546,True,14
X033K19,653,experiment,120,←,left,←,0.6460114000365138,True,14
X033K19,654,experiment,12,→,right,→,0.5203680999111384,True,14
X033K19,655,experiment,24,→,right,→,0.5405909999972209,True,14
X033K19,656,experiment,48,↓,down,↓,0.5489644999615848,True,14
X033K19,657,experiment,108,↑,up,↑,0.6465022000484169,True,14
X033K19,658,experiment,144,→,right,→,0.7792524000396952,True,14
X033K19,659,experiment,96,↓,down,↓,0.6813867999007925,True,14
X033K19,660,experiment,36,↓,down,↓,0.7828756999224424,True,14
X033K19,661,training,36,→,right,→,0.4097957999911159,True,14
X033K19,662,training,12,↓,left,←,0.524413299979642,False,14
X033K19,663,training,60,↑,up,↑,0.5889690999174491,True,14
X033K19,664,experiment,132,↓,down,↓,0.6052811000263318,True,14
X033K19,665,experiment,120,←,left,←,0.5703575999941677,True,14
X033K19,666,experiment,60,←,left,←,0.6043911998858675,True,14
X033K19,667,experiment,84,←,left,←,0.5027939000865445,True,14
X033K19,668,experiment,108,↓,down,↓,0.5808053000364453,True,14
X033K19,669,experiment,60,↑,down,↓,0.6336413000244647,False,14
X033K19,670,experiment,48,←,up,↑,1.3130158999701962,False,14
X033K19,671,experiment,96,↓,down,↓,0.4694047999801114,True,14
X033K19,672,experiment,144,←,left,←,0.4280315999640152,True,14
X033K19,673,experiment,12,↑,down,↓,0.6559486000332981,False,14
X033K19,674,experiment,180,↑,up,↑,0.6679362000431865,True,14
X033K19,675,experiment,72,↓,up,↑,0.529089399962686,False,14
X033K19,676,experiment,84,→,right,→,0.5453725999686867,True,14
X033K19,677,experiment,96,←,left,←,0.5936583000002429,True,14
X033K19,678,experiment,48,↑,up,↑,0.5030286000110209,True,14
X033K19,679,experiment,96,↑,up,↑,0.5443239000160247,True,14
X033K19,680,experiment,168,←,left,←,0.5443598000565544,True,14
X033K19,681,experiment,36,←,left,←,0.7472305999835953,True,14
X033K19,682,experiment,168,↓,down,↓,0.7364536999957636,True,14
X033K19,683,experiment,156,→,right,→,0.6273613000521436,True,14
X033K19,684,experiment,144,←,left,←,0.5462257999461144,True,14
X033K19,685,experiment,120,←,left,←,0.5160647999728099,True,14
X033K19,686,experiment,12,→,right,→,0.6359944000141695,True,14
X033K19,687,experiment,144,→,right,→,0.5697149999905378,True,14
X033K19,688,experiment,120,→,right,→,0.8610514000756666,True,14
X033K19,689,experiment,180,←,left,←,0.5059902999782935,True,14
X033K19,690,experiment,84,→,right,→,0.60701739997603,True,14
X033K19,691,experiment,168,↑,up,↑,0.654158900026232,True,14
X033K19,692,experiment,156,→,right,→,0.5610686000436544,True,14
X033K19,693,experiment,108,↑,up,↑,0.5515098000178114,True,14
X033K19,694,experiment,132,↑,up,↑,0.41848409990780056,True,14
X033K19,695,experiment,108,→,right,→,0.7451801999704912,True,14
X033K19,696,experiment,156,←,left,←,0.5415688999928534,True,14
X033K19,697,experiment,24,↑,up,↑,0.5054275000002235,True,14
X033K19,698,experiment,108,↓,down,↓,0.7001565000973642,True,14
X033K19,699,experiment,144,↓,down,↓,0.5972402000334114,True,14
X033K19,700,experiment,180,←,left,←,0.5142018999904394,True,14
X033K19,701,experiment,12,↓,down,↓,0.7261077000293881,True,14
X033K19,702,experiment,12,↓,down,↓,0.6194009999744594,True,14
X033K19,703,experiment,72,↓,down,↓,0.4051441999617964,True,14
X033K19,704,experiment,156,←,left,←,0.4493498000083491,True,14
X033K19,705,experiment,36,→,right,→,0.42679009994026273,True,14
X033K19,706,experiment,132,↓,down,↓,0.9115898000309244,True,14
X033K19,707,experiment,48,↑,down,↓,0.7301681999815628,False,14
X033K19,708,experiment,60,←,right,→,0.6975906000006944,False,14
X033K19,709,experiment,120,←,left,←,0.40836740005761385,True,14
X033K19,710,experiment,72,↑,up,↑,0.502872799988836,True,14
X033K19,711,experiment,36,→,right,→,0.40421369997784495,True,14
X033K19,712,experiment,168,↓,down,↓,0.4608962000347674,True,14
X033K19,713,experiment,48,↑,up,↑,0.42239300010260195,True,14
X033K19,714,experiment,24,→,right,→,0.45889710006304085,True,14
X033K19,715,experiment,60,→,right,→,0.6623742000665516,True,14
X033K19,716,experiment,24,→,right,→,0.7835042000515386,True,14
X033K19,717,experiment,36,→,no_key,no_letter,-1.0,False,14
X033K19,718,experiment,72,↓,down,↓,0.5707261000061408,True,14
X033K19,719,experiment,96,↓,no_key,no_letter,-1.0,False,14
X033K19,720,experiment,180,↑,down,↓,1.0674773000646383,False,14
X033K19,721,experiment,24,↓,down,↓,0.43584479996934533,True,14
X033K19,722,experiment,132,→,right,→,0.4667802999028936,True,14
X033K19,723,experiment,84,↓,down,↓,0.4417466999730095,True,14
X033K19,724,training,36,↓,down,↓,0.5940754000330344,True,14
X033K19,725,training,132,←,right,→,0.5863652999978513,False,14
X033K19,726,training,36,→,no_key,no_letter,-1.0,False,14
X033K19,727,experiment,120,←,left,←,0.5158064999850467,True,14
X033K19,728,experiment,132,→,left,←,0.6721248000394553,False,14
X033K19,729,experiment,168,←,left,←,0.4174049999564886,True,14
X033K19,730,experiment,96,↓,down,↓,0.47520840005017817,True,14
X033K19,731,experiment,36,↓,down,↓,0.6430909999180585,True,14
X033K19,732,experiment,180,→,right,→,0.528660099953413,True,14
X033K19,733,experiment,72,↓,down,↓,0.5433490999275818,True,14
X033K19,734,experiment,60,↓,down,↓,0.5586151999887079,True,14
X033K19,735,experiment,144,←,left,←,0.6312354999827221,True,14
X033K19,736,experiment,108,→,right,→,0.48152009991463274,True,14
X033K19,737,experiment,12,↓,down,↓,0.5144381000427529,True,14
X033K19,738,experiment,180,←,right,→,0.5258465999504551,False,14
X033K19,739,experiment,12,←,left,←,0.6520176000194624,True,14
X033K19,740,experiment,180,→,right,→,0.6146987000247464,True,14
X033K19,741,experiment,12,↑,left,←,0.7250284999608994,False,14
X033K19,742,experiment,12,↓,up,↑,0.9529605999123305,False,14
X033K19,743,experiment,96,←,up,↑,0.8094854999799281,False,14
X033K19,744,experiment,144,→,right,→,0.5672625999432057,True,14
X033K19,745,experiment,108,←,left,←,0.6104967000428587,True,14
X033K19,746,experiment,84,→,right,→,0.5231798000168055,True,14
X033K19,747,experiment,180,↓,down,↓,0.5272472000215203,True,14
X033K19,748,experiment,24,←,down,↓,0.6425408000359312,False,14
X033K19,749,experiment,84,↓,down,↓,0.5433476999169216,True,14
X033K19,750,experiment,156,↓,up,↑,0.6999185999156907,False,14
X033K19,751,experiment,132,←,right,→,0.5189969999482855,False,14
X033K19,752,experiment,156,←,right,→,0.518570699961856,False,14
X033K19,753,experiment,60,↑,up,↑,0.5745771999936551,True,14
X033K19,754,experiment,36,←,up,↑,0.6502246999880299,False,14
X033K19,755,experiment,84,↑,up,↑,0.5853188999462873,True,14
X033K19,756,experiment,168,↓,right,→,1.163858300074935,False,14
X033K19,757,experiment,24,←,right,→,0.5661363999824971,False,14
X033K19,758,experiment,108,↑,up,↑,0.5504737000446767,True,14
X033K19,759,experiment,120,→,right,→,0.4425022000214085,True,14
X033K19,760,experiment,72,→,right,→,0.640990599989891,True,14
X033K19,761,experiment,156,→,right,→,0.5805854999925941,True,14
X033K19,762,experiment,48,↑,up,↑,0.5348433000035584,True,14
X033K19,763,experiment,132,←,left,←,0.5455496000358835,True,14
X033K19,764,experiment,60,↑,up,↑,0.4408326999982819,True,14
X033K19,765,experiment,72,↑,no_key,no_letter,-1.0,False,14
X033K19,766,experiment,48,←,left,←,0.4232514000032097,True,14
X033K19,767,experiment,168,←,left,←,0.4249493998941034,True,14
X033K19,768,experiment,120,←,left,←,0.619452100014314,True,14
X033K19,769,experiment,36,↑,left,←,0.6674604999134317,False,14
X033K19,770,experiment,144,↓,down,↓,0.6324971000431105,True,14
X033K19,771,experiment,36,↑,left,←,0.6840846999548376,False,14
X033K19,772,experiment,156,→,right,→,0.4269366000080481,True,14
X033K19,773,experiment,72,↓,down,↓,0.644861500011757,True,14
X033K19,774,experiment,120,→,left,←,0.6279976000078022,False,14
X033K19,775,experiment,24,↑,down,↓,0.5526351999724284,False,14
X033K19,776,experiment,144,←,up,↑,0.7230290999868885,False,14
X033K19,777,experiment,132,←,left,←,0.5918754000449553,True,14
X033K19,778,experiment,96,↓,down,↓,0.5075055999914184,True,14
X033K19,779,experiment,24,←,left,←,0.44053499994333833,True,14
X033K19,780,experiment,84,↑,up,↑,0.46076139993965626,True,14
X033K19,781,experiment,48,←,left,←,0.5439330999506637,True,14
X033K19,782,experiment,48,←,left,←,0.47971109999343753,True,14
X033K19,783,experiment,96,→,left,←,0.6735463999211788,False,14
X033K19,784,experiment,108,←,left,←,0.5096434999722987,True,14
X033K19,785,experiment,60,↓,up,↑,0.6915987000102177,False,14
X033K19,786,experiment,168,↓,left,←,0.6776829999871552,False,14
X033K19,787,training,108,↓,down,↓,0.40326199994888157,True,14
X033K19,788,training,24,→,right,→,1.2467724001035094,True,14
X033K19,789,training,72,↓,down,↓,0.6373945999657735,True,14
X033K19,790,experiment,36,←,left,←,0.664479700033553,True,14
X033K19,791,experiment,168,→,right,→,0.42759059998206794,True,14
X033K19,792,experiment,168,↑,up,↑,0.4629471000516787,True,14
X033K19,793,experiment,60,←,left,←,0.4354629999725148,True,14
X033K19,794,experiment,72,→,left,←,0.49142639990895987,False,14
X033K19,795,experiment,168,←,left,←,0.44211529998574406,True,14
X033K19,796,experiment,36,↑,up,↑,0.4414667999371886,True,14
X033K19,797,experiment,168,↓,down,↓,0.6784369999077171,True,14
X033K19,798,experiment,156,↓,down,↓,0.7276298999786377,True,14
X033K19,799,experiment,12,↑,up,↑,0.4458327000029385,True,14
X033K19,800,experiment,60,←,left,←,0.5981307999463752,True,14
X033K19,801,experiment,132,→,right,→,0.636038800003007,True,14
X033K19,802,experiment,120,→,right,→,0.5092098000459373,True,14
X033K19,803,experiment,144,↓,up,↑,0.6045742999995127,False,14
X033K19,804,experiment,36,←,left,←,0.5415021000662819,True,14
X033K19,805,experiment,48,←,left,←,0.5471178999869153,True,14
X033K19,806,experiment,144,↑,up,↑,0.537558599957265,True,14
X033K19,807,experiment,180,←,left,←,0.5363863999955356,True,14
X033K19,808,experiment,156,↑,up,↑,0.5279688999289647,True,14
X033K19,809,experiment,72,→,right,→,0.4314651000313461,True,14
X033K19,810,experiment,24,↓,down,↓,0.4761687000282109,True,14
X033K19,811,experiment,12,↑,down,↓,0.7198749999515712,False,14
X033K19,812,experiment,108,→,no_key,no_letter,-1.0,False,14
X033K19,813,experiment,84,↑,up,↑,0.5078808999387547,True,14
X033K19,814,experiment,156,→,right,→,0.8457901000510901,True,14
X033K19,815,experiment,24,↑,up,↑,0.6633459000149742,True,14
X033K19,816,experiment,48,↓,up,↑,1.025584900053218,False,14
X033K19,817,experiment,96,→,right,→,0.4406367000192404,True,14
X033K19,818,experiment,132,↑,up,↑,0.5714663000544533,True,14
X033K19,819,experiment,96,↓,down,↓,0.5807071999879554,True,14
X033K19,820,experiment,180,↓,down,↓,0.4620016999542713,True,14
X033K19,821,experiment,84,↓,down,↓,0.6490887000691146,True,14
X033K19,822,experiment,96,←,left,←,0.5086033999687061,True,14
X033K19,823,experiment,120,→,right,→,0.47535510000307113,True,14
X033K19,824,experiment,156,←,left,←,0.7462847999995574,True,14
X033K19,825,experiment,84,→,right,→,0.5448996000923216,True,14
X033K19,826,experiment,48,→,right,→,0.538401999976486,True,14
X033K19,827,experiment,72,←,left,←,0.41240999998990446,True,14
X033K19,828,experiment,48,↑,up,↑,0.4291453999467194,True,14
X033K19,829,experiment,120,→,right,→,0.6094706000294536,True,14
X033K19,830,experiment,96,↑,up,↑,0.5429401000728831,True,14
X033K19,831,experiment,12,←,up,↑,0.7497699999948964,False,14
X033K19,832,experiment,108,↓,down,↓,0.6817896000575274,True,14
X033K19,833,experiment,84,↓,up,↑,0.5749736999860033,False,14
X033K19,834,experiment,144,↑,up,↑,0.4541975000174716,True,14
X033K19,835,experiment,108,→,up,↑,0.674335699994117,False,14
X033K19,836,experiment,180,→,right,→,0.472900899942033,True,14
X033K19,837,experiment,180,→,right,→,0.6405622999882326,True,14
X033K19,838,experiment,24,←,left,←,0.4632166000083089,True,14
X033K19,839,experiment,60,↑,up,↑,0.40477069991175085,True,14
X033K19,840,experiment,72,↓,down,↓,0.5166929999832064,True,14
X033K19,841,experiment,108,↑,up,↑,0.4085559999803081,True,14
X033K19,842,experiment,144,↑,no_key,no_letter,-1.0,False,14
X033K19,843,experiment,24,↑,no_key,no_letter,-1.0,False,14
X033K19,844,experiment,36,↓,down,↓,0.5507552000926808,True,14
X033K19,845,experiment,12,↓,down,↓,0.5362544000381604,True,14
X033K19,846,experiment,132,↓,down,↓,0.4325609999941662,True,14
X033K19,847,experiment,120,←,left,←,0.6241333000361919,True,14
X033K19,848,experiment,132,→,right,→,0.6196925999829546,True,14
X033K19,849,experiment,60,→,right,→,0.4663761999690905,True,14
