PART_ID,Trial_no,Trial_type,PDI,Stim_letter,Key_pressed,letter_choose,Rt,Corr,Stimulus Time
X034K26,1,training,10,→,no_key,no_letter,-1.0,False,30
X034K26,2,training,10,←,left,←,0.827986599993892,True,30
X034K26,3,training,10,↑,right,→,0.5838418999919668,False,30
X034K26,4,training,10,→,left,←,0.6001783999381587,False,30
X034K26,5,training,10,↓,right,→,1.5044374999124557,False,30
X034K26,6,training,10,→,right,→,1.0849658999359235,True,30
X034K26,7,training,10,←,left,←,1.3042830000631511,True,30
X034K26,8,training,10,→,right,→,1.3281742999097332,True,30
X034K26,9,training,10,→,right,→,1.3252502999966964,True,30
X034K26,10,training,10,↓,down,↓,1.7008269999641925,True,30
X034K26,11,training,10,↓,down,↓,1.3264356999425218,True,30
X034K26,12,training,10,←,left,←,1.2891978999832645,True,30
X034K26,13,training,10,←,left,←,1.2631910999771208,True,30
X034K26,14,training,10,→,right,→,0.9972551000537351,True,30
X034K26,15,training,10,↓,down,↓,1.2129629999399185,True,30
X034K26,16,training,10,↑,up,↑,1.3336395000806078,True,30
X034K26,17,training,10,↑,up,↑,1.0723353000357747,True,30
X034K26,18,training,10,↑,up,↑,0.9224072999786586,True,30
X034K26,19,training,10,↑,up,↑,1.1193942000390962,True,30
X034K26,20,training,10,→,right,→,0.9758938999148086,True,30
X034K26,21,training,10,↓,down,↓,1.1423164999578148,True,18
X034K26,22,training,10,←,left,←,1.4139524000929669,True,18
X034K26,23,training,10,←,left,←,1.0029285999480635,True,18
X034K26,24,training,10,↓,down,↓,1.048115300014615,True,18
X034K26,25,training,10,↓,down,↓,1.2323018000461161,True,18
X034K26,26,training,10,←,left,←,0.8321530000539497,True,18
X034K26,27,training,10,→,right,→,0.8438042999478057,True,18
X034K26,28,training,10,↓,down,↓,1.0080226000864059,True,18
X034K26,29,training,10,↑,up,↑,0.9176053000846878,True,18
X034K26,30,training,10,↓,down,↓,0.9556144999805838,True,18
X034K26,31,training,36,←,left,←,1.6056667999364436,True,15
X034K26,32,training,72,←,left,←,0.9218801000388339,True,15
X034K26,33,training,144,↓,no_key,no_letter,-1.0,False,15
X034K26,34,experiment,72,↓,down,↓,1.3234011000022292,True,15
X034K26,35,experiment,36,↑,no_key,no_letter,-1.0,False,15
X034K26,36,experiment,72,→,right,→,0.9440424999920651,True,15
X034K26,37,experiment,108,↓,down,↓,0.8639165000058711,True,15
X034K26,38,experiment,24,↓,left,←,1.2178373000351712,False,15
X034K26,39,experiment,132,↓,no_key,no_letter,-1.0,False,15
X034K26,40,experiment,144,→,right,→,1.146601099986583,True,15
X034K26,41,experiment,12,←,left,←,1.066445800010115,True,15
X034K26,42,experiment,48,←,left,←,0.7720592000987381,True,15
X034K26,43,experiment,36,←,left,←,0.7478828999446705,True,15
X034K26,44,experiment,144,↓,down,↓,1.2828721000114456,True,15
X034K26,45,experiment,156,←,left,←,0.7815109000075608,True,15
X034K26,46,experiment,24,↓,down,↓,1.1324698999524117,True,15
X034K26,47,experiment,84,→,right,→,0.7479405000340194,True,15
X034K26,48,experiment,12,←,no_key,no_letter,-1.0,False,15
X034K26,49,experiment,24,↓,no_key,no_letter,-1.0,False,15
X034K26,50,experiment,84,↓,down,↓,0.9013349000597373,True,15
X034K26,51,experiment,144,↑,up,↑,0.9359926999313757,True,15
X034K26,52,experiment,156,←,left,←,0.7223263999912888,True,15
X034K26,53,experiment,108,↓,down,↓,1.062663899967447,True,15
X034K26,54,experiment,132,→,up,↑,0.9957281000679359,False,15
X034K26,55,experiment,96,↓,left,←,1.4627714999951422,False,15
X034K26,56,experiment,60,↓,no_key,no_letter,-1.0,False,15
X034K26,57,experiment,84,←,right,→,0.8233886000234634,False,15
X034K26,58,experiment,108,↑,right,→,1.7037126999348402,False,15
X034K26,59,experiment,180,←,right,→,0.7776553999865428,False,15
X034K26,60,experiment,12,↓,left,←,1.3265452000778168,False,15
X034K26,61,experiment,144,↓,down,↓,0.9209067999618128,True,15
X034K26,62,experiment,120,↓,down,↓,0.879821699927561,True,15
X034K26,63,experiment,48,←,left,←,1.1313232000684366,True,15
X034K26,64,experiment,120,→,right,→,0.7788144999649376,True,15
X034K26,65,experiment,72,↓,down,↓,0.9110213000094518,True,15
X034K26,66,experiment,60,↑,up,↑,1.5411320000421256,True,15
X034K26,67,experiment,180,↑,no_key,no_letter,-1.0,False,15
X034K26,68,experiment,168,↓,down,↓,0.8671136000193655,True,15
X034K26,69,experiment,156,→,right,→,0.6587866999907419,True,15
X034K26,70,experiment,48,↓,no_key,no_letter,-1.0,False,15
X034K26,71,experiment,72,↓,down,↓,1.0730555000482127,True,15
X034K26,72,experiment,96,↓,no_key,no_letter,-1.0,False,15
X034K26,73,experiment,24,↓,down,↓,0.736102799884975,True,15
X034K26,74,experiment,96,→,right,→,0.6524843999650329,True,15
X034K26,75,experiment,180,←,right,→,1.267246100003831,False,15
X034K26,76,experiment,84,↑,left,←,0.925588299985975,False,15
X034K26,77,experiment,132,↓,no_key,no_letter,-1.0,False,15
X034K26,78,experiment,168,←,left,←,1.0771567999618128,True,15
X034K26,79,experiment,132,↑,up,↑,1.0474640000611544,True,15
X034K26,80,experiment,168,→,right,→,0.7926425999030471,True,15
X034K26,81,experiment,96,↑,up,↑,1.4362540000583977,True,15
X034K26,82,experiment,156,→,right,→,0.7311431999551132,True,15
X034K26,83,experiment,120,↑,no_key,no_letter,-1.0,False,15
X034K26,84,experiment,36,←,left,←,0.7139088000403717,True,15
X034K26,85,experiment,48,↑,up,↑,0.8808661999646574,True,15
X034K26,86,experiment,168,↑,no_key,no_letter,-1.0,False,15
X034K26,87,experiment,60,↑,up,↑,1.0662558999611065,True,15
X034K26,88,experiment,12,←,right,→,0.8188157000113279,False,15
X034K26,89,experiment,180,←,left,←,0.7827887999592349,True,15
X034K26,90,experiment,120,←,left,←,0.7095074999378994,True,15
X034K26,91,experiment,108,↓,down,↓,0.9524827999994159,True,15
X034K26,92,experiment,60,→,right,→,0.8893476000521332,True,15
X034K26,93,experiment,36,↓,left,←,1.3549972999608144,False,15
X034K26,94,training,36,→,right,→,0.6793031999841332,True,15
X034K26,95,training,60,→,right,→,0.650320400018245,True,15
X034K26,96,training,108,↓,left,←,1.1045106999808922,False,15
X034K26,97,experiment,24,→,right,→,0.6468652999028563,True,15
X034K26,98,experiment,168,→,no_key,no_letter,-1.0,False,15
X034K26,99,experiment,120,↓,down,↓,0.7316780000692233,True,15
X034K26,100,experiment,108,←,left,←,0.7055180999450386,True,15
X034K26,101,experiment,12,↓,down,↓,0.7965640000766143,True,15
X034K26,102,experiment,36,→,left,←,1.2185395999113098,False,15
X034K26,103,experiment,156,↑,no_key,no_letter,-1.0,False,15
X034K26,104,experiment,84,↓,down,↓,0.9598432999337092,True,15
X034K26,105,experiment,156,←,no_key,no_letter,-1.0,False,15
X034K26,106,experiment,48,↑,up,↑,0.8208112000720575,True,15
X034K26,107,experiment,36,←,left,←,0.6877887999871746,True,15
X034K26,108,experiment,48,↓,down,↓,1.1232213999610394,True,15
X034K26,109,experiment,72,↓,down,↓,0.9619539000559598,True,15
X034K26,110,experiment,12,↓,down,↓,0.8623506999574602,True,15
X034K26,111,experiment,72,↑,up,↑,0.8709889000747353,True,15
X034K26,112,experiment,60,←,left,←,0.7269708999665454,True,15
X034K26,113,experiment,144,←,left,←,0.8311970999930054,True,15
X034K26,114,experiment,144,←,right,→,1.0618759000208229,False,15
X034K26,115,experiment,168,↓,down,↓,0.9267102999147028,True,15
X034K26,116,experiment,168,←,left,←,0.6939795000944287,True,15
X034K26,117,experiment,156,↑,up,↑,0.7415464000077918,True,15
X034K26,118,experiment,180,↑,up,↑,1.0291656999615952,True,15
X034K26,119,experiment,84,←,left,←,0.8238168999087065,True,15
X034K26,120,experiment,132,←,right,→,1.1234919999260455,False,15
X034K26,121,experiment,96,→,left,←,0.7838823000201955,False,15
X034K26,122,experiment,144,↑,up,↑,0.8660956000676379,True,15
X034K26,123,experiment,180,↓,down,↓,1.090438099927269,True,15
X034K26,124,experiment,84,←,left,←,0.7065206000115722,True,15
X034K26,125,experiment,60,←,left,←,0.6712208000244573,True,15
X034K26,126,experiment,84,↑,up,↑,0.9719777998980135,True,15
X034K26,127,experiment,96,→,right,→,0.7594652000116184,True,15
X034K26,128,experiment,108,↓,down,↓,0.8162062999326736,True,15
X034K26,129,experiment,72,↓,down,↓,0.8369629000080749,True,15
X034K26,130,experiment,48,→,right,→,0.6911607999354601,True,15
X034K26,131,experiment,132,←,right,→,0.6951431999914348,False,15
X034K26,132,experiment,144,↑,up,↑,0.89811239996925,True,15
X034K26,133,experiment,24,→,no_key,no_letter,-1.0,False,15
X034K26,134,experiment,12,→,right,→,0.6351172999711707,True,15
X034K26,135,experiment,36,←,left,←,0.4886257000034675,True,15
X034K26,136,experiment,72,↑,up,↑,0.7800388999748975,True,15
X034K26,137,experiment,60,↓,no_key,no_letter,-1.0,False,15
X034K26,138,experiment,120,→,right,→,0.5817203000187874,True,15
X034K26,139,experiment,36,←,left,←,0.8293586999643594,True,15
X034K26,140,experiment,108,→,right,→,0.5681506999535486,True,15
X034K26,141,experiment,132,→,right,→,0.7292355000972748,True,15
X034K26,142,experiment,96,←,left,←,0.5767566999420524,True,15
X034K26,143,experiment,180,←,left,←,0.7694537999341264,True,15
X034K26,144,experiment,96,↑,up,↑,0.7961325000505894,True,15
X034K26,145,experiment,132,→,right,→,0.7263467999873683,True,15
X034K26,146,experiment,120,↑,up,↑,0.8464691999834031,True,15
X034K26,147,experiment,156,↓,right,→,1.547106200014241,False,15
X034K26,148,experiment,60,↑,up,↑,0.7561475000111386,True,15
X034K26,149,experiment,120,↑,no_key,no_letter,-1.0,False,15
X034K26,150,experiment,24,↓,down,↓,0.8085522000910714,True,15
X034K26,151,experiment,12,←,left,←,1.2778051000786945,True,15
X034K26,152,experiment,48,←,no_key,no_letter,-1.0,False,15
X034K26,153,experiment,168,→,right,→,0.669263800024055,True,15
X034K26,154,experiment,180,↑,up,↑,0.8985864999704063,True,15
X034K26,155,experiment,108,←,up,↑,1.1293411999940872,False,15
X034K26,156,experiment,24,←,left,←,0.7014156000223011,True,15
X034K26,157,training,84,↑,right,→,1.6012650999473408,False,15
X034K26,158,training,144,↑,up,↑,0.770347399986349,True,15
X034K26,159,training,36,↓,down,↓,0.8341325999936089,True,15
X034K26,160,experiment,24,↑,up,↑,0.902491599903442,True,15
X034K26,161,experiment,84,→,right,→,0.5897775000194088,True,15
X034K26,162,experiment,48,←,right,→,1.2805544999428093,False,15
X034K26,163,experiment,144,→,right,→,0.681889700004831,True,15
X034K26,164,experiment,156,→,right,→,0.7831273999763653,True,15
X034K26,165,experiment,132,↓,no_key,no_letter,-1.0,False,15
X034K26,166,experiment,96,→,right,→,0.6891793999820948,True,15
X034K26,167,experiment,108,←,no_key,no_letter,-1.0,False,15
X034K26,168,experiment,168,→,right,→,0.7160451000090688,True,15
X034K26,169,experiment,120,↓,no_key,no_letter,-1.0,False,15
X034K26,170,experiment,180,→,left,←,0.8622814000118524,False,15
X034K26,171,experiment,12,→,right,→,0.7131660000886768,True,15
X034K26,172,experiment,96,→,right,→,0.6485334999160841,True,15
X034K26,173,experiment,12,↓,down,↓,0.883942799991928,True,15
X034K26,174,experiment,132,↑,no_key,no_letter,-1.0,False,15
X034K26,175,experiment,144,→,right,→,0.6994574000127614,True,15
X034K26,176,experiment,120,↑,up,↑,0.9169434000505134,True,15
X034K26,177,experiment,60,↑,no_key,no_letter,-1.0,False,15
X034K26,178,experiment,72,↑,up,↑,0.7385264999466017,True,15
X034K26,179,experiment,48,←,left,←,0.898915599915199,True,15
X034K26,180,experiment,84,↓,right,→,0.874192800023593,False,15
X034K26,181,experiment,36,←,no_key,no_letter,-1.0,False,15
X034K26,182,experiment,108,↓,down,↓,0.8097228999249637,True,15
X034K26,183,experiment,72,←,left,←,0.7583328000037,True,15
X034K26,184,experiment,96,↑,no_key,no_letter,-1.0,False,15
X034K26,185,experiment,180,↑,up,↑,0.8685057000257075,True,15
X034K26,186,experiment,60,→,right,→,0.9690224999794737,True,15
X034K26,187,experiment,132,→,left,←,1.2836470999754965,False,15
X034K26,188,experiment,12,↑,up,↑,0.8897414000239223,True,15
X034K26,189,experiment,132,↑,up,↑,0.6493968999711797,True,15
X034K26,190,experiment,180,↑,down,↓,0.8188091000774875,False,15
X034K26,191,experiment,24,↑,up,↑,0.7285054000094533,True,15
X034K26,192,experiment,60,↓,up,↑,0.8117642999859527,False,15
X034K26,193,experiment,72,↓,down,↓,0.85546270001214,True,15
X034K26,194,experiment,144,→,right,→,0.6811853999970481,True,15
X034K26,195,experiment,108,↑,down,↓,0.789312000037171,False,15
X034K26,196,experiment,36,↑,up,↑,0.7944991000695154,True,15
X034K26,197,experiment,36,↓,up,↑,1.033219699980691,False,15
X034K26,198,experiment,156,→,right,→,0.6265787000302225,True,15
X034K26,199,experiment,168,→,right,→,0.7510192000772804,True,15
X034K26,200,experiment,120,→,right,→,0.6179142000619322,True,15
X034K26,201,experiment,48,↓,down,↓,0.8461317999754101,True,15
X034K26,202,experiment,84,↓,no_key,no_letter,-1.0,False,15
X034K26,203,experiment,84,↑,no_key,no_letter,-1.0,False,15
X034K26,204,experiment,24,↑,down,↓,0.9262759999837726,False,15
X034K26,205,experiment,72,↓,no_key,no_letter,-1.0,False,15
X034K26,206,experiment,180,→,right,→,0.6525110999355093,True,15
X034K26,207,experiment,60,←,no_key,no_letter,-1.0,False,15
X034K26,208,experiment,96,→,right,→,0.6836828000377864,True,15
X034K26,209,experiment,12,↓,no_key,no_letter,-1.0,False,15
X034K26,210,experiment,168,←,left,←,0.8700153999961913,True,15
X034K26,211,experiment,48,←,left,←,0.8756488999351859,True,15
X034K26,212,experiment,120,←,left,←,0.7003070000791922,True,15
X034K26,213,experiment,168,↓,down,↓,0.9626654000021517,True,15
X034K26,214,experiment,36,↑,down,↓,1.0304189999587834,False,15
X034K26,215,experiment,108,↑,up,↑,0.8929943999974057,True,15
X034K26,216,experiment,144,←,right,→,0.7818965999176726,False,15
X034K26,217,experiment,24,←,left,←,0.7547204999718815,True,15
X034K26,218,experiment,156,↓,no_key,no_letter,-1.0,False,15
X034K26,219,experiment,156,→,right,→,0.6884996000444517,True,15
X034K26,220,training,108,←,left,←,0.6129737999290228,True,15
X034K26,221,training,72,←,left,←,0.7751378000248224,True,15
X034K26,222,training,108,↑,up,↑,0.663696700008586,True,15
X034K26,223,experiment,12,→,left,←,0.7841354999691248,False,15
X034K26,224,experiment,108,↓,down,↓,0.7556675999658182,True,15
X034K26,225,experiment,132,→,right,→,0.7897581000579521,True,15
X034K26,226,experiment,144,←,left,←,0.6504935999400914,True,15
X034K26,227,experiment,96,↓,down,↓,0.8233509999699891,True,15
X034K26,228,experiment,144,←,left,←,0.670090900035575,True,15
X034K26,229,experiment,48,→,right,→,0.6865334999747574,True,15
X034K26,230,experiment,84,→,right,→,0.9555957999546081,True,15
X034K26,231,experiment,12,→,right,→,0.631271900027059,True,15
X034K26,232,experiment,36,↑,up,↑,0.8916970998980105,True,15
X034K26,233,experiment,24,→,right,→,0.8374354999978095,True,15
X034K26,234,experiment,12,←,left,←,0.7116691999835894,True,15
X034K26,235,experiment,60,←,left,←,0.7197695999639109,True,15
X034K26,236,experiment,96,↓,down,↓,1.100926199927926,True,15
X034K26,237,experiment,48,←,left,←,0.518602899974212,True,15
X034K26,238,experiment,144,↓,down,↓,0.8476696000434458,True,15
X034K26,239,experiment,108,↓,down,↓,0.8863298000069335,True,15
X034K26,240,experiment,72,→,right,→,0.6722198000643402,True,15
X034K26,241,experiment,120,→,right,→,0.671092199976556,True,15
X034K26,242,experiment,24,↓,down,↓,0.756782199954614,True,15
X034K26,243,experiment,72,→,no_key,no_letter,-1.0,False,15
X034K26,244,experiment,168,↑,down,↓,1.440037599997595,False,15
X034K26,245,experiment,84,←,right,→,0.5906738999765366,False,15
X034K26,246,experiment,48,←,left,←,0.6558047999860719,True,15
X034K26,247,experiment,156,↑,down,↓,0.8614870999008417,False,15
X034K26,248,experiment,12,←,left,←,0.7765220999717712,True,15
X034K26,249,experiment,36,←,left,←,1.0134789999574423,True,15
X034K26,250,experiment,36,←,left,←,0.7335477999877185,True,15
X034K26,251,experiment,168,↑,up,↑,0.8505360999843106,True,15
X034K26,252,experiment,60,←,left,←,0.6367987000849098,True,15
X034K26,253,experiment,180,→,left,←,0.5786250999663025,False,15
X034K26,254,experiment,156,→,right,→,0.7852513000834733,True,15
X034K26,255,experiment,168,↓,right,→,1.2782805000897497,False,15
X034K26,256,experiment,120,←,right,→,0.7231388000072911,False,15
X034K26,257,experiment,108,→,left,←,0.6808945999946445,False,15
X034K26,258,experiment,180,↓,down,↓,1.2253233999945223,True,15
X034K26,259,experiment,156,←,left,←,0.6213957000290975,True,15
X034K26,260,experiment,156,↑,down,↓,0.9933460999745876,False,15
X034K26,261,experiment,132,→,left,←,0.7518808000022545,False,15
X034K26,262,experiment,84,→,right,→,0.73430210002698,True,15
X034K26,263,experiment,96,←,left,←,0.6792780999094248,True,15
X034K26,264,experiment,72,←,left,←,0.6630875000264496,True,15
X034K26,265,experiment,60,→,right,→,0.751680999994278,True,15
X034K26,266,experiment,96,→,left,←,0.5890582998981699,False,15
X034K26,267,experiment,132,←,left,←,0.6375168000813574,True,15
X034K26,268,experiment,120,↑,up,↑,0.9964130000444129,True,15
X034K26,269,experiment,84,→,right,→,0.5973731999984011,True,15
X034K26,270,experiment,36,↓,down,↓,0.8516476999502629,True,15
X034K26,271,experiment,144,↓,down,↓,0.7791983999777585,True,15
X034K26,272,experiment,24,←,right,→,0.6295835999771953,False,15
X034K26,273,experiment,180,←,left,←,0.6031414000317454,True,15
X034K26,274,experiment,72,←,left,←,0.7680067999754101,True,15
X034K26,275,experiment,60,←,left,←,0.6728257000213489,True,15
X034K26,276,experiment,180,→,left,←,0.6084435000084341,False,15
X034K26,277,experiment,120,←,left,←,0.6486728000454605,True,15
X034K26,278,experiment,132,↓,down,↓,1.0755022999364883,True,15
X034K26,279,experiment,168,→,left,←,0.6945259999483824,False,15
X034K26,280,experiment,108,↑,up,↑,0.7611690000630915,True,15
X034K26,281,experiment,24,↑,up,↑,0.8216847000876442,True,15
X034K26,282,experiment,48,→,left,←,0.5048049000324681,False,15
X034K26,283,training,36,↓,down,↓,0.8209576999070123,True,15
X034K26,284,training,132,↓,down,↓,0.9789054000284523,True,15
X034K26,285,training,96,←,left,←,0.6888743999879807,True,15
X034K26,286,experiment,24,←,left,←,0.77672550000716,True,15
X034K26,287,experiment,24,→,right,→,0.6338581000454724,True,15
X034K26,288,experiment,132,→,right,→,0.5894763000542298,True,15
X034K26,289,experiment,96,→,right,→,0.553198599955067,True,15
X034K26,290,experiment,120,←,right,→,0.6867135000647977,False,15
X034K26,291,experiment,144,↓,down,↓,0.9016192000126466,True,15
X034K26,292,experiment,108,↓,up,↑,0.8525465000420809,False,15
X034K26,293,experiment,108,↓,down,↓,0.9173215999035165,True,15
X034K26,294,experiment,12,→,right,→,0.6389751000097021,True,15
X034K26,295,experiment,36,↑,up,↑,0.9111546999774873,True,15
X034K26,296,experiment,180,←,left,←,1.2070791999576613,True,15
X034K26,297,experiment,108,←,left,←,0.9130785999586806,True,15
X034K26,298,experiment,144,←,right,→,1.0314907999709249,False,15
X034K26,299,experiment,60,↑,down,↓,1.0671894000843167,False,15
X034K26,300,experiment,24,↓,down,↓,0.7562222999986261,True,15
X034K26,301,experiment,156,→,left,←,0.9345627999864519,False,15
X034K26,302,experiment,48,↓,down,↓,0.8472964999964461,True,15
X034K26,303,experiment,180,←,left,←,0.6875581999775022,True,15
X034K26,304,experiment,36,→,right,→,0.6751187000190839,True,15
X034K26,305,experiment,72,↑,up,↑,0.6971985000418499,True,15
X034K26,306,experiment,156,↑,up,↑,0.817740400088951,True,15
X034K26,307,experiment,144,←,left,←,0.6443799000699073,True,15
X034K26,308,experiment,72,←,left,←,0.6476766000268981,True,15
X034K26,309,experiment,96,↑,up,↑,0.6414181001018733,True,15
X034K26,310,experiment,60,↓,down,↓,0.982869099942036,True,15
X034K26,311,experiment,60,←,left,←,0.6202029000269249,True,15
X034K26,312,experiment,12,→,left,←,0.7112491000443697,False,15
X034K26,313,experiment,84,←,left,←,0.6796594000188634,True,15
X034K26,314,experiment,12,←,right,→,0.8567787000210956,False,15
X034K26,315,experiment,120,→,right,→,0.5814639000454918,True,15
X034K26,316,experiment,168,←,left,←,0.6952526000095531,True,15
X034K26,317,experiment,168,↓,down,↓,0.8646979000186548,True,15
X034K26,318,experiment,48,↑,up,↑,0.5502897999249399,True,15
X034K26,319,experiment,168,↑,right,→,1.4681367999874055,False,15
X034K26,320,experiment,84,↑,up,↑,0.6409602999920025,True,15
X034K26,321,experiment,72,↓,down,↓,1.1984850000590086,True,15
X034K26,322,experiment,180,↑,up,↑,1.1257223000284284,True,15
X034K26,323,experiment,156,←,left,←,0.6951344999251887,True,15
X034K26,324,experiment,12,←,left,←,0.7511064000427723,True,15
X034K26,325,experiment,72,↑,down,↓,0.6771101000485942,False,15
X034K26,326,experiment,144,→,right,→,0.9195868999231607,True,15
X034K26,327,experiment,60,↓,up,↑,0.9410437999758869,False,15
X034K26,328,experiment,84,→,right,→,0.5900273999432102,True,15
X034K26,329,experiment,180,↓,down,↓,1.2437879000790417,True,15
X034K26,330,experiment,96,←,up,↑,1.1360509999794886,False,15
X034K26,331,experiment,96,↓,down,↓,0.7921286999480799,True,15
X034K26,332,experiment,156,→,up,↑,1.078949399990961,False,15
X034K26,333,experiment,36,→,right,→,0.5149053999921307,True,15
X034K26,334,experiment,48,→,left,←,0.5087381000630558,False,15
X034K26,335,experiment,120,↑,no_key,no_letter,-1.0,False,15
X034K26,336,experiment,108,→,right,→,0.5701824000570923,True,15
X034K26,337,experiment,132,←,left,←,0.7351488000713289,True,15
X034K26,338,experiment,24,↓,up,↑,1.2421590000158176,False,15
X034K26,339,experiment,120,←,left,←,0.6353971998905763,True,15
X034K26,340,experiment,132,↓,down,↓,1.0259796999162063,True,15
X034K26,341,experiment,168,↑,up,↑,0.8537601999705657,True,15
X034K26,342,experiment,36,↓,down,↓,0.8664249000139534,True,15
X034K26,343,experiment,48,→,right,→,0.6354336999356747,True,15
X034K26,344,experiment,84,→,right,→,0.751191999996081,True,15
X034K26,345,experiment,132,↓,down,↓,0.7871207999996841,True,15
X034K26,346,training,156,↑,up,↑,0.5702341999858618,True,15
X034K26,347,training,144,↓,down,↓,0.7901294999755919,True,15
X034K26,348,training,60,↑,up,↑,0.7310875999974087,True,15
X034K26,349,experiment,24,→,right,→,0.5627962000435218,True,15
X034K26,350,experiment,12,↑,left,←,0.6355191000038758,False,15
X034K26,351,experiment,144,↑,down,↓,1.0692048999480903,False,15
X034K26,352,experiment,132,↓,down,↓,1.0293336999602616,True,15
X034K26,353,experiment,60,←,right,→,0.5503051999257877,False,15
X034K26,354,experiment,108,↑,up,↑,0.7343479000264779,True,15
X034K26,355,experiment,168,↑,up,↑,0.669422399951145,True,15
X034K26,356,experiment,180,↓,up,↑,1.1660812000045553,False,15
X034K26,357,experiment,96,←,left,←,0.709813499939628,True,15
X034K26,358,experiment,156,←,left,←,0.6238975001033396,True,15
X034K26,359,experiment,36,←,left,←,0.7530579000012949,True,15
X034K26,360,experiment,72,↑,up,↑,0.8317973000230268,True,15
X034K26,361,experiment,24,↓,down,↓,0.8212568999733776,True,15
X034K26,362,experiment,180,↓,down,↓,0.7844639000250027,True,15
X034K26,363,experiment,60,↓,down,↓,0.8303518999600783,True,15
X034K26,364,experiment,96,↑,up,↑,0.7373278000159189,True,15
X034K26,365,experiment,132,↑,up,↑,0.7402993000578135,True,15
X034K26,366,experiment,48,↓,down,↓,0.6881362000713125,True,15
X034K26,367,experiment,120,↑,up,↑,0.6300038999179378,True,15
X034K26,368,experiment,168,↑,down,↓,1.3227310000220314,False,15
X034K26,369,experiment,156,→,left,←,0.8981088999425992,False,15
X034K26,370,experiment,96,↑,up,↑,0.6986097000772133,True,15
X034K26,371,experiment,132,↓,down,↓,0.7509317999938503,True,15
X034K26,372,experiment,36,→,right,→,0.7817912000464275,True,15
X034K26,373,experiment,60,←,left,←,0.73452320008073,True,15
X034K26,374,experiment,168,↑,down,↓,0.7949296000879258,False,15
X034K26,375,experiment,120,→,left,←,0.9443814000114799,False,15
X034K26,376,experiment,168,←,left,←,0.6261085000587627,True,15
X034K26,377,experiment,144,↓,down,↓,0.7788098000455648,True,15
X034K26,378,experiment,180,↑,up,↑,0.6808960998896509,True,15
X034K26,379,experiment,48,↑,up,↑,1.226809399900958,True,15
X034K26,380,experiment,144,↑,up,↑,0.7799827998969704,True,15
X034K26,381,experiment,72,←,left,←,0.9328210999956354,True,15
X034K26,382,experiment,36,↓,up,↑,0.9552058998961002,False,15
X034K26,383,experiment,144,↑,up,↑,0.6841331999748945,True,15
X034K26,384,experiment,72,↑,up,↑,0.6565665999660268,True,15
X034K26,385,experiment,72,↑,down,↓,0.7994746000040323,False,15
X034K26,386,experiment,12,↓,down,↓,0.9621573999756947,True,15
X034K26,387,experiment,84,←,left,←,1.026328600011766,True,15
X034K26,388,experiment,84,↓,up,↑,0.8769157999195158,False,15
X034K26,389,experiment,48,↓,down,↓,0.8801178999710828,True,15
X034K26,390,experiment,24,↑,up,↑,0.7149359999457374,True,15
X034K26,391,experiment,156,↓,down,↓,0.9281025999225676,True,15
X034K26,392,experiment,96,↓,down,↓,0.7877324000000954,True,15
X034K26,393,experiment,24,↑,up,↑,0.5831983999814838,True,15
X034K26,394,experiment,132,↑,up,↑,0.7651798999868333,True,15
X034K26,395,experiment,84,←,left,←,0.6144288999494165,True,15
X034K26,396,experiment,36,→,right,→,0.5681975999614224,True,15
X034K26,397,experiment,12,←,left,←,0.6475282999454066,True,15
X034K26,398,experiment,108,→,left,←,0.6085212000180036,False,15
X034K26,399,experiment,180,←,left,←,0.5637259999057278,True,15
X034K26,400,experiment,156,→,left,←,0.6893386000301689,False,15
X034K26,401,experiment,60,←,left,←,0.5207963000284508,True,15
X034K26,402,experiment,120,↓,no_key,no_letter,-1.0,False,15
X034K26,403,experiment,48,←,left,←,0.5838078999659047,True,15
X034K26,404,experiment,108,↓,up,↑,0.6567835999885574,False,15
X034K26,405,experiment,12,↑,down,↓,0.7309677000157535,False,15
X034K26,406,experiment,84,→,right,→,0.6966000000247732,True,15
X034K26,407,experiment,108,↓,up,↑,0.8846207000315189,False,15
X034K26,408,experiment,120,↓,right,→,1.2804632000625134,False,15
X034K26,409,training,72,←,left,←,0.8198773000622168,True,15
X034K26,410,training,108,↑,up,↑,0.6158416999969631,True,15
X034K26,411,training,132,↓,down,↓,0.8548578999470919,True,15
X034K26,412,experiment,24,→,left,←,0.6232925000367686,False,15
X034K26,413,experiment,96,↑,down,↓,0.971423799986951,False,15
X034K26,414,experiment,156,←,left,←,0.596373200067319,True,15
X034K26,415,experiment,48,↑,up,↑,1.0752902999520302,True,15
X034K26,416,experiment,168,→,left,←,0.6905167000368237,False,15
X034K26,417,experiment,132,←,right,→,0.9995745000196621,False,15
X034K26,418,experiment,168,↓,down,↓,0.8346803000895306,True,15
X034K26,419,experiment,72,↑,up,↑,0.6757300000172108,True,15
X034K26,420,experiment,36,↓,down,↓,0.7768907999852672,True,15
X034K26,421,experiment,60,→,right,→,0.8214890999952331,True,15
X034K26,422,experiment,180,↑,up,↑,0.7750088999746367,True,15
X034K26,423,experiment,84,←,left,←,0.887566199991852,True,15
X034K26,424,experiment,24,←,right,→,0.7729181000031531,False,15
X034K26,425,experiment,144,↑,up,↑,0.6986827999353409,True,15
X034K26,426,experiment,72,↓,down,↓,0.8268731000134721,True,15
X034K26,427,experiment,120,↑,up,↑,0.6656905000563711,True,15
X034K26,428,experiment,132,↑,up,↑,0.7792170000029728,True,15
X034K26,429,experiment,84,↓,down,↓,0.7244949999731034,True,15
X034K26,430,experiment,108,↑,up,↑,1.0297667999984697,True,15
X034K26,431,experiment,48,↑,up,↑,0.6235356000252068,True,15
X034K26,432,experiment,72,←,right,→,0.7680977999698371,False,15
X034K26,433,experiment,48,↓,down,↓,0.7828648999566212,True,15
X034K26,434,experiment,96,↑,up,↑,0.7662888000486419,True,15
X034K26,435,experiment,120,↑,up,↑,0.7474582999711856,True,15
X034K26,436,experiment,156,→,right,→,0.7108911999966949,True,15
X034K26,437,experiment,180,↑,up,↑,0.6638621999882162,True,15
X034K26,438,experiment,12,↑,no_key,no_letter,-1.0,False,15
X034K26,439,experiment,180,↓,up,↑,1.2434378999751061,False,15
X034K26,440,experiment,12,↓,up,↑,0.6700617000460625,False,15
X034K26,441,experiment,156,↓,down,↓,0.8357260999036953,True,15
X034K26,442,experiment,12,↑,no_key,no_letter,-1.0,False,15
X034K26,443,experiment,108,↑,up,↑,0.5161402999656275,True,15
X034K26,444,experiment,156,←,left,←,0.6562549999216571,True,15
X034K26,445,experiment,60,→,right,→,0.5618191999383271,True,15
X034K26,446,experiment,72,←,left,←,0.5806399000575766,True,15
X034K26,447,experiment,48,↑,up,↑,0.7442164999665692,True,15
X034K26,448,experiment,144,→,left,←,0.6612233999185264,False,15
X034K26,449,experiment,60,←,left,←,0.659944900078699,True,15
X034K26,450,experiment,24,↑,up,↑,0.7557017999934033,True,15
X034K26,451,experiment,180,←,left,←,0.6974489000858739,True,15
X034K26,452,experiment,120,↑,up,↑,0.6128684000577778,True,15
X034K26,453,experiment,132,→,left,←,0.611282900092192,False,15
X034K26,454,experiment,12,↑,up,↑,0.679856100003235,True,15
X034K26,455,experiment,24,←,left,←,0.5975377999711782,True,15
X034K26,456,experiment,120,↑,up,↑,0.5696268000174314,True,15
X034K26,457,experiment,132,↑,up,↑,0.6127398000098765,True,15
X034K26,458,experiment,60,↓,down,↓,0.853264500037767,True,15
X034K26,459,experiment,96,←,down,↓,1.1542451999848709,False,15
X034K26,460,experiment,144,↑,up,↑,0.573666000040248,True,15
X034K26,461,experiment,84,←,left,←,0.6472883999813348,True,15
X034K26,462,experiment,168,→,left,←,0.7318615999538451,False,15
X034K26,463,experiment,144,↑,up,↑,0.6888991999439895,True,15
X034K26,464,experiment,96,↓,down,↓,0.894234300008975,True,15
X034K26,465,experiment,108,←,left,←,0.8434283999959007,True,15
X034K26,466,experiment,84,←,left,←,0.8656055999454111,True,15
X034K26,467,experiment,108,↓,up,↑,0.5673401999520138,False,15
X034K26,468,experiment,36,↑,up,↑,0.6060350999468938,True,15
X034K26,469,experiment,36,↓,up,↑,0.6726884000236169,False,15
X034K26,470,experiment,36,←,left,←,0.6342612999724224,True,15
X034K26,471,experiment,168,←,left,←,0.6862427000887692,True,15
X034K26,472,training,24,↓,down,↓,0.9097877999302,True,15
X034K26,473,training,84,←,left,←,0.61869969998952,True,15
X034K26,474,training,132,↓,down,↓,0.8158747999696061,True,15
X034K26,475,experiment,120,←,right,→,0.8813181000296026,False,15
X034K26,476,experiment,132,→,right,→,0.8096712999977171,True,15
X034K26,477,experiment,96,↓,down,↓,0.7481795999919996,True,15
X034K26,478,experiment,168,↑,up,↑,0.6833924000384286,True,15
X034K26,479,experiment,12,←,left,←,0.917296800063923,True,15
X034K26,480,experiment,168,←,left,←,0.889203600003384,True,15
X034K26,481,experiment,24,↑,left,←,0.9204382000025362,False,15
X034K26,482,experiment,12,↑,up,↑,0.6798292999155819,True,15
X034K26,483,experiment,96,→,right,→,0.585867700050585,True,15
X034K26,484,experiment,60,→,right,→,0.6600633999332786,True,15
X034K26,485,experiment,60,←,left,←,0.5788384999614209,True,15
X034K26,486,experiment,72,→,left,←,0.7879538000561297,False,15
X034K26,487,experiment,36,←,left,←,0.6370385999325663,True,15
X034K26,488,experiment,120,→,right,→,0.6213934000115842,True,15
X034K26,489,experiment,24,↓,down,↓,0.8873815999832004,True,15
X034K26,490,experiment,180,↓,down,↓,1.0557283000089228,True,15
X034K26,491,experiment,60,←,left,←,0.6134068999672309,True,15
X034K26,492,experiment,108,↓,up,↑,1.0308145000599325,False,15
X034K26,493,experiment,84,↓,up,↑,1.130078199901618,False,15
X034K26,494,experiment,84,↓,down,↓,0.7145431999815628,True,15
X034K26,495,experiment,36,→,right,→,0.6105147000635043,True,15
X034K26,496,experiment,156,↓,down,↓,0.8660888000158593,True,15
X034K26,497,experiment,108,↓,down,↓,0.8389097999315709,True,15
X034K26,498,experiment,96,←,left,←,0.7126840999117121,True,15
X034K26,499,experiment,156,↓,down,↓,0.7680022999411449,True,15
X034K26,500,experiment,48,→,left,←,0.7466096000280231,False,15
X034K26,501,experiment,48,↑,down,↓,1.3993859000038356,False,15
X034K26,502,experiment,48,↑,up,↑,0.7504349000519142,True,15
X034K26,503,experiment,132,←,left,←,0.669151599984616,True,15
X034K26,504,experiment,12,↓,up,↑,0.9257247000932693,False,15
X034K26,505,experiment,132,↑,up,↑,0.8181741000153124,True,15
X034K26,506,experiment,144,↑,up,↑,0.7359857000410557,True,15
X034K26,507,experiment,24,→,right,→,0.6905004000291228,True,15
X034K26,508,experiment,72,←,left,←,0.7696412999648601,True,15
X034K26,509,experiment,180,→,left,←,1.2107535999966785,False,15
X034K26,510,experiment,132,→,left,←,0.8160859000636265,False,15
X034K26,511,experiment,60,←,left,←,0.8229113999987021,True,15
X034K26,512,experiment,156,→,left,←,0.5805441000266001,False,15
X034K26,513,experiment,156,←,left,←,0.9781608000630513,True,15
X034K26,514,experiment,72,←,left,←,0.6302897999994457,True,15
X034K26,515,experiment,96,→,left,←,0.7915116000222042,False,15
X034K26,516,experiment,24,←,left,←,0.7046709000132978,True,15
X034K26,517,experiment,120,↑,up,↑,1.4316118999850005,True,15
X034K26,518,experiment,84,↓,down,↓,1.0347013999707997,True,15
X034K26,519,experiment,120,←,right,→,1.0053244999144226,False,15
X034K26,520,experiment,180,↓,down,↓,0.7814643000019714,True,15
X034K26,521,experiment,72,←,left,←,0.6035513000097126,True,15
X034K26,522,experiment,108,←,left,←,0.7383062000153586,True,15
X034K26,523,experiment,168,←,left,←,0.6049488000571728,True,15
X034K26,524,experiment,36,→,left,←,0.783010600018315,False,15
X034K26,525,experiment,36,↓,down,↓,0.8350385000230744,True,15
X034K26,526,experiment,108,→,right,→,0.5903391999891028,True,15
X034K26,527,experiment,144,↓,down,↓,0.912474500015378,True,15
X034K26,528,experiment,144,↓,down,↓,0.7848522999556735,True,15
X034K26,529,experiment,12,↑,no_key,no_letter,-1.0,False,15
X034K26,530,experiment,84,←,left,←,0.9801806999603286,True,15
X034K26,531,experiment,48,↑,up,↑,0.6790655999211594,True,15
X034K26,532,experiment,180,↑,up,↑,0.7067174999974668,True,15
X034K26,533,experiment,168,←,left,←,0.6464254999300465,True,15
X034K26,534,experiment,144,←,right,→,0.6485379999503493,False,15
X034K26,535,training,132,→,right,→,0.5994727000361308,True,15
X034K26,536,training,12,→,right,→,0.6061688999179751,True,15
X034K26,537,training,168,←,left,←,0.6414110000478104,True,15
X034K26,538,experiment,180,↑,up,↑,0.7294844000134617,True,15
X034K26,539,experiment,144,↑,up,↑,0.6443158999318257,True,15
X034K26,540,experiment,108,→,left,←,0.6782185999909416,False,15
X034K26,541,experiment,132,↓,up,↑,1.656258000060916,False,15
X034K26,542,experiment,120,↓,down,↓,0.9705860000103712,True,15
X034K26,543,experiment,108,→,right,→,0.5986262999940664,True,15
X034K26,544,experiment,36,↑,up,↑,0.8083298000274226,True,15
X034K26,545,experiment,60,↑,up,↑,0.9526372000109404,True,15
X034K26,546,experiment,108,↓,down,↓,0.8013254000106826,True,15
X034K26,547,experiment,96,→,right,→,0.5745945998933166,True,15
X034K26,548,experiment,36,↑,up,↑,0.9159613000229001,True,15
X034K26,549,experiment,96,→,right,→,0.6539404999930412,True,15
X034K26,550,experiment,60,←,right,→,1.0563298999331892,False,15
X034K26,551,experiment,36,↑,up,↑,0.8158864999422804,True,15
X034K26,552,experiment,48,↓,down,↓,0.8735187000129372,True,15
X034K26,553,experiment,72,↑,up,↑,0.7337283999659121,True,15
X034K26,554,experiment,120,↓,up,↑,0.701328800059855,False,15
X034K26,555,experiment,84,→,right,→,0.6580184999620542,True,15
X034K26,556,experiment,168,↑,up,↑,1.009910700027831,True,15
X034K26,557,experiment,180,↓,up,↑,0.8298614000668749,False,15
X034K26,558,experiment,156,←,left,←,0.8747053999686614,True,15
X034K26,559,experiment,48,↓,up,↑,1.025155199924484,False,15
X034K26,560,experiment,72,↓,down,↓,0.9198491000570357,True,15
X034K26,561,experiment,60,←,left,←,0.7197711999760941,True,15
X034K26,562,experiment,72,↓,down,↓,0.8201558000873774,True,15
X034K26,563,experiment,96,↑,up,↑,0.7661666000494733,True,15
X034K26,564,experiment,144,↑,up,↑,0.7950322999386117,True,15
X034K26,565,experiment,12,←,left,←,1.3576754999812692,True,15
X034K26,566,experiment,168,→,right,→,0.8961275999899954,True,15
X034K26,567,experiment,60,←,right,→,0.7189325999934226,False,15
X034K26,568,experiment,180,←,right,→,0.7977103999583051,False,15
X034K26,569,experiment,72,↓,down,↓,0.8283031000755727,True,15
X034K26,570,experiment,84,←,left,←,0.7331746000563726,True,15
X034K26,571,experiment,132,↓,down,↓,0.8442548000020906,True,15
X034K26,572,experiment,48,↓,down,↓,0.7905637000221759,True,15
X034K26,573,experiment,132,→,left,←,0.753536699921824,False,15
X034K26,574,experiment,12,→,right,→,0.5958222999470308,True,15
X034K26,575,experiment,84,↑,up,↑,0.7172304999548942,True,15
X034K26,576,experiment,156,↓,down,↓,0.7748092000838369,True,15
X034K26,577,experiment,84,←,left,←,0.5800480999751016,True,15
X034K26,578,experiment,132,↑,down,↓,0.9928405999671668,False,15
X034K26,579,experiment,108,←,left,←,0.553760000038892,True,15
X034K26,580,experiment,144,←,right,→,0.6299074999988079,False,15
X034K26,581,experiment,120,→,left,←,0.5092334999935701,False,15
X034K26,582,experiment,12,↓,up,↑,0.7293030000291765,False,15
X034K26,583,experiment,144,↓,down,↓,0.8230878999456763,True,15
X034K26,584,experiment,24,←,left,←,0.9073037999914959,True,15
X034K26,585,experiment,168,↑,right,→,1.1402081999694929,False,15
X034K26,586,experiment,36,↑,up,↑,0.6714915999909863,True,15
X034K26,587,experiment,96,↑,down,↓,0.8933449999894947,False,15
X034K26,588,experiment,168,↑,up,↑,0.6232448000228032,True,15
X034K26,589,experiment,24,↓,down,↓,0.8296840999973938,True,15
X034K26,590,experiment,24,↑,up,↑,0.8411548999138176,True,15
X034K26,591,experiment,156,↓,down,↓,0.8912811999907717,True,15
X034K26,592,experiment,180,↑,up,↑,0.8298213999951258,True,15
X034K26,593,experiment,120,←,right,→,0.664452699944377,False,15
X034K26,594,experiment,24,↑,up,↑,0.7304490000242367,True,15
X034K26,595,experiment,156,↑,up,↑,0.6160614000400528,True,15
X034K26,596,experiment,12,←,left,←,0.8269772999919951,True,15
X034K26,597,experiment,48,↑,up,↑,0.566681299940683,True,15
X034K26,598,training,12,→,left,←,0.47497199999634176,False,15
X034K26,599,training,108,↑,up,↑,0.5332118000369519,True,15
X034K26,600,training,180,←,right,→,0.48389619996305555,False,15
X034K26,601,experiment,24,↓,down,↓,0.8485076999058947,True,15
X034K26,602,experiment,84,↑,up,↑,0.613234700052999,True,15
X034K26,603,experiment,72,↓,down,↓,0.7311491000000387,True,15
X034K26,604,experiment,60,↓,down,↓,0.7112158999079838,True,15
X034K26,605,experiment,144,→,left,←,0.719561200006865,False,15
X034K26,606,experiment,180,←,left,←,0.7116420000093058,True,15
X034K26,607,experiment,180,→,right,→,0.7140436000190675,True,15
X034K26,608,experiment,12,↓,up,↑,1.3367913999827579,False,15
X034K26,609,experiment,120,←,left,←,0.7368512999964878,True,15
X034K26,610,experiment,132,↑,up,↑,0.724761400022544,True,15
X034K26,611,experiment,96,↓,down,↓,1.0380675999913365,True,15
X034K26,612,experiment,156,↓,down,↓,1.1367737000109628,True,15
X034K26,613,experiment,96,←,left,←,0.5987432999536395,True,15
X034K26,614,experiment,36,→,left,←,0.5892046000808477,False,15
X034K26,615,experiment,48,↓,down,↓,0.7945776999695227,True,15
X034K26,616,experiment,168,↓,down,↓,0.7647393000079319,True,15
X034K26,617,experiment,156,↑,up,↑,0.8342407000018284,True,15
X034K26,618,experiment,72,←,left,←,0.6948631000705063,True,15
X034K26,619,experiment,48,←,left,←,0.64793550001923,True,15
X034K26,620,experiment,72,←,left,←,0.6032623000210151,True,15
X034K26,621,experiment,144,→,left,←,0.8307660000864416,False,15
X034K26,622,experiment,180,↓,down,↓,0.7957672999473289,True,15
X034K26,623,experiment,168,↓,down,↓,0.7651636999798939,True,15
X034K26,624,experiment,12,←,left,←,0.5723322000121698,True,15
X034K26,625,experiment,36,↓,down,↓,1.1158607999095693,True,15
X034K26,626,experiment,132,↑,down,↓,0.7908350999932736,False,15
X034K26,627,experiment,168,↓,down,↓,0.6409252999583259,True,15
X034K26,628,experiment,120,↓,down,↓,0.6155992000130937,True,15
X034K26,629,experiment,108,↑,up,↑,0.7344047999940813,True,15
X034K26,630,experiment,60,←,left,←,0.6235266999574378,True,15
X034K26,631,experiment,12,←,up,↑,0.832012299913913,False,15
X034K26,632,experiment,108,↑,up,↑,0.9307036999380216,True,15
X034K26,633,experiment,24,↑,up,↑,0.6318091000430286,True,15
X034K26,634,experiment,96,↑,up,↑,0.6238073999993503,True,15
X034K26,635,experiment,144,←,left,←,0.5145968000870198,True,15
X034K26,636,experiment,132,↑,up,↑,0.6304143999004737,True,15
X034K26,637,experiment,120,↓,up,↑,0.6562472999794409,False,15
X034K26,638,experiment,60,↓,up,↑,0.8030447999481112,False,15
X034K26,639,experiment,12,→,left,←,0.6491927999304608,False,15
X034K26,640,experiment,60,↑,up,↑,0.6201739000389352,True,15
X034K26,641,experiment,84,←,left,←,0.5717878999421373,True,15
X034K26,642,experiment,108,↑,up,↑,0.6291530999587849,True,15
X034K26,643,experiment,24,↓,down,↓,0.8146396999945864,True,15
X034K26,644,experiment,72,←,left,←,0.6089668999193236,True,15
X034K26,645,experiment,168,←,left,←,0.7011548000155017,True,15
X034K26,646,experiment,108,→,right,→,0.8353245999896899,True,15
X034K26,647,experiment,84,→,right,→,0.8052300000563264,True,15
X034K26,648,experiment,144,→,left,←,0.6233687000349164,False,15
X034K26,649,experiment,96,↑,up,↑,0.9353053000522777,True,15
X034K26,650,experiment,156,←,no_key,no_letter,-1.0,False,15
X034K26,651,experiment,24,↑,up,↑,0.6337767000077292,True,15
X034K26,652,experiment,156,↓,down,↓,0.6823470999952406,True,15
X034K26,653,experiment,36,→,left,←,1.0837561999214813,False,15
X034K26,654,experiment,48,↓,up,↑,0.6418030000058934,False,15
X034K26,655,experiment,84,↓,down,↓,0.7445445000194013,True,15
X034K26,656,experiment,36,→,left,←,0.5871747999917716,False,15
X034K26,657,experiment,132,↑,up,↑,0.6639960000757128,True,15
X034K26,658,experiment,48,↑,up,↑,0.6688288000877947,True,15
X034K26,659,experiment,180,↑,up,↑,0.7498504999093711,True,15
X034K26,660,experiment,120,↑,up,↑,0.6048943999921903,True,15
X034K26,661,training,156,↑,left,←,1.003223599982448,False,15
X034K26,662,training,72,→,right,→,0.6748701999895275,True,15
X034K26,663,training,60,←,left,←,0.6192400000290945,True,15
X034K26,664,experiment,60,↑,up,↑,0.7163609999697655,True,15
X034K26,665,experiment,72,←,left,←,0.4677020999370143,True,15
X034K26,666,experiment,84,↑,up,↑,0.661188600002788,True,15
X034K26,667,experiment,144,↓,down,↓,0.741955199977383,True,15
X034K26,668,experiment,24,←,left,←,0.7351599999237806,True,15
X034K26,669,experiment,168,↑,up,↑,0.7461661999113858,True,15
X034K26,670,experiment,120,↑,up,↑,0.6681176999118179,True,15
X034K26,671,experiment,12,↑,up,↑,0.6121660999488086,True,15
X034K26,672,experiment,180,→,right,→,0.7410957999527454,True,15
X034K26,673,experiment,24,→,right,→,0.5802489999914542,True,15
X034K26,674,experiment,108,←,left,←,0.5982746999943629,True,15
X034K26,675,experiment,36,→,right,→,0.5709545999998227,True,15
X034K26,676,experiment,144,↓,down,↓,0.7651737000560388,True,15
X034K26,677,experiment,108,→,right,→,0.5950837999116629,True,15
X034K26,678,experiment,12,→,left,←,0.6661523000802845,False,15
X034K26,679,experiment,36,←,right,→,0.5694471000460908,False,15
X034K26,680,experiment,132,→,right,→,0.7621389999985695,True,15
X034K26,681,experiment,120,↓,down,↓,0.7878376999869943,True,15
X034K26,682,experiment,84,→,right,→,0.6635972999501973,True,15
X034K26,683,experiment,156,↓,down,↓,0.9261847999878228,True,15
X034K26,684,experiment,36,↓,down,↓,0.7598364000441507,True,15
X034K26,685,experiment,96,↑,right,→,0.9540308999130502,False,15
X034K26,686,experiment,12,↓,down,↓,0.7930126000428572,True,15
X034K26,687,experiment,72,↑,up,↑,0.6610711000394076,True,15
X034K26,688,experiment,132,↑,up,↑,0.6846743000205606,True,15
X034K26,689,experiment,12,↑,down,↓,0.8907600999809802,False,15
X034K26,690,experiment,24,↓,down,↓,0.8169789999956265,True,15
X034K26,691,experiment,36,↑,up,↑,0.7849410000490025,True,15
X034K26,692,experiment,156,↓,up,↑,0.9633714000228792,False,15
X034K26,693,experiment,156,↑,up,↑,0.923007300007157,True,15
X034K26,694,experiment,108,←,left,←,0.7094958000816405,True,15
X034K26,695,experiment,168,↓,down,↓,0.7670085999416187,True,15
X034K26,696,experiment,132,←,left,←,0.6339183000382036,True,15
X034K26,697,experiment,132,↑,up,↑,0.6679904999909922,True,15
X034K26,698,experiment,72,←,left,←,0.5840691999765113,True,15
X034K26,699,experiment,48,↑,up,↑,0.7309409000445157,True,15
X034K26,700,experiment,24,↓,down,↓,0.7337301999796182,True,15
X034K26,701,experiment,48,←,left,←,0.5934247999684885,True,15
X034K26,702,experiment,96,→,left,←,0.6180989999556914,False,15
X034K26,703,experiment,180,→,right,→,0.7984966000076383,True,15
X034K26,704,experiment,156,←,left,←,0.5760082999477163,True,15
X034K26,705,experiment,180,←,left,←,0.6295921000419185,True,15
X034K26,706,experiment,84,↑,up,↑,0.6193316000280902,True,15
X034K26,707,experiment,60,↓,down,↓,0.79053739993833,True,15
X034K26,708,experiment,120,↓,down,↓,1.004638300044462,True,15
X034K26,709,experiment,60,↓,up,↑,0.8137449000496417,False,15
X034K26,710,experiment,120,→,right,→,0.8745349999517202,True,15
X034K26,711,experiment,84,↓,down,↓,0.7502108999760821,True,15
X034K26,712,experiment,60,↑,down,↓,0.9534394999500364,False,15
X034K26,713,experiment,48,↑,up,↑,0.7237573000602424,True,15
X034K26,714,experiment,108,↓,up,↑,0.8613622999982908,False,15
X034K26,715,experiment,144,←,left,←,0.5992390000028536,True,15
X034K26,716,experiment,168,←,left,←,0.6220257000532001,True,15
X034K26,717,experiment,144,↑,up,↑,0.6382553000003099,True,15
X034K26,718,experiment,96,↑,up,↑,0.5659821999724954,True,15
X034K26,719,experiment,96,↓,down,↓,0.8980147999245673,True,15
X034K26,720,experiment,48,↓,down,↓,0.9304153000703081,True,15
X034K26,721,experiment,168,←,left,←,0.565003199968487,True,15
X034K26,722,experiment,180,↓,right,→,0.7299509999575093,False,15
X034K26,723,experiment,72,↓,down,↓,0.8119325999869034,True,15
X034K26,724,training,180,←,left,←,0.6637080000946298,True,15
X034K26,725,training,12,→,right,→,0.5981963999802247,True,15
X034K26,726,training,48,→,right,→,0.5289396999869496,True,15
X034K26,727,experiment,84,↑,up,↑,0.5758615999948233,True,15
X034K26,728,experiment,120,←,right,→,0.5955427999142557,False,15
X034K26,729,experiment,180,←,left,←,1.2554864999838173,True,15
X034K26,730,experiment,144,→,right,→,0.8120204000733793,True,15
X034K26,731,experiment,156,↑,up,↑,0.8290064000757411,True,15
X034K26,732,experiment,156,←,no_key,no_letter,-1.0,False,15
X034K26,733,experiment,168,→,right,→,0.6246127999620512,True,15
X034K26,734,experiment,156,←,right,→,0.5650399000151083,False,15
X034K26,735,experiment,108,↓,down,↓,0.8780402999836951,True,15
X034K26,736,experiment,72,←,right,→,0.7507291999645531,False,15
X034K26,737,experiment,84,↑,up,↑,0.7270243000239134,True,15
X034K26,738,experiment,132,↑,up,↑,0.6724927000468597,True,15
X034K26,739,experiment,96,↑,up,↑,0.6375293999444693,True,15
X034K26,740,experiment,108,←,left,←,1.031879200018011,True,15
X034K26,741,experiment,180,←,left,←,0.6719588999403641,True,15
X034K26,742,experiment,120,↑,up,↑,0.6090746999252588,True,15
X034K26,743,experiment,12,↑,up,↑,0.7375557000050321,True,15
X034K26,744,experiment,24,↑,up,↑,0.6060551000991836,True,15
X034K26,745,experiment,72,↑,up,↑,0.6021524000680074,True,15
X034K26,746,experiment,132,←,left,←,0.5517006000736728,True,15
X034K26,747,experiment,120,←,left,←,0.7310636000474915,True,15
X034K26,748,experiment,144,↓,up,↑,0.7801566000562161,False,15
X034K26,749,experiment,36,←,left,←,0.6608161000767723,True,15
X034K26,750,experiment,120,→,right,→,0.5847192000364885,True,15
X034K26,751,experiment,180,→,left,←,0.692006399971433,False,15
X034K26,752,experiment,108,↓,up,↑,0.5412116000661626,False,15
X034K26,753,experiment,36,←,left,←,0.5719380000373349,True,15
X034K26,754,experiment,72,←,left,←,0.5241664999630302,True,15
X034K26,755,experiment,24,→,left,←,0.560687700053677,False,15
X034K26,756,experiment,84,↑,up,↑,0.5963163000997156,True,15
X034K26,757,experiment,168,→,right,→,0.5442428999813274,True,15
X034K26,758,experiment,144,↓,down,↓,1.1622208999469876,True,15
X034K26,759,experiment,72,←,right,→,1.0135096000740305,False,15
X034K26,760,experiment,48,←,left,←,0.5472425000043586,True,15
X034K26,761,experiment,12,↓,no_key,no_letter,-1.0,False,15
X034K26,762,experiment,60,→,right,→,0.6189339999109507,True,15
X034K26,763,experiment,48,↓,down,↓,0.7801784999901429,True,15
X034K26,764,experiment,12,↑,up,↑,0.6931900999043137,True,15
X034K26,765,experiment,36,←,left,←,0.504468800034374,True,15
X034K26,766,experiment,132,↑,up,↑,0.5986571999965236,True,15
X034K26,767,experiment,132,←,right,→,0.598119999980554,False,15
X034K26,768,experiment,36,←,left,←,0.6398523999378085,True,15
X034K26,769,experiment,48,↑,up,↑,0.6217735999962315,True,15
X034K26,770,experiment,60,→,right,→,0.7751337999943644,True,15
X034K26,771,experiment,84,↑,up,↑,0.6547396000241861,True,15
X034K26,772,experiment,168,↓,down,↓,0.7814973000204191,True,15
X034K26,773,experiment,180,↑,up,↑,0.6460439999355003,True,15
X034K26,774,experiment,24,↑,down,↓,0.7493439000099897,False,15
X034K26,775,experiment,96,↓,down,↓,0.8438485999358818,True,15
X034K26,776,experiment,108,↑,up,↑,0.7218316000653431,True,15
X034K26,777,experiment,24,↓,up,↑,0.7477120000403374,False,15
X034K26,778,experiment,12,→,right,→,0.7124197999946773,True,15
X034K26,779,experiment,60,←,right,→,0.9206442999420688,False,15
X034K26,780,experiment,96,↓,up,↑,0.8570480999769643,False,15
X034K26,781,experiment,168,↑,up,↑,0.6279580999398604,True,15
X034K26,782,experiment,48,←,left,←,0.7743421000195667,True,15
X034K26,783,experiment,156,→,left,←,0.5500252000056207,False,15
X034K26,784,experiment,60,↑,up,↑,0.680852200021036,True,15
X034K26,785,experiment,96,↑,up,↑,1.1066420999122784,True,15
X034K26,786,experiment,144,↓,left,←,0.7101562999887392,False,15
X034K26,787,training,84,→,right,→,0.6618109999690205,True,15
X034K26,788,training,120,↑,up,↑,0.7050478999735788,True,15
X034K26,789,training,156,↑,up,↑,0.6065602999879047,True,15
X034K26,790,experiment,120,↑,up,↑,0.567230400047265,True,15
X034K26,791,experiment,180,←,left,←,0.6024041000055149,True,15
X034K26,792,experiment,36,↓,up,↑,0.5319029999664053,False,15
X034K26,793,experiment,84,←,left,←,0.4373080999357626,True,15
X034K26,794,experiment,48,↑,up,↑,0.5466951999114826,True,15
X034K26,795,experiment,156,↓,down,↓,0.7550557999638841,True,15
X034K26,796,experiment,108,←,right,→,0.9237531999824569,False,15
X034K26,797,experiment,84,←,left,←,0.6509904999984428,True,15
X034K26,798,experiment,96,↓,up,↑,0.9360859000589699,False,15
X034K26,799,experiment,144,→,right,→,0.6422784000169486,True,15
X034K26,800,experiment,48,↑,right,→,0.860886299982667,False,15
X034K26,801,experiment,24,↑,down,↓,0.7872869999846444,False,15
X034K26,802,experiment,36,←,left,←,0.5999011000385508,True,15
X034K26,803,experiment,132,→,right,→,0.5732167001115158,True,15
X034K26,804,experiment,72,→,right,→,0.5556315999710932,True,15
X034K26,805,experiment,12,→,right,→,0.5830259999493137,True,15
X034K26,806,experiment,48,→,right,→,0.5550134000368416,True,15
X034K26,807,experiment,84,↑,up,↑,0.608693900052458,True,15
X034K26,808,experiment,168,↓,down,↓,0.8448586000595242,True,15
X034K26,809,experiment,96,↓,down,↓,0.722154299961403,True,15
X034K26,810,experiment,156,↓,down,↓,0.8238413999788463,True,15
X034K26,811,experiment,132,↑,up,↑,0.6302144998917356,True,15
X034K26,812,experiment,24,→,right,→,0.5063780000200495,True,15
X034K26,813,experiment,12,←,right,→,0.6683638000395149,False,15
X034K26,814,experiment,156,←,left,←,0.6233752000844106,True,15
X034K26,815,experiment,12,←,left,←,0.6208859999896958,True,15
X034K26,816,experiment,168,←,left,←,0.5581260999897495,True,15
X034K26,817,experiment,72,←,left,←,0.599993700045161,True,15
X034K26,818,experiment,60,→,left,←,0.6113558999495581,False,15
X034K26,819,experiment,180,→,right,→,0.5427248000632972,True,15
X034K26,820,experiment,36,↓,up,↑,0.7230657000327483,False,15
X034K26,821,experiment,144,←,left,←,0.7038911000126973,True,15
X034K26,822,experiment,180,→,right,→,0.5484740000683814,True,15
X034K26,823,experiment,84,→,right,→,0.5549987000413239,True,15
X034K26,824,experiment,60,→,left,←,0.5685713000129908,False,15
X034K26,825,experiment,120,←,right,→,0.9842870000284165,False,15
X034K26,826,experiment,108,→,right,→,0.768008999992162,True,15
X034K26,827,experiment,48,→,right,→,0.6811825999757275,True,15
X034K26,828,experiment,72,↑,no_key,no_letter,-1.0,False,15
X034K26,829,experiment,60,↑,up,↑,0.6228245999664068,True,15
X034K26,830,experiment,168,↓,down,↓,0.844330899999477,True,15
X034K26,831,experiment,96,←,left,←,0.6013204000191763,True,15
X034K26,832,experiment,108,→,right,→,0.5683985999785364,True,15
X034K26,833,experiment,108,→,right,→,0.8892320999875665,True,15
X034K26,834,experiment,72,↓,down,↓,0.8227989000733942,True,15
X034K26,835,experiment,120,→,left,←,0.6543540999991819,False,15
X034K26,836,experiment,24,↑,up,↑,0.6321901000337675,True,15
X034K26,837,experiment,96,↓,left,←,0.8192936000414193,False,15
X034K26,838,experiment,24,↑,up,↑,0.6443117000162601,True,15
X034K26,839,experiment,144,→,right,→,0.6578812999650836,True,15
X034K26,840,experiment,60,↓,down,↓,0.7883178000338376,True,15
X034K26,841,experiment,132,←,left,←,0.5451296000974253,True,15
X034K26,842,experiment,120,↓,down,↓,0.8120500000659376,True,15
X034K26,843,experiment,132,←,right,→,1.155511699966155,False,15
X034K26,844,experiment,12,↑,up,↑,0.7147929000202566,True,15
X034K26,845,experiment,36,↓,up,↑,0.637927099945955,False,15
X034K26,846,experiment,168,↑,up,↑,0.5821795000229031,True,15
X034K26,847,experiment,180,↓,down,↓,0.758652999997139,True,15
X034K26,848,experiment,144,→,right,→,0.6273530999897048,True,15
X034K26,849,experiment,156,←,left,←,0.6100597999757156,True,15
