PART_ID,Trial_no,Trial_type,PDI,Stim_letter,Key_pressed,letter_choose,Rt,Corr,Stimulus Time
X035K20,1,training,10,↓,no_key,no_letter,-1.0,False,30
X035K20,2,training,10,←,left,←,1.2065841999137774,True,30
X035K20,3,training,10,←,right,→,0.7880215999903157,False,30
X035K20,4,training,10,←,left,←,0.833251400035806,True,30
X035K20,5,training,10,↓,down,↓,1.0277868000557646,True,30
X035K20,6,training,10,→,right,→,1.1171428000088781,True,30
X035K20,7,training,10,↑,up,↑,0.8119215999031439,True,30
X035K20,8,training,10,↑,up,↑,1.6439828999573365,True,30
X035K20,9,training,10,↓,down,↓,0.8036597000900656,True,30
X035K20,10,training,10,←,right,→,1.318878800026141,False,30
X035K20,11,training,10,↑,up,↑,0.7216798999579623,True,30
X035K20,12,training,10,↑,up,↑,0.7018524999730289,True,30
X035K20,13,training,10,↑,up,↑,1.1975288999965414,True,30
X035K20,14,training,10,←,left,←,1.018460499937646,True,30
X035K20,15,training,10,↑,up,↑,0.8487128999549896,True,30
X035K20,16,training,10,↓,down,↓,0.8791531000752002,True,30
X035K20,17,training,10,↑,up,↑,0.8028952999738976,True,30
X035K20,18,training,10,←,left,←,0.6006488000275567,True,30
X035K20,19,training,10,←,left,←,0.6171423000050709,True,30
X035K20,20,training,10,↑,up,↑,0.63415470009204,True,30
X035K20,21,training,10,↑,up,↑,0.7411263999529183,True,18
X035K20,22,training,10,↓,down,↓,0.4691041000187397,True,18
X035K20,23,training,10,→,down,↓,0.36725939996540546,False,18
X035K20,24,training,10,→,down,↓,0.6416768999770284,False,18
X035K20,25,training,10,←,down,↓,0.5689026999752969,False,18
X035K20,26,training,10,↑,up,↑,0.7676044000545517,True,18
X035K20,27,training,10,←,down,↓,1.0880488998955116,False,18
X035K20,28,training,10,→,no_key,no_letter,-1.0,False,18
X035K20,29,training,10,→,right,→,0.9513750999467447,True,18
X035K20,30,training,10,↑,down,↓,0.6842883999925107,False,18
X035K20,31,training,108,↓,up,↑,0.9266917000059038,False,15
X035K20,32,training,168,↓,down,↓,0.8564669999759644,True,15
X035K20,33,training,84,↓,up,↑,1.1123371000867337,False,15
X035K20,34,experiment,36,↓,down,↓,1.093315599951893,True,15
X035K20,35,experiment,60,→,left,←,0.7595124000217766,False,15
X035K20,36,experiment,132,←,right,→,1.1842974000610411,False,15
X035K20,37,experiment,60,←,left,←,0.755769099923782,True,15
X035K20,38,experiment,84,←,left,←,0.6711164999287575,True,15
X035K20,39,experiment,108,↓,down,↓,0.7817009999416769,True,15
X035K20,40,experiment,132,↑,down,↓,0.5925391999771819,False,15
X035K20,41,experiment,72,→,right,→,0.7777706000488251,True,15
X035K20,42,experiment,48,↑,right,→,0.9158218000084162,False,15
X035K20,43,experiment,120,←,down,↓,0.9826723000733182,False,15
X035K20,44,experiment,48,←,down,↓,1.318774100043811,False,15
X035K20,45,experiment,168,←,down,↓,0.8496872000396252,False,15
X035K20,46,experiment,24,←,down,↓,0.8910090000135824,False,15
X035K20,47,experiment,72,←,left,←,1.0574256000109017,True,15
X035K20,48,experiment,168,↓,down,↓,1.0753534000832587,True,15
X035K20,49,experiment,12,↑,down,↓,0.7406644999282435,False,15
X035K20,50,experiment,96,↑,right,→,0.9335610000416636,False,15
X035K20,51,experiment,84,→,down,↓,1.0835311999544501,False,15
X035K20,52,experiment,24,↑,up,↑,1.308107600081712,True,15
X035K20,53,experiment,108,←,down,↓,1.2670127000892535,False,15
X035K20,54,experiment,60,↑,down,↓,1.0219278000295162,False,15
X035K20,55,experiment,132,↑,down,↓,1.0563770000590011,False,15
X035K20,56,experiment,24,↑,right,→,1.1556459999410436,False,15
X035K20,57,experiment,180,↓,down,↓,0.6295213999692351,True,15
X035K20,58,experiment,84,→,down,↓,0.7401575999101624,False,15
X035K20,59,experiment,12,↑,up,↑,0.7045274000847712,True,15
X035K20,60,experiment,108,↓,down,↓,0.6449021000880748,True,15
X035K20,61,experiment,120,←,down,↓,0.6784161999821663,False,15
X035K20,62,experiment,36,↑,up,↑,0.45411200006492436,True,15
X035K20,63,experiment,156,←,right,→,1.7152079999214038,False,15
X035K20,64,experiment,180,↓,down,↓,0.6279677000129595,True,15
X035K20,65,experiment,60,↑,up,↑,0.7170126000419259,True,15
X035K20,66,experiment,156,→,down,↓,0.7498668000334874,False,15
X035K20,67,experiment,156,→,no_key,no_letter,-1.0,False,15
X035K20,68,experiment,144,↓,up,↑,1.1002487000077963,False,15
X035K20,69,experiment,72,←,left,←,0.8222648999653757,True,15
X035K20,70,experiment,36,→,up,↑,0.8439608999760821,False,15
X035K20,71,experiment,12,→,down,↓,1.3404697000514716,False,15
X035K20,72,experiment,168,→,up,↑,0.811628199997358,False,15
X035K20,73,experiment,12,→,right,→,0.6096085000317544,True,15
X035K20,74,experiment,132,→,right,→,0.7236253999872133,True,15
X035K20,75,experiment,72,←,left,←,0.5964152999222279,True,15
X035K20,76,experiment,84,↓,down,↓,0.7825596000766382,True,15
X035K20,77,experiment,144,→,down,↓,0.9553657000651583,False,15
X035K20,78,experiment,96,→,right,→,0.606262500048615,True,15
X035K20,79,experiment,108,↑,down,↓,0.9120552999665961,False,15
X035K20,80,experiment,96,↑,left,←,1.1151477999519557,False,15
X035K20,81,experiment,156,←,left,←,1.109649799996987,True,15
X035K20,82,experiment,144,↓,right,→,1.081999700050801,False,15
X035K20,83,experiment,36,↑,down,↓,0.8477713000029325,False,15
X035K20,84,experiment,96,↑,up,↑,0.6932867999421433,True,15
X035K20,85,experiment,180,←,up,↑,1.0370257999747992,False,15
X035K20,86,experiment,48,→,left,←,1.1244825000176206,False,15
X035K20,87,experiment,24,←,left,←,1.140103599987924,True,15
X035K20,88,experiment,168,→,down,↓,1.7051880999933928,False,15
X035K20,89,experiment,120,↓,down,↓,0.875683999969624,True,15
X035K20,90,experiment,180,↓,right,→,1.1824702000012621,False,15
X035K20,91,experiment,48,→,right,→,0.8501718000043184,True,15
X035K20,92,experiment,144,→,right,→,0.9944030999904498,True,15
X035K20,93,experiment,120,→,down,↓,1.30670169997029,False,15
X035K20,94,training,84,↓,down,↓,0.9600886000553146,True,16
X035K20,95,training,156,→,right,→,0.547485199989751,True,16
X035K20,96,training,108,→,up,↑,1.1536807999946177,False,16
X035K20,97,experiment,120,→,left,←,0.9208725999342278,False,16
X035K20,98,experiment,36,↓,down,↓,0.7859638000372797,True,16
X035K20,99,experiment,132,↑,up,↑,1.2348446999676526,True,16
X035K20,100,experiment,180,←,down,↓,0.9368897000094876,False,16
X035K20,101,experiment,180,←,left,←,1.0208579999161884,True,16
X035K20,102,experiment,36,↓,down,↓,0.7826893000165001,True,16
X035K20,103,experiment,48,←,left,←,0.48421699996106327,True,16
X035K20,104,experiment,180,↑,up,↑,0.7115018999902532,True,16
X035K20,105,experiment,108,↑,up,↑,0.7076774999732152,True,16
X035K20,106,experiment,120,←,left,←,0.7010615000035614,True,16
X035K20,107,experiment,168,↑,up,↑,0.6684349999995902,True,16
X035K20,108,experiment,12,↑,up,↑,1.4590398999862373,True,16
X035K20,109,experiment,12,↓,down,↓,0.7413266999647021,True,16
X035K20,110,experiment,132,↑,up,↑,0.776925400015898,True,16
X035K20,111,experiment,144,↓,up,↑,1.1321088999975473,False,16
X035K20,112,experiment,60,↓,down,↓,0.5916577000170946,True,16
X035K20,113,experiment,132,→,right,→,1.058412899961695,True,16
X035K20,114,experiment,108,←,left,←,0.7184489000355825,True,16
X035K20,115,experiment,60,→,left,←,1.1283677000319585,False,16
X035K20,116,experiment,180,↓,down,↓,0.8791271999944001,True,16
X035K20,117,experiment,24,←,no_key,no_letter,-1.0,False,16
X035K20,118,experiment,96,←,left,←,0.6071994999656454,True,16
X035K20,119,experiment,24,↓,down,↓,0.7204014000017196,True,16
X035K20,120,experiment,168,←,left,←,0.6333272999618202,True,16
X035K20,121,experiment,156,←,left,←,0.656131099909544,True,16
X035K20,122,experiment,168,→,right,→,0.5645856000483036,True,16
X035K20,123,experiment,132,↓,down,↓,0.6143704999703914,True,16
X035K20,124,experiment,72,←,left,←,0.6334878000197932,True,16
X035K20,125,experiment,72,↓,down,↓,0.7924772000405937,True,16
X035K20,126,experiment,24,←,left,←,0.8205386999761686,True,16
X035K20,127,experiment,108,→,right,→,1.1729397000744939,True,16
X035K20,128,experiment,84,→,left,←,0.7627799999900162,False,16
X035K20,129,experiment,144,↓,right,→,1.0306204999797046,False,16
X035K20,130,experiment,24,↓,down,↓,0.730252500041388,True,16
X035K20,131,experiment,84,→,right,→,1.1623480999842286,True,16
X035K20,132,experiment,96,↑,up,↑,0.7535637998953462,True,16
X035K20,133,experiment,144,↓,down,↓,0.8977846999187022,True,16
X035K20,134,experiment,168,→,right,→,0.7282863999716938,True,16
X035K20,135,experiment,108,→,right,→,0.7649636999703944,True,16
X035K20,136,experiment,84,↑,down,↓,0.980011299951002,False,16
X035K20,137,experiment,48,→,no_key,no_letter,-1.0,False,16
X035K20,138,experiment,36,↓,up,↑,1.5390937000047415,False,16
X035K20,139,experiment,120,←,left,←,0.9849048999603838,True,16
X035K20,140,experiment,60,↓,no_key,no_letter,-1.0,False,16
X035K20,141,experiment,12,←,left,←,0.5957614999497309,True,16
X035K20,142,experiment,72,↓,left,←,1.055902099935338,False,16
X035K20,143,experiment,48,←,no_key,no_letter,-1.0,False,16
X035K20,144,experiment,144,↓,down,↓,1.064755400060676,True,16
X035K20,145,experiment,36,→,left,←,1.8440494000678882,False,16
X035K20,146,experiment,48,→,right,→,0.7652781999204308,True,16
X035K20,147,experiment,156,←,right,→,1.0786485999124125,False,16
X035K20,148,experiment,96,↑,up,↑,0.7901199000189081,True,16
X035K20,149,experiment,72,↓,down,↓,1.0421911000739783,True,16
X035K20,150,experiment,120,→,right,→,0.5780830000294372,True,16
X035K20,151,experiment,60,↑,up,↑,0.546682000043802,True,16
X035K20,152,experiment,96,↑,up,↑,0.8789316999027506,True,16
X035K20,153,experiment,156,→,right,→,0.7221794000361115,True,16
X035K20,154,experiment,156,↓,up,↑,0.5198128999909386,False,16
X035K20,155,experiment,84,←,left,←,0.6235923999920487,True,16
X035K20,156,experiment,12,→,right,→,0.6683758000144735,True,16
X035K20,157,training,72,↑,left,←,0.9640855999896303,False,16
X035K20,158,training,180,←,left,←,0.6386483999667689,True,16
X035K20,159,training,120,↑,up,↑,1.0900694999145344,True,16
X035K20,160,experiment,168,↓,down,↓,1.2570300000952557,True,16
X035K20,161,experiment,168,→,no_key,no_letter,-1.0,False,16
X035K20,162,experiment,48,←,left,←,0.47825630009174347,True,16
X035K20,163,experiment,84,↑,up,↑,0.682136399904266,True,16
X035K20,164,experiment,84,→,right,→,0.6980047000106424,True,16
X035K20,165,experiment,108,↓,down,↓,0.6099091999931261,True,16
X035K20,166,experiment,12,→,right,→,0.5591995000140741,True,16
X035K20,167,experiment,48,↓,down,↓,0.6750095000024885,True,16
X035K20,168,experiment,156,←,right,→,0.7174980000127107,False,16
X035K20,169,experiment,96,↓,down,↓,0.6988374000648037,True,16
X035K20,170,experiment,96,→,right,→,0.6463316000299528,True,16
X035K20,171,experiment,12,↓,down,↓,0.5288910999661312,True,16
X035K20,172,experiment,144,←,left,←,0.6566040000179783,True,16
X035K20,173,experiment,12,←,right,→,0.7890544000547379,False,16
X035K20,174,experiment,12,↑,up,↑,0.8595007000258192,True,16
X035K20,175,experiment,60,→,right,→,0.5741745999548584,True,16
X035K20,176,experiment,132,→,right,→,0.5725351000437513,True,16
X035K20,177,experiment,168,↑,down,↓,0.8627628000685945,False,16
X035K20,178,experiment,108,↓,down,↓,0.6039023998891935,True,16
X035K20,179,experiment,120,←,right,→,0.44458890007808805,False,16
X035K20,180,experiment,72,↑,up,↑,0.6560074000153691,True,16
X035K20,181,experiment,120,←,left,←,0.6691288999281824,True,16
X035K20,182,experiment,180,←,right,→,0.5627292999997735,False,16
X035K20,183,experiment,120,→,right,→,0.9079949000151828,True,16
X035K20,184,experiment,108,↑,up,↑,0.8565706999506801,True,16
X035K20,185,experiment,108,→,right,→,0.6316378999035805,True,16
X035K20,186,experiment,72,↑,up,↑,0.5524880000157282,True,16
X035K20,187,experiment,36,↑,up,↑,0.5157852999400347,True,16
X035K20,188,experiment,96,←,left,←,0.9382473999867216,True,16
X035K20,189,experiment,84,→,right,→,0.7995184999890625,True,16
X035K20,190,experiment,180,→,right,→,0.5880127999698743,True,16
X035K20,191,experiment,144,←,left,←,0.7081851999973878,True,16
X035K20,192,experiment,60,↓,up,↑,1.1926097000250593,False,16
X035K20,193,experiment,36,→,right,→,0.6661013000411913,True,16
X035K20,194,experiment,84,↓,down,↓,0.61966049997136,True,16
X035K20,195,experiment,24,←,left,←,0.6114263000199571,True,16
X035K20,196,experiment,36,←,left,←,0.6100805000169203,True,16
X035K20,197,experiment,156,↓,down,↓,0.6541069999802858,True,16
X035K20,198,experiment,72,←,left,←,0.6007568000350147,True,16
X035K20,199,experiment,156,→,left,←,0.7521644999505952,False,16
X035K20,200,experiment,36,↓,down,↓,0.8550873999483883,True,16
X035K20,201,experiment,168,←,left,←,0.6406485000625253,True,16
X035K20,202,experiment,48,↑,down,↓,0.7889716000063345,False,16
X035K20,203,experiment,132,↑,up,↑,0.7910451999632642,True,16
X035K20,204,experiment,48,↓,down,↓,0.8915387999732047,True,16
X035K20,205,experiment,24,→,left,←,0.7198233000235632,False,16
X035K20,206,experiment,24,↑,up,↑,0.6533668000483885,True,16
X035K20,207,experiment,144,↓,down,↓,0.941489199991338,True,16
X035K20,208,experiment,132,↓,down,↓,0.7122087000170723,True,16
X035K20,209,experiment,144,↓,down,↓,0.6685739000095055,True,16
X035K20,210,experiment,60,↓,left,←,1.2906257000286132,False,16
X035K20,211,experiment,180,↓,down,↓,0.668114300002344,True,16
X035K20,212,experiment,132,↑,no_key,no_letter,-1.0,False,16
X035K20,213,experiment,60,↓,up,↑,1.0109544999431819,False,16
X035K20,214,experiment,156,←,left,←,0.7778625999344513,True,16
X035K20,215,experiment,72,↑,up,↑,1.760495400056243,True,16
X035K20,216,experiment,96,→,right,→,0.8913412999827415,True,16
X035K20,217,experiment,120,↑,up,↑,0.7324310999829322,True,16
X035K20,218,experiment,24,↓,up,↑,1.32190450001508,False,16
X035K20,219,experiment,180,↓,up,↑,0.6127175000729039,False,16
X035K20,220,training,96,→,left,←,0.7154919999884441,False,16
X035K20,221,training,120,→,right,→,0.5911437999457121,True,16
X035K20,222,training,120,↑,up,↑,0.5477636000141501,True,16
X035K20,223,experiment,24,↓,down,↓,0.8318610000424087,True,16
X035K20,224,experiment,132,→,right,→,0.48742200003471226,True,16
X035K20,225,experiment,180,←,left,←,0.572032899945043,True,16
X035K20,226,experiment,84,↓,down,↓,0.5985134999500588,True,16
X035K20,227,experiment,156,←,left,←,0.7199041000567377,True,16
X035K20,228,experiment,180,↑,up,↑,0.7456223999615759,True,16
X035K20,229,experiment,144,←,down,↓,0.8953585000708699,False,16
X035K20,230,experiment,156,←,right,→,0.7523371999850497,False,16
X035K20,231,experiment,72,→,down,↓,0.9420813000760972,False,16
X035K20,232,experiment,84,↓,down,↓,0.7581781999906525,True,16
X035K20,233,experiment,96,↓,up,↑,1.1888099000789225,False,16
X035K20,234,experiment,108,↓,down,↓,0.6364889000542462,True,16
X035K20,235,experiment,36,←,down,↓,0.8909200999187306,False,16
X035K20,236,experiment,60,←,right,→,0.9615838999161497,False,16
X035K20,237,experiment,36,↓,down,↓,0.7332359999418259,True,16
X035K20,238,experiment,96,↑,up,↑,0.8306028000079095,True,16
X035K20,239,experiment,132,↑,up,↑,0.8493290999904275,True,16
X035K20,240,experiment,120,←,down,↓,1.2363333000103012,False,16
X035K20,241,experiment,72,←,left,←,0.7966401999583468,True,16
X035K20,242,experiment,156,←,down,↓,1.0881564998999238,False,16
X035K20,243,experiment,60,↑,down,↓,0.8616329999640584,False,16
X035K20,244,experiment,12,←,left,←,0.7678647000575438,True,16
X035K20,245,experiment,72,↑,down,↓,0.794315000064671,False,16
X035K20,246,experiment,120,↓,up,↑,0.8586643000598997,False,16
X035K20,247,experiment,60,↓,down,↓,0.6606524999951944,True,16
X035K20,248,experiment,120,↑,up,↑,0.9362250999547541,True,16
X035K20,249,experiment,132,↓,down,↓,0.6798760000383481,True,16
X035K20,250,experiment,156,→,right,→,0.7032235000515357,True,16
X035K20,251,experiment,12,↑,up,↑,0.6992413999978453,True,16
X035K20,252,experiment,108,←,right,→,0.8281514000846073,False,16
X035K20,253,experiment,36,→,left,←,0.6700873000081629,False,16
X035K20,254,experiment,48,←,left,←,0.7653918999712914,True,16
X035K20,255,experiment,168,↓,down,↓,0.7809019999112934,True,16
X035K20,256,experiment,12,↑,down,↓,0.8566199999768287,False,16
X035K20,257,experiment,168,←,right,→,0.8286843000678346,False,16
X035K20,258,experiment,132,↑,up,↑,0.7108080999460071,True,16
X035K20,259,experiment,144,↑,up,↑,0.6522875999798998,True,16
X035K20,260,experiment,168,↓,down,↓,0.6539696999825537,True,16
X035K20,261,experiment,36,→,left,←,0.6954612999688834,False,16
X035K20,262,experiment,168,←,left,←,0.6362823999952525,True,16
X035K20,263,experiment,84,↑,up,↑,0.5708955000154674,True,16
X035K20,264,experiment,144,→,left,←,1.073017799993977,False,16
X035K20,265,experiment,24,→,up,↑,0.8734016000526026,False,16
X035K20,266,experiment,24,↓,up,↑,0.8007214999524876,False,16
X035K20,267,experiment,60,←,left,←,0.7444975000107661,True,16
X035K20,268,experiment,48,←,up,↑,0.7996929000364617,False,16
X035K20,269,experiment,96,↓,down,↓,0.7078821000177413,True,16
X035K20,270,experiment,108,↑,up,↑,1.2906937000807375,True,16
X035K20,271,experiment,96,←,left,←,0.7700894000008702,True,16
X035K20,272,experiment,180,↓,down,↓,0.7805871000746265,True,16
X035K20,273,experiment,180,←,right,→,0.860982200014405,False,16
X035K20,274,experiment,72,↓,up,↑,1.1431285999715328,False,16
X035K20,275,experiment,108,↓,down,↓,1.0531519000651315,True,16
X035K20,276,experiment,24,↑,up,↑,1.0185644000303,True,16
X035K20,277,experiment,120,→,right,→,1.054158900049515,True,16
X035K20,278,experiment,144,←,left,←,0.609910300001502,True,16
X035K20,279,experiment,12,←,left,←,0.9889031000202522,True,16
X035K20,280,experiment,84,↑,up,↑,1.0876276000635698,True,16
X035K20,281,experiment,48,↓,up,↑,0.921766999992542,False,16
X035K20,282,experiment,48,←,left,←,0.6686231999192387,True,16
X035K20,283,training,24,→,left,←,1.2164481999352574,False,16
X035K20,284,training,156,↓,up,↑,0.6675326001131907,False,16
X035K20,285,training,48,↓,down,↓,0.8053809000412002,True,16
X035K20,286,experiment,168,→,right,→,0.7492431000573561,True,16
X035K20,287,experiment,156,↓,down,↓,0.6691966999787837,True,16
X035K20,288,experiment,168,↓,down,↓,0.7422001999802887,True,16
X035K20,289,experiment,72,→,right,→,0.5584433999611065,True,16
X035K20,290,experiment,96,↑,up,↑,0.8360307000111789,True,16
X035K20,291,experiment,168,↓,down,↓,0.8993973999749869,True,16
X035K20,292,experiment,24,↑,up,↑,0.6969397000502795,True,16
X035K20,293,experiment,48,←,left,←,0.6551330999936908,True,16
X035K20,294,experiment,156,→,right,→,0.5969747999915853,True,16
X035K20,295,experiment,48,←,right,→,0.9272113000042737,False,16
X035K20,296,experiment,48,↑,up,↑,0.7571154000470415,True,16
X035K20,297,experiment,84,↓,down,↓,1.2609885999700055,True,16
X035K20,298,experiment,12,→,right,→,0.6398130999878049,True,16
X035K20,299,experiment,132,↑,up,↑,1.5197603000560775,True,16
X035K20,300,experiment,60,→,right,→,0.6981031000614166,True,16
X035K20,301,experiment,144,↓,down,↓,0.670587099972181,True,16
X035K20,302,experiment,120,←,left,←,0.8741977999452502,True,16
X035K20,303,experiment,36,↑,up,↑,0.6306560001103207,True,16
X035K20,304,experiment,60,↑,right,→,1.125873800017871,False,16
X035K20,305,experiment,84,↓,up,↑,0.7971148999640718,False,16
X035K20,306,experiment,72,↓,down,↓,0.6712546999333426,True,16
X035K20,307,experiment,84,→,left,←,0.7393185999244452,False,16
X035K20,308,experiment,120,↓,down,↓,0.6779753000009805,True,16
X035K20,309,experiment,60,↓,up,↑,1.6427479999838397,False,16
X035K20,310,experiment,36,←,left,←,0.6921998999314383,True,16
X035K20,311,experiment,180,↑,right,→,0.7478708999697119,False,16
X035K20,312,experiment,36,←,down,↓,0.8888742999406531,False,16
X035K20,313,experiment,132,→,right,→,0.8155245999805629,True,16
X035K20,314,experiment,108,↑,down,↓,0.931761100073345,False,16
X035K20,315,experiment,144,↓,up,↑,0.71871960000135,False,16
X035K20,316,experiment,96,↑,up,↑,0.745366399991326,True,16
X035K20,317,experiment,84,↑,up,↑,0.6131212000036612,True,16
X035K20,318,experiment,12,←,up,↑,0.8812120000366122,False,16
X035K20,319,experiment,108,←,left,←,0.6608119000447914,True,16
X035K20,320,experiment,132,→,right,→,1.0200617000227794,True,16
X035K20,321,experiment,120,↓,up,↑,0.7084936000173911,False,16
X035K20,322,experiment,12,↑,up,↑,0.5773400999605656,True,16
X035K20,323,experiment,12,↑,up,↑,0.5524790999479592,True,16
X035K20,324,experiment,132,←,up,↑,0.4642110000131652,False,16
X035K20,325,experiment,144,↓,right,→,1.170249600079842,False,16
X035K20,326,experiment,24,↑,up,↑,0.7159414000343531,True,16
X035K20,327,experiment,108,→,right,→,0.8450717999367043,True,16
X035K20,328,experiment,96,→,left,←,0.881702599930577,False,16
X035K20,329,experiment,60,↓,left,←,0.7435553999384865,False,16
X035K20,330,experiment,180,→,right,→,0.452675599954091,True,16
X035K20,331,experiment,72,←,left,←,0.5160409000236541,True,16
X035K20,332,experiment,36,←,right,→,0.7074521000031382,False,16
X035K20,333,experiment,48,←,left,←,0.5418706000782549,True,16
X035K20,334,experiment,156,←,left,←,0.5539783999556676,True,16
X035K20,335,experiment,108,↓,down,↓,1.4645248999586329,True,16
X035K20,336,experiment,168,→,right,→,0.8854685999685898,True,16
X035K20,337,experiment,156,→,left,←,0.7191238000523299,False,16
X035K20,338,experiment,120,←,right,→,1.2988899999763817,False,16
X035K20,339,experiment,144,↑,up,↑,1.0742473000427708,True,16
X035K20,340,experiment,72,↑,up,↑,0.7904098000144586,True,16
X035K20,341,experiment,24,←,up,↑,1.0856459999922663,False,16
X035K20,342,experiment,96,↓,down,↓,0.9463308999547735,True,16
X035K20,343,experiment,24,←,up,↑,1.3704458000138402,False,16
X035K20,344,experiment,180,↑,up,↑,0.6945206999080256,True,16
X035K20,345,experiment,180,→,right,→,0.8628977999323979,True,16
X035K20,346,training,120,→,right,→,0.7377132999245077,True,16
X035K20,347,training,156,→,right,→,1.2933304999023676,True,16
X035K20,348,training,84,↓,down,↓,0.7076609000796452,True,16
X035K20,349,experiment,12,↓,down,↓,0.7509167999960482,True,16
X035K20,350,experiment,36,→,right,→,0.50828339997679,True,16
X035K20,351,experiment,48,→,right,→,0.7909570999909192,True,16
X035K20,352,experiment,180,↓,down,↓,0.7620948000112548,True,16
X035K20,353,experiment,84,←,down,↓,1.2057204999728128,False,16
X035K20,354,experiment,48,↑,down,↓,0.7132756999926642,False,16
X035K20,355,experiment,84,←,right,→,0.9465517000062391,False,16
X035K20,356,experiment,96,↓,down,↓,1.024169999989681,True,16
X035K20,357,experiment,120,←,down,↓,1.0625679000513628,False,16
X035K20,358,experiment,156,→,right,→,0.7376766999950632,True,16
X035K20,359,experiment,168,↑,down,↓,1.7541915000183508,False,16
X035K20,360,experiment,120,↓,down,↓,0.816681900061667,True,16
X035K20,361,experiment,12,→,down,↓,0.6467232001014054,False,16
X035K20,362,experiment,108,↓,down,↓,0.6635055000660941,True,16
X035K20,363,experiment,24,↑,up,↑,0.98305869998876,True,16
X035K20,364,experiment,120,↑,up,↑,0.683501600055024,True,16
X035K20,365,experiment,132,↑,up,↑,0.6776491000782698,True,16
X035K20,366,experiment,156,↓,down,↓,0.782660000026226,True,16
X035K20,367,experiment,12,←,right,→,0.6854381999000907,False,16
X035K20,368,experiment,132,→,right,→,0.5299249000381678,True,16
X035K20,369,experiment,72,↓,left,←,0.8991241999901831,False,16
X035K20,370,experiment,144,→,left,←,1.0058786000590771,False,16
X035K20,371,experiment,96,↓,down,↓,0.7982057000044733,True,16
X035K20,372,experiment,72,↓,down,↓,0.6204098999733105,True,16
X035K20,373,experiment,144,↓,down,↓,0.6912667999276891,True,16
X035K20,374,experiment,72,↓,down,↓,0.582615299965255,True,16
X035K20,375,experiment,48,←,right,→,0.6052165000000969,False,16
X035K20,376,experiment,168,→,right,→,0.9940670999931172,True,16
X035K20,377,experiment,24,↓,down,↓,0.8369682000484318,True,16
X035K20,378,experiment,60,↓,up,↑,0.9050265999976546,False,16
X035K20,379,experiment,108,←,right,→,0.7572964000282809,False,16
X035K20,380,experiment,60,←,left,←,0.7093105999520048,True,16
X035K20,381,experiment,24,←,left,←,0.7345326000358909,True,16
X035K20,382,experiment,96,→,left,←,0.7657395999412984,False,16
X035K20,383,experiment,36,↑,left,←,1.6765177000779659,False,16
X035K20,384,experiment,180,↑,up,↑,0.8145812000147998,True,16
X035K20,385,experiment,36,→,left,←,0.803923700004816,False,16
X035K20,386,experiment,84,→,left,←,0.7777780999895185,False,16
X035K20,387,experiment,180,←,right,→,0.6239652000367641,False,16
X035K20,388,experiment,144,↑,up,↑,0.7183253000257537,True,16
X035K20,389,experiment,108,↓,down,↓,1.0598030000692233,True,16
X035K20,390,experiment,180,→,down,↓,0.6832347000017762,False,16
X035K20,391,experiment,60,←,no_key,no_letter,-1.0,False,16
X035K20,392,experiment,168,←,right,→,0.664516199962236,False,16
X035K20,393,experiment,156,→,right,→,0.8471686999546364,True,16
X035K20,394,experiment,108,→,right,→,0.5965602999785915,True,16
X035K20,395,experiment,120,→,left,←,0.6975258000893518,False,16
X035K20,396,experiment,48,→,left,←,0.79231319995597,False,16
X035K20,397,experiment,36,→,no_key,no_letter,-1.0,False,16
X035K20,398,experiment,132,←,left,←,0.7504204999422655,True,16
X035K20,399,experiment,12,↑,no_key,no_letter,-1.0,False,16
X035K20,400,experiment,96,←,left,←,0.6408443000400439,True,16
X035K20,401,experiment,60,←,left,←,0.5736281999852508,True,16
X035K20,402,experiment,156,↓,down,↓,0.7759189000353217,True,16
X035K20,403,experiment,168,↓,down,↓,0.7650603000074625,True,16
X035K20,404,experiment,24,←,right,→,0.7425473999464884,False,16
X035K20,405,experiment,84,←,left,←,0.7304398999549448,True,16
X035K20,406,experiment,132,→,right,→,0.6040978999808431,True,16
X035K20,407,experiment,72,↓,down,↓,0.7287865000544116,True,16
X035K20,408,experiment,144,↑,up,↑,0.6529761001002043,True,16
X035K20,409,training,168,↓,left,←,0.8893697999883443,False,17
X035K20,410,training,156,←,right,→,0.9774056000169367,False,17
X035K20,411,training,36,↑,down,↓,0.9376983999973163,False,17
X035K20,412,experiment,72,↓,down,↓,0.7897113999351859,True,17
X035K20,413,experiment,12,↑,down,↓,0.7668981000315398,False,17
X035K20,414,experiment,120,↑,right,→,1.0149109999183565,False,17
X035K20,415,experiment,180,←,right,→,0.7513825000496581,False,17
X035K20,416,experiment,96,↓,down,↓,0.8160254000686109,True,17
X035K20,417,experiment,24,↓,up,↑,1.1413892999989912,False,17
X035K20,418,experiment,36,←,left,←,0.8390838999766856,True,17
X035K20,419,experiment,84,←,right,→,0.6977969000581652,False,17
X035K20,420,experiment,96,↑,up,↑,0.7007304000435397,True,17
X035K20,421,experiment,156,↓,down,↓,0.6197515999665484,True,17
X035K20,422,experiment,132,↑,down,↓,0.977395600057207,False,17
X035K20,423,experiment,48,↑,up,↑,0.9081735999789089,True,17
X035K20,424,experiment,180,↑,up,↑,0.7691279000137001,True,17
X035K20,425,experiment,156,↑,up,↑,0.7657062000362203,True,17
X035K20,426,experiment,180,←,right,→,0.6575882999459282,False,17
X035K20,427,experiment,12,→,left,←,0.6703194000292569,False,17
X035K20,428,experiment,96,→,left,←,0.7795762999448925,False,17
X035K20,429,experiment,132,←,right,→,0.9166065000463277,False,17
X035K20,430,experiment,60,→,right,→,0.8671062000794336,True,17
X035K20,431,experiment,180,↑,left,←,0.7671501999720931,False,17
X035K20,432,experiment,144,→,left,←,0.6037484999978915,False,17
X035K20,433,experiment,36,↓,down,↓,0.7953033000230789,True,17
X035K20,434,experiment,120,↓,down,↓,0.5602266000350937,True,17
X035K20,435,experiment,24,↓,up,↑,1.5741259000496939,False,17
X035K20,436,experiment,36,↓,right,→,0.8864707000320777,False,17
X035K20,437,experiment,144,↓,down,↓,0.9967447998933494,True,17
X035K20,438,experiment,108,←,right,→,0.6671037001069635,False,17
X035K20,439,experiment,72,↑,left,←,0.8250772000756115,False,17
X035K20,440,experiment,168,↓,left,←,1.1600166000425816,False,17
X035K20,441,experiment,144,→,right,→,0.7838541000382975,True,17
X035K20,442,experiment,48,↑,right,→,1.027360900072381,False,17
X035K20,443,experiment,12,→,right,→,0.8411807999946177,True,17
X035K20,444,experiment,60,↓,up,↑,0.8553722999058664,False,17
X035K20,445,experiment,84,→,down,↓,0.763864399981685,False,17
X035K20,446,experiment,132,←,left,←,0.6752746999263763,True,17
X035K20,447,experiment,12,→,left,←,0.6751584000885487,False,17
X035K20,448,experiment,48,↑,left,←,0.824174000066705,False,17
X035K20,449,experiment,120,←,left,←,0.5915330999996513,True,17
X035K20,450,experiment,168,←,left,←,0.713879199931398,True,17
X035K20,451,experiment,168,↓,left,←,0.764974300051108,False,17
X035K20,452,experiment,156,←,right,→,0.7043162999907508,False,17
X035K20,453,experiment,144,↑,up,↑,0.6304742000065744,True,17
X035K20,454,experiment,108,↑,up,↑,0.746192799997516,True,17
X035K20,455,experiment,168,→,up,↑,0.8083205000730231,False,17
X035K20,456,experiment,84,↑,up,↑,1.027763899997808,True,17
X035K20,457,experiment,120,←,right,→,0.5718602000270039,False,17
X035K20,458,experiment,24,↓,up,↑,0.8285687000025064,False,17
X035K20,459,experiment,156,→,up,↑,0.8985169000225142,False,17
X035K20,460,experiment,72,→,right,→,0.9471805000212044,True,17
X035K20,461,experiment,36,→,up,↑,0.9335983999771997,False,17
X035K20,462,experiment,132,↑,left,←,1.5539170999545604,False,17
X035K20,463,experiment,48,←,right,→,0.8882632000604644,False,17
X035K20,464,experiment,24,↓,right,→,1.0896604999434203,False,17
X035K20,465,experiment,84,←,left,←,0.672846999950707,True,17
X035K20,466,experiment,60,←,right,→,0.7874433000106364,False,17
X035K20,467,experiment,60,←,left,←,0.6186671999748796,True,17
X035K20,468,experiment,108,→,left,←,1.2973359999014065,False,17
X035K20,469,experiment,96,←,right,→,0.616560299997218,False,17
X035K20,470,experiment,72,→,left,←,0.5596924000419676,False,17
X035K20,471,experiment,108,↓,down,↓,0.8074664999730885,True,17
X035K20,472,training,132,↓,down,↓,1.1094828000059351,True,18
X035K20,473,training,132,↑,up,↑,0.7368039999855682,True,18
X035K20,474,training,156,↑,up,↑,0.7070255000144243,True,18
X035K20,475,experiment,12,←,up,↑,1.0360323999775574,False,18
X035K20,476,experiment,180,↓,down,↓,0.6663535999832675,True,18
X035K20,477,experiment,156,→,up,↑,0.7101431000046432,False,18
X035K20,478,experiment,72,↓,down,↓,0.629527899902314,True,18
X035K20,479,experiment,180,←,down,↓,0.7350828999187797,False,18
X035K20,480,experiment,156,←,up,↑,0.7488276000367478,False,18
X035K20,481,experiment,12,↑,up,↑,0.9052427000133321,True,18
X035K20,482,experiment,132,←,up,↑,0.5924161999719217,False,18
X035K20,483,experiment,48,↑,up,↑,1.0031057000160217,True,18
X035K20,484,experiment,168,↓,down,↓,0.7802026000572369,True,18
X035K20,485,experiment,120,↓,down,↓,0.7235297999577597,True,18
X035K20,486,experiment,72,←,left,←,0.808044100063853,True,18
X035K20,487,experiment,144,→,right,→,0.8344834999879822,True,18
X035K20,488,experiment,60,↓,right,→,0.911542100016959,False,18
X035K20,489,experiment,36,→,right,→,0.7372268999461085,True,18
X035K20,490,experiment,132,←,left,←,0.6848350999644026,True,18
X035K20,491,experiment,120,↑,up,↑,1.6125849999953061,True,18
X035K20,492,experiment,60,→,left,←,0.7807414999697357,False,18
X035K20,493,experiment,156,←,left,←,0.742664200020954,True,18
X035K20,494,experiment,36,↑,no_key,no_letter,-1.0,False,18
X035K20,495,experiment,24,←,left,←,0.7272982998983935,True,18
X035K20,496,experiment,180,↑,up,↑,0.787698799977079,True,18
X035K20,497,experiment,12,↑,up,↑,0.6372299999929965,True,18
X035K20,498,experiment,84,→,left,←,0.5365204000845551,False,18
X035K20,499,experiment,96,↑,up,↑,0.5576646999688819,True,18
X035K20,500,experiment,72,↑,up,↑,1.2985311000375077,True,18
X035K20,501,experiment,108,→,right,→,0.8676021000137553,True,18
X035K20,502,experiment,96,↓,up,↑,0.9446506999665871,False,18
X035K20,503,experiment,24,→,right,→,1.146915200049989,True,18
X035K20,504,experiment,144,↑,up,↑,0.6186426000203937,True,18
X035K20,505,experiment,132,→,right,→,0.7430717000970617,True,18
X035K20,506,experiment,84,←,up,↑,0.6024328999919817,False,18
X035K20,507,experiment,48,→,up,↑,1.1204177000327036,False,18
X035K20,508,experiment,96,↓,down,↓,0.7916031000204384,True,18
X035K20,509,experiment,132,↑,up,↑,0.7935843000886962,True,18
X035K20,510,experiment,36,↑,up,↑,0.6570109000895172,True,18
X035K20,511,experiment,108,↓,up,↑,1.2010348999174312,False,18
X035K20,512,experiment,96,↑,up,↑,0.5595524000236765,True,18
X035K20,513,experiment,144,→,right,→,0.5776220000116155,True,18
X035K20,514,experiment,84,←,left,←,1.0903101000003517,True,18
X035K20,515,experiment,108,↑,up,↑,0.5589960999786854,True,18
X035K20,516,experiment,48,←,left,←,0.6793074000161141,True,18
X035K20,517,experiment,156,←,right,→,0.9099699000362307,False,18
X035K20,518,experiment,24,↓,no_key,no_letter,-1.0,False,18
X035K20,519,experiment,60,→,right,→,0.7358701000921428,True,18
X035K20,520,experiment,120,↓,down,↓,0.7238188999472186,True,18
X035K20,521,experiment,72,→,right,→,0.6136366999708116,True,18
X035K20,522,experiment,168,↑,down,↓,1.0060361999785528,False,18
X035K20,523,experiment,12,↑,up,↑,1.1794070999603719,True,18
X035K20,524,experiment,48,↓,right,→,1.4460437999805436,False,18
X035K20,525,experiment,108,→,right,→,0.6272940000053495,True,18
X035K20,526,experiment,36,→,right,→,0.5375966000137851,True,18
X035K20,527,experiment,168,↓,down,↓,0.7617571000009775,True,18
X035K20,528,experiment,180,←,left,←,0.6813576000276953,True,18
X035K20,529,experiment,168,↑,up,↑,0.7719696999993175,True,18
X035K20,530,experiment,60,↓,down,↓,0.7352824000408873,True,18
X035K20,531,experiment,144,←,left,←,0.7750829999567941,True,18
X035K20,532,experiment,24,←,right,→,1.5182187999598682,False,18
X035K20,533,experiment,120,→,right,→,0.5660893000895157,True,18
X035K20,534,experiment,84,←,right,→,0.8337845000205562,False,18
X035K20,535,training,144,→,right,→,0.9307175000431016,True,18
X035K20,536,training,24,←,left,←,0.5728080000262707,True,18
X035K20,537,training,60,↓,right,→,0.7807927000103518,False,18
X035K20,538,experiment,24,←,left,←,0.5269753000466153,True,18
X035K20,539,experiment,168,↓,down,↓,0.7941498000873253,True,18
X035K20,540,experiment,132,↑,up,↑,0.6161035998957232,True,18
X035K20,541,experiment,144,↓,down,↓,1.031170399975963,True,18
X035K20,542,experiment,60,↑,up,↑,0.8892322999890894,True,18
X035K20,543,experiment,24,↑,up,↑,0.7051405999809504,True,18
X035K20,544,experiment,108,→,up,↑,1.0539253000169992,False,18
X035K20,545,experiment,12,↑,up,↑,1.1401101000374183,True,18
X035K20,546,experiment,120,←,left,←,0.6084377000806853,True,18
X035K20,547,experiment,180,→,right,→,0.673439500038512,True,18
X035K20,548,experiment,36,↑,up,↑,0.6640754999825731,True,18
X035K20,549,experiment,156,→,right,→,0.6759854999836534,True,18
X035K20,550,experiment,72,↑,up,↑,0.6178868999704719,True,18
X035K20,551,experiment,96,↓,down,↓,0.9060350999934599,True,18
X035K20,552,experiment,84,↑,up,↑,0.8232211000286043,True,18
X035K20,553,experiment,36,↓,down,↓,1.3265840999083593,True,18
X035K20,554,experiment,48,→,left,←,1.1435945000266656,False,18
X035K20,555,experiment,108,→,right,→,0.5788530999561772,True,18
X035K20,556,experiment,36,↓,up,↑,0.7710214999970049,False,18
X035K20,557,experiment,156,↑,up,↑,0.4997662999667227,True,18
X035K20,558,experiment,84,←,left,←,0.5926306999754161,True,18
X035K20,559,experiment,72,←,right,→,0.7790485000004992,False,18
X035K20,560,experiment,132,↓,down,↓,0.9398329999530688,True,18
X035K20,561,experiment,108,↑,up,↑,0.5431148000061512,True,18
X035K20,562,experiment,48,→,right,→,0.6784107000567019,True,18
X035K20,563,experiment,120,↓,up,↑,1.0773818000452593,False,18
X035K20,564,experiment,168,↓,down,↓,0.8046460000332445,True,18
X035K20,565,experiment,36,↓,up,↑,0.7616807000013068,False,18
X035K20,566,experiment,108,←,right,→,0.6653265999630094,False,18
X035K20,567,experiment,48,↑,up,↑,0.6399894999340177,True,18
X035K20,568,experiment,132,→,right,→,0.7048188999760896,True,18
X035K20,569,experiment,156,↓,left,←,0.8512057000771165,False,18
X035K20,570,experiment,120,→,no_key,no_letter,-1.0,False,18
X035K20,571,experiment,168,↑,up,↑,0.5898812999948859,True,18
X035K20,572,experiment,180,←,left,←,0.97840429993812,True,18
X035K20,573,experiment,72,→,right,→,0.560396800050512,True,18
X035K20,574,experiment,156,↑,right,→,1.151365900062956,False,18
X035K20,575,experiment,12,↓,up,↑,0.701241199974902,False,18
X035K20,576,experiment,12,←,left,←,1.0212327999761328,True,18
X035K20,577,experiment,96,↑,right,→,1.2389125999761745,False,18
X035K20,578,experiment,12,↑,up,↑,0.7690960000036284,True,18
X035K20,579,experiment,120,←,right,→,0.5586432999698445,False,18
X035K20,580,experiment,180,↓,right,→,0.9688019999302924,False,18
X035K20,581,experiment,60,↑,left,←,1.156168100074865,False,18
X035K20,582,experiment,84,→,no_key,no_letter,-1.0,False,18
X035K20,583,experiment,72,→,left,←,0.9650036999955773,False,18
X035K20,584,experiment,24,←,right,→,1.3923644999740645,False,18
X035K20,585,experiment,96,←,left,←,0.565546500030905,True,18
X035K20,586,experiment,24,←,right,→,1.4374081999994814,False,18
X035K20,587,experiment,96,↓,down,↓,0.9893774000229314,True,18
X035K20,588,experiment,132,↑,down,↓,0.7487754999892786,False,18
X035K20,589,experiment,84,→,up,↑,0.8733131000772119,False,18
X035K20,590,experiment,144,→,right,→,0.6634348999941722,True,18
X035K20,591,experiment,48,↓,right,→,0.977372599998489,False,18
X035K20,592,experiment,144,→,right,→,0.6891688000177965,True,18
X035K20,593,experiment,180,↑,right,→,0.8517255000770092,False,18
X035K20,594,experiment,60,→,right,→,0.7245759000070393,True,18
X035K20,595,experiment,60,→,down,↓,1.160737800062634,False,18
X035K20,596,experiment,168,→,right,→,0.9442830999614671,True,18
X035K20,597,experiment,144,←,left,←,0.9482373000355437,True,18
X035K20,598,training,108,↑,up,↑,0.7816069000400603,True,18
X035K20,599,training,12,↑,up,↑,0.6769189999904484,True,18
X035K20,600,training,48,↑,up,↑,0.6340759000740945,True,18
X035K20,601,experiment,180,↑,up,↑,0.7569304000353441,True,18
X035K20,602,experiment,108,→,up,↑,0.9826958000194281,False,18
X035K20,603,experiment,60,↓,up,↑,1.0313974999589846,False,18
X035K20,604,experiment,96,↓,down,↓,0.7751593999564648,True,18
X035K20,605,experiment,168,↓,down,↓,0.6548014999134466,True,18
X035K20,606,experiment,180,→,right,→,0.6716933000134304,True,18
X035K20,607,experiment,36,↑,up,↑,0.760136800003238,True,18
X035K20,608,experiment,60,↑,up,↑,0.6784848999232054,True,18
X035K20,609,experiment,156,←,left,←,0.5883856000145897,True,18
X035K20,610,experiment,120,↓,down,↓,0.7150691000279039,True,18
X035K20,611,experiment,120,←,left,←,0.7142590000294149,True,18
X035K20,612,experiment,168,↑,up,↑,0.8597724999999627,True,18
X035K20,613,experiment,144,↓,down,↓,0.7325911000370979,True,18
X035K20,614,experiment,48,↑,down,↓,0.8431621000636369,False,18
X035K20,615,experiment,24,↓,down,↓,0.7518988999072462,True,18
X035K20,616,experiment,48,→,right,→,0.6555407999549061,True,18
X035K20,617,experiment,180,↓,down,↓,0.8552588999737054,True,18
X035K20,618,experiment,132,↓,down,↓,0.7334299000212923,True,18
X035K20,619,experiment,108,←,left,←,0.7072937999619171,True,18
X035K20,620,experiment,36,↑,up,↑,0.6686487999977544,True,18
X035K20,621,experiment,24,↑,up,↑,0.624833200010471,True,18
X035K20,622,experiment,132,↓,down,↓,0.7261046000057831,True,18
X035K20,623,experiment,84,←,left,←,0.6351375000085682,True,18
X035K20,624,experiment,12,→,right,→,0.7227603000355884,True,18
X035K20,625,experiment,180,→,right,→,0.8689370000502095,True,18
X035K20,626,experiment,36,↑,right,→,0.8215637999819592,False,18
X035K20,627,experiment,168,↑,up,↑,0.6082875999854878,True,18
X035K20,628,experiment,108,↑,up,↑,0.583597099990584,True,18
X035K20,629,experiment,96,↓,no_key,no_letter,-1.0,False,18
X035K20,630,experiment,12,→,right,→,0.6990024999249727,True,18
X035K20,631,experiment,96,↓,down,↓,0.7790517000248656,True,18
X035K20,632,experiment,120,←,left,←,1.2301129000261426,True,18
X035K20,633,experiment,60,↓,down,↓,0.6200598999857903,True,18
X035K20,634,experiment,108,↑,up,↑,0.7046487999614328,True,18
X035K20,635,experiment,156,↓,down,↓,0.8809228000463918,True,18
X035K20,636,experiment,84,↓,down,↓,0.6945634000003338,True,18
X035K20,637,experiment,144,↓,up,↑,0.8414497999474406,False,18
X035K20,638,experiment,36,→,right,→,0.6475456999614835,True,18
X035K20,639,experiment,84,→,right,→,0.6012675000820309,True,18
X035K20,640,experiment,48,↓,down,↓,0.637635099934414,True,18
X035K20,641,experiment,48,↑,down,↓,0.8642057999968529,False,18
X035K20,642,experiment,60,←,left,←,0.666951599996537,True,18
X035K20,643,experiment,72,↑,up,↑,0.6694044000469148,True,18
X035K20,644,experiment,156,←,left,←,0.6013665000209585,True,18
X035K20,645,experiment,72,→,right,→,1.138588200090453,True,18
X035K20,646,experiment,144,→,right,→,0.5988625000463799,True,18
X035K20,647,experiment,96,↑,up,↑,0.5570227999705821,True,18
X035K20,648,experiment,132,↓,left,←,1.0523271999554709,False,18
X035K20,649,experiment,84,→,right,→,0.6594414000865072,True,18
X035K20,650,experiment,168,→,right,→,0.5903019000543281,True,18
X035K20,651,experiment,156,↑,up,↑,0.6889150999486446,True,18
X035K20,652,experiment,120,←,left,←,0.7321961999405175,True,18
X035K20,653,experiment,12,↑,up,↑,0.5873460000148043,True,18
X035K20,654,experiment,132,→,right,→,0.6535931000253186,True,18
X035K20,655,experiment,72,↓,down,↓,0.8103142000036314,True,18
X035K20,656,experiment,12,←,left,←,0.652269099955447,True,18
X035K20,657,experiment,72,↓,up,↑,0.84108110005036,False,18
X035K20,658,experiment,24,→,right,→,0.745593799976632,True,18
X035K20,659,experiment,144,←,left,←,0.6227128999307752,True,18
X035K20,660,experiment,24,↑,up,↑,1.435941300005652,True,18
X035K20,661,training,12,←,right,→,1.061582800000906,False,18
X035K20,662,training,120,↑,left,←,0.5748317000688985,False,18
X035K20,663,training,168,↓,down,↓,0.7644911999814212,True,18
X035K20,664,experiment,48,↓,down,↓,0.7336198999546468,True,18
X035K20,665,experiment,108,→,right,→,0.7804474000586197,True,18
X035K20,666,experiment,96,←,left,←,0.5758860000642017,True,18
X035K20,667,experiment,144,↑,left,←,0.8508315999060869,False,18
X035K20,668,experiment,156,↓,down,↓,0.6220949999988079,True,18
X035K20,669,experiment,84,↑,up,↑,0.8971230000024661,True,18
X035K20,670,experiment,96,→,right,→,0.8757915999740362,True,18
X035K20,671,experiment,12,→,right,→,1.030490200035274,True,18
X035K20,672,experiment,24,→,right,→,0.8524444000795484,True,18
X035K20,673,experiment,168,↓,down,↓,0.860084000043571,True,18
X035K20,674,experiment,120,←,right,→,0.6224255000706762,False,18
X035K20,675,experiment,72,↓,down,↓,0.8391977000283077,True,18
X035K20,676,experiment,168,←,left,←,0.9486886999802664,True,18
X035K20,677,experiment,144,→,right,→,0.7340107999043539,True,18
X035K20,678,experiment,72,←,left,←,0.6413178000366315,True,18
X035K20,679,experiment,156,←,left,←,0.7207085000118241,True,18
X035K20,680,experiment,12,→,right,→,0.6152007000055164,True,18
X035K20,681,experiment,96,→,right,→,0.48261490010190755,True,18
X035K20,682,experiment,36,↑,no_key,no_letter,-1.0,False,18
X035K20,683,experiment,156,↓,right,→,0.9025240000337362,False,18
X035K20,684,experiment,84,↑,up,↑,0.7155061999801546,True,18
X035K20,685,experiment,24,→,right,→,0.6610020999796689,True,18
X035K20,686,experiment,48,↑,up,↑,0.5546172000467777,True,18
X035K20,687,experiment,24,←,up,↑,0.8819686999777332,False,18
X035K20,688,experiment,108,←,left,←,0.6924802999710664,True,18
X035K20,689,experiment,120,→,right,→,0.6924734999192879,True,18
X035K20,690,experiment,132,←,left,←,0.6883898000232875,True,18
X035K20,691,experiment,180,←,left,←,0.5507330000400543,True,18
X035K20,692,experiment,144,←,left,←,0.584182099904865,True,18
X035K20,693,experiment,180,←,no_key,no_letter,-1.0,False,18
X035K20,694,experiment,132,↑,right,→,0.9442020000424236,False,18
X035K20,695,experiment,60,↓,down,↓,0.8830792000517249,True,18
X035K20,696,experiment,144,↓,down,↓,0.6614438999677077,True,18
X035K20,697,experiment,12,↑,up,↑,0.6850681999931112,True,18
X035K20,698,experiment,132,↑,up,↑,0.6021243000868708,True,18
X035K20,699,experiment,72,←,left,←,0.6458974999841303,True,18
X035K20,700,experiment,156,←,left,←,0.5790215999586508,True,18
X035K20,701,experiment,60,↑,up,↑,0.8091839000117034,True,18
X035K20,702,experiment,108,→,right,→,0.7213172999909148,True,18
X035K20,703,experiment,108,↑,up,↑,0.8727600000565872,True,18
X035K20,704,experiment,120,→,no_key,no_letter,-1.0,False,18
X035K20,705,experiment,84,←,right,→,0.8550639000022784,False,18
X035K20,706,experiment,36,→,right,→,0.6363708999706432,True,18
X035K20,707,experiment,60,↑,up,↑,1.3771158999297768,True,18
X035K20,708,experiment,48,↑,up,↑,0.5311389000853524,True,18
X035K20,709,experiment,24,↓,down,↓,0.775112499948591,True,18
X035K20,710,experiment,132,←,left,←,0.7468320999760181,True,18
X035K20,711,experiment,48,↑,up,↑,0.7727744000731036,True,18
X035K20,712,experiment,168,↓,down,↓,0.7207852000137791,True,18
X035K20,713,experiment,180,←,left,←,0.6522874999791384,True,18
X035K20,714,experiment,84,↓,down,↓,0.5682552000507712,True,18
X035K20,715,experiment,12,↑,up,↑,0.6488701000344008,True,18
X035K20,716,experiment,60,↓,up,↑,1.0243103000102565,False,18
X035K20,717,experiment,36,↓,down,↓,0.7049651999259368,True,18
X035K20,718,experiment,180,↓,down,↓,0.7642587000736967,True,18
X035K20,719,experiment,120,↓,down,↓,0.5369916000636294,True,18
X035K20,720,experiment,72,↑,up,↑,0.7867564999032766,True,18
X035K20,721,experiment,168,↓,up,↑,0.7460319999372587,False,18
X035K20,722,experiment,96,→,no_key,no_letter,-1.0,False,18
X035K20,723,experiment,36,↑,up,↑,0.5405842000618577,True,18
X035K20,724,training,168,←,left,←,0.6502835999708623,True,18
X035K20,725,training,84,↓,down,↓,0.9632669000420719,True,18
X035K20,726,training,12,↓,down,↓,0.7387655000202358,True,18
X035K20,727,experiment,108,←,right,→,0.8362543999683112,False,18
X035K20,728,experiment,168,↑,left,←,0.7407116999384016,False,18
X035K20,729,experiment,144,←,right,→,0.7416576999239624,False,18
X035K20,730,experiment,24,↓,down,↓,0.8897702000103891,True,18
X035K20,731,experiment,72,↓,down,↓,0.7944268999854103,True,18
X035K20,732,experiment,96,↓,down,↓,0.7627041999949142,True,18
X035K20,733,experiment,72,↑,down,↓,0.6405060000251979,False,18
X035K20,734,experiment,120,→,no_key,no_letter,-1.0,False,18
X035K20,735,experiment,12,↓,left,←,1.0028844999615103,False,18
X035K20,736,experiment,48,↓,down,↓,0.7841235999949276,True,18
X035K20,737,experiment,36,←,left,←,0.7051262999884784,True,18
X035K20,738,experiment,36,↓,down,↓,0.728174600051716,True,18
X035K20,739,experiment,60,←,right,→,0.714284099987708,False,18
X035K20,740,experiment,12,←,left,←,0.6467431000201032,True,18
X035K20,741,experiment,84,↑,up,↑,1.0409170999191701,True,18
X035K20,742,experiment,144,↑,up,↑,0.6866410999791697,True,18
X035K20,743,experiment,180,←,left,←,0.698865499929525,True,18
X035K20,744,experiment,156,→,right,→,0.7894036999205127,True,18
X035K20,745,experiment,132,←,left,←,0.7327249000081792,True,18
X035K20,746,experiment,36,↑,up,↑,0.7785939000314102,True,18
X035K20,747,experiment,84,↓,down,↓,0.8475699999835342,True,18
X035K20,748,experiment,180,↑,up,↑,0.5192592999665067,True,18
X035K20,749,experiment,12,←,left,←,1.4463121999287978,True,18
X035K20,750,experiment,120,←,left,←,0.524178700055927,True,18
X035K20,751,experiment,156,←,right,→,1.0341922000516206,False,18
X035K20,752,experiment,180,↑,up,↑,0.7759040000382811,True,18
X035K20,753,experiment,120,↓,up,↑,0.5377669000299647,False,18
X035K20,754,experiment,72,→,right,→,0.7149440000066534,True,18
X035K20,755,experiment,96,↑,no_key,no_letter,-1.0,False,18
X035K20,756,experiment,156,→,right,→,0.5399632001062855,True,18
X035K20,757,experiment,132,←,left,←,0.5580360000021756,True,18
X035K20,758,experiment,48,→,no_key,no_letter,-1.0,False,18
X035K20,759,experiment,108,↓,left,←,0.7094488999573514,False,18
X035K20,760,experiment,108,↓,up,↑,0.7017325999913737,False,18
X035K20,761,experiment,168,↓,down,↓,0.9403014000272378,True,18
X035K20,762,experiment,60,←,left,←,0.5783178999554366,True,18
X035K20,763,experiment,156,←,no_key,no_letter,-1.0,False,18
X035K20,764,experiment,48,↓,down,↓,0.8147340000141412,True,18
X035K20,765,experiment,24,↑,up,↑,0.7609558999538422,True,18
X035K20,766,experiment,168,→,left,←,0.7437739000888541,False,18
X035K20,767,experiment,72,←,left,←,0.6236831999849528,True,18
X035K20,768,experiment,84,↓,down,↓,0.6586483999853954,True,18
X035K20,769,experiment,36,→,right,→,0.6547756999498233,True,18
X035K20,770,experiment,24,←,left,←,0.8251375000691041,True,18
X035K20,771,experiment,168,→,right,→,0.6471626999555156,True,18
X035K20,772,experiment,12,→,right,→,1.1970702999969944,True,18
X035K20,773,experiment,180,↓,down,↓,1.013208599993959,True,18
X035K20,774,experiment,120,→,up,↑,0.8859004999976605,False,18
X035K20,775,experiment,84,←,no_key,no_letter,-1.0,False,18
X035K20,776,experiment,24,↓,down,↓,0.7982904999516904,True,18
X035K20,777,experiment,96,↓,down,↓,0.5408301000716165,True,18
X035K20,778,experiment,48,↑,down,↓,0.8154545000288635,False,18
X035K20,779,experiment,96,↑,up,↑,0.6862225000513718,True,18
X035K20,780,experiment,144,↑,up,↑,0.6553131999680772,True,18
X035K20,781,experiment,60,→,right,→,0.6285983000416309,True,18
X035K20,782,experiment,132,↓,down,↓,0.8571225999621674,True,18
X035K20,783,experiment,60,→,right,→,0.5494463000213727,True,18
X035K20,784,experiment,108,←,right,→,0.6722172000445426,False,18
X035K20,785,experiment,144,↑,up,↑,0.8504053000360727,True,18
X035K20,786,experiment,132,→,right,→,0.7496828000294045,True,18
X035K20,787,training,108,→,right,→,0.9510029000230134,True,18
X035K20,788,training,120,→,right,→,0.7045607999898493,True,18
X035K20,789,training,120,←,left,←,0.7207653999794275,True,18
X035K20,790,experiment,180,→,left,←,0.8030969999963418,False,18
X035K20,791,experiment,24,→,right,→,0.661562200053595,True,18
X035K20,792,experiment,168,←,no_key,no_letter,-1.0,False,18
X035K20,793,experiment,120,↑,up,↑,0.7685251000802964,True,18
X035K20,794,experiment,144,↑,up,↑,0.6796161000384018,True,18
X035K20,795,experiment,156,↑,up,↑,0.515708600054495,True,18
X035K20,796,experiment,156,→,right,→,0.7197475999128073,True,18
X035K20,797,experiment,168,↓,up,↑,1.3675677999854088,False,18
X035K20,798,experiment,132,←,left,←,0.6718888999894261,True,18
X035K20,799,experiment,156,↑,up,↑,0.9092663999181241,True,18
X035K20,800,experiment,132,↓,down,↓,0.9101259000599384,True,18
X035K20,801,experiment,120,←,left,←,1.0789374000160024,True,18
X035K20,802,experiment,72,↓,left,←,1.0488826000364497,False,18
X035K20,803,experiment,72,←,left,←,0.7651763999601826,True,18
X035K20,804,experiment,48,↓,down,↓,0.8598747999640182,True,18
X035K20,805,experiment,36,→,right,→,0.951238900073804,True,18
X035K20,806,experiment,108,←,no_key,no_letter,-1.0,False,18
X035K20,807,experiment,12,←,left,←,0.8069566000485793,True,18
X035K20,808,experiment,36,→,left,←,1.1802499999757856,False,18
X035K20,809,experiment,84,←,left,←,0.7096568999113515,True,18
X035K20,810,experiment,108,↑,up,↑,0.6380164999281988,True,18
X035K20,811,experiment,144,↓,up,↑,0.9567075000377372,False,18
X035K20,812,experiment,168,→,right,→,0.807181500014849,True,18
X035K20,813,experiment,72,←,right,→,0.8771838000975549,False,18
X035K20,814,experiment,96,←,left,←,0.7363258999539539,True,18
X035K20,815,experiment,60,↓,no_key,no_letter,-1.0,False,18
X035K20,816,experiment,60,→,right,→,0.6043538000667468,True,18
X035K20,817,experiment,180,←,right,→,0.9905170999700204,False,18
X035K20,818,experiment,24,↓,down,↓,0.9476325999712572,True,18
X035K20,819,experiment,60,←,no_key,no_letter,-1.0,False,18
X035K20,820,experiment,168,←,left,←,0.7090469000395387,True,18
X035K20,821,experiment,36,→,right,→,0.664402800030075,True,18
X035K20,822,experiment,96,→,no_key,no_letter,-1.0,False,18
X035K20,823,experiment,60,←,left,←,0.5478533999994397,True,18
X035K20,824,experiment,108,←,left,←,0.7583262999542058,True,18
X035K20,825,experiment,48,↓,down,↓,0.7857934000203386,True,18
X035K20,826,experiment,144,→,right,→,0.4939954000292346,True,18
X035K20,827,experiment,144,↓,down,↓,0.6288182999705896,True,18
X035K20,828,experiment,84,→,no_key,no_letter,-1.0,False,18
X035K20,829,experiment,84,→,right,→,0.6314893000526354,True,18
X035K20,830,experiment,156,↓,down,↓,0.8851250000298023,True,18
X035K20,831,experiment,132,↓,down,↓,0.8362640000414103,True,18
X035K20,832,experiment,12,↓,down,↓,0.9615283000748605,True,18
X035K20,833,experiment,72,↑,no_key,no_letter,-1.0,False,18
X035K20,834,experiment,24,↓,down,↓,0.8347353999270126,True,18
X035K20,835,experiment,120,↑,left,←,1.0345450000604615,False,18
X035K20,836,experiment,180,↑,up,↑,0.8181218000827357,True,18
X035K20,837,experiment,120,←,left,←,0.6557019000174478,True,18
X035K20,838,experiment,48,←,right,→,0.9876223999308422,False,18
X035K20,839,experiment,96,←,left,←,0.6697001000866294,True,18
X035K20,840,experiment,12,←,no_key,no_letter,-1.0,False,18
X035K20,841,experiment,84,←,left,←,0.6910148999886587,True,18
X035K20,842,experiment,24,↓,no_key,no_letter,-1.0,False,18
X035K20,843,experiment,108,←,left,←,0.7995575000531971,True,18
X035K20,844,experiment,48,←,left,←,1.1801302999956533,True,18
X035K20,845,experiment,96,↑,up,↑,0.7099577999906614,True,18
X035K20,846,experiment,12,↓,down,↓,0.6779231000691652,True,18
X035K20,847,experiment,36,↓,down,↓,0.8068768000230193,True,18
X035K20,848,experiment,180,→,right,→,0.5172454999992624,True,18
X035K20,849,experiment,132,←,left,←,0.7551708000246435,True,18
