PART_ID,Trial_no,Trial_type,PDI,Stim_letter,Key_pressed,letter_choose,Rt,Corr,Stimulus Time
X036M47,1,training,10,↓,no_key,no_letter,-1.0,False,30
X036M47,2,training,10,↑,left,←,0.4337617999408394,False,30
X036M47,3,training,10,↑,left,←,1.0700513999909163,False,30
X036M47,4,training,10,↓,no_key,no_letter,-1.0,False,30
X036M47,5,training,10,↓,right,→,0.8667683999519795,False,30
X036M47,6,training,10,→,left,←,1.0595002999762073,False,30
X036M47,7,training,10,↑,left,←,1.4036297999555245,False,30
X036M47,8,training,10,↑,right,→,0.21722680004313588,False,30
X036M47,9,training,10,↓,no_key,no_letter,-1.0,False,30
X036M47,10,training,10,←,right,→,0.11720840004272759,False,30
X036M47,11,training,10,↑,right,→,0.1504988999804482,False,30
X036M47,12,training,10,↑,no_key,no_letter,-1.0,False,30
X036M47,13,training,10,↑,no_key,no_letter,-1.0,False,30
X036M47,14,training,10,↓,no_key,no_letter,-1.0,False,30
X036M47,15,training,10,→,up,↑,0.20078990003094077,False,30
X036M47,16,training,10,↓,no_key,no_letter,-1.0,False,30
X036M47,17,training,10,←,right,→,0.16722329996991903,False,30
X036M47,18,training,10,↓,right,→,0.6002957000164315,False,30
X036M47,19,training,10,↑,no_key,no_letter,-1.0,False,30
X036M47,20,training,10,↓,left,←,0.4677657000720501,False,30
X036M47,21,training,10,←,left,←,0.4336619999958202,True,18
X036M47,22,training,10,→,right,→,0.2336369000840932,True,18
X036M47,23,training,10,←,left,←,0.18348970008082688,True,18
X036M47,24,training,10,←,right,→,0.0837040999904275,False,18
X036M47,25,training,10,↓,left,←,0.15025489998515695,False,18
X036M47,26,training,10,→,right,→,0.13363630010280758,True,18
X036M47,27,training,10,↓,left,←,0.06715049990452826,False,18
X036M47,28,training,10,↑,right,→,0.21674510010052472,False,18
X036M47,29,training,10,←,left,←,0.21713529992848635,True,18
X036M47,30,training,10,↑,right,→,0.11706260009668767,False,18
X036M47,31,training,132,→,left,←,1.4069677999941632,False,15
X036M47,32,training,156,→,right,→,0.36725020001176745,True,15
X036M47,33,training,12,→,left,←,0.513142199954018,False,15
X036M47,34,experiment,156,←,right,→,0.25049180001951754,False,15
X036M47,35,experiment,36,←,left,←,0.31745410000439733,True,15
X036M47,36,experiment,84,←,right,→,0.3005167000228539,False,15
X036M47,37,experiment,96,→,right,→,0.38383159996010363,True,15
X036M47,38,experiment,72,→,left,←,0.1670159000204876,False,15
X036M47,39,experiment,180,↓,left,←,0.8344889000291005,False,15
X036M47,40,experiment,72,→,left,←,0.33381749992258847,False,15
X036M47,41,experiment,132,→,left,←,0.4898156999843195,False,15
X036M47,42,experiment,12,←,no_key,no_letter,-1.0,False,15
X036M47,43,experiment,84,↓,right,→,0.2169014000101015,False,15
X036M47,44,experiment,84,←,left,←,0.2502219999441877,True,15
X036M47,45,experiment,144,→,right,→,0.1504960999591276,True,15
X036M47,46,experiment,48,↑,no_key,no_letter,-1.0,False,15
X036M47,47,experiment,108,→,left,←,0.35020940005779266,False,15
X036M47,48,experiment,48,↑,left,←,0.2672879999736324,False,15
X036M47,49,experiment,60,←,left,←,0.36724880000110716,True,15
X036M47,50,experiment,72,←,right,→,0.2837963999481872,False,15
X036M47,51,experiment,132,↓,left,←,1.5110608999384567,False,15
X036M47,52,experiment,156,↓,left,←,0.5096778000006452,False,15
X036M47,53,experiment,96,←,right,→,0.31707160000223666,False,15
X036M47,54,experiment,120,→,no_key,no_letter,-1.0,False,15
X036M47,55,experiment,180,←,right,→,0.3839851999655366,False,15
X036M47,56,experiment,144,↑,left,←,0.2349760999204591,False,15
X036M47,57,experiment,120,↑,left,←,0.18409120000433177,False,15
X036M47,58,experiment,48,←,left,←,1.4944008000893518,True,15
X036M47,59,experiment,144,→,right,→,0.4258433999493718,True,15
X036M47,60,experiment,132,←,right,→,0.3672450000885874,False,15
X036M47,61,experiment,132,↓,right,→,0.6149883000180125,False,15
X036M47,62,experiment,60,↓,right,→,0.31713420001324266,False,15
X036M47,63,experiment,24,→,no_key,no_letter,-1.0,False,15
X036M47,64,experiment,60,↑,left,←,0.33352490002289414,False,15
X036M47,65,experiment,36,↑,right,→,0.3342336000641808,False,15
X036M47,66,experiment,12,←,right,→,0.9361629999475554,False,15
X036M47,67,experiment,60,↑,left,←,0.2834185000974685,False,15
X036M47,68,experiment,168,↑,left,←,0.36706870002672076,False,15
X036M47,69,experiment,24,↑,left,←,0.28386460000183433,False,15
X036M47,70,experiment,168,↓,left,←,0.30045420001260936,False,15
X036M47,71,experiment,12,↓,right,→,0.3679115000413731,False,15
X036M47,72,experiment,120,←,left,←,0.6527796000009403,True,15
X036M47,73,experiment,156,↓,no_key,no_letter,-1.0,False,15
X036M47,74,experiment,168,→,right,→,0.35046149999834597,True,15
X036M47,75,experiment,36,→,right,→,0.45177839999087155,True,15
X036M47,76,experiment,72,←,right,→,0.3670024999883026,False,15
X036M47,77,experiment,48,↓,right,→,0.4529181000543758,False,15
X036M47,78,experiment,24,↓,no_key,no_letter,-1.0,False,15
X036M47,79,experiment,120,↓,right,→,0.46218429994769394,False,15
X036M47,80,experiment,96,↓,left,←,0.5678949999855831,False,15
X036M47,81,experiment,108,↓,no_key,no_letter,-1.0,False,15
X036M47,82,experiment,108,↓,right,→,0.23386819998268038,False,15
X036M47,83,experiment,180,↑,left,←,0.2672206999268383,False,15
X036M47,84,experiment,96,↓,right,→,0.2506833999650553,False,15
X036M47,85,experiment,108,↓,left,←,0.3504564000759274,False,15
X036M47,86,experiment,12,↑,right,→,0.7425874000182375,False,15
X036M47,87,experiment,144,↑,left,←,0.4981003999710083,False,15
X036M47,88,experiment,84,↓,no_key,no_letter,-1.0,False,15
X036M47,89,experiment,168,→,left,←,1.5186207999940962,False,15
X036M47,90,experiment,156,←,left,←,0.9679128000279889,True,15
X036M47,91,experiment,180,↑,right,→,0.33385950000956655,False,15
X036M47,92,experiment,24,↑,right,→,0.3671478000469506,False,15
X036M47,93,experiment,36,→,left,←,0.2840283000841737,False,15
X036M47,94,training,12,←,left,←,1.557537299930118,True,16
X036M47,95,training,96,↑,right,→,0.38396230002399534,False,16
X036M47,96,training,144,↓,left,←,1.4060341999866068,False,16
X036M47,97,experiment,24,↓,left,←,0.31731790001504123,False,16
X036M47,98,experiment,108,→,left,←,0.5441702000098303,False,16
X036M47,99,experiment,180,↓,left,←,0.25028100004419684,False,16
X036M47,100,experiment,96,↑,right,→,0.3836958999745548,False,16
X036M47,101,experiment,132,↓,right,→,0.33397069992497563,False,16
X036M47,102,experiment,120,←,right,→,0.514176599914208,False,16
X036M47,103,experiment,168,↑,left,←,0.5302360999630764,False,16
X036M47,104,experiment,144,←,left,←,0.3505400000140071,True,16
X036M47,105,experiment,48,↑,left,←,0.28379959997255355,False,16
X036M47,106,experiment,156,←,left,←,0.4003632999956608,True,16
X036M47,107,experiment,36,←,left,←,1.7873678000178188,True,16
X036M47,108,experiment,96,↓,left,←,0.4001985000213608,False,16
X036M47,109,experiment,72,←,right,→,0.28386219998355955,False,16
X036M47,110,experiment,84,↑,no_key,no_letter,-1.0,False,16
X036M47,111,experiment,180,→,right,→,0.5241343999514356,True,16
X036M47,112,experiment,24,↑,left,←,0.4987396999495104,False,16
X036M47,113,experiment,180,↑,no_key,no_letter,-1.0,False,16
X036M47,114,experiment,96,↓,right,→,0.60759919998236,False,16
X036M47,115,experiment,132,↑,right,→,1.2570149999810383,False,16
X036M47,116,experiment,48,↓,left,←,1.3568923000711948,False,16
X036M47,117,experiment,84,←,right,→,0.35043180000502616,False,16
X036M47,118,experiment,48,←,left,←,0.9679105000104755,True,16
X036M47,119,experiment,24,→,right,→,0.3837586999870837,True,16
X036M47,120,experiment,36,↓,no_key,no_letter,-1.0,False,16
X036M47,121,experiment,108,↑,no_key,no_letter,-1.0,False,16
X036M47,122,experiment,156,←,left,←,0.45554630004335195,True,16
X036M47,123,experiment,132,←,left,←,0.5860778999049217,True,16
X036M47,124,experiment,60,↑,no_key,no_letter,-1.0,False,16
X036M47,125,experiment,120,→,right,→,0.5008144000312313,True,16
X036M47,126,experiment,108,→,left,←,0.31729399994947016,False,16
X036M47,127,experiment,48,→,left,←,0.46836920001078397,False,16
X036M47,128,experiment,108,←,left,←,0.33403369993902743,True,16
X036M47,129,experiment,180,↑,left,←,0.5544351000571623,False,16
X036M47,130,experiment,72,→,left,←,0.44382179994136095,False,16
X036M47,131,experiment,72,←,left,←,0.5637384000001475,True,16
X036M47,132,experiment,156,→,right,→,0.3005217999452725,True,16
X036M47,133,experiment,144,↓,left,←,0.3501467000460252,False,16
X036M47,134,experiment,36,↑,right,→,0.25101360003463924,False,16
X036M47,135,experiment,12,→,no_key,no_letter,-1.0,False,16
X036M47,136,experiment,12,↑,left,←,0.31745189998764545,False,16
X036M47,137,experiment,60,↑,left,←,0.6009228000184521,False,16
X036M47,138,experiment,132,←,right,→,0.5006837999681011,False,16
X036M47,139,experiment,60,→,left,←,0.6094008999643847,False,16
X036M47,140,experiment,84,←,right,→,0.5098423000890762,False,16
X036M47,141,experiment,156,↑,left,←,1.7495672000804916,False,16
X036M47,142,experiment,120,←,left,←,0.696366999996826,True,16
X036M47,143,experiment,12,↑,no_key,no_letter,-1.0,False,16
X036M47,144,experiment,84,↑,left,←,0.3333527999930084,False,16
X036M47,145,experiment,168,←,left,←,0.26714299991726875,True,16
X036M47,146,experiment,144,↓,right,→,0.36741950002033263,False,16
X036M47,147,experiment,36,↑,no_key,no_letter,-1.0,False,16
X036M47,148,experiment,24,←,right,→,0.28361990000121295,False,16
X036M47,149,experiment,168,→,left,←,0.3169554000487551,False,16
X036M47,150,experiment,120,→,right,→,0.35059539997018874,True,16
X036M47,151,experiment,144,→,left,←,0.33384819992352277,False,16
X036M47,152,experiment,96,←,right,→,0.36720609990879893,False,16
X036M47,153,experiment,60,↓,no_key,no_letter,-1.0,False,16
X036M47,154,experiment,168,→,right,→,0.35081620002165437,True,16
X036M47,155,experiment,72,↑,left,←,0.401007300009951,False,16
X036M47,156,experiment,12,→,left,←,0.4798782999860123,False,16
X036M47,157,training,96,→,left,←,0.5774588999338448,False,17
X036M47,158,training,108,↓,right,→,0.40086719999089837,False,17
X036M47,159,training,168,→,right,→,0.4172559999860823,True,17
X036M47,160,experiment,180,↓,right,→,0.28347499994561076,False,17
X036M47,161,experiment,120,→,left,←,0.5284850000170991,False,17
X036M47,162,experiment,168,←,left,←,0.33388060005381703,True,17
X036M47,163,experiment,156,↑,left,←,0.33449539996217936,False,17
X036M47,164,experiment,36,→,right,→,0.6434569000266492,True,17
X036M47,165,experiment,60,↑,right,→,0.4522141000488773,False,17
X036M47,166,experiment,48,↑,no_key,no_letter,-1.0,False,17
X036M47,167,experiment,72,↓,right,→,0.41690519999247044,False,17
X036M47,168,experiment,48,→,left,←,0.3339419000549242,False,17
X036M47,169,experiment,180,↑,left,←,0.3672258999431506,False,17
X036M47,170,experiment,84,→,left,←,0.3504172000102699,False,17
X036M47,171,experiment,120,↑,left,←,0.5568547999719158,False,17
X036M47,172,experiment,120,→,left,←,0.3001207000343129,False,17
X036M47,173,experiment,12,→,no_key,no_letter,-1.0,False,17
X036M47,174,experiment,168,↑,no_key,no_letter,-1.0,False,17
X036M47,175,experiment,144,↑,no_key,no_letter,-1.0,False,17
X036M47,176,experiment,12,↑,no_key,no_letter,-1.0,False,17
X036M47,177,experiment,60,↑,left,←,0.35056309995707124,False,17
X036M47,178,experiment,84,↑,left,←,0.5039012000197545,False,17
X036M47,179,experiment,24,←,left,←,0.5727353999391198,True,17
X036M47,180,experiment,72,↑,left,←,0.6788708999520168,False,17
X036M47,181,experiment,156,↓,right,→,0.5142014999873936,False,17
X036M47,182,experiment,36,↓,no_key,no_letter,-1.0,False,17
X036M47,183,experiment,168,↓,no_key,no_letter,-1.0,False,17
X036M47,184,experiment,180,↑,left,←,0.33367369999177754,False,17
X036M47,185,experiment,24,←,no_key,no_letter,-1.0,False,17
X036M47,186,experiment,72,↑,right,→,0.35043140000198036,False,17
X036M47,187,experiment,108,←,left,←,0.16734769998583943,True,17
X036M47,188,experiment,48,←,right,→,0.4873527999734506,False,17
X036M47,189,experiment,144,→,right,→,0.4549750000005588,True,17
X036M47,190,experiment,108,→,no_key,no_letter,-1.0,False,17
X036M47,191,experiment,36,↓,no_key,no_letter,-1.0,False,17
X036M47,192,experiment,60,←,left,←,0.33348329993896186,True,17
X036M47,193,experiment,36,→,left,←,0.4979123999364674,False,17
X036M47,194,experiment,12,→,left,←,1.5506082000210881,False,17
X036M47,195,experiment,24,↑,left,←,0.4588067999575287,False,17
X036M47,196,experiment,132,←,left,←,0.40078729996457696,True,17
X036M47,197,experiment,84,↑,no_key,no_letter,-1.0,False,17
X036M47,198,experiment,48,→,left,←,0.3671661000698805,False,17
X036M47,199,experiment,156,←,left,←,0.41703890007920563,True,17
X036M47,200,experiment,72,↑,left,←,0.3338069000747055,False,17
X036M47,201,experiment,96,→,no_key,no_letter,-1.0,False,17
X036M47,202,experiment,108,←,right,→,0.5358772999607027,False,17
X036M47,203,experiment,168,↓,no_key,no_letter,-1.0,False,17
X036M47,204,experiment,60,↑,no_key,no_letter,-1.0,False,17
X036M47,205,experiment,24,↑,left,←,0.2170445000519976,False,17
X036M47,206,experiment,180,←,left,←,0.5499415000667796,True,17
X036M47,207,experiment,132,↑,left,←,0.31762180000077933,False,17
X036M47,208,experiment,144,→,no_key,no_letter,-1.0,False,17
X036M47,209,experiment,144,←,left,←,0.6537597000133246,True,17
X036M47,210,experiment,84,←,right,→,0.3171794998925179,False,17
X036M47,211,experiment,132,←,no_key,no_letter,-1.0,False,17
X036M47,212,experiment,120,↑,right,→,0.5861428000498563,False,17
X036M47,213,experiment,12,↓,right,→,0.5032384999794886,False,17
X036M47,214,experiment,96,→,left,←,0.36709510011132807,False,17
X036M47,215,experiment,132,↓,no_key,no_letter,-1.0,False,17
X036M47,216,experiment,96,→,left,←,0.5467328999657184,False,17
X036M47,217,experiment,156,↓,right,→,0.5699822000460699,False,17
X036M47,218,experiment,96,↓,right,→,0.5223420000402257,False,17
X036M47,219,experiment,108,↓,right,→,0.35054159990977496,False,17
X036M47,220,training,156,↑,right,→,0.35053890000563115,False,18
X036M47,221,training,156,←,right,→,0.35028240003157407,False,18
X036M47,222,training,48,←,left,←,0.28371139999944717,True,18
X036M47,223,experiment,108,→,right,→,0.18427229998633265,True,18
X036M47,224,experiment,60,←,left,←,0.4171549000311643,True,18
X036M47,225,experiment,84,↑,left,←,0.4001621000934392,False,18
X036M47,226,experiment,156,↑,right,→,0.15040029992815107,False,18
X036M47,227,experiment,12,↓,right,→,0.33387329999823123,False,18
X036M47,228,experiment,120,↓,right,→,0.283987500006333,False,18
X036M47,229,experiment,120,↓,left,←,0.16698570002336055,False,18
X036M47,230,experiment,132,→,right,→,0.4005938000045717,True,18
X036M47,231,experiment,12,→,left,←,0.571374100050889,False,18
X036M47,232,experiment,180,↓,right,→,0.2672465000068769,False,18
X036M47,233,experiment,144,↑,left,←,0.283795400056988,False,18
X036M47,234,experiment,180,↓,right,→,0.3171678999206051,False,18
X036M47,235,experiment,156,→,left,←,0.4963755999924615,False,18
X036M47,236,experiment,156,↓,no_key,no_letter,-1.0,False,18
X036M47,237,experiment,48,↓,right,→,0.5059291000943631,False,18
X036M47,238,experiment,108,↓,right,→,0.26720450003631413,False,18
X036M47,239,experiment,180,↑,left,←,0.4337832999881357,False,18
X036M47,240,experiment,72,↑,right,→,0.3339562000473961,False,18
X036M47,241,experiment,24,→,right,→,0.4170504999347031,True,18
X036M47,242,experiment,180,↑,left,←,0.25037659995723516,False,18
X036M47,243,experiment,96,→,right,→,0.36709920002613217,True,18
X036M47,244,experiment,36,→,right,→,0.38385029998607934,True,18
X036M47,245,experiment,144,↑,right,→,0.5512697999365628,False,18
X036M47,246,experiment,48,↓,left,←,0.4682806000346318,False,18
X036M47,247,experiment,168,←,right,→,0.40050370001699775,False,18
X036M47,248,experiment,132,→,left,←,0.43367269996088,False,18
X036M47,249,experiment,84,←,left,←,0.5689713000319898,True,18
X036M47,250,experiment,168,→,right,→,0.20150179998017848,True,18
X036M47,251,experiment,108,↓,right,→,0.3179378999629989,False,18
X036M47,252,experiment,48,↑,right,→,0.6273166999453679,False,18
X036M47,253,experiment,84,←,right,→,0.38371349999215454,False,18
X036M47,254,experiment,36,←,right,→,0.4170017000287771,False,18
X036M47,255,experiment,60,↓,right,→,0.4338247000705451,False,18
X036M47,256,experiment,24,↓,left,←,0.31719089997932315,False,18
X036M47,257,experiment,24,↓,right,→,0.3836790000787005,False,18
X036M47,258,experiment,12,→,left,←,0.2172059000004083,False,18
X036M47,259,experiment,36,←,left,←,0.5062187999719754,True,18
X036M47,260,experiment,96,↓,right,→,0.30045720003545284,False,18
X036M47,261,experiment,120,↓,right,→,0.3837390999542549,False,18
X036M47,262,experiment,168,↓,right,→,0.23369760008063167,False,18
X036M47,263,experiment,12,→,left,←,0.4170163000235334,False,18
X036M47,264,experiment,132,↑,right,→,0.38389789999928325,False,18
X036M47,265,experiment,48,↑,right,→,0.3342088999925181,False,18
X036M47,266,experiment,144,↓,right,→,0.3336203000508249,False,18
X036M47,267,experiment,96,←,left,←,0.538027900038287,True,18
X036M47,268,experiment,132,→,left,←,0.4732780000194907,False,18
X036M47,269,experiment,84,→,left,←,0.4716560000088066,False,18
X036M47,270,experiment,60,←,right,→,0.31715770007576793,False,18
X036M47,271,experiment,72,↓,left,←,0.5119874000083655,False,18
X036M47,272,experiment,120,↑,left,←,0.529911500052549,False,18
X036M47,273,experiment,156,→,no_key,no_letter,-1.0,False,18
X036M47,274,experiment,108,↓,right,→,0.3668232000200078,False,18
X036M47,275,experiment,36,→,no_key,no_letter,-1.0,False,18
X036M47,276,experiment,60,↓,left,←,0.4908910000231117,False,18
X036M47,277,experiment,144,↑,no_key,no_letter,-1.0,False,18
X036M47,278,experiment,72,→,no_key,no_letter,-1.0,False,18
X036M47,279,experiment,24,→,right,→,0.1837198999710381,True,18
X036M47,280,experiment,168,←,right,→,0.31722159998025745,False,18
X036M47,281,experiment,96,→,left,←,0.3506522999377921,False,18
X036M47,282,experiment,72,←,left,←,0.40032769995741546,True,18
X036M47,283,training,132,←,left,←,0.43366430001333356,True,18
X036M47,284,training,36,↓,no_key,no_letter,-1.0,False,18
X036M47,285,training,132,→,right,→,0.5463506999658421,True,18
X036M47,286,experiment,48,↑,right,→,0.7063882000511512,False,18
X036M47,287,experiment,12,↑,right,→,0.6565677999751642,False,18
X036M47,288,experiment,168,↑,right,→,0.641746599925682,False,18
X036M47,289,experiment,24,↓,right,→,0.8499469000380486,False,18
X036M47,290,experiment,84,←,left,←,0.5973498000530526,True,18
X036M47,291,experiment,96,↑,right,→,0.5924029999878258,False,18
X036M47,292,experiment,96,←,no_key,no_letter,-1.0,False,18
X036M47,293,experiment,108,↑,no_key,no_letter,-1.0,False,18
X036M47,294,experiment,36,↓,right,→,0.2670493999030441,False,18
X036M47,295,experiment,108,←,no_key,no_letter,-1.0,False,18
X036M47,296,experiment,36,→,right,→,0.4840654000872746,True,18
X036M47,297,experiment,12,↓,left,←,0.7542302999645472,False,18
X036M47,298,experiment,60,←,no_key,no_letter,-1.0,False,18
X036M47,299,experiment,24,→,right,→,0.5341195000801235,True,18
X036M47,300,experiment,84,→,right,→,0.8910585999256,True,18
X036M47,301,experiment,36,←,left,←,0.467350099934265,True,18
X036M47,302,experiment,108,↓,right,→,0.6478926000418141,False,18
X036M47,303,experiment,144,←,no_key,no_letter,-1.0,False,18
X036M47,304,experiment,144,↑,left,←,0.5379721999634057,False,18
X036M47,305,experiment,84,↓,left,←,0.40085860004182905,False,18
X036M47,306,experiment,12,↑,no_key,no_letter,-1.0,False,18
X036M47,307,experiment,156,↓,no_key,no_letter,-1.0,False,18
X036M47,308,experiment,12,↓,right,→,0.6494305001106113,False,18
X036M47,309,experiment,156,↓,left,←,0.8102072000037879,False,18
X036M47,310,experiment,168,←,right,→,0.7232393999584019,False,18
X036M47,311,experiment,72,←,right,→,0.6363313000183553,False,18
X036M47,312,experiment,72,→,no_key,no_letter,-1.0,False,18
X036M47,313,experiment,24,←,right,→,0.3003819000441581,False,18
X036M47,314,experiment,72,↑,right,→,0.5583224000874907,False,18
X036M47,315,experiment,84,→,left,←,0.6911763999378309,False,18
X036M47,316,experiment,132,→,no_key,no_letter,-1.0,False,18
X036M47,317,experiment,168,↑,left,←,0.8197282000910491,False,18
X036M47,318,experiment,48,↑,no_key,no_letter,-1.0,False,18
X036M47,319,experiment,24,→,right,→,0.5711053999839351,True,18
X036M47,320,experiment,120,←,no_key,no_letter,-1.0,False,18
X036M47,321,experiment,96,↑,left,←,0.5375406999373809,False,18
X036M47,322,experiment,120,→,right,→,0.2504693999653682,True,18
X036M47,323,experiment,156,↓,left,←,0.5236975000007078,False,18
X036M47,324,experiment,48,←,left,←,0.554363299976103,True,18
X036M47,325,experiment,120,←,right,→,0.5109289999818429,False,18
X036M47,326,experiment,132,←,no_key,no_letter,-1.0,False,18
X036M47,327,experiment,48,←,right,→,0.9677414000034332,False,18
X036M47,328,experiment,144,←,right,→,0.6187345000216737,False,18
X036M47,329,experiment,132,↓,left,←,0.5857003999408334,False,18
X036M47,330,experiment,180,↓,right,→,0.31758600007742643,False,18
X036M47,331,experiment,108,↓,no_key,no_letter,-1.0,False,18
X036M47,332,experiment,144,↑,left,←,0.898062500054948,False,18
X036M47,333,experiment,96,→,right,→,1.079639400006272,True,18
X036M47,334,experiment,180,→,left,←,0.5242159999907017,False,18
X036M47,335,experiment,168,→,left,←,0.9628200000151992,False,18
X036M47,336,experiment,36,↓,no_key,no_letter,-1.0,False,18
X036M47,337,experiment,156,↓,left,←,0.5340810000197962,False,18
X036M47,338,experiment,60,↑,no_key,no_letter,-1.0,False,18
X036M47,339,experiment,60,↓,left,←,0.8833330000052229,False,18
X036M47,340,experiment,72,←,right,→,0.5382228000089526,False,18
X036M47,341,experiment,120,→,left,←,0.572308300063014,False,18
X036M47,342,experiment,180,→,right,→,0.5945976000512019,True,18
X036M47,343,experiment,180,↓,left,←,0.41723599995020777,False,18
X036M47,344,experiment,132,↓,left,←,0.5634517999133095,False,18
X036M47,345,experiment,60,←,left,←,0.43365110002923757,True,18
X036M47,346,training,84,↓,right,→,0.5025753999361768,False,18
X036M47,347,training,96,↓,left,←,0.35074749996419996,False,18
X036M47,348,training,48,←,right,→,0.38399630005005747,False,18
X036M47,349,experiment,24,→,left,←,0.4338442999869585,False,18
X036M47,350,experiment,144,↓,right,→,0.5643948999932036,False,18
X036M47,351,experiment,24,→,right,→,1.591420599957928,True,18
X036M47,352,experiment,132,↑,left,←,0.47590760001912713,False,18
X036M47,353,experiment,96,↓,left,←,0.6427284999517724,False,18
X036M47,354,experiment,84,←,no_key,no_letter,-1.0,False,18
X036M47,355,experiment,12,→,left,←,0.3004332999698818,False,18
X036M47,356,experiment,48,←,no_key,no_letter,-1.0,False,18
X036M47,357,experiment,84,←,up,↑,1.8551311999326572,False,18
X036M47,358,experiment,84,←,left,←,0.4919844000833109,True,18
X036M47,359,experiment,96,↓,left,←,0.5309219000628218,False,18
X036M47,360,experiment,48,↑,left,←,1.152736600022763,False,18
X036M47,361,experiment,120,→,right,→,1.0351169999921694,True,18
X036M47,362,experiment,168,→,right,→,0.9243550000246614,True,18
X036M47,363,experiment,48,↓,left,←,1.1364519000053406,False,18
X036M47,364,experiment,72,→,right,→,0.3672706000506878,True,18
X036M47,365,experiment,36,↓,left,←,0.3671671999618411,False,18
X036M47,366,experiment,96,↑,left,←,0.6405734000727534,False,18
X036M47,367,experiment,132,↓,right,→,0.40081249992363155,False,18
X036M47,368,experiment,84,↑,left,←,0.41720909997820854,False,18
X036M47,369,experiment,96,↑,left,←,0.47979529993608594,False,18
X036M47,370,experiment,180,←,right,→,0.3172093000030145,False,18
X036M47,371,experiment,36,→,no_key,no_letter,-1.0,False,18
X036M47,372,experiment,168,↑,left,←,0.5116675000172108,False,18
X036M47,373,experiment,144,→,left,←,0.6420006999978796,False,18
X036M47,374,experiment,72,→,left,←,0.43387890001758933,False,18
X036M47,375,experiment,180,←,left,←,0.7265808000229299,True,18
X036M47,376,experiment,144,→,right,→,0.7092669999692589,True,18
X036M47,377,experiment,156,→,left,←,0.7611838000593707,False,18
X036M47,378,experiment,132,↑,right,→,0.6784561000531539,False,18
X036M47,379,experiment,60,→,right,→,0.5812848000787199,True,18
X036M47,380,experiment,48,↑,left,←,0.5302997999824584,False,18
X036M47,381,experiment,60,↑,right,→,0.4172384000848979,False,18
X036M47,382,experiment,12,→,no_key,no_letter,-1.0,False,18
X036M47,383,experiment,24,→,right,→,0.33412740007042885,True,18
X036M47,384,experiment,108,←,left,←,0.3505009999498725,True,18
X036M47,385,experiment,36,→,right,→,0.7043911999789998,True,18
X036M47,386,experiment,180,→,right,→,0.5734731000848114,True,18
X036M47,387,experiment,12,→,no_key,no_letter,-1.0,False,18
X036M47,388,experiment,120,↓,left,←,0.5924386000260711,False,18
X036M47,389,experiment,60,→,no_key,no_letter,-1.0,False,18
X036M47,390,experiment,108,↓,no_key,no_letter,-1.0,False,18
X036M47,391,experiment,156,→,left,←,0.7839747000252828,False,18
X036M47,392,experiment,24,↑,left,←,0.48837430006824434,False,18
X036M47,393,experiment,132,→,no_key,no_letter,-1.0,False,18
X036M47,394,experiment,12,→,left,←,0.38380820001475513,False,18
X036M47,395,experiment,120,←,no_key,no_letter,-1.0,False,18
X036M47,396,experiment,108,↑,no_key,no_letter,-1.0,False,18
X036M47,397,experiment,156,←,right,→,0.5658598999725655,False,18
X036M47,398,experiment,168,→,right,→,0.5225817000027746,True,18
X036M47,399,experiment,120,↓,no_key,no_letter,-1.0,False,18
X036M47,400,experiment,156,←,left,←,0.41722659999504685,True,18
X036M47,401,experiment,144,↑,right,→,0.3336931000230834,False,18
X036M47,402,experiment,168,↓,right,→,0.4931597000686452,False,18
X036M47,403,experiment,60,←,right,→,0.5810991999460384,False,18
X036M47,404,experiment,72,↑,left,←,0.4970530999125913,False,18
X036M47,405,experiment,72,→,right,→,0.35029869992285967,True,18
X036M47,406,experiment,180,←,right,→,0.43398650002200156,False,18
X036M47,407,experiment,108,↑,left,←,0.3007048999425024,False,18
X036M47,408,experiment,36,↓,right,→,0.4337414999026805,False,18
X036M47,409,training,156,→,left,←,0.3170067999744788,False,18
X036M47,410,training,60,←,left,←,0.5822469999548048,True,18
X036M47,411,training,108,→,left,←,0.5619382999138907,False,18
X036M47,412,experiment,12,→,right,→,0.48488879995420575,True,18
X036M47,413,experiment,144,→,right,→,0.6037276999559253,True,18
X036M47,414,experiment,168,←,no_key,no_letter,-1.0,False,18
X036M47,415,experiment,48,↓,right,→,0.49367270001675934,False,18
X036M47,416,experiment,96,↓,right,→,0.6022314999718219,False,18
X036M47,417,experiment,156,→,right,→,0.41723999998066574,True,18
X036M47,418,experiment,132,↓,left,←,0.4002791999373585,False,18
X036M47,419,experiment,180,↓,left,←,0.5075650999788195,False,18
X036M47,420,experiment,96,↓,no_key,no_letter,-1.0,False,18
X036M47,421,experiment,144,←,left,←,0.3171562999486923,True,18
X036M47,422,experiment,180,→,right,→,0.40071650000754744,True,18
X036M47,423,experiment,84,→,left,←,0.47382899990770966,False,18
X036M47,424,experiment,120,→,no_key,no_letter,-1.0,False,18
X036M47,425,experiment,108,↑,right,→,0.4006290000397712,False,18
X036M47,426,experiment,180,←,right,→,0.4171565999276936,False,18
X036M47,427,experiment,84,→,right,→,0.4915913000004366,True,18
X036M47,428,experiment,60,→,left,←,0.49654200009536,False,18
X036M47,429,experiment,108,↑,right,→,0.48368679999839514,False,18
X036M47,430,experiment,84,←,no_key,no_letter,-1.0,False,18
X036M47,431,experiment,24,↑,no_key,no_letter,-1.0,False,18
X036M47,432,experiment,60,→,right,→,0.4827518999809399,True,18
X036M47,433,experiment,24,→,no_key,no_letter,-1.0,False,18
X036M47,434,experiment,12,↓,no_key,no_letter,-1.0,False,18
X036M47,435,experiment,72,↑,no_key,no_letter,-1.0,False,18
X036M47,436,experiment,168,↑,left,←,0.4003989000339061,False,18
X036M47,437,experiment,24,↓,left,←,0.4890364999882877,False,18
X036M47,438,experiment,84,→,right,→,0.38369620009325445,True,18
X036M47,439,experiment,156,↓,right,→,0.40028319996781647,False,18
X036M47,440,experiment,132,→,right,→,0.60896490002051,True,18
X036M47,441,experiment,168,←,left,←,0.5956911999965087,True,18
X036M47,442,experiment,132,↓,right,→,0.8043109000427648,False,18
X036M47,443,experiment,72,→,no_key,no_letter,-1.0,False,18
X036M47,444,experiment,120,↑,right,→,0.5535003999248147,False,18
X036M47,445,experiment,36,←,no_key,no_letter,-1.0,False,18
X036M47,446,experiment,168,←,right,→,0.613448700052686,False,18
X036M47,447,experiment,24,←,right,→,0.5615956000983715,False,18
X036M47,448,experiment,132,→,right,→,0.5352595000294968,True,18
X036M47,449,experiment,48,↓,right,→,1.4493697999278083,False,18
X036M47,450,experiment,72,↑,no_key,no_letter,-1.0,False,18
X036M47,451,experiment,60,→,right,→,0.23396639991551638,True,18
X036M47,452,experiment,36,←,no_key,no_letter,-1.0,False,18
X036M47,453,experiment,72,←,right,→,0.7505413999315351,False,18
X036M47,454,experiment,36,→,left,←,0.5136267999187112,False,18
X036M47,455,experiment,96,→,no_key,no_letter,-1.0,False,18
X036M47,456,experiment,36,→,right,→,0.6572200000518933,True,18
X036M47,457,experiment,156,↓,left,←,0.28345589991658926,False,18
X036M47,458,experiment,156,↑,right,→,0.31692949996795505,False,18
X036M47,459,experiment,96,↓,left,←,0.43348319991491735,False,18
X036M47,460,experiment,120,→,left,←,0.5283248000778258,False,18
X036M47,461,experiment,144,→,left,←,1.3010319999884814,False,18
X036M47,462,experiment,12,↑,no_key,no_letter,-1.0,False,18
X036M47,463,experiment,108,↑,no_key,no_letter,-1.0,False,18
X036M47,464,experiment,108,↑,no_key,no_letter,-1.0,False,18
X036M47,465,experiment,144,↓,no_key,no_letter,-1.0,False,18
X036M47,466,experiment,48,←,left,←,0.48023580003064126,True,18
X036M47,467,experiment,48,→,right,→,0.4335950999520719,True,18
X036M47,468,experiment,12,↓,left,←,0.5369275999255478,False,18
X036M47,469,experiment,120,→,right,→,0.3339519000146538,True,18
X036M47,470,experiment,180,↓,right,→,0.38365420000627637,False,18
X036M47,471,experiment,60,←,no_key,no_letter,-1.0,False,18
X036M47,472,training,48,↑,left,←,1.0957501000957564,False,18
X036M47,473,training,84,←,no_key,no_letter,-1.0,False,18
X036M47,474,training,156,→,left,←,0.30034039996098727,False,18
X036M47,475,experiment,180,→,left,←,0.5580529000144452,False,18
X036M47,476,experiment,72,↓,left,←,0.5160779999569058,False,18
X036M47,477,experiment,144,↑,right,→,0.5234000999480486,False,18
X036M47,478,experiment,120,↑,left,←,0.7613730999873951,False,18
X036M47,479,experiment,132,↓,left,←,0.4743197000352666,False,18
X036M47,480,experiment,24,→,no_key,no_letter,-1.0,False,18
X036M47,481,experiment,72,↑,left,←,0.5189601000165567,False,18
X036M47,482,experiment,84,↑,left,←,0.5320464000105858,False,18
X036M47,483,experiment,108,←,right,→,0.5841648000059649,False,18
X036M47,484,experiment,12,↓,left,←,0.3671667000744492,False,18
X036M47,485,experiment,36,↓,left,←,0.4005261000711471,False,18
X036M47,486,experiment,96,↓,right,→,0.603053699946031,False,18
X036M47,487,experiment,168,↑,no_key,no_letter,-1.0,False,18
X036M47,488,experiment,180,←,no_key,no_letter,-1.0,False,18
X036M47,489,experiment,132,↑,left,←,0.8136379000497982,False,18
X036M47,490,experiment,12,→,no_key,no_letter,-1.0,False,18
X036M47,491,experiment,36,←,left,←,0.483836300089024,True,18
X036M47,492,experiment,60,↑,right,→,0.5115409999853,False,18
X036M47,493,experiment,168,→,left,←,1.277155299903825,False,18
X036M47,494,experiment,96,→,left,←,0.6451738000614569,False,18
X036M47,495,experiment,156,↑,right,→,0.6066192999714985,False,18
X036M47,496,experiment,156,←,right,→,0.6621758000692353,False,18
X036M47,497,experiment,180,↑,left,←,0.5713022000854835,False,18
X036M47,498,experiment,96,↑,right,→,0.7155871998984367,False,18
X036M47,499,experiment,120,←,right,→,0.7717455999227241,False,18
X036M47,500,experiment,24,↑,left,←,0.5585213999729604,False,18
X036M47,501,experiment,24,↓,left,←,0.3672505000140518,False,18
X036M47,502,experiment,96,↑,right,→,0.4874915999826044,False,18
X036M47,503,experiment,144,←,left,←,0.7321293000131845,True,18
X036M47,504,experiment,180,↑,right,→,0.47795279999263585,False,18
X036M47,505,experiment,84,→,no_key,no_letter,-1.0,False,18
X036M47,506,experiment,108,↓,left,←,0.41733510000631213,False,18
X036M47,507,experiment,48,↓,no_key,no_letter,-1.0,False,18
X036M47,508,experiment,132,↓,right,→,0.33368560008239,False,18
X036M47,509,experiment,72,→,right,→,0.36701070005074143,True,18
X036M47,510,experiment,156,←,right,→,0.3005524999462068,False,18
X036M47,511,experiment,12,↑,no_key,no_letter,-1.0,False,18
X036M47,512,experiment,144,↑,right,→,0.47236619994509965,False,18
X036M47,513,experiment,168,↑,right,→,0.38378139992710203,False,18
X036M47,514,experiment,108,←,left,←,0.4803123000310734,True,18
X036M47,515,experiment,24,↓,no_key,no_letter,-1.0,False,18
X036M47,516,experiment,60,←,right,→,0.3168701999820769,False,18
X036M47,517,experiment,72,→,right,→,0.5532295000739396,True,18
X036M47,518,experiment,84,→,right,→,0.6704140999354422,True,18
X036M47,519,experiment,120,↑,right,→,0.23416690004523844,False,18
X036M47,520,experiment,108,←,left,←,1.2139912999700755,True,18
X036M47,521,experiment,60,↑,right,→,0.3670183999929577,False,18
X036M47,522,experiment,36,←,left,←,0.5979395000031218,True,18
X036M47,523,experiment,84,←,right,→,0.6220984000246972,False,18
X036M47,524,experiment,60,↑,right,→,0.7203376999823377,False,18
X036M47,525,experiment,48,→,no_key,no_letter,-1.0,False,18
X036M47,526,experiment,144,→,left,←,0.5303324999986216,False,18
X036M47,527,experiment,36,↑,right,→,0.5127324999775738,False,18
X036M47,528,experiment,48,↓,no_key,no_letter,-1.0,False,18
X036M47,529,experiment,120,↑,left,←,0.6063542999327183,False,18
X036M47,530,experiment,168,↓,left,←,0.3174268000293523,False,18
X036M47,531,experiment,12,←,left,←,0.5558492999989539,True,18
X036M47,532,experiment,48,←,no_key,no_letter,-1.0,False,18
X036M47,533,experiment,156,←,no_key,no_letter,-1.0,False,18
X036M47,534,experiment,132,↓,no_key,no_letter,-1.0,False,18
X036M47,535,training,180,→,no_key,no_letter,-1.0,False,18
X036M47,536,training,60,↑,right,→,0.43388420005794615,False,18
X036M47,537,training,60,↑,right,→,0.43386089999694377,False,18
X036M47,538,experiment,72,←,right,→,0.4165110000176355,False,18
X036M47,539,experiment,120,←,left,←,0.5088276999304071,True,18
X036M47,540,experiment,180,↑,right,→,0.5009988000383601,False,18
X036M47,541,experiment,36,↑,right,→,1.3505061999894679,False,18
X036M47,542,experiment,48,←,right,→,0.5911797999870032,False,18
X036M47,543,experiment,96,←,left,←,0.614754999987781,True,18
X036M47,544,experiment,24,↑,no_key,no_letter,-1.0,False,18
X036M47,545,experiment,180,→,left,←,0.28376140003092587,False,18
X036M47,546,experiment,156,←,right,→,0.4005018000025302,False,18
X036M47,547,experiment,96,→,left,←,0.5329823999200016,False,18
X036M47,548,experiment,12,←,right,→,0.4837731000734493,False,18
X036M47,549,experiment,156,→,left,←,0.3835820999229327,False,18
X036M47,550,experiment,168,←,left,←,1.054199400008656,True,18
X036M47,551,experiment,96,→,no_key,no_letter,-1.0,False,18
X036M47,552,experiment,132,↑,no_key,no_letter,-1.0,False,18
X036M47,553,experiment,72,↑,no_key,no_letter,-1.0,False,18
X036M47,554,experiment,48,←,left,←,0.35060560004785657,True,18
X036M47,555,experiment,48,↑,left,←,0.49854790000244975,False,18
X036M47,556,experiment,84,←,left,←,0.2838911999715492,True,18
X036M47,557,experiment,60,←,no_key,no_letter,-1.0,False,18
X036M47,558,experiment,180,←,right,→,0.26712319999933243,False,18
X036M47,559,experiment,144,←,no_key,no_letter,-1.0,False,18
X036M47,560,experiment,60,↓,no_key,no_letter,-1.0,False,18
X036M47,561,experiment,12,↑,right,→,0.28379790007602423,False,18
X036M47,562,experiment,108,←,left,←,0.7035483000800014,True,18
X036M47,563,experiment,144,↓,right,→,0.26678190007805824,False,18
X036M47,564,experiment,12,↓,left,←,0.5268996000522748,False,18
X036M47,565,experiment,120,←,no_key,no_letter,-1.0,False,18
X036M47,566,experiment,84,↑,right,→,0.4696163999615237,False,18
X036M47,567,experiment,24,←,left,←,0.5267515999730676,True,18
X036M47,568,experiment,24,←,left,←,0.9336411999538541,True,18
X036M47,569,experiment,120,←,left,←,0.36725020001176745,True,18
X036M47,570,experiment,132,←,right,→,0.7339312001131475,False,18
X036M47,571,experiment,144,→,no_key,no_letter,-1.0,False,18
X036M47,572,experiment,48,←,no_key,no_letter,-1.0,False,18
X036M47,573,experiment,12,←,right,→,0.6771170999854803,False,18
X036M47,574,experiment,156,→,no_key,no_letter,-1.0,False,18
X036M47,575,experiment,132,↑,no_key,no_letter,-1.0,False,18
X036M47,576,experiment,168,↑,left,←,0.40057219995651394,False,18
X036M47,577,experiment,144,←,right,→,1.1561519000679255,False,18
X036M47,578,experiment,84,↓,left,←,0.5063344000373036,False,18
X036M47,579,experiment,36,→,no_key,no_letter,-1.0,False,18
X036M47,580,experiment,72,←,no_key,no_letter,-1.0,False,18
X036M47,581,experiment,120,←,left,←,0.36692539998330176,True,18
X036M47,582,experiment,36,↑,no_key,no_letter,-1.0,False,18
X036M47,583,experiment,168,←,left,←,1.5559079999802634,True,18
X036M47,584,experiment,36,→,right,→,0.38402740005403757,True,18
X036M47,585,experiment,24,↓,left,←,0.5248690999578685,False,18
X036M47,586,experiment,108,←,left,←,0.5721684999298304,True,18
X036M47,587,experiment,96,↑,left,←,0.31716530001722276,False,18
X036M47,588,experiment,180,→,left,←,0.28488589997868985,False,18
X036M47,589,experiment,72,←,right,→,0.3003806999186054,False,18
X036M47,590,experiment,108,↓,left,←,0.26681669999379665,False,18
X036M47,591,experiment,132,←,left,←,0.6846538999816403,True,18
X036M47,592,experiment,168,↑,left,←,0.43370860000140965,False,18
X036M47,593,experiment,84,←,left,←,0.9144785000244156,True,18
X036M47,594,experiment,60,→,left,←,0.554711899952963,False,18
X036M47,595,experiment,60,↓,no_key,no_letter,-1.0,False,18
X036M47,596,experiment,156,↑,left,←,0.9176493000704795,False,18
X036M47,597,experiment,108,→,no_key,no_letter,-1.0,False,18
X036M47,598,training,84,↓,right,→,0.4838566000107676,False,18
X036M47,599,training,36,↓,left,←,0.4713192000053823,False,18
X036M47,600,training,48,→,left,←,0.5166195000056177,False,18
X036M47,601,experiment,12,→,no_key,no_letter,-1.0,False,18
X036M47,602,experiment,156,←,right,→,0.4717475000070408,False,18
X036M47,603,experiment,156,→,right,→,1.1599974000127986,True,18
X036M47,604,experiment,132,↑,right,→,0.5950308000901714,False,18
X036M47,605,experiment,156,↑,no_key,no_letter,-1.0,False,18
X036M47,606,experiment,96,↓,right,→,0.5199898999417201,False,18
X036M47,607,experiment,36,↓,left,←,0.6553056000266224,False,18
X036M47,608,experiment,108,↓,right,→,0.5225362000055611,False,18
X036M47,609,experiment,12,↓,no_key,no_letter,-1.0,False,18
X036M47,610,experiment,60,↓,left,←,0.433706600102596,False,18
X036M47,611,experiment,84,←,right,→,0.4003576000686735,False,18
X036M47,612,experiment,84,↓,left,←,1.2541863000951707,False,18
X036M47,613,experiment,36,→,no_key,no_letter,-1.0,False,18
X036M47,614,experiment,120,↓,right,→,0.5215544999809936,False,18
X036M47,615,experiment,120,↑,left,←,0.3669925999129191,False,18
X036M47,616,experiment,96,→,right,→,0.5515421000309289,True,18
X036M47,617,experiment,120,←,left,←,0.350585600011982,True,18
X036M47,618,experiment,36,←,no_key,no_letter,-1.0,False,18
X036M47,619,experiment,60,↓,right,→,0.4763262999476865,False,18
X036M47,620,experiment,168,↑,right,→,0.9024342000484467,False,18
X036M47,621,experiment,168,↓,left,←,0.6480382999870926,False,18
X036M47,622,experiment,12,→,left,←,0.7622619000030681,False,18
X036M47,623,experiment,72,↑,left,←,0.6178505999268964,False,18
X036M47,624,experiment,168,↓,left,←,0.5752842000219971,False,18
X036M47,625,experiment,60,↓,left,←,0.41728290007449687,False,18
X036M47,626,experiment,24,→,no_key,no_letter,-1.0,False,18
X036M47,627,experiment,84,↓,left,←,0.4948595999740064,False,18
X036M47,628,experiment,24,←,left,←,0.5914880998898298,True,18
X036M47,629,experiment,96,↓,right,→,0.33379750000312924,False,18
X036M47,630,experiment,48,→,no_key,no_letter,-1.0,False,18
X036M47,631,experiment,96,→,right,→,0.917972799972631,True,18
X036M47,632,experiment,36,↓,no_key,no_letter,-1.0,False,18
X036M47,633,experiment,72,↑,right,→,1.5504362999927253,False,18
X036M47,634,experiment,84,↑,left,←,0.3672579999547452,False,18
X036M47,635,experiment,24,↑,no_key,no_letter,-1.0,False,18
X036M47,636,experiment,180,→,left,←,0.400506499921903,False,18
X036M47,637,experiment,156,←,right,→,1.0004462000215426,False,18
X036M47,638,experiment,48,←,left,←,0.3508203999372199,True,18
X036M47,639,experiment,48,←,right,→,0.31706909998320043,False,18
X036M47,640,experiment,180,←,no_key,no_letter,-1.0,False,18
X036M47,641,experiment,24,→,left,←,0.6023375999648124,False,18
X036M47,642,experiment,108,→,no_key,no_letter,-1.0,False,18
X036M47,643,experiment,144,→,right,→,0.31739149999339134,True,18
X036M47,644,experiment,168,→,right,→,0.31758789997547865,True,18
X036M47,645,experiment,108,↑,right,→,0.26781600003596395,False,18
X036M47,646,experiment,132,↓,right,→,0.35030730010475963,False,18
X036M47,647,experiment,72,↑,left,←,0.9912969000870362,False,18
X036M47,648,experiment,108,↑,left,←,0.41654519992880523,False,18
X036M47,649,experiment,132,↑,no_key,no_letter,-1.0,False,18
X036M47,650,experiment,48,→,left,←,0.9548139000544325,False,18
X036M47,651,experiment,144,↓,right,→,0.7126250999281183,False,18
X036M47,652,experiment,72,←,right,→,0.46808319992851466,False,18
X036M47,653,experiment,132,↓,right,→,0.4174149000318721,False,18
X036M47,654,experiment,60,↑,right,→,0.5314359000185505,False,18
X036M47,655,experiment,180,↓,left,←,0.5309413999784738,False,18
X036M47,656,experiment,12,↑,left,←,0.5447255000472069,False,18
X036M47,657,experiment,144,→,no_key,no_letter,-1.0,False,18
X036M47,658,experiment,120,↓,left,←,1.3454030000139028,False,18
X036M47,659,experiment,180,↑,right,→,0.4002352999523282,False,18
X036M47,660,experiment,144,←,left,←,0.7610330999596044,True,18
X036M47,661,training,120,←,left,←,0.4729984999867156,True,18
X036M47,662,training,60,↑,no_key,no_letter,-1.0,False,18
X036M47,663,training,180,→,right,→,1.176772000035271,True,18
X036M47,664,experiment,24,↓,left,←,1.203635000041686,False,18
X036M47,665,experiment,120,←,no_key,no_letter,-1.0,False,18
X036M47,666,experiment,12,→,left,←,0.3337147000711411,False,18
X036M47,667,experiment,84,↓,left,←,0.5308220000006258,False,18
X036M47,668,experiment,72,←,left,←,0.38380310009233654,True,18
X036M47,669,experiment,36,↑,no_key,no_letter,-1.0,False,18
X036M47,670,experiment,36,→,left,←,0.6511586999986321,False,18
X036M47,671,experiment,24,←,no_key,no_letter,-1.0,False,18
X036M47,672,experiment,48,→,left,←,0.5042188999941573,False,18
X036M47,673,experiment,72,←,no_key,no_letter,-1.0,False,18
X036M47,674,experiment,60,↓,right,→,0.610626699985005,False,18
X036M47,675,experiment,60,↑,left,←,0.5917296999832615,False,18
X036M47,676,experiment,12,→,right,→,0.8695631000446156,True,18
X036M47,677,experiment,60,←,left,←,0.8094589000102133,True,18
X036M47,678,experiment,156,↓,left,←,0.818020400009118,False,18
X036M47,679,experiment,144,↑,right,→,0.38379039999563247,False,18
X036M47,680,experiment,60,↑,right,→,0.5167780000483617,False,18
X036M47,681,experiment,156,←,left,←,0.3671545999823138,True,18
X036M47,682,experiment,120,↓,right,→,0.3841876999940723,False,18
X036M47,683,experiment,72,←,left,←,0.3507619999581948,True,18
X036M47,684,experiment,168,↓,right,→,0.5059527999255806,False,18
X036M47,685,experiment,156,→,left,←,0.3835410999599844,False,18
X036M47,686,experiment,120,↑,right,→,0.30114190001040697,False,18
X036M47,687,experiment,24,→,left,←,0.8301761000184342,False,18
X036M47,688,experiment,84,↓,right,→,0.529216599999927,False,18
X036M47,689,experiment,180,↑,left,←,0.2839218999724835,False,18
X036M47,690,experiment,144,←,left,←,0.4847657000645995,True,18
X036M47,691,experiment,48,→,no_key,no_letter,-1.0,False,18
X036M47,692,experiment,96,→,left,←,0.43382609996479005,False,18
X036M47,693,experiment,144,↓,left,←,0.6042536000022665,False,18
X036M47,694,experiment,132,→,right,→,0.7411176000023261,True,18
X036M47,695,experiment,12,↑,right,→,0.8700635000132024,False,18
X036M47,696,experiment,108,←,no_key,no_letter,-1.0,False,18
X036M47,697,experiment,180,←,right,→,0.35037550004199147,False,18
X036M47,698,experiment,132,←,right,→,0.6397015999536961,False,18
X036M47,699,experiment,168,←,left,←,0.367263299995102,True,18
X036M47,700,experiment,108,←,left,←,0.41732170002069324,True,18
X036M47,701,experiment,96,→,left,←,0.4961110999574885,False,18
X036M47,702,experiment,156,↑,left,←,0.5338347998913378,False,18
X036M47,703,experiment,108,→,no_key,no_letter,-1.0,False,18
X036M47,704,experiment,132,↓,right,→,0.549302399973385,False,18
X036M47,705,experiment,132,→,left,←,0.433474300079979,False,18
X036M47,706,experiment,36,↑,right,→,0.8045189999975264,False,18
X036M47,707,experiment,144,←,right,→,0.5338560999371111,False,18
X036M47,708,experiment,24,↑,no_key,no_letter,-1.0,False,18
X036M47,709,experiment,72,←,right,→,0.5010026000672951,False,18
X036M47,710,experiment,84,↓,right,→,0.4337791999569163,False,18
X036M47,711,experiment,84,↓,right,→,0.5483235000865534,False,18
X036M47,712,experiment,180,↑,left,←,0.5551629000110552,False,18
X036M47,713,experiment,180,→,right,→,0.43366630002856255,True,18
X036M47,714,experiment,168,→,left,←,0.5276502999477088,False,18
X036M47,715,experiment,12,↑,no_key,no_letter,-1.0,False,18
X036M47,716,experiment,36,→,right,→,1.403191199991852,True,18
X036M47,717,experiment,48,↑,right,→,0.508061800035648,False,18
X036M47,718,experiment,48,←,right,→,0.539392500068061,False,18
X036M47,719,experiment,96,↑,right,→,1.3511199000058696,False,18
X036M47,720,experiment,96,↓,right,→,0.469951199949719,False,18
X036M47,721,experiment,120,→,right,→,0.5191314000403509,True,18
X036M47,722,experiment,108,→,right,→,0.6168443000642583,True,18
X036M47,723,experiment,168,↑,left,←,0.9386544999433681,False,18
X036M47,724,training,156,→,left,←,0.5092495999997482,False,18
X036M47,725,training,96,↑,left,←,0.40064010000787675,False,18
X036M47,726,training,72,←,left,←,0.4337954999646172,True,18
X036M47,727,experiment,132,↓,left,←,0.4003639000002295,False,18
X036M47,728,experiment,156,↓,right,→,0.5140650999965146,False,18
X036M47,729,experiment,72,→,right,→,0.5784229000564665,True,18
X036M47,730,experiment,120,←,left,←,0.5546836999710649,True,18
X036M47,731,experiment,60,→,no_key,no_letter,-1.0,False,18
X036M47,732,experiment,144,↑,right,→,0.31710270000621676,False,18
X036M47,733,experiment,120,←,left,←,0.28384060005191714,True,18
X036M47,734,experiment,36,↓,left,←,0.43373520008753985,False,18
X036M47,735,experiment,180,→,left,←,0.4172327999258414,False,18
X036M47,736,experiment,108,←,right,→,0.2842112999642268,False,18
X036M47,737,experiment,72,↑,left,←,0.7970115999924019,False,18
X036M47,738,experiment,168,↓,right,→,0.26736389996949583,False,18
X036M47,739,experiment,96,←,left,←,0.536348000052385,True,18
X036M47,740,experiment,144,↑,no_key,no_letter,-1.0,False,18
X036M47,741,experiment,96,↑,right,→,0.36697860003914684,False,18
X036M47,742,experiment,132,↓,right,→,0.7508343999506906,False,18
X036M47,743,experiment,168,↑,right,→,0.5639156000688672,False,18
X036M47,744,experiment,132,→,no_key,no_letter,-1.0,False,18
X036M47,745,experiment,132,←,left,←,0.4879943000851199,True,18
X036M47,746,experiment,108,→,no_key,no_letter,-1.0,False,18
X036M47,747,experiment,12,↓,left,←,0.9516956000588834,False,18
X036M47,748,experiment,12,↑,left,←,0.43392390001099557,False,18
X036M47,749,experiment,180,←,left,←,0.47792800003662705,True,18
X036M47,750,experiment,144,→,left,←,0.6188296000473201,False,18
X036M47,751,experiment,48,←,right,→,0.5246878999751061,False,18
X036M47,752,experiment,84,↓,no_key,no_letter,-1.0,False,18
X036M47,753,experiment,60,←,right,→,0.5655295999022201,False,18
X036M47,754,experiment,108,↑,right,→,0.503394200000912,False,18
X036M47,755,experiment,96,↑,right,→,0.5613159999484196,False,18
X036M47,756,experiment,60,↓,right,→,0.6511889999965206,False,18
X036M47,757,experiment,36,←,left,←,0.6936867000767961,True,18
X036M47,758,experiment,96,↑,right,→,0.4167583000380546,False,18
X036M47,759,experiment,12,↓,right,→,1.0309311000164598,False,18
X036M47,760,experiment,72,↑,right,→,1.0758060000371188,False,18
X036M47,761,experiment,36,↓,right,→,0.5035082000540569,False,18
X036M47,762,experiment,72,↓,left,←,0.40042299998458475,False,18
X036M47,763,experiment,168,↓,left,←,0.31748750002589077,False,18
X036M47,764,experiment,84,↑,no_key,no_letter,-1.0,False,18
X036M47,765,experiment,24,↑,right,→,1.6367195000639185,False,18
X036M47,766,experiment,108,→,left,←,0.4335385999875143,False,18
X036M47,767,experiment,60,↓,left,←,0.5039804000407457,False,18
X036M47,768,experiment,156,↑,right,→,0.6343565999995917,False,18
X036M47,769,experiment,24,←,right,→,0.5848434999352321,False,18
X036M47,770,experiment,156,←,left,←,0.6463646999327466,True,18
X036M47,771,experiment,180,↑,right,→,0.3338431000011042,False,18
X036M47,772,experiment,120,→,right,→,0.4953527000034228,True,18
X036M47,773,experiment,24,↓,no_key,no_letter,-1.0,False,18
X036M47,774,experiment,168,→,right,→,0.33383470005355775,True,18
X036M47,775,experiment,156,←,right,→,0.4171042999951169,False,18
X036M47,776,experiment,84,→,right,→,0.4002992999739945,True,18
X036M47,777,experiment,144,↑,left,←,0.5834174000192434,False,18
X036M47,778,experiment,84,←,right,→,0.6673604999668896,False,18
X036M47,779,experiment,24,→,no_key,no_letter,-1.0,False,18
X036M47,780,experiment,48,←,no_key,no_letter,-1.0,False,18
X036M47,781,experiment,48,↑,left,←,0.6878450999502093,False,18
X036M47,782,experiment,120,↓,left,←,0.9091738000279292,False,18
X036M47,783,experiment,12,→,left,←,0.6953010999131948,False,18
X036M47,784,experiment,36,↓,no_key,no_letter,-1.0,False,18
X036M47,785,experiment,180,↓,left,←,0.43375920003745705,False,18
X036M47,786,experiment,48,↑,right,→,0.38376759993843734,False,18
X036M47,787,training,156,←,right,→,0.7176730999490246,False,18
X036M47,788,training,12,←,left,←,0.5630745999515057,True,18
X036M47,789,training,36,←,left,←,0.5360843000235036,True,18
X036M47,790,experiment,48,←,left,←,0.6092459999490529,True,18
X036M47,791,experiment,36,↑,right,→,0.41691679996438324,False,18
X036M47,792,experiment,108,→,no_key,no_letter,-1.0,False,18
X036M47,793,experiment,156,↓,right,→,0.31683090003207326,False,18
X036M47,794,experiment,12,→,left,←,0.9117861998965964,False,18
X036M47,795,experiment,180,→,left,←,0.40026489994488657,False,18
X036M47,796,experiment,144,↑,right,→,0.6699612999800593,False,18
X036M47,797,experiment,72,←,left,←,0.400544400094077,True,18
X036M47,798,experiment,48,↓,left,←,0.3670684000244364,False,18
X036M47,799,experiment,168,↑,right,→,0.26704909990075976,False,18
X036M47,800,experiment,84,←,left,←,0.3342328000580892,True,18
X036M47,801,experiment,132,↑,right,→,0.5179393999278545,False,18
X036M47,802,experiment,156,↓,left,←,0.3169472999870777,False,18
X036M47,803,experiment,168,↑,no_key,no_letter,-1.0,False,18
X036M47,804,experiment,84,↑,right,→,0.33354589994996786,False,18
X036M47,805,experiment,108,↑,right,→,0.36700990004464984,False,18
X036M47,806,experiment,180,↓,right,→,0.47805869998410344,False,18
X036M47,807,experiment,60,←,no_key,no_letter,-1.0,False,18
X036M47,808,experiment,60,←,right,→,0.6067862999625504,False,18
X036M47,809,experiment,132,←,left,←,0.895975699997507,True,18
X036M47,810,experiment,144,←,right,→,0.26802010007668287,False,18
X036M47,811,experiment,108,←,left,←,0.4978206999367103,True,18
X036M47,812,experiment,180,→,right,→,0.48296270007267594,True,18
X036M47,813,experiment,72,→,left,←,0.5430609000613913,False,18
X036M47,814,experiment,180,↓,right,→,0.5419759000651538,False,18
X036M47,815,experiment,72,←,left,←,0.3842062000185251,True,18
X036M47,816,experiment,120,→,left,←,0.4958811999531463,False,18
X036M47,817,experiment,12,→,right,→,0.6347248000092804,True,18
X036M47,818,experiment,72,↑,no_key,no_letter,-1.0,False,18
X036M47,819,experiment,144,←,left,←,0.6372444999869913,True,18
X036M47,820,experiment,24,↓,left,←,0.36692069994751364,False,18
X036M47,821,experiment,120,↑,right,→,0.4336898000910878,False,18
X036M47,822,experiment,12,←,left,←,0.5399411999387667,True,18
X036M47,823,experiment,120,↓,left,←,0.41709610004909337,False,18
X036M47,824,experiment,96,↑,left,←,0.4005788000067696,False,18
X036M47,825,experiment,24,←,right,→,0.3836375999962911,False,18
X036M47,826,experiment,156,↓,left,←,0.5641606999561191,False,18
X036M47,827,experiment,48,→,right,→,0.31701040000189096,True,18
X036M47,828,experiment,132,←,left,←,0.5265458000358194,True,18
X036M47,829,experiment,48,↑,left,←,0.512446100008674,False,18
X036M47,830,experiment,96,↓,right,→,0.5934592999983579,False,18
X036M47,831,experiment,84,→,right,→,0.49611429998185486,True,18
X036M47,832,experiment,84,↓,left,←,0.8670655000023544,False,18
X036M47,833,experiment,96,↑,right,→,0.4724906999617815,False,18
X036M47,834,experiment,120,↑,right,→,0.38380069995764643,False,18
X036M47,835,experiment,36,→,no_key,no_letter,-1.0,False,18
X036M47,836,experiment,156,→,left,←,0.350468400050886,False,18
X036M47,837,experiment,96,↓,right,→,0.38377880002371967,False,18
X036M47,838,experiment,36,↑,left,←,0.736134700011462,False,18
X036M47,839,experiment,36,→,right,→,1.4336892999708652,True,18
X036M47,840,experiment,168,↓,no_key,no_letter,-1.0,False,18
X036M47,841,experiment,168,↑,right,→,0.3171491000102833,False,18
X036M47,842,experiment,108,↑,left,←,0.3173241999465972,False,18
X036M47,843,experiment,132,↓,right,→,0.4340235999552533,False,18
X036M47,844,experiment,24,↑,left,←,0.40046139992773533,False,18
X036M47,845,experiment,24,↓,right,→,0.6104199000401422,False,18
X036M47,846,experiment,60,→,left,←,0.8681882000528276,False,18
X036M47,847,experiment,144,←,no_key,no_letter,-1.0,False,18
X036M47,848,experiment,60,↓,left,←,0.5275664000073448,False,18
X036M47,849,experiment,12,↑,right,→,0.20025140000507236,False,18
