PART_ID,Trial_no,Trial_type,PDI,Stim_letter,Key_pressed,letter_choose,Rt,Corr,Stimulus Time
X037K35,1,training,10,↓,no_key,no_letter,-1.0,False,30
X037K35,2,training,10,↓,right,→,0.6173753999173641,False,30
X037K35,3,training,10,←,left,←,0.9884656999493018,True,30
X037K35,4,training,10,↑,left,←,0.417005900060758,False,30
X037K35,5,training,10,←,left,←,0.3669227999635041,True,30
X037K35,6,training,10,↑,right,→,0.25068369996733963,False,30
X037K35,7,training,10,↓,left,←,0.2340210999827832,False,30
X037K35,8,training,10,↓,left,←,0.3682887000031769,False,30
X037K35,9,training,10,→,right,→,0.20051549992058426,True,30
X037K35,10,training,10,↑,right,→,0.2339411999564618,False,30
X037K35,11,training,10,↓,left,←,0.2502649000380188,False,30
X037K35,12,training,10,←,right,→,0.0005766000831499696,False,30
X037K35,13,training,10,←,right,→,0.1504523999756202,False,30
X037K35,14,training,10,←,left,←,0.13406259997282177,True,30
X037K35,15,training,10,←,no_key,no_letter,-1.0,False,30
X037K35,16,training,10,←,left,←,0.16715360002126545,True,30
X037K35,17,training,10,↓,left,←,0.20066610001958907,False,30
X037K35,18,training,10,→,right,→,0.15068890003021806,True,30
X037K35,19,training,10,↓,left,←,0.13420989993028343,False,30
X037K35,20,training,10,↓,right,→,0.1671513000037521,False,30
X037K35,21,training,10,→,left,←,0.1506944999564439,False,18
X037K35,22,training,10,↓,no_key,no_letter,-1.0,False,18
X037K35,23,training,10,↑,no_key,no_letter,-1.0,False,18
X037K35,24,training,10,↓,right,→,0.16727989993523806,False,18
X037K35,25,training,10,←,left,←,0.21714419999625534,True,18
X037K35,26,training,10,←,left,←,0.13400710001587868,True,18
X037K35,27,training,10,↑,right,→,0.13385780004318804,False,18
X037K35,28,training,10,↑,left,←,0.13403129996731877,False,18
X037K35,29,training,10,↑,no_key,no_letter,-1.0,False,18
X037K35,30,training,10,←,left,←,0.13366589997895062,True,18
X037K35,31,training,36,→,left,←,0.3173209000378847,False,15
X037K35,32,training,12,↑,right,→,0.4495080999331549,False,15
X037K35,33,training,156,↑,left,←,0.15116090001538396,False,15
X037K35,34,experiment,108,→,right,→,0.2508187999483198,True,15
X037K35,35,experiment,72,→,left,←,0.11750559997744858,False,15
X037K35,36,experiment,156,↑,right,→,0.15029140003025532,False,15
X037K35,37,experiment,132,←,left,←,0.23407350003253669,True,15
X037K35,38,experiment,84,↑,right,→,0.21739849995356053,False,15
X037K35,39,experiment,24,→,left,←,0.1839184999698773,False,15
X037K35,40,experiment,144,→,right,→,0.18403320002835244,True,15
X037K35,41,experiment,144,↑,right,→,0.1673499000025913,False,15
X037K35,42,experiment,120,↓,right,→,0.13399509992450476,False,15
X037K35,43,experiment,36,→,right,→,0.20057889993768185,True,15
X037K35,44,experiment,24,↑,left,←,0.23413890006486326,False,15
X037K35,45,experiment,120,↓,left,←,0.1507827000459656,False,15
X037K35,46,experiment,120,↓,right,→,0.11724819999653846,False,15
X037K35,47,experiment,168,↓,left,←,0.18400579993613064,False,15
X037K35,48,experiment,72,←,right,→,0.18406050000339746,False,15
X037K35,49,experiment,12,←,left,←,0.28415590000804514,True,15
X037K35,50,experiment,96,←,left,←,0.18402300006709993,True,15
X037K35,51,experiment,36,↑,left,←,0.1340102000394836,False,15
X037K35,52,experiment,180,↓,right,→,0.2172473999671638,False,15
X037K35,53,experiment,132,←,right,→,0.15070759993977845,False,15
X037K35,54,experiment,48,↓,right,→,0.18393709999509156,False,15
X037K35,55,experiment,132,↓,right,→,0.20052710000891238,False,15
X037K35,56,experiment,24,←,left,←,0.18405499996151775,True,15
X037K35,57,experiment,108,→,right,→,0.11726710002403706,True,15
X037K35,58,experiment,48,↓,left,←,0.1506129999179393,False,15
X037K35,59,experiment,72,→,right,→,0.16738349990919232,True,15
X037K35,60,experiment,108,↑,right,→,0.25128259998746216,False,15
X037K35,61,experiment,60,→,right,→,0.2174481999827549,True,15
X037K35,62,experiment,12,↓,right,→,0.25067400000989437,False,15
X037K35,63,experiment,168,→,left,←,0.16642629995476454,False,15
X037K35,64,experiment,48,←,right,→,0.25070360000245273,False,15
X037K35,65,experiment,84,←,right,→,0.23375900008250028,False,15
X037K35,66,experiment,108,←,right,→,0.15121269994415343,False,15
X037K35,67,experiment,60,↓,right,→,0.18386230000760406,False,15
X037K35,68,experiment,144,↓,left,←,0.18410760001279414,False,15
X037K35,69,experiment,132,↓,no_key,no_letter,-1.0,False,15
X037K35,70,experiment,96,←,left,←,0.20106110000051558,True,15
X037K35,71,experiment,12,↓,left,←,0.20073909999337047,False,15
X037K35,72,experiment,24,→,left,←,0.15076669992413372,False,15
X037K35,73,experiment,48,↓,left,←,0.18411310005467385,False,15
X037K35,74,experiment,168,→,right,→,0.13410239992663264,True,15
X037K35,75,experiment,180,→,right,→,0.1839703000150621,True,15
X037K35,76,experiment,36,↓,right,→,0.21717850002460182,False,15
X037K35,77,experiment,96,←,right,→,0.18398950004484504,False,15
X037K35,78,experiment,60,↓,right,→,0.21756150003056973,False,15
X037K35,79,experiment,156,→,left,←,0.15049470006488264,False,15
X037K35,80,experiment,84,↑,right,→,0.23394559998996556,False,15
X037K35,81,experiment,156,↓,right,→,0.18397849996108562,False,15
X037K35,82,experiment,36,↓,right,→,0.16709879995323718,False,15
X037K35,83,experiment,120,→,right,→,0.20063029997982085,True,15
X037K35,84,experiment,156,→,right,→,0.11749689991120249,True,15
X037K35,85,experiment,168,←,left,←,0.20057110011111945,True,15
X037K35,86,experiment,96,→,right,→,0.20020560000557452,True,15
X037K35,87,experiment,72,←,right,→,0.16746079991571605,False,15
X037K35,88,experiment,60,←,right,→,0.16722219996154308,False,15
X037K35,89,experiment,144,→,right,→,0.15076370001770556,True,15
X037K35,90,experiment,12,←,right,→,0.2674135999986902,False,15
X037K35,91,experiment,180,↑,right,→,0.20081019995268434,False,15
X037K35,92,experiment,180,←,right,→,0.20056050003040582,False,15
X037K35,93,experiment,84,↑,right,→,0.15062839991878718,False,15
X037K35,94,training,84,←,right,→,0.21747100003995,False,16
X037K35,95,training,120,↑,left,←,0.1173432000214234,False,16
X037K35,96,training,72,↓,right,→,0.11718439997639507,False,16
X037K35,97,experiment,48,↓,left,←,0.15043459995649755,False,16
X037K35,98,experiment,72,←,right,→,0.30092920002061874,False,16
X037K35,99,experiment,132,←,right,→,0.13412370008882135,False,16
X037K35,100,experiment,144,↓,right,→,0.11711750004906207,False,16
X037K35,101,experiment,120,↑,right,→,0.15063030004967004,False,16
X037K35,102,experiment,108,↓,right,→,0.20080330001655966,False,16
X037K35,103,experiment,168,↓,left,←,0.18418280000332743,False,16
X037K35,104,experiment,156,←,right,→,0.21731689991429448,False,16
X037K35,105,experiment,180,↑,right,→,0.15067830006591976,False,16
X037K35,106,experiment,108,↑,right,→,0.25034220004454255,False,16
X037K35,107,experiment,84,↓,right,→,0.15057949989568442,False,16
X037K35,108,experiment,12,↑,left,←,0.3173418000806123,False,16
X037K35,109,experiment,48,←,right,→,0.1340110000455752,False,16
X037K35,110,experiment,168,→,left,←,0.16731849999632686,False,16
X037K35,111,experiment,96,←,left,←,0.20059950009454042,True,16
X037K35,112,experiment,144,→,right,→,0.18391389993485063,True,16
X037K35,113,experiment,132,↓,left,←,0.15062420000322163,False,16
X037K35,114,experiment,180,→,right,→,0.20071159990038723,True,16
X037K35,115,experiment,24,↓,left,←,0.23395449994131923,False,16
X037K35,116,experiment,108,↓,left,←,0.1668548999587074,False,16
X037K35,117,experiment,12,↑,no_key,no_letter,-1.0,False,16
X037K35,118,experiment,156,↓,left,←,0.317418499966152,False,16
X037K35,119,experiment,96,←,right,→,0.11713999998755753,False,16
X037K35,120,experiment,36,↓,left,←,0.2506057999562472,False,16
X037K35,121,experiment,180,→,right,→,0.15065169997978956,True,16
X037K35,122,experiment,48,↓,right,→,0.30063899990636855,False,16
X037K35,123,experiment,84,↓,right,→,0.25043710006866604,False,16
X037K35,124,experiment,36,↓,right,→,0.23379319999367,False,16
X037K35,125,experiment,12,←,left,←,0.333952899905853,True,16
X037K35,126,experiment,24,↓,right,→,0.23405580001417547,False,16
X037K35,127,experiment,72,←,left,←,0.1174678000388667,True,16
X037K35,128,experiment,144,↑,right,→,0.1671896999469027,False,16
X037K35,129,experiment,72,↓,left,←,0.13375419995281845,False,16
X037K35,130,experiment,48,↓,right,→,0.1340612000785768,False,16
X037K35,131,experiment,168,←,right,→,0.16763869998976588,False,16
X037K35,132,experiment,60,→,left,←,0.11724849999882281,False,16
X037K35,133,experiment,24,↓,right,→,0.23455639998428524,False,16
X037K35,134,experiment,168,↓,left,←,0.11788700008764863,False,16
X037K35,135,experiment,72,↓,right,→,0.1841156999580562,False,16
X037K35,136,experiment,96,←,left,←,0.1506017999490723,True,16
X037K35,137,experiment,60,↑,left,←,0.28386650001630187,False,16
X037K35,138,experiment,156,→,right,→,0.13320270006079227,True,16
X037K35,139,experiment,60,↓,left,←,0.23394970002118498,False,16
X037K35,140,experiment,156,↓,left,←,0.16713870002422482,False,16
X037K35,141,experiment,36,↑,left,←,0.18389509990811348,False,16
X037K35,142,experiment,180,↓,left,←,0.1839644000865519,False,16
X037K35,143,experiment,108,←,right,→,0.21724849997553974,False,16
X037K35,144,experiment,120,←,left,←,0.2170058999909088,True,16
X037K35,145,experiment,120,←,right,→,0.25056010007392615,False,16
X037K35,146,experiment,132,↑,left,←,0.15058050001971424,False,16
X037K35,147,experiment,84,↓,left,←,0.2170246000168845,False,16
X037K35,148,experiment,120,←,left,←,0.1673206000123173,True,16
X037K35,149,experiment,12,↑,left,←,0.23374009993858635,False,16
X037K35,150,experiment,132,↓,left,←,0.21723880001809448,False,16
X037K35,151,experiment,36,↑,left,←,0.35057200002484024,False,16
X037K35,152,experiment,60,←,no_key,no_letter,-1.0,False,16
X037K35,153,experiment,84,↓,left,←,0.15166139998473227,False,16
X037K35,154,experiment,144,→,right,→,0.15069499996025115,True,16
X037K35,155,experiment,24,↑,right,→,0.23367049999069422,False,16
X037K35,156,experiment,96,↓,left,←,0.20038109994493425,False,16
X037K35,157,training,48,↑,left,←,0.25146100006531924,False,17
X037K35,158,training,144,←,left,←,0.1338445000583306,True,17
X037K35,159,training,180,↓,right,→,0.18425719998776913,False,17
X037K35,160,experiment,156,↓,left,←,0.15066739998292178,False,17
X037K35,161,experiment,36,←,left,←,0.28387929999735206,True,17
X037K35,162,experiment,144,↑,right,→,0.21704720007255673,False,17
X037K35,163,experiment,84,↓,left,←,0.15154520003125072,False,17
X037K35,164,experiment,144,←,right,→,0.16718549991492182,False,17
X037K35,165,experiment,24,←,left,←,0.23392570007126778,True,17
X037K35,166,experiment,108,↑,right,→,0.13386359997093678,False,17
X037K35,167,experiment,84,←,left,←,0.23446269996929914,True,17
X037K35,168,experiment,72,←,right,→,0.2507194000063464,False,17
X037K35,169,experiment,12,←,no_key,no_letter,-1.0,False,17
X037K35,170,experiment,72,↓,no_key,no_letter,-1.0,False,17
X037K35,171,experiment,156,→,left,←,0.11741180007811636,False,17
X037K35,172,experiment,24,↑,left,←,0.3171317999949679,False,17
X037K35,173,experiment,84,←,right,→,0.20044849999248981,False,17
X037K35,174,experiment,60,←,right,→,0.2343113999813795,False,17
X037K35,175,experiment,12,→,right,→,0.23401979997288436,True,17
X037K35,176,experiment,36,←,right,→,0.20080160000361502,False,17
X037K35,177,experiment,12,←,right,→,0.2673212999943644,False,17
X037K35,178,experiment,72,↓,left,←,0.21729649999178946,False,17
X037K35,179,experiment,108,←,right,→,0.1339077000739053,False,17
X037K35,180,experiment,120,↓,right,→,0.15065940003842115,False,17
X037K35,181,experiment,96,↓,left,←,0.16739790001884103,False,17
X037K35,182,experiment,120,→,right,→,0.18410910002421588,True,17
X037K35,183,experiment,168,←,left,←,0.23411389999091625,True,17
X037K35,184,experiment,24,↑,right,→,0.23428390000481158,False,17
X037K35,185,experiment,132,↑,right,→,0.1503060000250116,False,17
X037K35,186,experiment,96,↑,right,→,0.21794439991936088,False,17
X037K35,187,experiment,60,↑,right,→,0.15081730007659644,False,17
X037K35,188,experiment,108,←,right,→,0.1676814000820741,False,17
X037K35,189,experiment,96,↑,right,→,0.20064619998447597,False,17
X037K35,190,experiment,12,↓,right,→,0.28398559999186546,False,17
X037K35,191,experiment,36,←,right,→,0.40067710005678236,False,17
X037K35,192,experiment,144,↑,right,→,0.2676449000136927,False,17
X037K35,193,experiment,24,↓,right,→,0.2676388000836596,False,17
X037K35,194,experiment,168,←,left,←,0.21718489995691925,True,17
X037K35,195,experiment,132,↓,right,→,0.18426430004183203,False,17
X037K35,196,experiment,168,→,left,←,0.23380150005687028,False,17
X037K35,197,experiment,180,←,right,→,0.15064849995542318,False,17
X037K35,198,experiment,36,↓,left,←,0.21720840001944453,False,17
X037K35,199,experiment,84,←,right,→,0.20032459998037666,False,17
X037K35,200,experiment,156,↑,left,←,0.31714410008862615,False,17
X037K35,201,experiment,72,→,right,→,0.30034640000667423,True,17
X037K35,202,experiment,60,↑,left,←,0.15054030006285757,False,17
X037K35,203,experiment,180,←,left,←,0.216786100063473,True,17
X037K35,204,experiment,180,↑,left,←,0.13420490000862628,False,17
X037K35,205,experiment,96,←,right,→,0.26694399991538376,False,17
X037K35,206,experiment,48,→,no_key,no_letter,-1.0,False,17
X037K35,207,experiment,132,↓,left,←,0.26818250003270805,False,17
X037K35,208,experiment,180,→,right,→,0.2508085999870673,True,17
X037K35,209,experiment,48,↑,right,→,0.40008539997506887,False,17
X037K35,210,experiment,144,↓,left,←,0.35065270005725324,False,17
X037K35,211,experiment,60,↑,no_key,no_letter,-1.0,False,17
X037K35,212,experiment,132,→,right,→,0.13397309998981655,True,17
X037K35,213,experiment,120,↓,right,→,0.13389339996501803,False,17
X037K35,214,experiment,48,↓,right,→,0.16725749999750406,False,17
X037K35,215,experiment,168,←,no_key,no_letter,-1.0,False,17
X037K35,216,experiment,120,←,left,←,0.9522533999988809,True,17
X037K35,217,experiment,108,↓,left,←,0.15074209996964782,False,17
X037K35,218,experiment,156,↑,right,→,0.10078149999026209,False,17
X037K35,219,experiment,48,↑,right,→,0.050575400004163384,False,17
X037K35,220,training,96,↓,no_key,no_letter,-1.0,False,18
X037K35,221,training,48,↓,no_key,no_letter,-1.0,False,18
X037K35,222,training,24,→,up,↑,0.20064140006434172,False,18
X037K35,223,experiment,96,↑,right,→,0.10079339996445924,False,18
X037K35,224,experiment,60,→,left,←,0.13394139998126775,False,18
X037K35,225,experiment,84,↓,right,→,0.11727829999290407,False,18
X037K35,226,experiment,96,↑,right,→,0.18417260004207492,False,18
X037K35,227,experiment,36,↑,right,→,0.1839717999100685,False,18
X037K35,228,experiment,132,↑,right,→,0.10064980003517121,False,18
X037K35,229,experiment,12,→,right,→,0.3674076000461355,True,18
X037K35,230,experiment,72,→,left,←,0.16735870006959885,False,18
X037K35,231,experiment,156,↑,left,←,0.13376620004419237,False,18
X037K35,232,experiment,60,↑,right,→,0.18416449998039752,False,18
X037K35,233,experiment,132,↑,right,→,0.28363960003480315,False,18
X037K35,234,experiment,72,↓,left,←,0.1505784000037238,False,18
X037K35,235,experiment,144,→,right,→,0.0005993000231683254,True,18
X037K35,236,experiment,96,←,right,→,0.13423970004078,False,18
X037K35,237,experiment,48,←,right,→,0.2336559999966994,False,18
X037K35,238,experiment,156,↓,left,←,0.25074069993570447,False,18
X037K35,239,experiment,84,←,right,→,0.23501579998992383,False,18
X037K35,240,experiment,12,→,left,←,0.269158500013873,False,18
X037K35,241,experiment,120,↓,right,→,0.13399600004777312,False,18
X037K35,242,experiment,108,↓,right,→,0.21710460004396737,False,18
X037K35,243,experiment,24,←,left,←,0.25082990003284067,True,18
X037K35,244,experiment,168,→,right,→,0.26726859994232655,True,18
X037K35,245,experiment,60,↓,left,←,0.06733240000903606,False,18
X037K35,246,experiment,72,→,right,→,0.16720640007406473,True,18
X037K35,247,experiment,168,↑,right,→,0.21727090002968907,False,18
X037K35,248,experiment,132,←,right,→,0.54725919989869,False,18
X037K35,249,experiment,180,←,right,→,0.16712279990315437,False,18
X037K35,250,experiment,120,↓,right,→,0.200518999947235,False,18
X037K35,251,experiment,108,↓,right,→,0.1839014000725001,False,18
X037K35,252,experiment,84,↑,right,→,0.2340381999965757,False,18
X037K35,253,experiment,144,←,left,←,0.3673647999530658,True,18
X037K35,254,experiment,36,↑,right,→,0.20043620001524687,False,18
X037K35,255,experiment,120,←,right,→,0.21682040009181947,False,18
X037K35,256,experiment,12,→,left,←,0.38403309998102486,False,18
X037K35,257,experiment,48,→,right,→,0.18366149999201298,True,18
X037K35,258,experiment,24,↓,left,←,0.1833298000274226,False,18
X037K35,259,experiment,36,↑,right,→,0.2174144999589771,False,18
X037K35,260,experiment,144,↓,right,→,0.3173695000587031,False,18
X037K35,261,experiment,48,↓,left,←,0.20081900001969188,False,18
X037K35,262,experiment,144,←,right,→,0.16707100009080023,False,18
X037K35,263,experiment,24,↑,left,←,0.30084309994708747,False,18
X037K35,264,experiment,12,←,right,→,0.28362600004766136,False,18
X037K35,265,experiment,36,↑,right,→,0.3337433999404311,False,18
X037K35,266,experiment,120,→,left,←,0.10082649998366833,False,18
X037K35,267,experiment,96,→,right,→,0.15079029998742044,True,18
X037K35,268,experiment,168,↓,right,→,0.1339115999871865,False,18
X037K35,269,experiment,60,↑,right,→,0.16724019998218864,False,18
X037K35,270,experiment,180,→,left,←,0.11736589996144176,False,18
X037K35,271,experiment,48,←,right,→,0.16743779997341335,False,18
X037K35,272,experiment,168,→,right,→,0.18398279999382794,True,18
X037K35,273,experiment,132,↑,left,←,0.10046089999377728,False,18
X037K35,274,experiment,108,↑,right,→,0.15048169996589422,False,18
X037K35,275,experiment,180,←,no_key,no_letter,-1.0,False,18
X037K35,276,experiment,72,←,right,→,0.18411539995577186,False,18
X037K35,277,experiment,156,↓,left,←,0.18392979993950576,False,18
X037K35,278,experiment,84,→,right,→,0.16716500010807067,True,18
X037K35,279,experiment,24,←,no_key,no_letter,-1.0,False,18
X037K35,280,experiment,180,←,right,→,0.15068049996625632,False,18
X037K35,281,experiment,108,↑,left,←,0.1676001000450924,False,18
X037K35,282,experiment,156,←,right,→,0.16737379995174706,False,18
X037K35,283,training,12,↑,no_key,no_letter,-1.0,False,18
X037K35,284,training,60,→,left,←,0.25055429991334677,False,18
X037K35,285,training,156,→,left,←,0.33416870003566146,False,18
X037K35,286,experiment,144,↓,right,→,0.23374739999417216,False,18
X037K35,287,experiment,12,→,no_key,no_letter,-1.0,False,18
X037K35,288,experiment,120,↓,left,←,0.23376400000415742,False,18
X037K35,289,experiment,180,←,right,→,0.23374470009002835,False,18
X037K35,290,experiment,144,→,left,←,0.23391349997837096,False,18
X037K35,291,experiment,168,↓,right,→,0.11736360006034374,False,18
X037K35,292,experiment,48,→,right,→,0.26738730003125966,True,18
X037K35,293,experiment,60,↑,right,→,0.250988099956885,False,18
X037K35,294,experiment,96,→,right,→,0.4172826000722125,True,18
X037K35,295,experiment,48,↓,right,→,0.16703450004570186,False,18
X037K35,296,experiment,168,↑,left,←,0.23380799998994917,False,18
X037K35,297,experiment,36,↑,right,→,0.2174100000411272,False,18
X037K35,298,experiment,60,←,left,←,0.20003850001376122,True,18
X037K35,299,experiment,24,↑,left,←,0.28395349998027086,False,18
X037K35,300,experiment,12,←,left,←,0.18393790000118315,True,18
X037K35,301,experiment,96,←,left,←,0.20150109997484833,True,18
X037K35,302,experiment,84,→,right,→,0.33422950003296137,True,18
X037K35,303,experiment,132,→,left,←,0.2008375000441447,False,18
X037K35,304,experiment,84,→,right,→,0.183775799931027,True,18
X037K35,305,experiment,120,↑,left,←,0.2005261000012979,False,18
X037K35,306,experiment,132,↓,right,→,0.16719289997126907,False,18
X037K35,307,experiment,132,↓,left,←,0.2505634999834001,False,18
X037K35,308,experiment,168,↑,right,→,0.16822709992993623,False,18
X037K35,309,experiment,36,↑,right,→,0.38418589998036623,False,18
X037K35,310,experiment,144,←,left,←,0.25068370008375496,True,18
X037K35,311,experiment,168,↑,left,←,0.2839203999610618,False,18
X037K35,312,experiment,84,←,right,→,0.15148800006136298,False,18
X037K35,313,experiment,156,←,no_key,no_letter,-1.0,False,18
X037K35,314,experiment,12,→,left,←,0.38400660001207143,False,18
X037K35,315,experiment,96,→,left,←,0.23501150007359684,False,18
X037K35,316,experiment,180,←,right,→,0.15067609993275255,False,18
X037K35,317,experiment,60,↑,right,→,0.20135860005393624,False,18
X037K35,318,experiment,48,↓,right,→,0.3676008000038564,False,18
X037K35,319,experiment,108,→,right,→,0.25062559999059886,True,18
X037K35,320,experiment,96,↓,left,←,0.2169016000116244,False,18
X037K35,321,experiment,180,↓,right,→,0.36731690005399287,False,18
X037K35,322,experiment,72,↑,right,→,0.23394129995722324,False,18
X037K35,323,experiment,108,→,left,←,0.23388920002616942,False,18
X037K35,324,experiment,108,←,right,→,0.31725610001012683,False,18
X037K35,325,experiment,36,↓,left,←,0.38412269996479154,False,18
X037K35,326,experiment,132,←,left,←,0.1675303999800235,True,18
X037K35,327,experiment,24,←,left,←,0.334165700012818,True,18
X037K35,328,experiment,144,←,left,←,0.15065969992429018,True,18
X037K35,329,experiment,24,→,left,←,0.23361360002309084,False,18
X037K35,330,experiment,48,↓,left,←,0.333609199966304,False,18
X037K35,331,experiment,180,↑,left,←,0.1837709000101313,False,18
X037K35,332,experiment,72,←,right,→,0.2672572999726981,False,18
X037K35,333,experiment,156,→,right,→,0.2501085000112653,True,18
X037K35,334,experiment,120,→,left,←,0.18399629998020828,False,18
X037K35,335,experiment,120,↑,right,→,0.15047029999550432,False,18
X037K35,336,experiment,84,←,right,→,0.2170711999060586,False,18
X037K35,337,experiment,12,→,right,→,0.3336043000454083,True,18
X037K35,338,experiment,156,←,right,→,0.16714999999385327,False,18
X037K35,339,experiment,36,←,right,→,0.2841270000208169,False,18
X037K35,340,experiment,24,↓,left,←,0.2838453999720514,False,18
X037K35,341,experiment,72,→,right,→,0.1840374000603333,True,18
X037K35,342,experiment,72,↓,right,→,0.2171664999332279,False,18
X037K35,343,experiment,156,←,left,←,0.16720889997668564,True,18
X037K35,344,experiment,60,←,right,→,0.21737610001582652,False,18
X037K35,345,experiment,108,↓,left,←,0.16775270004291087,False,18
X037K35,346,training,144,→,down,↓,0.23395449994131923,False,18
X037K35,347,training,108,↑,right,→,0.16762830002699047,False,18
X037K35,348,training,156,↑,left,←,0.1837950999615714,False,18
X037K35,349,experiment,96,↓,left,←,0.21734019997529685,False,18
X037K35,350,experiment,168,↑,left,←,0.1840004000114277,False,18
X037K35,351,experiment,132,↑,right,→,0.10048630007077008,False,18
X037K35,352,experiment,12,↑,left,←,0.36746320000384003,False,18
X037K35,353,experiment,60,←,up,↑,0.18414369993843138,False,18
X037K35,354,experiment,72,←,right,→,0.1671461999649182,False,18
X037K35,355,experiment,96,→,left,←,0.13422480004373938,False,18
X037K35,356,experiment,12,↓,right,→,0.23406879999674857,False,18
X037K35,357,experiment,12,←,left,←,0.25053000007756054,True,18
X037K35,358,experiment,24,→,left,←,0.13404379994608462,False,18
X037K35,359,experiment,144,←,left,←,0.20183809997979552,True,18
X037K35,360,experiment,72,↓,left,←,0.2007033999543637,False,18
X037K35,361,experiment,156,←,right,→,0.1503897999646142,False,18
X037K35,362,experiment,108,→,left,←,0.1838315000059083,False,18
X037K35,363,experiment,84,→,left,←,0.3665789000224322,False,18
X037K35,364,experiment,36,↓,left,←,0.2172307000728324,False,18
X037K35,365,experiment,132,→,right,→,0.15063739998731762,True,18
X037K35,366,experiment,96,←,right,→,0.15048010007012635,False,18
X037K35,367,experiment,72,↑,left,←,0.15066919999662787,False,18
X037K35,368,experiment,180,→,left,←,0.2510406000073999,False,18
X037K35,369,experiment,132,↓,right,→,0.234052799991332,False,18
X037K35,370,experiment,156,←,right,→,0.2673168999608606,False,18
X037K35,371,experiment,120,↑,right,→,0.15064620005432516,False,18
X037K35,372,experiment,168,→,left,←,0.13408250000793487,False,18
X037K35,373,experiment,180,→,right,→,0.2006838999222964,True,18
X037K35,374,experiment,84,↑,left,←,0.23473210004158318,False,18
X037K35,375,experiment,144,←,left,←,0.2007797999540344,True,18
X037K35,376,experiment,168,→,right,→,0.16721780004445463,True,18
X037K35,377,experiment,48,↓,right,→,0.21706799999810755,False,18
X037K35,378,experiment,96,→,right,→,0.11750309995841235,True,18
X037K35,379,experiment,12,→,right,→,0.35065030003897846,True,18
X037K35,380,experiment,72,↑,left,←,0.350775400060229,False,18
X037K35,381,experiment,120,←,right,→,0.250610199989751,False,18
X037K35,382,experiment,108,↑,right,→,0.2169951000250876,False,18
X037K35,383,experiment,180,←,left,←,0.33423719997517765,True,18
X037K35,384,experiment,24,→,left,←,0.18382999999448657,False,18
X037K35,385,experiment,60,↑,left,←,0.2839250999968499,False,18
X037K35,386,experiment,48,←,right,→,0.1839424999197945,False,18
X037K35,387,experiment,84,→,left,←,0.18409770005382597,False,18
X037K35,388,experiment,144,→,right,→,0.20068310003262013,True,18
X037K35,389,experiment,48,→,left,←,0.3006963999941945,False,18
X037K35,390,experiment,132,→,right,→,0.16729360003955662,True,18
X037K35,391,experiment,84,↓,left,←,0.20042230002582073,False,18
X037K35,392,experiment,168,↑,left,←,0.18384790001437068,False,18
X037K35,393,experiment,24,→,no_key,no_letter,-1.0,False,18
X037K35,394,experiment,48,←,no_key,no_letter,-1.0,False,18
X037K35,395,experiment,60,↓,left,←,0.3005999999586493,False,18
X037K35,396,experiment,156,←,right,→,0.16721970005892217,False,18
X037K35,397,experiment,144,←,right,→,0.23395189992152154,False,18
X037K35,398,experiment,60,→,left,←,0.16721760004293174,False,18
X037K35,399,experiment,36,↑,left,←,0.15046069992240518,False,18
X037K35,400,experiment,156,→,right,→,0.3505699000088498,True,18
X037K35,401,experiment,36,↓,left,←,0.2170384000055492,False,18
X037K35,402,experiment,108,→,right,→,0.13413999998010695,True,18
X037K35,403,experiment,120,←,right,→,0.25040240003727376,False,18
X037K35,404,experiment,24,→,right,→,0.25136899994686246,True,18
X037K35,405,experiment,36,→,right,→,0.2680391001049429,True,18
X037K35,406,experiment,120,↑,left,←,0.20062729995697737,False,18
X037K35,407,experiment,108,↑,right,→,0.1668697000714019,False,18
X037K35,408,experiment,180,↑,left,←,0.2172431000508368,False,18
X037K35,409,training,144,↑,no_key,no_letter,-1.0,False,18
X037K35,410,training,72,↑,no_key,no_letter,-1.0,False,18
X037K35,411,training,96,→,left,←,0.6069789999164641,False,18
X037K35,412,experiment,60,←,right,→,0.15076879994012415,False,18
X037K35,413,experiment,24,→,right,→,0.2674642000347376,True,18
X037K35,414,experiment,84,→,left,←,0.11732590000610799,False,18
X037K35,415,experiment,96,↑,right,→,0.14990060008130968,False,18
X037K35,416,experiment,24,↓,right,→,0.20045259990729392,False,18
X037K35,417,experiment,144,←,right,→,0.11721499997656792,False,18
X037K35,418,experiment,36,→,left,←,0.3505664999829605,False,18
X037K35,419,experiment,132,←,right,→,0.1004682999337092,False,18
X037K35,420,experiment,12,←,left,←,0.21726519998628646,True,18
X037K35,421,experiment,84,→,right,→,0.10133470001164824,True,18
X037K35,422,experiment,120,↓,right,→,0.13403349998407066,False,18
X037K35,423,experiment,36,←,left,←,0.26700069999787956,True,18
X037K35,424,experiment,180,↑,right,→,0.11717659991700202,False,18
X037K35,425,experiment,180,←,right,→,0.1341014999197796,False,18
X037K35,426,experiment,144,↑,right,→,0.13416410004720092,False,18
X037K35,427,experiment,96,↑,right,→,0.2340888000326231,False,18
X037K35,428,experiment,108,↓,right,→,0.11721970001235604,False,18
X037K35,429,experiment,48,↑,right,→,0.20008820004295558,False,18
X037K35,430,experiment,60,→,right,→,0.11722629994619638,True,18
X037K35,431,experiment,60,→,right,→,0.20069610001519322,True,18
X037K35,432,experiment,144,←,right,→,0.13407700008247048,False,18
X037K35,433,experiment,12,↓,right,→,0.3506364000495523,False,18
X037K35,434,experiment,12,↑,left,←,0.23419920005835593,False,18
X037K35,435,experiment,96,←,right,→,0.13420689990743995,False,18
X037K35,436,experiment,168,↑,left,←,0.1347249000100419,False,18
X037K35,437,experiment,24,↑,right,→,0.23402410000562668,False,18
X037K35,438,experiment,168,→,right,→,0.15085939993150532,True,18
X037K35,439,experiment,156,→,left,←,0.15068949991837144,False,18
X037K35,440,experiment,72,←,left,←,0.28492309991270304,True,18
X037K35,441,experiment,72,←,right,→,0.13408960006199777,False,18
X037K35,442,experiment,108,↑,right,→,0.13381949998438358,False,18
X037K35,443,experiment,24,←,right,→,0.2673128000460565,False,18
X037K35,444,experiment,84,←,right,→,0.1339384000748396,False,18
X037K35,445,experiment,36,→,left,←,0.18398139998316765,False,18
X037K35,446,experiment,168,←,right,→,0.13388440001290292,False,18
X037K35,447,experiment,144,↑,left,←,0.18397120002191514,False,18
X037K35,448,experiment,48,↓,left,←,0.16756580001674592,False,18
X037K35,449,experiment,108,←,right,→,0.16684039996471256,False,18
X037K35,450,experiment,36,↓,right,→,0.2671357999788597,False,18
X037K35,451,experiment,132,→,right,→,0.15072969999164343,True,18
X037K35,452,experiment,108,←,right,→,0.1337995999492705,False,18
X037K35,453,experiment,48,↑,left,←,0.25047169998288155,False,18
X037K35,454,experiment,120,↑,left,←,0.1170738999499008,False,18
X037K35,455,experiment,180,↑,right,→,0.13371880003251135,False,18
X037K35,456,experiment,120,→,left,←,0.20039330003783107,False,18
X037K35,457,experiment,84,→,left,←,0.15034439996816218,False,18
X037K35,458,experiment,180,←,right,→,0.1339301000116393,False,18
X037K35,459,experiment,72,↑,left,←,0.21727350004948676,False,18
X037K35,460,experiment,48,←,right,→,0.2006431999616325,False,18
X037K35,461,experiment,72,→,left,←,0.18394889996852726,False,18
X037K35,462,experiment,168,↓,left,←,0.2006521999137476,False,18
X037K35,463,experiment,132,←,right,→,0.18414969998411834,False,18
X037K35,464,experiment,12,→,left,←,0.2506436000112444,False,18
X037K35,465,experiment,120,↑,left,←,0.1847511000232771,False,18
X037K35,466,experiment,96,→,left,←,0.15072470006998628,False,18
X037K35,467,experiment,132,←,left,←,0.20083250000607222,True,18
X037K35,468,experiment,156,→,left,←,0.16724570002406836,False,18
X037K35,469,experiment,60,→,no_key,no_letter,-1.0,False,18
X037K35,470,experiment,156,←,right,→,0.40057979989796877,False,18
X037K35,471,experiment,156,→,right,→,0.20063259999733418,True,18
X037K35,472,training,84,→,left,←,0.2672596999909729,False,18
X037K35,473,training,12,←,no_key,no_letter,-1.0,False,18
X037K35,474,training,36,←,right,→,0.2346065000165254,False,18
X037K35,475,experiment,12,↑,left,←,0.3506233000662178,False,18
X037K35,476,experiment,168,↓,left,←,0.2002897000638768,False,18
X037K35,477,experiment,12,↓,right,→,0.2673613999504596,False,18
X037K35,478,experiment,156,→,left,←,0.18335820001084358,False,18
X037K35,479,experiment,132,→,right,→,0.20063900004606694,True,18
X037K35,480,experiment,180,←,right,→,0.16722239996306598,False,18
X037K35,481,experiment,96,↑,left,←,0.15074890002142638,False,18
X037K35,482,experiment,96,→,right,→,0.13380700000561774,True,18
X037K35,483,experiment,144,←,left,←,0.11736909998580813,True,18
X037K35,484,experiment,120,↑,right,→,0.1671832000138238,False,18
X037K35,485,experiment,36,←,right,→,0.21744470007251948,False,18
X037K35,486,experiment,120,↓,right,→,0.18422169995028526,False,18
X037K35,487,experiment,144,→,right,→,0.1840436999918893,True,18
X037K35,488,experiment,36,→,right,→,0.20024460006970912,True,18
X037K35,489,experiment,156,↓,left,←,0.35061530000530183,False,18
X037K35,490,experiment,60,←,left,←,0.16735590004827827,True,18
X037K35,491,experiment,108,→,right,→,0.2338456999277696,True,18
X037K35,492,experiment,24,↓,right,→,0.23491110000759363,False,18
X037K35,493,experiment,48,↑,right,→,0.16732419992331415,False,18
X037K35,494,experiment,96,↓,right,→,0.15072379994671792,False,18
X037K35,495,experiment,132,↑,left,←,0.2345408999826759,False,18
X037K35,496,experiment,84,↓,no_key,no_letter,-1.0,False,18
X037K35,497,experiment,36,↑,left,←,0.26712919992860407,False,18
X037K35,498,experiment,156,↑,left,←,0.15058290003798902,False,18
X037K35,499,experiment,48,↑,right,→,0.28405570005998015,False,18
X037K35,500,experiment,84,↓,left,←,0.18414559995289892,False,18
X037K35,501,experiment,180,↓,right,→,0.1006935000186786,False,18
X037K35,502,experiment,84,↑,no_key,no_letter,-1.0,False,18
X037K35,503,experiment,108,←,left,←,0.13386579998768866,True,18
X037K35,504,experiment,168,↓,right,→,0.15041909995488822,False,18
X037K35,505,experiment,12,↑,left,←,0.3172210999764502,False,18
X037K35,506,experiment,168,→,left,←,0.1671136999502778,False,18
X037K35,507,experiment,24,←,right,→,0.2839935999363661,False,18
X037K35,508,experiment,60,→,left,←,0.1669784999685362,False,18
X037K35,509,experiment,132,↑,right,→,0.21707709995098412,False,18
X037K35,510,experiment,108,↓,left,←,0.2672436001012102,False,18
X037K35,511,experiment,36,←,left,←,0.40057709999382496,True,18
X037K35,512,experiment,156,↑,left,←,0.25066729995887727,False,18
X037K35,513,experiment,12,←,right,→,0.21738380007445812,False,18
X037K35,514,experiment,24,→,right,→,0.28420490003190935,True,18
X037K35,515,experiment,96,→,left,←,0.3169550000457093,False,18
X037K35,516,experiment,72,↓,left,←,0.25070730003062636,False,18
X037K35,517,experiment,132,←,right,→,0.18383059999905527,False,18
X037K35,518,experiment,144,↓,right,→,0.2007165999384597,False,18
X037K35,519,experiment,72,↓,left,←,0.21739510004408658,False,18
X037K35,520,experiment,72,←,left,←,0.2837824000744149,True,18
X037K35,521,experiment,72,←,no_key,no_letter,-1.0,False,18
X037K35,522,experiment,48,←,right,→,0.21734319999814034,False,18
X037K35,523,experiment,120,↓,right,→,0.23390309989918023,False,18
X037K35,524,experiment,120,↓,right,→,0.20066329999826849,False,18
X037K35,525,experiment,168,↑,right,→,0.2839162000454962,False,18
X037K35,526,experiment,24,→,left,←,0.28406750003341585,False,18
X037K35,527,experiment,108,↑,right,→,0.28401489998213947,False,18
X037K35,528,experiment,60,↑,left,←,0.20062849996611476,False,18
X037K35,529,experiment,144,→,right,→,0.15054149995557964,True,18
X037K35,530,experiment,60,→,left,←,0.18393589998595417,False,18
X037K35,531,experiment,84,↓,left,←,0.2673555000219494,False,18
X037K35,532,experiment,48,→,right,→,0.2007352999644354,True,18
X037K35,533,experiment,180,↑,left,←,0.25036299997009337,False,18
X037K35,534,experiment,180,→,right,→,0.1173240999924019,True,18
X037K35,535,training,72,↑,left,←,0.2506287000142038,False,18
X037K35,536,training,96,↑,left,←,0.2672612000023946,False,18
X037K35,537,training,108,↑,left,←,0.25069510005414486,False,18
X037K35,538,experiment,180,←,right,→,0.15064270002767444,False,18
X037K35,539,experiment,144,↓,right,→,0.1672775000333786,False,18
X037K35,540,experiment,24,↑,right,→,0.3002485999604687,False,18
X037K35,541,experiment,132,↓,left,←,0.16746599995531142,False,18
X037K35,542,experiment,60,↓,right,→,0.28362579992972314,False,18
X037K35,543,experiment,12,↓,left,←,0.01754479994997382,False,18
X037K35,544,experiment,180,↑,left,←,0.3340744999004528,False,18
X037K35,545,experiment,144,↓,no_key,no_letter,-1.0,False,18
X037K35,546,experiment,132,↓,left,←,0.18401440000161529,False,18
X037K35,547,experiment,36,↑,right,→,0.46903999999631196,False,18
X037K35,548,experiment,108,↓,left,←,0.1350613998947665,False,18
X037K35,549,experiment,84,↓,right,→,0.18394030001945794,False,18
X037K35,550,experiment,84,→,left,←,0.30069549998734146,False,18
X037K35,551,experiment,48,→,left,←,0.16726640006527305,False,18
X037K35,552,experiment,132,←,left,←,0.21707519993651658,True,18
X037K35,553,experiment,96,↑,right,→,0.18395390000659972,False,18
X037K35,554,experiment,108,↓,right,→,0.13406789989676327,False,18
X037K35,555,experiment,156,↑,right,→,0.20082509994972497,False,18
X037K35,556,experiment,168,←,left,←,0.20070779998786747,True,18
X037K35,557,experiment,156,↑,right,→,0.23404639994259924,False,18
X037K35,558,experiment,72,→,left,←,0.23403989989310503,False,18
X037K35,559,experiment,168,←,left,←,0.16787529992870986,True,18
X037K35,560,experiment,96,→,right,→,0.367701799958013,True,18
X037K35,561,experiment,168,↑,left,←,0.13411520002409816,False,18
X037K35,562,experiment,84,↑,right,→,0.2006355000194162,False,18
X037K35,563,experiment,144,←,left,←,0.10039949999190867,True,18
X037K35,564,experiment,36,↑,right,→,0.28384100005496293,False,18
X037K35,565,experiment,132,←,left,←,0.20071180001832545,True,18
X037K35,566,experiment,120,→,right,→,0.28386119997594506,True,18
X037K35,567,experiment,12,↑,no_key,no_letter,-1.0,False,18
X037K35,568,experiment,24,↑,left,←,0.217342899995856,False,18
X037K35,569,experiment,12,→,right,→,0.2670386000536382,True,18
X037K35,570,experiment,48,↑,right,→,0.1841046999907121,False,18
X037K35,571,experiment,120,←,right,→,0.20051590004004538,False,18
X037K35,572,experiment,180,↓,right,→,0.11717049998696893,False,18
X037K35,573,experiment,108,←,left,←,0.15056530002038926,True,18
X037K35,574,experiment,24,→,left,←,0.31695120001677424,False,18
X037K35,575,experiment,60,→,left,←,0.18377910007257015,False,18
X037K35,576,experiment,36,↑,right,→,0.2673579999245703,False,18
X037K35,577,experiment,48,↑,left,←,0.20029649999924004,False,18
X037K35,578,experiment,12,←,left,←,0.3672120999544859,True,18
X037K35,579,experiment,156,↑,right,→,0.43387549999170005,False,18
X037K35,580,experiment,72,↓,no_key,no_letter,-1.0,False,18
X037K35,581,experiment,156,←,left,←,0.1662963000126183,True,18
X037K35,582,experiment,24,↑,left,←,0.30051109998021275,False,18
X037K35,583,experiment,168,↓,right,→,0.20048980007413775,False,18
X037K35,584,experiment,120,↑,left,←,0.26722749997861683,False,18
X037K35,585,experiment,96,→,left,←,0.2005478999344632,False,18
X037K35,586,experiment,72,↑,left,←,0.20038479997310787,False,18
X037K35,587,experiment,60,↑,left,←,0.31719109998084605,False,18
X037K35,588,experiment,84,←,left,←,0.16725810000207275,True,18
X037K35,589,experiment,48,↑,right,→,0.3003998000640422,False,18
X037K35,590,experiment,96,←,left,←,0.2006864999420941,True,18
X037K35,591,experiment,180,→,right,→,0.2007318000542,True,18
X037K35,592,experiment,60,→,left,←,0.2839500999543816,False,18
X037K35,593,experiment,120,→,left,←,0.23387580004055053,False,18
X037K35,594,experiment,144,←,right,→,0.21714909991715103,False,18
X037K35,595,experiment,108,↓,left,←,0.20043920003809035,False,18
X037K35,596,experiment,72,↓,left,←,0.9124175999313593,False,18
X037K35,597,experiment,36,→,right,→,0.25062419997993857,True,18
X037K35,598,training,12,←,left,←,0.3505954999709502,True,18
X037K35,599,training,84,←,right,→,0.10111369995865971,False,18
X037K35,600,training,96,←,left,←,0.15073620004113764,True,18
X037K35,601,experiment,132,↓,right,→,0.4174663999583572,False,18
X037K35,602,experiment,132,←,left,←,0.13391780003439635,True,18
X037K35,603,experiment,84,↑,left,←,0.18437699996866286,False,18
X037K35,604,experiment,60,←,left,←,0.20077380002476275,True,18
X037K35,605,experiment,12,→,right,→,0.3008455000817776,True,18
X037K35,606,experiment,72,←,left,←,0.2173394999699667,True,18
X037K35,607,experiment,180,↓,left,←,0.1337638000259176,False,18
X037K35,608,experiment,60,↑,left,←,0.31728099996689707,False,18
X037K35,609,experiment,144,↑,right,→,0.13357180007733405,False,18
X037K35,610,experiment,156,→,left,←,0.15125100000295788,False,18
X037K35,611,experiment,96,↓,right,→,0.31750110001303256,False,18
X037K35,612,experiment,96,←,right,→,0.3012972999131307,False,18
X037K35,613,experiment,144,←,left,←,0.1339231999590993,True,18
X037K35,614,experiment,120,↑,right,→,0.13338529993779957,False,18
X037K35,615,experiment,24,↓,right,→,0.23504340008366853,False,18
X037K35,616,experiment,60,↑,right,→,0.1339853999670595,False,18
X037K35,617,experiment,168,←,left,←,0.1672317999182269,True,18
X037K35,618,experiment,168,↓,right,→,0.21705310000106692,False,18
X037K35,619,experiment,108,↑,left,←,0.26725949998945,False,18
X037K35,620,experiment,168,↓,right,→,0.15077289997134358,False,18
X037K35,621,experiment,36,→,left,←,0.21720229997299612,False,18
X037K35,622,experiment,36,↑,right,→,0.18352590000722557,False,18
X037K35,623,experiment,48,↑,right,→,0.13463370001409203,False,18
X037K35,624,experiment,144,←,left,←,0.18366959993727505,True,18
X037K35,625,experiment,12,→,left,←,0.3670612999703735,False,18
X037K35,626,experiment,24,↓,left,←,0.1676029999507591,False,18
X037K35,627,experiment,72,→,right,→,0.18381790001876652,True,18
X037K35,628,experiment,132,←,right,→,0.15067520004231483,False,18
X037K35,629,experiment,156,↑,left,←,0.28415820002555847,False,18
X037K35,630,experiment,48,↓,left,←,0.3175000000046566,False,18
X037K35,631,experiment,84,↓,left,←,0.20050040003843606,False,18
X037K35,632,experiment,120,↑,left,←,0.1505345000186935,False,18
X037K35,633,experiment,120,↑,no_key,no_letter,-1.0,False,18
X037K35,634,experiment,12,←,no_key,no_letter,-1.0,False,18
X037K35,635,experiment,48,↓,left,←,0.23390839993953705,False,18
X037K35,636,experiment,180,←,right,→,0.2003051999490708,False,18
X037K35,637,experiment,132,↑,right,→,0.2181558000156656,False,18
X037K35,638,experiment,96,↓,right,→,0.16731849999632686,False,18
X037K35,639,experiment,180,↓,right,→,0.23479000001680106,False,18
X037K35,640,experiment,84,→,right,→,0.20073899999260902,True,18
X037K35,641,experiment,108,→,left,←,0.2840080000460148,False,18
X037K35,642,experiment,24,→,right,→,0.23409129993524402,True,18
X037K35,643,experiment,72,←,left,←,0.16738899995107204,True,18
X037K35,644,experiment,60,→,right,→,0.18399779999163002,True,18
X037K35,645,experiment,156,←,left,←,0.18363360001239926,True,18
X037K35,646,experiment,36,↑,right,→,0.23384699993766844,False,18
X037K35,647,experiment,168,→,right,→,0.21687220002058893,True,18
X037K35,648,experiment,156,↑,left,←,0.15064170002005994,False,18
X037K35,649,experiment,72,↑,right,→,0.15045900002587587,False,18
X037K35,650,experiment,36,←,right,→,0.2672059000469744,False,18
X037K35,651,experiment,144,↓,right,→,0.18381489999592304,False,18
X037K35,652,experiment,12,→,left,←,0.36725750006735325,False,18
X037K35,653,experiment,24,↑,right,→,0.2838676000246778,False,18
X037K35,654,experiment,180,↑,left,←,0.21751700004097074,False,18
X037K35,655,experiment,96,←,right,→,0.2005866999970749,False,18
X037K35,656,experiment,84,↑,left,←,0.20057310000993311,False,18
X037K35,657,experiment,108,←,left,←,0.33397799998056144,True,18
X037K35,658,experiment,48,→,left,←,0.28387050004675984,False,18
X037K35,659,experiment,120,←,right,→,0.23395589995197952,False,18
X037K35,660,experiment,108,↓,left,←,0.20079349994193763,False,18
X037K35,661,training,168,↑,left,←,0.20093869999982417,False,18
X037K35,662,training,60,↓,left,←,0.25177289999555796,False,18
X037K35,663,training,12,→,right,→,0.267345399945043,True,18
X037K35,664,experiment,132,↓,left,←,0.2673040999798104,False,18
X037K35,665,experiment,144,←,left,←,0.41730400000233203,True,18
X037K35,666,experiment,12,←,right,→,0.2674213999416679,False,18
X037K35,667,experiment,180,↑,no_key,no_letter,-1.0,False,18
X037K35,668,experiment,108,←,left,←,0.20066799991764128,True,18
X037K35,669,experiment,60,↓,right,→,0.30043179995846003,False,18
X037K35,670,experiment,168,↓,left,←,0.2005946000572294,False,18
X037K35,671,experiment,120,↓,right,→,0.16738650004845113,False,18
X037K35,672,experiment,120,→,right,→,0.300496399984695,True,18
X037K35,673,experiment,84,↓,right,→,0.21702280000317842,False,18
X037K35,674,experiment,132,→,right,→,0.2506583998911083,True,18
X037K35,675,experiment,12,↑,right,→,0.33403799997176975,False,18
X037K35,676,experiment,24,←,right,→,0.38404380006249994,False,18
X037K35,677,experiment,60,←,right,→,0.4174769999226555,False,18
X037K35,678,experiment,48,↓,left,←,0.23393380001652986,False,18
X037K35,679,experiment,120,↓,left,←,0.33392620005179197,False,18
X037K35,680,experiment,96,←,left,←,0.18413999991025776,True,18
X037K35,681,experiment,144,↑,right,→,0.21722410002257675,False,18
X037K35,682,experiment,72,←,left,←,0.21726570010650903,True,18
X037K35,683,experiment,180,↑,left,←,0.267479500034824,False,18
X037K35,684,experiment,168,←,right,→,0.1671972000040114,False,18
X037K35,685,experiment,156,↓,left,←,0.21754189999774098,False,18
X037K35,686,experiment,48,←,right,→,0.2502459998941049,False,18
X037K35,687,experiment,120,↓,right,→,0.26710860000457615,False,18
X037K35,688,experiment,72,→,left,←,0.23384759994223714,False,18
X037K35,689,experiment,180,→,left,←,0.2506505000637844,False,18
X037K35,690,experiment,180,→,right,→,0.28441309998743236,True,18
X037K35,691,experiment,24,↓,right,→,0.3005977999418974,False,18
X037K35,692,experiment,36,↑,left,←,0.30106039997190237,False,18
X037K35,693,experiment,36,→,right,→,0.2847855999134481,True,18
X037K35,694,experiment,84,→,left,←,0.21719560003839433,False,18
X037K35,695,experiment,168,→,left,←,0.15053320000879467,False,18
X037K35,696,experiment,12,↓,right,→,0.3006414999254048,False,18
X037K35,697,experiment,144,←,left,←,0.23413710005115718,True,18
X037K35,698,experiment,144,←,right,→,0.18490739993285388,False,18
X037K35,699,experiment,156,↓,left,←,0.25068469997495413,False,18
X037K35,700,experiment,48,→,right,→,0.3172300999285653,True,18
X037K35,701,experiment,60,↑,right,→,0.2338535999879241,False,18
X037K35,702,experiment,84,→,right,→,0.3172021000646055,True,18
X037K35,703,experiment,96,↑,right,→,0.2004802000010386,False,18
X037K35,704,experiment,96,←,right,→,0.18401989992707968,False,18
X037K35,705,experiment,12,↓,left,←,0.30041879997588694,False,18
X037K35,706,experiment,168,←,left,←,0.2672879999736324,True,18
X037K35,707,experiment,84,↑,right,→,0.21736909996252507,False,18
X037K35,708,experiment,108,←,left,←,0.21741030004341155,True,18
X037K35,709,experiment,132,↓,right,→,0.2171943000284955,False,18
X037K35,710,experiment,72,→,right,→,0.5477799000218511,True,18
X037K35,711,experiment,36,↓,left,←,0.3506669000489637,False,18
X037K35,712,experiment,96,←,right,→,0.18412109999917448,False,18
X037K35,713,experiment,108,→,left,←,0.41693850001320243,False,18
X037K35,714,experiment,132,→,right,→,0.18389660003595054,True,18
X037K35,715,experiment,156,→,right,→,0.18395869992673397,True,18
X037K35,716,experiment,36,→,right,→,0.35055289999581873,True,18
X037K35,717,experiment,72,↑,right,→,0.2670668000355363,False,18
X037K35,718,experiment,60,→,left,←,0.16735100001096725,False,18
X037K35,719,experiment,24,↑,right,→,0.23371910001151264,False,18
X037K35,720,experiment,156,↓,left,←,0.3170267000095919,False,18
X037K35,721,experiment,108,→,left,←,0.3339568000519648,False,18
X037K35,722,experiment,24,↓,left,←,0.267000799998641,False,18
X037K35,723,experiment,48,↑,right,→,0.30007749993819743,False,18
X037K35,724,training,84,↓,left,←,0.33392799994908273,False,18
X037K35,725,training,120,↑,left,←,0.21706109994556755,False,18
X037K35,726,training,120,→,left,←,0.2504011000273749,False,18
X037K35,727,experiment,12,←,left,←,0.33331230003386736,True,18
X037K35,728,experiment,24,→,left,←,0.4006438999203965,False,18
X037K35,729,experiment,156,→,right,→,0.1679574999725446,True,18
X037K35,730,experiment,132,↓,right,→,0.1674252999946475,False,18
X037K35,731,experiment,180,→,left,←,0.2516926999669522,False,18
X037K35,732,experiment,180,←,left,←,0.3338165000313893,True,18
X037K35,733,experiment,108,→,left,←,0.2340208999812603,False,18
X037K35,734,experiment,60,↓,right,→,0.23396149999462068,False,18
X037K35,735,experiment,12,↓,right,→,0.3338697999715805,False,18
X037K35,736,experiment,24,↓,right,→,0.2503856000257656,False,18
X037K35,737,experiment,168,↓,right,→,0.2171053000492975,False,18
X037K35,738,experiment,156,→,left,←,0.21711680002044886,False,18
X037K35,739,experiment,36,↓,right,→,0.2672408999642357,False,18
X037K35,740,experiment,180,↓,left,←,0.1840490000322461,False,18
X037K35,741,experiment,108,←,right,→,0.2337967000203207,False,18
X037K35,742,experiment,108,↑,right,→,0.1504600999178365,False,18
X037K35,743,experiment,168,→,left,←,0.26718419999815524,False,18
X037K35,744,experiment,132,↑,left,←,0.2679970000172034,False,18
X037K35,745,experiment,96,↑,right,→,0.25181690009776503,False,18
X037K35,746,experiment,48,↓,right,→,0.2840505000203848,False,18
X037K35,747,experiment,108,→,right,→,0.1671156999655068,True,18
X037K35,748,experiment,144,↓,left,←,0.26728159992489964,False,18
X037K35,749,experiment,168,↑,right,→,0.20063320000190288,False,18
X037K35,750,experiment,12,←,left,←,0.3340226999716833,True,18
X037K35,751,experiment,48,→,right,→,0.2671202999772504,True,18
X037K35,752,experiment,12,←,right,→,0.30012429994530976,False,18
X037K35,753,experiment,36,↓,right,→,0.2506856999825686,False,18
X037K35,754,experiment,96,←,right,→,0.3673820999683812,False,18
X037K35,755,experiment,144,←,right,→,0.28398960002232343,False,18
X037K35,756,experiment,24,↑,right,→,0.30063770001288503,False,18
X037K35,757,experiment,120,↓,no_key,no_letter,-1.0,False,18
X037K35,758,experiment,84,↑,left,←,0.21756290004123002,False,18
X037K35,759,experiment,72,→,right,→,0.18464570003561676,True,18
X037K35,760,experiment,96,→,left,←,0.21744969999417663,False,18
X037K35,761,experiment,156,←,right,→,0.16721059998963028,False,18
X037K35,762,experiment,132,↑,left,←,0.21767210005782545,False,18
X037K35,763,experiment,132,→,right,→,0.21730719995684922,True,18
X037K35,764,experiment,156,↑,left,←,0.2006972999079153,False,18
X037K35,765,experiment,48,↓,right,→,0.2674711999716237,False,18
X037K35,766,experiment,96,→,left,←,0.2837819999549538,False,18
X037K35,767,experiment,72,←,right,→,0.18417469994165003,False,18
X037K35,768,experiment,180,→,left,←,0.18373850011266768,False,18
X037K35,769,experiment,144,↓,left,←,0.3004814999876544,False,18
X037K35,770,experiment,72,↑,right,→,0.18392380001023412,False,18
X037K35,771,experiment,48,→,right,→,0.23396570002660155,True,18
X037K35,772,experiment,120,←,no_key,no_letter,-1.0,False,18
X037K35,773,experiment,60,↑,right,→,0.3338528999593109,False,18
X037K35,774,experiment,36,←,right,→,0.30046559998299927,False,18
X037K35,775,experiment,60,←,left,←,0.33390319999307394,True,18
X037K35,776,experiment,84,↑,right,→,0.33379790000617504,False,18
X037K35,777,experiment,120,↑,left,←,0.20057300000917166,False,18
X037K35,778,experiment,84,→,left,←,0.2172535000136122,False,18
X037K35,779,experiment,144,←,right,→,0.2173278999980539,False,18
X037K35,780,experiment,60,↓,right,→,0.16733480000402778,False,18
X037K35,781,experiment,36,↓,right,→,0.21723239996936172,False,18
X037K35,782,experiment,72,←,right,→,0.20071020000614226,False,18
X037K35,783,experiment,84,←,right,→,0.30074830004014075,False,18
X037K35,784,experiment,120,←,left,←,0.18392750003840774,True,18
X037K35,785,experiment,168,↓,right,→,0.2679035000037402,False,18
X037K35,786,experiment,24,↓,right,→,0.2839810000732541,False,18
X037K35,787,training,168,↑,right,→,0.5108452000422403,False,18
X037K35,788,training,108,↓,right,→,0.2180686000501737,False,18
X037K35,789,training,24,←,right,→,0.20041879999917,False,18
X037K35,790,experiment,24,→,right,→,0.26690899999812245,True,18
X037K35,791,experiment,72,↑,left,←,0.20059659995604306,False,18
X037K35,792,experiment,108,↑,right,→,0.1838133999845013,False,18
X037K35,793,experiment,168,←,left,←,0.16697469993960112,True,18
X037K35,794,experiment,168,→,right,→,0.2018388999858871,True,18
X037K35,795,experiment,84,↑,left,←,0.23391629999969155,False,18
X037K35,796,experiment,96,→,right,→,0.16736570000648499,True,18
X037K35,797,experiment,144,↓,right,→,0.21736539993435144,False,18
X037K35,798,experiment,12,↑,right,→,0.23398010001983494,False,18
X037K35,799,experiment,120,↓,right,→,0.15004750003572553,False,18
X037K35,800,experiment,108,↓,right,→,0.18489020003471524,False,18
X037K35,801,experiment,60,↓,left,←,0.16755149990785867,False,18
X037K35,802,experiment,60,←,right,→,0.2507513999007642,False,18
X037K35,803,experiment,48,↓,left,←,0.16719220008235425,False,18
X037K35,804,experiment,108,↓,right,→,0.30056130001321435,False,18
X037K35,805,experiment,12,←,left,←,0.2673355999868363,True,18
X037K35,806,experiment,48,↑,right,→,0.2673073000041768,False,18
X037K35,807,experiment,156,↓,left,←,0.20054160000290722,False,18
X037K35,808,experiment,72,↑,right,→,0.3674219000386074,False,18
X037K35,809,experiment,24,←,left,←,0.16767969995271415,True,18
X037K35,810,experiment,120,↑,right,→,0.18415849993471056,False,18
X037K35,811,experiment,36,↑,left,←,0.23480600002221763,False,18
X037K35,812,experiment,60,←,right,→,0.1838367999298498,False,18
X037K35,813,experiment,156,↑,left,←,0.23362900002393872,False,18
X037K35,814,experiment,120,←,right,→,0.18391599995084107,False,18
X037K35,815,experiment,156,→,right,→,0.21691730001475662,True,18
X037K35,816,experiment,84,→,no_key,no_letter,-1.0,False,18
X037K35,817,experiment,132,←,left,←,0.30045580002479255,True,18
X037K35,818,experiment,72,→,right,→,0.25067049998324364,True,18
X037K35,819,experiment,84,←,left,←,0.2672377999406308,True,18
X037K35,820,experiment,48,↓,right,→,0.21666909998748451,False,18
X037K35,821,experiment,120,→,left,←,0.5689577999291942,False,18
X037K35,822,experiment,156,→,right,→,0.1671028999844566,True,18
X037K35,823,experiment,180,←,right,→,0.3004876000341028,False,18
X037K35,824,experiment,24,←,right,→,0.3339177999878302,False,18
X037K35,825,experiment,180,↓,right,→,0.2672091000713408,False,18
X037K35,826,experiment,48,↑,left,←,0.25061300001107156,False,18
X037K35,827,experiment,108,→,right,→,0.1672937999246642,True,18
X037K35,828,experiment,180,↑,left,←,0.300666099996306,False,18
X037K35,829,experiment,96,→,left,←,0.18372239999007434,False,18
X037K35,830,experiment,144,↓,right,→,0.13381550007034093,False,18
X037K35,831,experiment,132,↑,left,←,0.23410210001748055,False,18
X037K35,832,experiment,168,↓,right,→,0.21735910000279546,False,18
X037K35,833,experiment,180,→,left,←,0.16714930010493845,False,18
X037K35,834,experiment,12,←,right,→,0.2834805001039058,False,18
X037K35,835,experiment,132,↑,left,←,0.21730800007935613,False,18
X037K35,836,experiment,36,←,right,→,0.31733009999152273,False,18
X037K35,837,experiment,12,↓,left,←,0.26720090000890195,False,18
X037K35,838,experiment,24,↓,right,→,0.18507569993380457,False,18
X037K35,839,experiment,168,↓,right,→,0.1173659999622032,False,18
X037K35,840,experiment,60,→,right,→,0.3338781000347808,True,18
X037K35,841,experiment,36,↑,left,←,0.233822499983944,False,18
X037K35,842,experiment,96,←,right,→,0.2836359000066295,False,18
X037K35,843,experiment,36,←,right,→,0.16732809995301068,False,18
X037K35,844,experiment,144,→,left,←,0.16729850007686764,False,18
X037K35,845,experiment,72,↑,no_key,no_letter,-1.0,False,18
X037K35,846,experiment,84,→,right,→,0.23397770000156015,True,18
X037K35,847,experiment,96,↑,left,←,0.18350710009690374,False,18
X037K35,848,experiment,144,↑,right,→,0.28393359994515777,False,18
X037K35,849,experiment,132,↑,right,→,0.3671661000698805,False,18
