PART_ID,Trial_no,Trial_type,PDI,Stim_letter,Key_pressed,letter_choose,Rt,Corr,Stimulus Time
X038M50,1,training,10,←,no_key,no_letter,-1.0,False,30
X038M50,2,training,10,→,left,←,1.4092345000244677,False,30
X038M50,3,training,10,↑,no_key,no_letter,-1.0,False,30
X038M50,4,training,10,→,no_key,no_letter,-1.0,False,30
X038M50,5,training,10,↓,left,←,1.5280776000581682,False,30
X038M50,6,training,10,←,no_key,no_letter,-1.0,False,30
X038M50,7,training,10,↓,right,→,1.7548758999910206,False,30
X038M50,8,training,10,↓,down,↓,1.3969770000549033,True,30
X038M50,9,training,10,↓,no_key,no_letter,-1.0,False,30
X038M50,10,training,10,↑,no_key,no_letter,-1.0,False,30
X038M50,11,training,10,→,no_key,no_letter,-1.0,False,30
X038M50,12,training,10,↑,right,→,1.796381999971345,False,30
X038M50,13,training,10,→,right,→,0.8254649000009522,True,30
X038M50,14,training,10,→,right,→,0.41715380002278835,True,30
X038M50,15,training,10,←,right,→,0.350547399953939,False,30
X038M50,16,training,10,←,left,←,0.8140268999850377,True,30
X038M50,17,training,10,↑,left,←,0.7069692000513896,False,30
X038M50,18,training,10,↑,left,←,1.146591700031422,False,30
X038M50,19,training,10,←,left,←,0.6925817999290302,True,30
X038M50,20,training,10,→,right,→,0.7195061000529677,True,30
X038M50,21,training,10,↑,left,←,1.2630679999710992,False,18
X038M50,22,training,10,↓,left,←,0.878499299986288,False,18
X038M50,23,training,10,→,right,→,0.7854802999645472,True,18
X038M50,24,training,10,←,no_key,no_letter,-1.0,False,18
X038M50,25,training,10,↓,down,↓,0.856489000027068,True,18
X038M50,26,training,10,→,right,→,1.1760636999970302,True,18
X038M50,27,training,10,←,left,←,0.7635787000181153,True,18
X038M50,28,training,10,←,right,→,0.6940584999974817,False,18
X038M50,29,training,10,↑,left,←,0.9663862999295816,False,18
X038M50,30,training,10,→,right,→,1.3117240000283346,True,18
X038M50,31,training,96,↑,right,→,0.963702299981378,False,15
X038M50,32,training,36,←,right,→,0.6640963000245392,False,15
X038M50,33,training,156,→,left,←,1.0645037000067532,False,15
X038M50,34,experiment,168,↑,left,←,0.7368396000238135,False,15
X038M50,35,experiment,144,←,left,←,0.6001044000731781,True,15
X038M50,36,experiment,180,↓,right,→,0.8941962999524549,False,15
X038M50,37,experiment,12,↓,no_key,no_letter,-1.0,False,15
X038M50,38,experiment,36,↑,left,←,0.8557284999405965,False,15
X038M50,39,experiment,120,←,left,←,0.7118937000632286,True,15
X038M50,40,experiment,168,←,left,←,0.49786649993620813,True,15
X038M50,41,experiment,96,↑,right,→,0.8619857999728993,False,15
X038M50,42,experiment,108,→,right,→,0.9171951999887824,True,15
X038M50,43,experiment,132,↓,right,→,0.9665283999638632,False,15
X038M50,44,experiment,156,→,no_key,no_letter,-1.0,False,15
X038M50,45,experiment,144,←,right,→,0.9535241000121459,False,15
X038M50,46,experiment,84,↑,left,←,1.1015397000592202,False,15
X038M50,47,experiment,48,↓,right,→,1.2675715000368655,False,15
X038M50,48,experiment,96,←,left,←,0.8057808999437839,True,15
X038M50,49,experiment,156,↑,left,←,0.918129300000146,False,15
X038M50,50,experiment,132,→,left,←,0.7978697000071406,False,15
X038M50,51,experiment,24,↑,no_key,no_letter,-1.0,False,15
X038M50,52,experiment,180,↑,right,→,0.8131429000059143,False,15
X038M50,53,experiment,168,→,left,←,0.8558591000037268,False,15
X038M50,54,experiment,60,↓,right,→,1.0851077999686822,False,15
X038M50,55,experiment,96,↓,left,←,1.0050226000603288,False,15
X038M50,56,experiment,108,←,right,→,0.6689587000291795,False,15
X038M50,57,experiment,60,↓,no_key,no_letter,-1.0,False,15
X038M50,58,experiment,72,↓,down,↓,1.3042324000271037,True,15
X038M50,59,experiment,84,←,left,←,0.5259479000233114,True,15
X038M50,60,experiment,72,←,right,→,0.6620694999583066,False,15
X038M50,61,experiment,144,↓,left,←,0.5981883000349626,False,15
X038M50,62,experiment,108,←,left,←,0.986078399932012,True,15
X038M50,63,experiment,60,←,right,→,0.8987157000228763,False,15
X038M50,64,experiment,72,↓,down,↓,0.8747803999576718,True,15
X038M50,65,experiment,12,↑,right,→,1.804812700022012,False,15
X038M50,66,experiment,180,←,left,←,0.749809900065884,True,15
X038M50,67,experiment,144,→,down,↓,1.283629700075835,False,15
X038M50,68,experiment,36,↓,up,↑,1.417367500020191,False,15
X038M50,69,experiment,156,←,left,←,0.8878263999940827,True,15
X038M50,70,experiment,84,↓,right,→,0.6686502000084147,False,15
X038M50,71,experiment,180,→,down,↓,0.8899515999946743,False,15
X038M50,72,experiment,108,←,left,←,0.6674698999850079,True,15
X038M50,73,experiment,120,↑,up,↑,0.9877943999599665,True,15
X038M50,74,experiment,12,↑,right,→,1.3174937999574468,False,15
X038M50,75,experiment,12,←,down,↓,1.3016553999623284,False,15
X038M50,76,experiment,120,↓,down,↓,1.004152600071393,True,15
X038M50,77,experiment,156,→,right,→,0.6945544999325648,True,15
X038M50,78,experiment,96,↓,right,→,0.700222700019367,False,15
X038M50,79,experiment,84,↓,left,←,0.7483793999999762,False,15
X038M50,80,experiment,72,→,no_key,no_letter,-1.0,False,15
X038M50,81,experiment,132,→,no_key,no_letter,-1.0,False,15
X038M50,82,experiment,120,↓,up,↑,1.2489562999689952,False,15
X038M50,83,experiment,48,→,right,→,0.946055099950172,True,15
X038M50,84,experiment,60,↓,left,←,0.5611884000245482,False,15
X038M50,85,experiment,132,↑,down,↓,0.9106162999523804,False,15
X038M50,86,experiment,36,←,left,←,0.9989974999334663,True,15
X038M50,87,experiment,24,←,right,→,0.8825556999072433,False,15
X038M50,88,experiment,24,←,right,→,0.8266729000024498,False,15
X038M50,89,experiment,168,→,down,↓,1.0275333999888971,False,15
X038M50,90,experiment,48,←,right,→,0.708900999976322,False,15
X038M50,91,experiment,36,↑,right,→,1.5345322000794113,False,15
X038M50,92,experiment,48,←,no_key,no_letter,-1.0,False,15
X038M50,93,experiment,24,→,down,↓,1.038207700010389,False,15
X038M50,94,training,120,←,right,→,0.592652199906297,False,16
X038M50,95,training,84,↑,left,←,0.5131443999707699,False,16
X038M50,96,training,120,↑,right,→,0.6513409999897704,False,16
X038M50,97,experiment,84,↓,down,↓,1.1031612999504432,True,16
X038M50,98,experiment,48,↓,down,↓,0.98188300000038,True,16
X038M50,99,experiment,120,↑,down,↓,0.5294512000400573,False,16
X038M50,100,experiment,84,↓,down,↓,0.6653250000672415,True,16
X038M50,101,experiment,36,←,right,→,0.7039882999379188,False,16
X038M50,102,experiment,12,↑,left,←,1.7047974000452086,False,16
X038M50,103,experiment,60,←,right,→,0.6468954998999834,False,16
X038M50,104,experiment,72,←,right,→,0.6596065000630915,False,16
X038M50,105,experiment,36,→,left,←,0.7269275999860838,False,16
X038M50,106,experiment,144,←,right,→,0.8005328000290319,False,16
X038M50,107,experiment,108,↓,right,→,0.8811660000355914,False,16
X038M50,108,experiment,144,↓,right,→,0.7515762000111863,False,16
X038M50,109,experiment,60,→,down,↓,1.4259214999619871,False,16
X038M50,110,experiment,36,→,right,→,0.5327214999124408,True,16
X038M50,111,experiment,180,→,left,←,0.7351452000439167,False,16
X038M50,112,experiment,96,→,right,→,0.5631073000840843,True,16
X038M50,113,experiment,36,↑,right,→,0.8085263000102714,False,16
X038M50,114,experiment,48,←,left,←,0.5081411999417469,True,16
X038M50,115,experiment,180,↑,right,→,1.193576900055632,False,16
X038M50,116,experiment,132,←,down,↓,1.0191972999600694,False,16
X038M50,117,experiment,96,↓,right,→,0.9699360999511555,False,16
X038M50,118,experiment,120,↑,down,↓,1.000354600022547,False,16
X038M50,119,experiment,132,←,down,↓,1.0629890999989584,False,16
X038M50,120,experiment,108,↑,right,→,0.8480785000137985,False,16
X038M50,121,experiment,12,↑,left,←,1.0838936000363901,False,16
X038M50,122,experiment,180,↑,right,→,0.8961799999233335,False,16
X038M50,123,experiment,24,↓,down,↓,1.2231786999618635,True,16
X038M50,124,experiment,144,←,down,↓,1.310339599964209,False,16
X038M50,125,experiment,84,←,down,↓,0.909901300095953,False,16
X038M50,126,experiment,144,→,right,→,0.6056545999599621,True,16
X038M50,127,experiment,120,↑,right,→,0.9294389999704435,False,16
X038M50,128,experiment,168,↓,right,→,0.7774805999360979,False,16
X038M50,129,experiment,168,←,down,↓,1.378469099989161,False,16
X038M50,130,experiment,72,→,down,↓,1.1427061000140384,False,16
X038M50,131,experiment,84,→,down,↓,1.0115916999056935,False,16
X038M50,132,experiment,24,↑,no_key,no_letter,-1.0,False,16
X038M50,133,experiment,168,→,down,↓,1.0436123999534175,False,16
X038M50,134,experiment,60,←,right,→,0.9243107000365853,False,16
X038M50,135,experiment,48,←,left,←,1.72046949993819,True,16
X038M50,136,experiment,156,→,right,→,0.9043517999816686,True,16
X038M50,137,experiment,96,→,right,→,1.3901822000043467,True,16
X038M50,138,experiment,180,↓,down,↓,1.16853240004275,True,16
X038M50,139,experiment,120,↑,right,→,0.7541966000571847,False,16
X038M50,140,experiment,156,↑,down,↓,1.2302458999911323,False,16
X038M50,141,experiment,72,→,right,→,0.8639400000683963,True,16
X038M50,142,experiment,132,←,right,→,0.7608744000317529,False,16
X038M50,143,experiment,132,↑,up,↑,1.1363211999414489,True,16
X038M50,144,experiment,156,→,right,→,0.7754916000412777,True,16
X038M50,145,experiment,12,←,left,←,0.9624797999858856,True,16
X038M50,146,experiment,168,↓,down,↓,1.7520051000174135,True,16
X038M50,147,experiment,96,→,right,→,0.9319211000110954,True,16
X038M50,148,experiment,156,↓,right,→,0.8091930000809953,False,16
X038M50,149,experiment,48,→,right,→,0.7341260999673977,True,16
X038M50,150,experiment,108,←,left,←,0.7849890999495983,True,16
X038M50,151,experiment,24,↓,right,→,1.1211057999171317,False,16
X038M50,152,experiment,72,↑,up,↑,1.045290800044313,True,16
X038M50,153,experiment,60,↑,up,↑,1.4974951999029145,True,16
X038M50,154,experiment,24,←,left,←,0.7690331999910995,True,16
X038M50,155,experiment,12,→,left,←,0.9987638999009505,False,16
X038M50,156,experiment,108,↑,right,→,1.4072641000384465,False,16
X038M50,157,training,60,↑,right,→,0.9124632999300957,False,17
X038M50,158,training,48,→,right,→,1.0766912999097258,True,17
X038M50,159,training,180,↑,right,→,1.0551616000011563,False,17
X038M50,160,experiment,96,←,right,→,1.1685236999765038,False,17
X038M50,161,experiment,156,←,right,→,0.7397978000808507,False,17
X038M50,162,experiment,84,←,right,→,0.6564829000271857,False,17
X038M50,163,experiment,60,↑,up,↑,0.9883030999917537,True,17
X038M50,164,experiment,36,↓,left,←,0.5304235999938101,False,17
X038M50,165,experiment,24,↓,no_key,no_letter,-1.0,False,17
X038M50,166,experiment,156,↑,right,→,1.3084429000737146,False,17
X038M50,167,experiment,120,↑,up,↑,1.00217380002141,True,17
X038M50,168,experiment,156,↓,up,↑,0.9619162000017241,False,17
X038M50,169,experiment,132,↑,right,→,0.7622280999785289,False,17
X038M50,170,experiment,84,←,right,→,0.8074345999630168,False,17
X038M50,171,experiment,96,↑,up,↑,0.8360628000227734,True,17
X038M50,172,experiment,72,←,up,↑,0.9700698000378907,False,17
X038M50,173,experiment,108,↓,right,→,1.060983500094153,False,17
X038M50,174,experiment,132,↑,up,↑,1.1125919000478461,True,17
X038M50,175,experiment,60,↑,down,↓,1.7448221000377089,False,17
X038M50,176,experiment,48,←,right,→,1.4485204999800771,False,17
X038M50,177,experiment,12,→,no_key,no_letter,-1.0,False,17
X038M50,178,experiment,108,↓,up,↑,0.9705987999914214,False,17
X038M50,179,experiment,84,↑,up,↑,0.6994252000004053,True,17
X038M50,180,experiment,156,→,right,→,0.6531600001035258,True,17
X038M50,181,experiment,36,↓,no_key,no_letter,-1.0,False,17
X038M50,182,experiment,120,↓,down,↓,0.9952015000162646,True,17
X038M50,183,experiment,72,→,right,→,1.0394996999530122,True,17
X038M50,184,experiment,24,←,left,←,0.661169599974528,True,17
X038M50,185,experiment,48,→,right,→,0.6609923000214621,True,17
X038M50,186,experiment,120,←,right,→,0.9411029000766575,False,17
X038M50,187,experiment,24,→,right,→,1.3058539000339806,True,17
X038M50,188,experiment,36,↑,up,↑,0.8439425000688061,True,17
X038M50,189,experiment,48,↓,down,↓,0.6351954999845475,True,17
X038M50,190,experiment,60,↑,right,→,0.9312902999809012,False,17
X038M50,191,experiment,144,↓,right,→,0.7983745000092313,False,17
X038M50,192,experiment,180,←,right,→,0.626366600045003,False,17
X038M50,193,experiment,132,↑,up,↑,0.8108924999833107,True,17
X038M50,194,experiment,168,↑,no_key,no_letter,-1.0,False,17
X038M50,195,experiment,144,↑,up,↑,0.705130200018175,True,17
X038M50,196,experiment,96,→,right,→,0.6917350000003353,True,17
X038M50,197,experiment,108,↓,right,→,1.019277699990198,False,17
X038M50,198,experiment,168,↓,right,→,0.8753571999259293,False,17
X038M50,199,experiment,12,→,right,→,0.8729512999998406,True,17
X038M50,200,experiment,84,←,right,→,0.8408416999736801,False,17
X038M50,201,experiment,144,→,right,→,0.6129617000697181,True,17
X038M50,202,experiment,108,↑,right,→,0.8079181999200955,False,17
X038M50,203,experiment,132,→,up,↑,0.9287004000507295,False,17
X038M50,204,experiment,180,↑,right,→,0.8263082000194117,False,17
X038M50,205,experiment,120,→,right,→,0.9305077999597415,True,17
X038M50,206,experiment,12,↓,left,←,0.9590924000367522,False,17
X038M50,207,experiment,60,→,up,↑,1.0588116000872105,False,17
X038M50,208,experiment,96,→,left,←,0.7783839999465272,False,17
X038M50,209,experiment,168,↑,up,↑,0.6183245999272913,True,17
X038M50,210,experiment,180,↓,up,↑,0.8129791999235749,False,17
X038M50,211,experiment,168,→,up,↑,0.6982126999646425,False,17
X038M50,212,experiment,48,→,no_key,no_letter,-1.0,False,17
X038M50,213,experiment,24,↑,right,→,1.1029874000232667,False,17
X038M50,214,experiment,36,←,right,→,0.7790274999570101,False,17
X038M50,215,experiment,180,→,up,↑,1.0420166000258178,False,17
X038M50,216,experiment,12,←,up,↑,0.7407973000081256,False,17
X038M50,217,experiment,144,→,up,↑,0.9312296999851242,False,17
X038M50,218,experiment,72,↑,up,↑,0.4879660999868065,True,17
X038M50,219,experiment,72,←,up,↑,0.8864897999446839,False,17
X038M50,220,training,120,↑,up,↑,0.8063968999776989,True,18
X038M50,221,training,84,↑,up,↑,0.4768107000272721,True,18
X038M50,222,training,132,↑,right,→,0.8712093000067398,False,18
X038M50,223,experiment,36,←,left,←,0.5710038000252098,True,18
X038M50,224,experiment,168,→,right,→,1.0103130999486893,True,18
X038M50,225,experiment,24,→,right,→,0.9518187999492511,True,18
X038M50,226,experiment,48,↑,up,↑,0.5078164000296965,True,18
X038M50,227,experiment,108,→,right,→,0.5342099000699818,True,18
X038M50,228,experiment,60,↓,right,→,0.8360219000605866,False,18
X038M50,229,experiment,36,→,right,→,0.5359614000190049,True,18
X038M50,230,experiment,120,→,right,→,0.8287483000895008,True,18
X038M50,231,experiment,180,↑,up,↑,0.651409599930048,True,18
X038M50,232,experiment,168,↑,up,↑,0.8105344000505283,True,18
X038M50,233,experiment,120,←,right,→,0.7025085999630392,False,18
X038M50,234,experiment,12,↓,right,→,0.8744100000476465,False,18
X038M50,235,experiment,84,↓,down,↓,0.7312536999816075,True,18
X038M50,236,experiment,132,→,right,→,0.6866181999212131,True,18
X038M50,237,experiment,84,→,up,↑,0.959692099946551,False,18
X038M50,238,experiment,144,↑,up,↑,0.5560715000610799,True,18
X038M50,239,experiment,180,←,up,↑,0.8602684000506997,False,18
X038M50,240,experiment,96,↑,right,→,0.83789190009702,False,18
X038M50,241,experiment,144,←,right,→,0.609556799987331,False,18
X038M50,242,experiment,72,↓,up,↑,0.7189690999221057,False,18
X038M50,243,experiment,144,→,right,→,0.7896588000003248,True,18
X038M50,244,experiment,108,↓,right,→,0.6335377000505105,False,18
X038M50,245,experiment,120,→,right,→,0.7259992000181228,True,18
X038M50,246,experiment,156,→,right,→,0.5864021999295801,True,18
X038M50,247,experiment,156,↑,up,↑,0.6816679000621662,True,18
X038M50,248,experiment,36,←,right,→,0.8087809000862762,False,18
X038M50,249,experiment,180,→,right,→,0.9217544000130147,True,18
X038M50,250,experiment,36,→,right,→,0.6906477999873459,True,18
X038M50,251,experiment,132,←,right,→,0.5973402999807149,False,18
X038M50,252,experiment,60,→,right,→,0.4742848000023514,True,18
X038M50,253,experiment,144,↑,right,→,0.7541526999557391,False,18
X038M50,254,experiment,156,→,up,↑,0.785760400001891,False,18
X038M50,255,experiment,168,←,right,→,0.5908594999928027,False,18
X038M50,256,experiment,96,→,down,↓,1.0673700999468565,False,18
X038M50,257,experiment,96,→,left,←,0.6663297000341117,False,18
X038M50,258,experiment,96,←,right,→,0.7248825000133365,False,18
X038M50,259,experiment,60,→,right,→,0.6581800999119878,True,18
X038M50,260,experiment,72,↑,up,↑,0.5778276999481022,True,18
X038M50,261,experiment,12,←,left,←,0.6884318999946117,True,18
X038M50,262,experiment,24,↑,up,↑,0.5950259000528604,True,18
X038M50,263,experiment,168,↓,up,↑,0.9500656999880448,False,18
X038M50,264,experiment,12,↑,right,→,1.2411499000154436,False,18
X038M50,265,experiment,12,↓,right,→,0.8949714999180287,False,18
X038M50,266,experiment,132,→,no_key,no_letter,-1.0,False,18
X038M50,267,experiment,48,←,right,→,1.188086700043641,False,18
X038M50,268,experiment,72,↑,up,↑,0.7691797000588849,True,18
X038M50,269,experiment,120,↓,right,→,0.9985424000769854,False,18
X038M50,270,experiment,48,←,down,↓,1.145306900027208,False,18
X038M50,271,experiment,72,→,right,→,0.8255389999831095,True,18
X038M50,272,experiment,84,↑,right,→,0.9936367999762297,False,18
X038M50,273,experiment,156,→,up,↑,0.5045351999578997,False,18
X038M50,274,experiment,60,→,right,→,0.827279300079681,True,18
X038M50,275,experiment,108,↑,right,→,0.820987300015986,False,18
X038M50,276,experiment,132,↑,down,↓,0.5999588000122458,False,18
X038M50,277,experiment,24,←,left,←,0.6067430999828503,True,18
X038M50,278,experiment,108,→,up,↑,0.9912045999662951,False,18
X038M50,279,experiment,180,↓,down,↓,0.8372086000163108,True,18
X038M50,280,experiment,84,↑,right,→,0.9842358999885619,False,18
X038M50,281,experiment,24,↑,right,→,0.5299474000930786,False,18
X038M50,282,experiment,48,←,up,↑,0.9787509000161663,False,18
X038M50,283,training,132,→,left,←,0.6792142000049353,False,18
X038M50,284,training,168,→,right,→,0.7738142999587581,True,18
X038M50,285,training,132,↓,right,→,0.8487360998988152,False,18
X038M50,286,experiment,48,←,right,→,1.1985565000213683,False,18
X038M50,287,experiment,96,↑,up,↑,0.942773099988699,True,18
X038M50,288,experiment,36,←,left,←,0.5692102001048625,True,18
X038M50,289,experiment,180,→,right,→,0.7419223999604583,True,18
X038M50,290,experiment,12,→,right,→,0.9086657000007108,True,18
X038M50,291,experiment,156,↓,right,→,0.8219081000424922,False,18
X038M50,292,experiment,120,→,right,→,0.5188221000134945,True,18
X038M50,293,experiment,180,→,right,→,1.137788699939847,True,18
X038M50,294,experiment,60,↓,down,↓,1.4021081998944283,True,18
X038M50,295,experiment,120,↑,left,←,0.9270019000396132,False,18
X038M50,296,experiment,156,→,right,→,0.8452330000000075,True,18
X038M50,297,experiment,36,→,right,→,0.6284047999652103,True,18
X038M50,298,experiment,180,↓,down,↓,0.8609007999766618,True,18
X038M50,299,experiment,60,↓,right,→,0.8638117000227794,False,18
X038M50,300,experiment,144,←,left,←,0.6247368999756873,True,18
X038M50,301,experiment,108,↑,right,→,1.7385312999831513,False,18
X038M50,302,experiment,60,→,up,↑,0.9853037000866607,False,18
X038M50,303,experiment,72,→,right,→,1.2622188999084756,True,18
X038M50,304,experiment,120,↑,down,↓,0.9139648999553174,False,18
X038M50,305,experiment,84,↓,down,↓,0.547483199974522,True,18
X038M50,306,experiment,84,↑,up,↑,0.9803105000173673,True,18
X038M50,307,experiment,24,←,left,←,0.9855169999646023,True,18
X038M50,308,experiment,168,←,left,←,0.7573903000447899,True,18
X038M50,309,experiment,132,↑,down,↓,0.8035121000139043,False,18
X038M50,310,experiment,108,↓,down,↓,0.7268759999424219,True,18
X038M50,311,experiment,120,←,left,←,0.5999784000450745,True,18
X038M50,312,experiment,96,↑,up,↑,0.6536906999535859,True,18
X038M50,313,experiment,96,→,down,↓,0.8776980000548065,False,18
X038M50,314,experiment,72,↑,up,↑,0.9290636000223458,True,18
X038M50,315,experiment,96,→,right,→,0.7187408999307081,True,18
X038M50,316,experiment,72,↑,right,→,1.046410599956289,False,18
X038M50,317,experiment,36,←,left,←,0.9509381999960169,True,18
X038M50,318,experiment,108,↓,right,→,0.8705031999852508,False,18
X038M50,319,experiment,48,↑,down,↓,1.3324991998961195,False,18
X038M50,320,experiment,24,←,left,←,1.0931978001026437,True,18
X038M50,321,experiment,132,↓,down,↓,0.7056892000837252,True,18
X038M50,322,experiment,132,→,right,→,0.7847200999967754,True,18
X038M50,323,experiment,168,↑,right,→,0.6879444000078365,False,18
X038M50,324,experiment,12,↑,left,←,1.0720893999096006,False,18
X038M50,325,experiment,132,←,left,←,0.7649637999711558,True,18
X038M50,326,experiment,156,↑,up,↑,0.9625010000308976,True,18
X038M50,327,experiment,108,↑,left,←,0.7454118999885395,False,18
X038M50,328,experiment,72,→,right,→,0.8230852000415325,True,18
X038M50,329,experiment,12,↓,up,↑,1.0681832999689505,False,18
X038M50,330,experiment,84,↓,down,↓,0.9139387999894097,True,18
X038M50,331,experiment,12,←,left,←,0.9375852000666782,True,18
X038M50,332,experiment,60,↓,up,↑,0.9059918000129983,False,18
X038M50,333,experiment,144,→,down,↓,0.8401523000793532,False,18
X038M50,334,experiment,144,↑,up,↑,1.4295532000251114,True,18
X038M50,335,experiment,144,↓,up,↑,1.0792822999646887,False,18
X038M50,336,experiment,168,←,left,←,0.6711674999678507,True,18
X038M50,337,experiment,36,←,left,←,0.5749963000416756,True,18
X038M50,338,experiment,48,→,up,↑,0.902942500077188,False,18
X038M50,339,experiment,84,←,left,←,0.6344655000139028,True,18
X038M50,340,experiment,24,↑,left,←,1.0903264000080526,False,18
X038M50,341,experiment,24,↓,up,↑,0.6912098999600857,False,18
X038M50,342,experiment,48,↑,up,↑,0.8962624000851065,True,18
X038M50,343,experiment,156,↑,up,↑,0.8728480000281706,True,18
X038M50,344,experiment,168,←,up,↑,0.5820449000457302,False,18
X038M50,345,experiment,180,↓,no_key,no_letter,-1.0,False,18
X038M50,346,training,156,→,right,→,1.1174276999663562,True,18
X038M50,347,training,24,→,left,←,1.2274427999509498,False,18
X038M50,348,training,156,→,right,→,0.7844174000201747,True,18
X038M50,349,experiment,72,↓,down,↓,0.5986352000618353,True,18
X038M50,350,experiment,132,↓,down,↓,0.5785791999660432,True,18
X038M50,351,experiment,84,↑,up,↑,1.4862263000104576,True,18
X038M50,352,experiment,36,←,right,→,0.7294825999997556,False,18
X038M50,353,experiment,48,↑,right,→,1.0692031000507995,False,18
X038M50,354,experiment,84,←,right,→,0.7520796000026166,False,18
X038M50,355,experiment,60,←,right,→,1.6263230999466032,False,18
X038M50,356,experiment,36,←,left,←,0.7242857000092044,True,18
X038M50,357,experiment,168,↑,up,↑,1.5248612000141293,True,18
X038M50,358,experiment,96,↓,down,↓,0.7545527999754995,True,18
X038M50,359,experiment,12,←,down,↓,0.8163797999732196,False,18
X038M50,360,experiment,60,↓,right,→,1.001618399983272,False,18
X038M50,361,experiment,180,→,right,→,0.8234442999819294,True,18
X038M50,362,experiment,156,←,up,↑,0.8718945999862626,False,18
X038M50,363,experiment,144,→,right,→,0.6698345000622794,True,18
X038M50,364,experiment,108,←,right,→,0.8087502999696881,False,18
X038M50,365,experiment,12,←,down,↓,1.4446737999096513,False,18
X038M50,366,experiment,108,←,down,↓,0.7314026000676677,False,18
X038M50,367,experiment,144,↑,down,↓,0.6976531000109389,False,18
X038M50,368,experiment,120,→,down,↓,0.6903202999383211,False,18
X038M50,369,experiment,12,↓,down,↓,1.4724283999530599,True,18
X038M50,370,experiment,24,←,left,←,1.0333892999915406,True,18
X038M50,371,experiment,156,↑,down,↓,0.7758928000694141,False,18
X038M50,372,experiment,60,↓,left,←,0.9688543999800459,False,18
X038M50,373,experiment,180,→,right,→,0.8834827999817207,True,18
X038M50,374,experiment,72,↑,right,→,0.9656628000084311,False,18
X038M50,375,experiment,48,↑,up,↑,0.7864170999964699,True,18
X038M50,376,experiment,168,↓,down,↓,0.6699497000081465,True,18
X038M50,377,experiment,144,←,left,←,0.708370600012131,True,18
X038M50,378,experiment,72,↓,right,→,0.8754449998959899,False,18
X038M50,379,experiment,24,↑,up,↑,0.494659399962984,True,18
X038M50,380,experiment,12,→,up,↑,0.6875284999841824,False,18
X038M50,381,experiment,120,↓,down,↓,0.8034809000091627,True,18
X038M50,382,experiment,36,→,up,↑,1.0662732999771833,False,18
X038M50,383,experiment,132,↑,up,↑,0.5623411999549717,True,18
X038M50,384,experiment,168,↑,up,↑,0.6550626000389457,True,18
X038M50,385,experiment,120,→,right,→,0.920948600047268,True,18
X038M50,386,experiment,180,→,right,→,1.2049038999248296,True,18
X038M50,387,experiment,156,↓,down,↓,0.8797141000395641,True,18
X038M50,388,experiment,84,→,right,→,0.9252793999621645,True,18
X038M50,389,experiment,132,↑,no_key,no_letter,-1.0,False,18
X038M50,390,experiment,96,→,up,↑,0.9139212999725714,False,18
X038M50,391,experiment,120,↓,down,↓,0.4000669000670314,True,18
X038M50,392,experiment,132,→,right,→,0.7721408000215888,True,18
X038M50,393,experiment,108,←,left,←,0.8426028999965638,True,18
X038M50,394,experiment,24,↓,right,→,1.2631316999904811,False,18
X038M50,395,experiment,108,←,up,↑,0.7824207000667229,False,18
X038M50,396,experiment,96,↑,down,↓,1.0122447999892756,False,18
X038M50,397,experiment,180,↑,up,↑,0.9383794999448583,True,18
X038M50,398,experiment,48,↑,up,↑,0.638896599994041,True,18
X038M50,399,experiment,36,↓,up,↑,0.8749815999763086,False,18
X038M50,400,experiment,168,→,right,→,1.1215314000146464,True,18
X038M50,401,experiment,60,←,up,↑,1.1341161000309512,False,18
X038M50,402,experiment,24,→,right,→,0.6815853000152856,True,18
X038M50,403,experiment,144,←,left,←,0.6684982000151649,True,18
X038M50,404,experiment,156,↓,down,↓,0.8931245999410748,True,18
X038M50,405,experiment,84,→,right,→,0.6094287999439985,True,18
X038M50,406,experiment,48,→,left,←,1.5633365999674425,False,18
X038M50,407,experiment,96,←,left,←,0.6403836000245064,True,18
X038M50,408,experiment,72,↑,up,↑,0.5454062999924645,True,18
X038M50,409,training,156,←,left,←,1.4619243000634015,True,18
X038M50,410,training,24,↓,no_key,no_letter,-1.0,False,18
X038M50,411,training,132,←,left,←,0.7437506000278518,True,18
X038M50,412,experiment,180,↑,up,↑,1.606374999973923,True,18
X038M50,413,experiment,132,↓,up,↑,0.9576816000044346,False,18
X038M50,414,experiment,84,↓,left,←,0.5488903999794275,False,18
X038M50,415,experiment,72,→,down,↓,0.8832014000508934,False,18
X038M50,416,experiment,36,←,up,↑,0.8191211000084877,False,18
X038M50,417,experiment,72,→,up,↑,0.5925086999777704,False,18
X038M50,418,experiment,120,↓,up,↑,0.8447649999288842,False,18
X038M50,419,experiment,108,→,right,→,0.7118686001049355,True,18
X038M50,420,experiment,60,↓,down,↓,0.6215523000573739,True,18
X038M50,421,experiment,72,←,left,←,0.7868408000795171,True,18
X038M50,422,experiment,144,↑,right,→,0.8315443999599665,False,18
X038M50,423,experiment,24,↓,down,↓,0.9205446999985725,True,18
X038M50,424,experiment,120,→,right,→,0.9676210000179708,True,18
X038M50,425,experiment,60,↑,right,→,0.8190726999891922,False,18
X038M50,426,experiment,48,←,right,→,0.6543384999968112,False,18
X038M50,427,experiment,168,→,right,→,0.8548532000277191,True,18
X038M50,428,experiment,168,→,right,→,0.6884886999614537,True,18
X038M50,429,experiment,168,→,right,→,0.6281999000348151,True,18
X038M50,430,experiment,84,→,right,→,1.1347429999150336,True,18
X038M50,431,experiment,108,←,right,→,0.5808004999998957,False,18
X038M50,432,experiment,24,↑,up,↑,0.9877416000235826,True,18
X038M50,433,experiment,144,→,right,→,0.6753695999504998,True,18
X038M50,434,experiment,48,↓,down,↓,1.0077866000356153,True,18
X038M50,435,experiment,132,→,right,→,0.7078103999374434,True,18
X038M50,436,experiment,156,←,left,←,0.6913967999862507,True,18
X038M50,437,experiment,84,←,right,→,0.8826800999231637,False,18
X038M50,438,experiment,84,↑,up,↑,0.750277700019069,True,18
X038M50,439,experiment,12,↑,no_key,no_letter,-1.0,False,18
X038M50,440,experiment,156,→,right,→,0.825570399989374,True,18
X038M50,441,experiment,180,→,right,→,0.7914449000963941,True,18
X038M50,442,experiment,60,←,left,←,0.6320042000152171,True,18
X038M50,443,experiment,60,↓,right,→,1.9072968000546098,False,18
X038M50,444,experiment,108,→,right,→,0.6505924999946728,True,18
X038M50,445,experiment,144,←,left,←,1.0932631999021396,True,18
X038M50,446,experiment,24,→,right,→,0.5957694000098854,True,18
X038M50,447,experiment,108,←,left,←,0.7290710000088438,True,18
X038M50,448,experiment,36,←,left,←,0.4991052000550553,True,18
X038M50,449,experiment,144,←,right,→,0.8354047000175342,False,18
X038M50,450,experiment,48,↓,down,↓,0.9780417999718338,True,18
X038M50,451,experiment,96,→,up,↑,1.0787599999457598,False,18
X038M50,452,experiment,36,←,down,↓,0.757376900059171,False,18
X038M50,453,experiment,72,↑,right,→,0.8839660999365151,False,18
X038M50,454,experiment,12,→,right,→,0.7895749000599608,True,18
X038M50,455,experiment,132,↓,down,↓,0.8868709999369457,True,18
X038M50,456,experiment,156,←,left,←,0.924182299990207,True,18
X038M50,457,experiment,12,↑,up,↑,0.7045883999671787,True,18
X038M50,458,experiment,12,↑,up,↑,0.8142953000497073,True,18
X038M50,459,experiment,120,→,down,↓,1.3147167999995872,False,18
X038M50,460,experiment,48,↑,right,→,1.192929899902083,False,18
X038M50,461,experiment,156,↓,up,↑,0.9252968999790028,False,18
X038M50,462,experiment,168,→,right,→,0.7194239000091329,True,18
X038M50,463,experiment,180,↓,right,→,0.9005570000736043,False,18
X038M50,464,experiment,120,↓,down,↓,0.8357290000421926,True,18
X038M50,465,experiment,36,←,right,→,1.0689132999395952,False,18
X038M50,466,experiment,132,→,right,→,0.5623990000458434,True,18
X038M50,467,experiment,180,→,down,↓,0.9573747999966145,False,18
X038M50,468,experiment,96,↓,no_key,no_letter,-1.0,False,18
X038M50,469,experiment,24,←,left,←,0.631208699895069,True,18
X038M50,470,experiment,96,←,right,→,0.6454743000213057,False,18
X038M50,471,experiment,96,←,up,↑,0.7495300999144092,False,18
X038M50,472,training,180,↑,left,←,1.0197588000446558,False,18
X038M50,473,training,144,←,left,←,1.141304099932313,True,18
X038M50,474,training,168,←,right,→,0.915126399951987,False,18
X038M50,475,experiment,156,↑,right,→,0.5564860000740737,False,18
X038M50,476,experiment,36,↑,up,↑,1.0077444000635296,True,18
X038M50,477,experiment,120,↓,down,↓,0.8355509999673814,True,18
X038M50,478,experiment,24,↓,up,↑,0.7043828000314534,False,18
X038M50,479,experiment,108,↑,down,↓,0.9056737999198958,False,18
X038M50,480,experiment,144,←,left,←,0.8974399000871927,True,18
X038M50,481,experiment,12,←,left,←,0.7466507999924943,True,18
X038M50,482,experiment,120,←,left,←,0.47654529998544604,True,18
X038M50,483,experiment,12,↓,no_key,no_letter,-1.0,False,18
X038M50,484,experiment,132,↑,down,↓,0.8719731000019237,False,18
X038M50,485,experiment,144,←,up,↑,0.5451056000310928,False,18
X038M50,486,experiment,96,↑,up,↑,0.9547706000739709,True,18
X038M50,487,experiment,156,↓,down,↓,0.7350242999382317,True,18
X038M50,488,experiment,132,↑,up,↑,0.8711006999947131,True,18
X038M50,489,experiment,96,↑,up,↑,0.7277418000157923,True,18
X038M50,490,experiment,168,↑,up,↑,0.5036431000335142,True,18
X038M50,491,experiment,180,↓,down,↓,0.7464230000041425,True,18
X038M50,492,experiment,156,→,right,→,1.1492350000189617,True,18
X038M50,493,experiment,120,→,right,→,1.063542600022629,True,18
X038M50,494,experiment,60,→,right,→,0.6375300999497995,True,18
X038M50,495,experiment,72,→,right,→,1.1374336999142542,True,18
X038M50,496,experiment,180,→,no_key,no_letter,-1.0,False,18
X038M50,497,experiment,132,↓,right,→,1.0676602000603452,False,18
X038M50,498,experiment,84,↑,up,↑,0.7478829000610858,True,18
X038M50,499,experiment,36,←,no_key,no_letter,-1.0,False,18
X038M50,500,experiment,168,↓,right,→,0.7761886999942362,False,18
X038M50,501,experiment,144,↑,right,→,0.8685841000406072,False,18
X038M50,502,experiment,36,→,right,→,1.0440026000142097,True,18
X038M50,503,experiment,84,↓,down,↓,1.1026527000358328,True,18
X038M50,504,experiment,72,←,left,←,0.9740270000183955,True,18
X038M50,505,experiment,72,←,right,→,1.1556855000089854,False,18
X038M50,506,experiment,180,↑,up,↑,0.7612681000027806,True,18
X038M50,507,experiment,168,↓,down,↓,1.034331600065343,True,18
X038M50,508,experiment,24,↓,up,↑,1.3952561999903992,False,18
X038M50,509,experiment,132,←,right,→,0.9968663000036031,False,18
X038M50,510,experiment,180,←,left,←,1.4919137998949736,True,18
X038M50,511,experiment,48,↓,no_key,no_letter,-1.0,False,18
X038M50,512,experiment,108,↓,down,↓,1.553262099972926,True,18
X038M50,513,experiment,48,↑,up,↑,1.0896694000111893,True,18
X038M50,514,experiment,12,↑,no_key,no_letter,-1.0,False,18
X038M50,515,experiment,48,↑,up,↑,0.5456608000677079,True,18
X038M50,516,experiment,12,↑,up,↑,1.9150249999947846,True,18
X038M50,517,experiment,24,↓,down,↓,0.9430656000040472,True,18
X038M50,518,experiment,120,→,up,↑,0.9175095000537112,False,18
X038M50,519,experiment,156,←,up,↑,0.6425855000270531,False,18
X038M50,520,experiment,96,↓,down,↓,0.8810289999237284,True,18
X038M50,521,experiment,48,↑,no_key,no_letter,-1.0,False,18
X038M50,522,experiment,84,↑,up,↑,0.8924122999887913,True,18
X038M50,523,experiment,168,→,right,→,0.9828511000378057,True,18
X038M50,524,experiment,60,↑,right,→,1.2415114999748766,False,18
X038M50,525,experiment,108,↓,right,→,0.9212190000107512,False,18
X038M50,526,experiment,24,←,right,→,0.9820797999855131,False,18
X038M50,527,experiment,36,↑,left,←,1.1188690999988467,False,18
X038M50,528,experiment,84,↑,right,→,1.0156840999843553,False,18
X038M50,529,experiment,72,↑,up,↑,0.7695043999701738,True,18
X038M50,530,experiment,60,←,right,→,1.5282833999954164,False,18
X038M50,531,experiment,96,↑,up,↑,0.7265630000038072,True,18
X038M50,532,experiment,144,←,right,→,0.7314550000010058,False,18
X038M50,533,experiment,60,←,left,←,0.9203361000400037,True,18
X038M50,534,experiment,108,↓,down,↓,0.8774431999772787,True,18
X038M50,535,training,180,↓,left,←,1.035561400000006,False,18
X038M50,536,training,120,↓,down,↓,0.9729244000045583,True,18
X038M50,537,training,168,↓,down,↓,0.8626437999773771,True,18
X038M50,538,experiment,12,←,left,←,0.926088499953039,True,18
X038M50,539,experiment,96,→,right,→,0.7120150000555441,True,18
X038M50,540,experiment,72,↓,right,→,0.6301289000548422,False,18
X038M50,541,experiment,108,↓,right,→,0.4691530999261886,False,18
X038M50,542,experiment,168,←,left,←,0.9042137000942603,True,18
X038M50,543,experiment,132,→,up,↑,0.9866626999573782,False,18
X038M50,544,experiment,36,←,down,↓,1.173681000014767,False,18
X038M50,545,experiment,156,↑,right,→,1.0234425000380725,False,18
X038M50,546,experiment,72,←,left,←,0.6280316999182105,True,18
X038M50,547,experiment,144,↓,no_key,no_letter,-1.0,False,18
X038M50,548,experiment,156,←,right,→,0.6545818999875337,False,18
X038M50,549,experiment,96,→,right,→,0.7381315999664366,True,18
X038M50,550,experiment,120,→,right,→,0.5265463000396267,True,18
X038M50,551,experiment,12,↓,right,→,0.9362767999991775,False,18
X038M50,552,experiment,120,→,left,←,1.085297800018452,False,18
X038M50,553,experiment,48,↑,right,→,1.7834585000528023,False,18
X038M50,554,experiment,132,→,right,→,0.6479620999889448,True,18
X038M50,555,experiment,48,↓,down,↓,1.155351800029166,True,18
X038M50,556,experiment,36,←,right,→,1.0056617999216542,False,18
X038M50,557,experiment,60,→,right,→,0.6595042999833822,True,18
X038M50,558,experiment,84,←,right,→,0.563107299967669,False,18
X038M50,559,experiment,156,↑,up,↑,0.8055992999579757,True,18
X038M50,560,experiment,144,↓,down,↓,0.8864156000781804,True,18
X038M50,561,experiment,24,↑,up,↑,0.6116623000707477,True,18
X038M50,562,experiment,132,↓,down,↓,0.8396158000687137,True,18
X038M50,563,experiment,180,↑,up,↑,0.656380100059323,True,18
X038M50,564,experiment,156,→,down,↓,1.0744307999266312,False,18
X038M50,565,experiment,48,←,left,←,1.0749815999297425,True,18
X038M50,566,experiment,120,→,right,→,0.712669700034894,True,18
X038M50,567,experiment,84,↓,down,↓,1.168695900007151,True,18
X038M50,568,experiment,96,→,right,→,0.6729056999320164,True,18
X038M50,569,experiment,24,↑,left,←,0.6275842000031844,False,18
X038M50,570,experiment,144,↑,right,→,0.8465497000142932,False,18
X038M50,571,experiment,60,↓,down,↓,0.7296636999817565,True,18
X038M50,572,experiment,180,↓,down,↓,0.4890200999798253,True,18
X038M50,573,experiment,132,↑,right,→,0.6289894999936223,False,18
X038M50,574,experiment,108,↑,up,↑,0.8918630999978632,True,18
X038M50,575,experiment,108,←,left,←,0.7181816999800503,True,18
X038M50,576,experiment,36,→,down,↓,1.030715400003828,False,18
X038M50,577,experiment,60,→,right,→,0.9285544999875128,True,18
X038M50,578,experiment,168,→,right,→,0.6766549999592826,True,18
X038M50,579,experiment,84,↓,right,→,0.6273691999958828,False,18
X038M50,580,experiment,120,↓,up,↑,1.4713614999782294,False,18
X038M50,581,experiment,24,↓,right,→,1.6906055000144988,False,18
X038M50,582,experiment,12,↓,right,→,0.6208309999201447,False,18
X038M50,583,experiment,72,↓,down,↓,1.0002261999761686,True,18
X038M50,584,experiment,168,←,left,←,1.0719082000432536,True,18
X038M50,585,experiment,144,←,left,←,0.652578099980019,True,18
X038M50,586,experiment,108,←,left,←,0.6199274000246078,True,18
X038M50,587,experiment,60,↑,right,→,0.674627700005658,False,18
X038M50,588,experiment,84,↑,right,→,1.2026166999712586,False,18
X038M50,589,experiment,180,←,right,→,0.9918128999415785,False,18
X038M50,590,experiment,12,←,right,→,0.5616044999333099,False,18
X038M50,591,experiment,36,→,right,→,0.36759290006011724,True,18
X038M50,592,experiment,24,←,left,←,0.9973385999910533,True,18
X038M50,593,experiment,180,↑,up,↑,1.1726427000248805,True,18
X038M50,594,experiment,48,→,right,→,0.882035099901259,True,18
X038M50,595,experiment,96,↑,right,→,0.9264920999994501,False,18
X038M50,596,experiment,168,↑,right,→,0.8829975998960435,False,18
X038M50,597,experiment,72,←,left,←,0.9127689000451937,True,18
X038M50,598,training,108,↑,right,→,0.868700799997896,False,18
X038M50,599,training,36,←,left,←,0.7454833000665531,True,18
X038M50,600,training,72,→,right,→,0.5650003999471664,True,18
X038M50,601,experiment,168,↓,right,→,0.5619139999616891,False,18
X038M50,602,experiment,156,↓,left,←,0.8872783000115305,False,18
X038M50,603,experiment,96,↑,right,→,0.6098792999982834,False,18
X038M50,604,experiment,12,←,left,←,0.6772801999468356,True,18
X038M50,605,experiment,168,↓,left,←,0.7034994000568986,False,18
X038M50,606,experiment,168,↑,up,↑,1.027724599931389,True,18
X038M50,607,experiment,120,↑,right,→,0.9139748000307009,False,18
X038M50,608,experiment,180,→,right,→,0.5484494999982417,True,18
X038M50,609,experiment,12,↓,down,↓,1.0586347000207752,True,18
X038M50,610,experiment,120,→,right,→,0.7264617000473663,True,18
X038M50,611,experiment,72,↓,down,↓,0.6136194000719115,True,18
X038M50,612,experiment,180,↑,down,↓,1.271858200081624,False,18
X038M50,613,experiment,84,→,right,→,0.8034177999943495,True,18
X038M50,614,experiment,156,←,right,→,0.8906374999787658,False,18
X038M50,615,experiment,84,↑,up,↑,0.643167799920775,True,18
X038M50,616,experiment,48,↓,no_key,no_letter,-1.0,False,18
X038M50,617,experiment,144,↑,right,→,0.7195344000356272,False,18
X038M50,618,experiment,168,←,left,←,0.8707637999905273,True,18
X038M50,619,experiment,24,→,right,→,1.1829504000488669,True,18
X038M50,620,experiment,96,←,right,→,1.126987099996768,False,18
X038M50,621,experiment,132,↑,right,→,0.6979657000629231,False,18
X038M50,622,experiment,24,→,right,→,0.6964822999434546,True,18
X038M50,623,experiment,132,↓,down,↓,1.1860849000513554,True,18
X038M50,624,experiment,84,↓,down,↓,1.0152429000008851,True,18
X038M50,625,experiment,108,↓,down,↓,0.7827750999713317,True,18
X038M50,626,experiment,144,↑,right,→,0.7151552999857813,False,18
X038M50,627,experiment,24,→,right,→,0.6197080999845639,True,18
X038M50,628,experiment,36,↓,right,→,1.0825184000423178,False,18
X038M50,629,experiment,96,↓,down,↓,0.8061221999814734,True,18
X038M50,630,experiment,72,↑,up,↑,1.3249996999511495,True,18
X038M50,631,experiment,180,←,right,→,0.8295417999615893,False,18
X038M50,632,experiment,84,→,right,→,0.7251656000735238,True,18
X038M50,633,experiment,144,↓,down,↓,1.0047372999833897,True,18
X038M50,634,experiment,156,↓,down,↓,0.757959800073877,True,18
X038M50,635,experiment,120,↓,down,↓,0.5934607000090182,True,18
X038M50,636,experiment,132,→,right,→,0.7445415999973193,True,18
X038M50,637,experiment,132,↑,up,↑,0.8546347999945283,True,18
X038M50,638,experiment,60,→,no_key,no_letter,-1.0,False,18
X038M50,639,experiment,60,←,right,→,0.9608245000708848,False,18
X038M50,640,experiment,96,→,right,→,0.6723785999929532,True,18
X038M50,641,experiment,48,→,right,→,0.996784699964337,True,18
X038M50,642,experiment,48,↑,up,↑,0.8996850000694394,True,18
X038M50,643,experiment,60,←,left,←,0.6395571000175551,True,18
X038M50,644,experiment,12,←,right,→,0.9415657999925315,False,18
X038M50,645,experiment,108,↓,down,↓,1.0376512999646366,True,18
X038M50,646,experiment,12,→,no_key,no_letter,-1.0,False,18
X038M50,647,experiment,72,→,right,→,0.5379998000571504,True,18
X038M50,648,experiment,108,→,right,→,0.9232196999946609,True,18
X038M50,649,experiment,36,←,right,→,0.6349222999997437,False,18
X038M50,650,experiment,48,↑,right,→,0.5893969000317156,False,18
X038M50,651,experiment,120,↓,right,→,0.6619604000588879,False,18
X038M50,652,experiment,72,←,right,→,0.825579599943012,False,18
X038M50,653,experiment,24,→,right,→,0.7365231000585482,True,18
X038M50,654,experiment,60,↓,down,↓,1.0179386000381783,True,18
X038M50,655,experiment,144,↓,right,→,0.6187637000111863,False,18
X038M50,656,experiment,36,↑,right,→,0.649653899949044,False,18
X038M50,657,experiment,36,↑,up,↑,0.8103915000101551,True,18
X038M50,658,experiment,108,→,right,→,0.6573543000267819,True,18
X038M50,659,experiment,156,↓,down,↓,0.636303500039503,True,18
X038M50,660,experiment,180,→,right,→,0.6562206000089645,True,18
X038M50,661,training,108,↑,no_key,no_letter,-1.0,False,18
X038M50,662,training,24,↓,down,↓,1.1160113000078127,True,18
X038M50,663,training,24,→,right,→,0.756587199983187,True,18
X038M50,664,experiment,144,↓,down,↓,0.7335300999693573,True,18
X038M50,665,experiment,96,↑,right,→,0.743633099948056,False,18
X038M50,666,experiment,120,→,right,→,0.7407983000157401,True,18
X038M50,667,experiment,12,↑,up,↑,0.8588831999804825,True,18
X038M50,668,experiment,36,↓,right,→,0.8728336000349373,False,18
X038M50,669,experiment,60,↓,right,→,0.5799451000057161,False,18
X038M50,670,experiment,36,↑,right,→,0.5478714999044314,False,18
X038M50,671,experiment,96,↑,down,↓,1.1432512999745086,False,18
X038M50,672,experiment,36,↑,up,↑,0.7016892998944968,True,18
X038M50,673,experiment,36,↓,down,↓,0.7363784000044689,True,18
X038M50,674,experiment,24,←,right,→,0.9758075999561697,False,18
X038M50,675,experiment,144,→,right,→,0.6396037000231445,True,18
X038M50,676,experiment,24,↓,down,↓,0.8055065999506041,True,18
X038M50,677,experiment,60,↑,up,↑,0.5900184999918565,True,18
X038M50,678,experiment,156,→,right,→,0.814824300003238,True,18
X038M50,679,experiment,96,↑,up,↑,0.7107388000003994,True,18
X038M50,680,experiment,24,←,left,←,1.168048300081864,True,18
X038M50,681,experiment,48,↓,up,↑,1.1477404000470415,False,18
X038M50,682,experiment,48,↓,right,→,0.6715232999995351,False,18
X038M50,683,experiment,84,↓,right,→,0.5789240999147296,False,18
X038M50,684,experiment,180,←,right,→,0.6559258999768645,False,18
X038M50,685,experiment,144,→,no_key,no_letter,-1.0,False,18
X038M50,686,experiment,48,→,right,→,0.787580500007607,True,18
X038M50,687,experiment,144,→,right,→,0.8131872999947518,True,18
X038M50,688,experiment,24,←,left,←,0.610293100005947,True,18
X038M50,689,experiment,156,←,right,→,0.7334988999646157,False,18
X038M50,690,experiment,132,←,left,←,0.7082338000182062,True,18
X038M50,691,experiment,60,↑,right,→,0.6227143000578508,False,18
X038M50,692,experiment,180,↑,no_key,no_letter,-1.0,False,18
X038M50,693,experiment,108,↑,up,↑,0.6824340999592096,True,18
X038M50,694,experiment,108,→,right,→,0.5176993999630213,True,18
X038M50,695,experiment,72,↓,left,←,0.7379758000606671,False,18
X038M50,696,experiment,12,↑,right,→,1.0187687000725418,False,18
X038M50,697,experiment,84,↑,up,↑,0.8225548000773415,True,18
X038M50,698,experiment,168,↑,up,↑,0.6149352999636903,True,18
X038M50,699,experiment,132,↓,right,→,0.6457953999051824,False,18
X038M50,700,experiment,156,↓,down,↓,0.661529399920255,True,18
X038M50,701,experiment,108,←,right,→,0.6480692999903113,False,18
X038M50,702,experiment,120,↓,right,→,0.6370360000291839,False,18
X038M50,703,experiment,96,→,up,↑,0.6694486000342295,False,18
X038M50,704,experiment,84,↓,down,↓,0.7270442999433726,True,18
X038M50,705,experiment,120,→,right,→,0.8045184999937192,True,18
X038M50,706,experiment,132,→,right,→,0.7825301999691874,True,18
X038M50,707,experiment,72,↑,up,↑,0.7606622000457719,True,18
X038M50,708,experiment,60,↓,right,→,1.132407799945213,False,18
X038M50,709,experiment,156,↓,right,→,0.6237394999479875,False,18
X038M50,710,experiment,108,←,left,←,1.133794500026852,True,18
X038M50,711,experiment,120,↓,down,↓,0.8182353000156581,True,18
X038M50,712,experiment,72,↑,up,↑,0.8339037999976426,True,18
X038M50,713,experiment,132,↑,up,↑,0.7789228999754414,True,18
X038M50,714,experiment,84,→,right,→,0.8128120000474155,True,18
X038M50,715,experiment,180,←,left,←,0.8607331999810413,True,18
X038M50,716,experiment,48,→,left,←,0.8515688999323174,False,18
X038M50,717,experiment,168,↓,down,↓,0.9553197999484837,True,18
X038M50,718,experiment,180,↑,right,→,0.9199405999388546,False,18
X038M50,719,experiment,168,↓,right,→,0.3671539999777451,False,18
X038M50,720,experiment,168,↑,down,↓,1.2138837999664247,False,18
X038M50,721,experiment,12,↓,down,↓,0.8876916000153869,True,18
X038M50,722,experiment,12,↓,up,↑,0.955170699977316,False,18
X038M50,723,experiment,72,↓,right,→,0.9034906999440864,False,18
X038M50,724,training,132,→,right,→,0.7879937998950481,True,18
X038M50,725,training,84,→,right,→,0.5200751998927444,True,18
X038M50,726,training,96,↑,left,←,0.8677398998988792,False,18
X038M50,727,experiment,36,→,left,←,0.7213946999981999,False,18
X038M50,728,experiment,144,↓,down,↓,1.2381460999604315,True,18
X038M50,729,experiment,60,↑,right,→,0.8101558999624103,False,18
X038M50,730,experiment,108,↑,up,↑,0.965427799965255,True,18
X038M50,731,experiment,12,↑,up,↑,0.8129897000035271,True,18
X038M50,732,experiment,36,↑,up,↑,1.2888564999448135,True,18
X038M50,733,experiment,84,←,right,→,0.7284587000031024,False,18
X038M50,734,experiment,120,↑,up,↑,0.5275052000069991,True,18
X038M50,735,experiment,120,↑,up,↑,0.7315181000158191,True,18
X038M50,736,experiment,72,←,left,←,0.8907295999815688,True,18
X038M50,737,experiment,24,↓,right,→,0.8717334000393748,False,18
X038M50,738,experiment,132,↓,down,↓,0.9657610999420285,True,18
X038M50,739,experiment,60,→,right,→,0.7641417999984697,True,18
X038M50,740,experiment,132,←,right,→,0.8681419999338686,False,18
X038M50,741,experiment,132,↓,down,↓,0.9706262999679893,True,18
X038M50,742,experiment,12,↓,down,↓,0.7361303999787197,True,18
X038M50,743,experiment,132,↑,up,↑,0.8356488000135869,True,18
X038M50,744,experiment,120,←,left,←,0.962595900055021,True,18
X038M50,745,experiment,84,↑,up,↑,0.6461817999370396,True,18
X038M50,746,experiment,60,→,right,→,0.771054400014691,True,18
X038M50,747,experiment,168,↑,right,→,0.7661782000213861,False,18
X038M50,748,experiment,48,↓,left,←,0.9468573000049219,False,18
X038M50,749,experiment,180,→,right,→,0.7872863999800757,True,18
X038M50,750,experiment,96,←,right,→,0.4898797000059858,False,18
X038M50,751,experiment,108,↑,up,↑,0.6797421999508515,True,18
X038M50,752,experiment,72,←,right,→,0.8143931999802589,False,18
X038M50,753,experiment,96,↓,down,↓,0.9227243000641465,True,18
X038M50,754,experiment,144,↑,up,↑,0.7812017999822274,True,18
X038M50,755,experiment,36,←,right,→,0.7013846999034286,False,18
X038M50,756,experiment,48,→,right,→,0.6284361999714747,True,18
X038M50,757,experiment,36,↓,up,↑,1.0339583999011666,False,18
X038M50,758,experiment,156,↓,right,→,0.49101549992337823,False,18
X038M50,759,experiment,156,↓,right,→,0.49406040005851537,False,18
X038M50,760,experiment,84,←,up,↑,1.0053642999846488,False,18
X038M50,761,experiment,180,↓,right,→,0.4989920000080019,False,18
X038M50,762,experiment,156,→,right,→,0.49133610003627837,True,18
X038M50,763,experiment,108,→,up,↑,0.8820425999583676,False,18
X038M50,764,experiment,168,←,left,←,0.8624072000384331,True,18
X038M50,765,experiment,96,→,right,→,0.6967416000552475,True,18
X038M50,766,experiment,180,↑,up,↑,0.7829119999660179,True,18
X038M50,767,experiment,168,↓,right,→,0.6213495000265539,False,18
X038M50,768,experiment,144,↑,up,↑,0.6163316000020131,True,18
X038M50,769,experiment,72,→,right,→,0.7858275000471622,True,18
X038M50,770,experiment,108,↑,up,↑,0.8620053000049666,True,18
X038M50,771,experiment,48,↓,up,↑,0.6216647999826819,False,18
X038M50,772,experiment,180,→,right,→,0.909102899953723,True,18
X038M50,773,experiment,24,↓,up,↑,0.7505134999519214,False,18
X038M50,774,experiment,12,→,right,→,0.7762867999263108,True,18
X038M50,775,experiment,144,→,up,↑,0.9691999999340624,False,18
X038M50,776,experiment,168,↓,down,↓,1.1378927000332624,True,18
X038M50,777,experiment,84,↑,right,→,1.0843165999976918,False,18
X038M50,778,experiment,24,↓,right,→,0.6390702000353485,False,18
X038M50,779,experiment,156,←,left,←,0.9075322999851778,True,18
X038M50,780,experiment,12,↓,right,→,0.6829790999181569,False,18
X038M50,781,experiment,60,←,left,←,1.0309214999433607,True,18
X038M50,782,experiment,48,←,left,←,0.9099434999516234,True,18
X038M50,783,experiment,24,↑,up,↑,0.7758045999798924,True,18
X038M50,784,experiment,120,→,right,→,0.845942199928686,True,18
X038M50,785,experiment,72,←,right,→,0.9542693999828771,False,18
X038M50,786,experiment,96,↑,up,↑,0.7301136000314727,True,18
X038M50,787,training,168,↓,down,↓,0.9589791999896988,True,18
X038M50,788,training,168,↑,up,↑,0.9482696999330074,True,18
X038M50,789,training,12,←,no_key,no_letter,-1.0,False,18
X038M50,790,experiment,48,↓,down,↓,0.8602120999712497,True,18
X038M50,791,experiment,60,→,no_key,no_letter,-1.0,False,18
X038M50,792,experiment,108,↓,down,↓,0.8101517000468448,True,18
X038M50,793,experiment,120,←,up,↑,0.9273551000514999,False,18
X038M50,794,experiment,96,↑,down,↓,0.9379043999360874,False,18
X038M50,795,experiment,168,→,right,→,0.6767999000148848,True,18
X038M50,796,experiment,168,←,left,←,0.8540023999521509,True,18
X038M50,797,experiment,144,↑,up,↑,0.9989597999956459,True,18
X038M50,798,experiment,96,←,right,→,1.201421600067988,False,18
X038M50,799,experiment,108,→,right,→,0.5443497999804094,True,18
X038M50,800,experiment,72,→,right,→,0.8021851000376046,True,18
X038M50,801,experiment,132,←,right,→,0.609783099964261,False,18
X038M50,802,experiment,48,←,left,←,0.6030793000245467,True,18
X038M50,803,experiment,12,←,right,→,0.9206117999274284,False,18
X038M50,804,experiment,24,↑,right,→,0.798484000028111,False,18
X038M50,805,experiment,144,↓,down,↓,1.068997099995613,True,18
X038M50,806,experiment,60,↑,up,↑,1.00218589999713,True,18
X038M50,807,experiment,12,→,down,↓,1.388593400013633,False,18
X038M50,808,experiment,120,←,right,→,0.7876131000230089,False,18
X038M50,809,experiment,180,→,left,←,0.7248659000033513,False,18
X038M50,810,experiment,180,↑,up,↑,0.6677475000033155,True,18
X038M50,811,experiment,156,→,right,→,0.6989559999201447,True,18
X038M50,812,experiment,120,←,left,←,0.7030989999184385,True,18
X038M50,813,experiment,120,↓,down,↓,0.6831055999500677,True,18
X038M50,814,experiment,48,←,left,←,0.6410388000076637,True,18
X038M50,815,experiment,168,→,right,→,0.800338500062935,True,18
X038M50,816,experiment,180,→,right,→,0.7169991000555456,True,18
X038M50,817,experiment,84,↑,up,↑,0.7072680999990553,True,18
X038M50,818,experiment,144,→,right,→,0.6655441999901086,True,18
X038M50,819,experiment,168,↓,right,→,0.9484123000875115,False,18
X038M50,820,experiment,96,←,no_key,no_letter,-1.0,False,18
X038M50,821,experiment,24,→,right,→,1.2045067999279127,True,18
X038M50,822,experiment,156,↓,right,→,0.8667634999146685,False,18
X038M50,823,experiment,72,↑,up,↑,0.5544450000161305,True,18
X038M50,824,experiment,36,↓,right,→,0.9673827999504283,False,18
X038M50,825,experiment,24,↓,right,→,0.95175929996185,False,18
X038M50,826,experiment,144,↑,up,↑,0.7442452000686899,True,18
X038M50,827,experiment,12,←,left,←,0.6874872000189498,True,18
X038M50,828,experiment,36,↑,up,↑,0.5701904000015929,True,18
X038M50,829,experiment,132,↑,right,→,0.5342772000003606,False,18
X038M50,830,experiment,156,→,left,←,0.7873822000110522,False,18
X038M50,831,experiment,156,←,right,→,0.6158280000090599,False,18
X038M50,832,experiment,72,→,right,→,0.6052358999149874,True,18
X038M50,833,experiment,108,←,left,←,0.6050883999560028,True,18
X038M50,834,experiment,24,↓,right,→,1.0836897999979556,False,18
X038M50,835,experiment,84,←,left,←,0.6471720000263304,True,18
X038M50,836,experiment,108,→,right,→,0.6827194000361487,True,18
X038M50,837,experiment,72,↓,right,→,0.5300366000737995,False,18
X038M50,838,experiment,96,↓,right,→,0.523603800102137,False,18
X038M50,839,experiment,132,→,right,→,0.6680900000501424,True,18
X038M50,840,experiment,84,←,left,←,0.708240200066939,True,18
X038M50,841,experiment,48,→,right,→,0.486586399958469,True,18
X038M50,842,experiment,36,→,right,→,0.8802593000000343,True,18
X038M50,843,experiment,12,←,left,←,0.556427099974826,True,18
X038M50,844,experiment,60,↓,right,→,0.9416769000235945,False,18
X038M50,845,experiment,180,←,left,←,0.52968839998357,True,18
X038M50,846,experiment,60,←,left,←,0.5932201999239624,True,18
X038M50,847,experiment,84,→,right,→,0.6253028999781236,True,18
X038M50,848,experiment,36,←,left,←,0.5783625000622123,True,18
X038M50,849,experiment,132,→,right,→,0.6805050999391824,True,18
