PART_ID,Trial_no,Trial_type,PDI,Stim_letter,Key_pressed,letter_choose,Rt,Corr,Stimulus Time
X039M35,1,training,10,↑,right,→,1.2075499999991735,False,30
X039M35,2,training,10,↑,left,←,0.8512001000017335,False,30
X039M35,3,training,10,←,no_key,no_letter,-1.0,False,30
X039M35,4,training,10,↓,left,←,1.0868756000018038,False,30
X039M35,5,training,10,↑,no_key,no_letter,-1.0,False,30
X039M35,6,training,10,↓,right,→,1.1531809000007343,False,30
X039M35,7,training,10,→,right,→,0.7290107000007993,True,30
X039M35,8,training,10,→,left,←,0.6872915999992983,False,30
X039M35,9,training,10,↓,left,←,1.3058043999990332,False,30
X039M35,10,training,10,←,left,←,0.7826968000008492,True,30
X039M35,11,training,10,↓,left,←,1.1117320999983349,False,30
X039M35,12,training,10,↑,right,→,0.8185750999982702,False,30
X039M35,13,training,10,→,left,←,1.5786393000016687,False,30
X039M35,14,training,10,↑,right,→,1.1961922999980743,False,30
X039M35,15,training,10,←,no_key,no_letter,-1.0,False,30
X039M35,16,training,10,↑,up,↑,1.400527099998726,True,30
X039M35,17,training,10,→,right,→,0.9031661999979406,True,30
X039M35,18,training,10,↑,right,→,1.3761231999997108,False,30
X039M35,19,training,10,→,no_key,no_letter,-1.0,False,30
X039M35,20,training,10,↓,no_key,no_letter,-1.0,False,30
X039M35,21,training,10,↓,up,↑,0.8499794000017573,False,18
X039M35,22,training,10,←,left,←,0.8755220000020927,True,18
X039M35,23,training,10,↑,down,↓,1.2310295999996015,False,18
X039M35,24,training,10,↓,down,↓,0.8337270000010903,True,18
X039M35,25,training,10,↓,up,↑,0.8949632000003476,False,18
X039M35,26,training,10,↑,up,↑,0.6155949999993027,True,18
X039M35,27,training,10,←,right,→,0.9488844000006793,False,18
X039M35,28,training,10,→,right,→,0.8255153999998583,True,18
X039M35,29,training,10,↑,up,↑,0.7085831999975198,True,18
X039M35,30,training,10,↓,left,←,1.0382262999992236,False,18
X039M35,31,training,48,←,right,→,0.8403075000023819,False,15
X039M35,32,training,72,←,left,←,0.6924718000009307,True,15
X039M35,33,training,180,↑,up,↑,0.8364781999989646,True,15
X039M35,34,experiment,36,←,left,←,0.7427861000032863,True,15
X039M35,35,experiment,132,→,right,→,0.7082235999987461,True,15
X039M35,36,experiment,96,↑,left,←,0.8192266000005475,False,15
X039M35,37,experiment,72,↓,down,↓,0.705025499999465,True,15
X039M35,38,experiment,96,←,right,→,0.8610779999980878,False,15
X039M35,39,experiment,24,↑,up,↑,1.0719686999982514,True,15
X039M35,40,experiment,72,↓,left,←,0.7937898000018322,False,15
X039M35,41,experiment,12,←,right,→,1.3246439000031387,False,15
X039M35,42,experiment,84,↓,down,↓,0.8216452999986359,True,15
X039M35,43,experiment,144,↓,down,↓,0.8249834000016563,True,15
X039M35,44,experiment,132,↓,down,↓,0.7823465000001306,True,15
X039M35,45,experiment,84,←,right,→,0.6144144000027154,False,15
X039M35,46,experiment,48,→,left,←,0.6871215999999549,False,15
X039M35,47,experiment,108,←,left,←,0.7466461000003619,True,15
X039M35,48,experiment,156,←,left,←,0.720886299997801,True,15
X039M35,49,experiment,156,↑,up,↑,0.8238812000017788,True,15
X039M35,50,experiment,60,↑,up,↑,0.672294600000896,True,15
X039M35,51,experiment,168,→,right,→,0.7965748999995412,True,15
X039M35,52,experiment,48,←,right,→,0.8876696000006632,False,15
X039M35,53,experiment,36,→,no_key,no_letter,-1.0,False,15
X039M35,54,experiment,36,←,left,←,0.890129600000364,True,15
X039M35,55,experiment,144,←,right,→,0.8413010000003851,False,15
X039M35,56,experiment,60,↑,up,↑,0.6037666000011086,True,15
X039M35,57,experiment,132,←,right,→,0.5954756999999518,False,15
X039M35,58,experiment,36,←,left,←,0.6451205999983358,True,15
X039M35,59,experiment,72,↑,up,↑,0.5375480000002426,True,15
X039M35,60,experiment,168,←,left,←,1.2331337000032363,True,15
X039M35,61,experiment,72,→,right,→,0.6835403999975824,True,15
X039M35,62,experiment,180,↑,up,↑,0.6945119000010891,True,15
X039M35,63,experiment,168,↑,up,↑,0.7483389999979408,True,15
X039M35,64,experiment,120,→,right,→,0.6205294000028516,True,15
X039M35,65,experiment,132,↓,up,↑,0.6966136999981245,False,15
X039M35,66,experiment,108,↑,up,↑,0.5670278999969014,True,15
X039M35,67,experiment,48,↑,up,↑,0.530694000000949,True,15
X039M35,68,experiment,24,↑,up,↑,0.5379996000010578,True,15
X039M35,69,experiment,180,↑,left,←,1.0415226999975857,False,15
X039M35,70,experiment,180,→,right,→,0.6054141000022355,True,15
X039M35,71,experiment,84,↓,up,↑,0.6158022999989043,False,15
X039M35,72,experiment,84,↓,up,↑,1.0442462999999407,False,15
X039M35,73,experiment,108,←,right,→,0.6624861000018427,False,15
X039M35,74,experiment,108,←,right,→,1.016294499997457,False,15
X039M35,75,experiment,96,→,right,→,0.7723645999976725,True,15
X039M35,76,experiment,60,→,right,→,1.181068799996865,True,15
X039M35,77,experiment,12,←,left,←,0.8035636999993585,True,15
X039M35,78,experiment,120,↓,down,↓,0.7776798999984749,True,15
X039M35,79,experiment,156,→,right,→,0.8007275000018126,True,15
X039M35,80,experiment,168,→,right,→,0.6817257000002428,True,15
X039M35,81,experiment,48,←,left,←,0.5855116999991878,True,15
X039M35,82,experiment,120,←,left,←,0.8783862000018416,True,15
X039M35,83,experiment,24,↓,left,←,1.2892891999981657,False,15
X039M35,84,experiment,156,↓,right,→,1.4834974999976112,False,15
X039M35,85,experiment,24,→,right,→,0.6662627000005159,True,15
X039M35,86,experiment,144,←,left,←,0.7697981999990589,True,15
X039M35,87,experiment,12,↓,right,→,0.8529778999982227,False,15
X039M35,88,experiment,12,↑,right,→,0.9305242000009457,False,15
X039M35,89,experiment,120,←,left,←,0.7985599999992701,True,15
X039M35,90,experiment,180,→,left,←,1.115164699996967,False,15
X039M35,91,experiment,144,←,left,←,0.6678100999997696,True,15
X039M35,92,experiment,96,↑,up,↑,0.6791016999995918,True,15
X039M35,93,experiment,60,→,left,←,0.6090026999991096,False,15
X039M35,94,training,168,↑,right,→,1.0224702000014076,False,15
X039M35,95,training,180,←,left,←,0.6201527999983227,True,15
X039M35,96,training,36,←,left,←,0.8425664999995206,True,15
X039M35,97,experiment,72,→,right,→,0.580451499998162,True,15
X039M35,98,experiment,156,←,left,←,0.6069167000023299,True,15
X039M35,99,experiment,36,←,left,←,0.6421293999992486,True,15
X039M35,100,experiment,60,→,right,→,0.5679251000001386,True,15
X039M35,101,experiment,108,↓,down,↓,0.6953189999985625,True,15
X039M35,102,experiment,144,↓,down,↓,0.8792792000022018,True,15
X039M35,103,experiment,12,↓,right,→,1.1561933000011777,False,15
X039M35,104,experiment,12,↓,up,↑,0.869396099998994,False,15
X039M35,105,experiment,72,↓,up,↑,0.8428781000002346,False,15
X039M35,106,experiment,60,↓,up,↑,0.77393949999896,False,15
X039M35,107,experiment,48,↓,up,↑,0.8125647000015306,False,15
X039M35,108,experiment,24,↑,up,↑,0.5570900999991864,True,15
X039M35,109,experiment,120,→,right,→,0.609670300000289,True,15
X039M35,110,experiment,24,→,right,→,0.6003640000017185,True,15
X039M35,111,experiment,144,↑,up,↑,0.753694799997902,True,15
X039M35,112,experiment,144,↓,down,↓,0.6756318000007013,True,15
X039M35,113,experiment,24,→,left,←,0.8084507999992638,False,15
X039M35,114,experiment,36,↓,down,↓,1.1651146000003791,True,15
X039M35,115,experiment,144,→,right,→,0.886813400000392,True,15
X039M35,116,experiment,180,←,left,←,0.628310700001748,True,15
X039M35,117,experiment,96,↓,down,↓,0.9408638999993855,True,15
X039M35,118,experiment,132,←,left,←,0.7551726999990933,True,15
X039M35,119,experiment,36,↑,up,↑,0.8280850000010105,True,15
X039M35,120,experiment,96,↓,down,↓,0.8083178999986558,True,15
X039M35,121,experiment,84,↑,up,↑,0.5281905000010738,True,15
X039M35,122,experiment,168,→,right,→,0.8144498000001477,True,15
X039M35,123,experiment,120,←,left,←,0.6181369000005361,True,15
X039M35,124,experiment,84,↑,up,↑,0.6014455000004091,True,15
X039M35,125,experiment,48,→,left,←,0.6962106999999378,False,15
X039M35,126,experiment,180,↓,up,↑,0.8935372999985702,False,15
X039M35,127,experiment,84,↑,up,↑,0.5920408000019961,True,15
X039M35,128,experiment,120,↓,down,↓,0.7972799000017403,True,15
X039M35,129,experiment,108,↓,down,↓,0.7287390999990748,True,15
X039M35,130,experiment,180,→,right,→,0.6207625999995798,True,15
X039M35,131,experiment,24,→,left,←,1.0637420999992173,False,15
X039M35,132,experiment,156,↓,down,↓,0.8942850000021281,True,15
X039M35,133,experiment,108,↓,up,↑,1.1780703000003996,False,15
X039M35,134,experiment,72,↑,up,↑,0.6232812000016565,True,15
X039M35,135,experiment,156,←,left,←,0.6647808999987319,True,15
X039M35,136,experiment,96,→,left,←,1.2867495999998937,False,15
X039M35,137,experiment,48,→,left,←,0.7741873000013584,False,15
X039M35,138,experiment,12,→,right,→,0.5194516000010481,True,15
X039M35,139,experiment,96,↑,up,↑,0.6417665000008128,True,15
X039M35,140,experiment,60,→,left,←,1.0208769999990182,False,15
X039M35,141,experiment,12,←,left,←,1.5616558000001532,True,15
X039M35,142,experiment,72,↓,down,↓,0.854674399997748,True,15
X039M35,143,experiment,168,←,left,←,0.7494455999985803,True,15
X039M35,144,experiment,60,→,left,←,0.8450387999982922,False,15
X039M35,145,experiment,132,↑,up,↑,0.6062308000000485,True,15
X039M35,146,experiment,36,→,right,→,1.0502968000000692,True,15
X039M35,147,experiment,132,→,left,←,0.6664457000006223,False,15
X039M35,148,experiment,168,↑,up,↑,0.5670841999999539,True,15
X039M35,149,experiment,108,↓,up,↑,0.799094400001195,False,15
X039M35,150,experiment,168,→,right,→,0.8263571999996202,True,15
X039M35,151,experiment,156,↑,up,↑,0.5499658000007912,True,15
X039M35,152,experiment,120,↑,up,↑,0.5653652000000875,True,15
X039M35,153,experiment,180,↑,up,↑,0.5593946000008145,True,15
X039M35,154,experiment,84,↑,up,↑,0.6403012000009767,True,15
X039M35,155,experiment,48,→,right,→,0.8750304999994114,True,15
X039M35,156,experiment,132,←,left,←,0.6121735000015178,True,15
X039M35,157,training,168,↑,left,←,1.2088975999977265,False,15
X039M35,158,training,156,→,right,→,0.7358855000020412,True,15
X039M35,159,training,36,↑,up,↑,0.5655150000020512,True,15
X039M35,160,experiment,24,↑,up,↑,1.1203217000002041,True,15
X039M35,161,experiment,36,←,left,←,0.7451708000007784,True,15
X039M35,162,experiment,132,→,left,←,0.7606744000004255,False,15
X039M35,163,experiment,96,↑,up,↑,0.5704441000016232,True,15
X039M35,164,experiment,120,↑,up,↑,0.5498388000014529,True,15
X039M35,165,experiment,168,→,right,→,0.549705500001437,True,15
X039M35,166,experiment,72,→,left,←,1.028251799998543,False,15
X039M35,167,experiment,144,↑,up,↑,1.0017732000014803,True,15
X039M35,168,experiment,60,↑,up,↑,0.5847989000030793,True,15
X039M35,169,experiment,48,↑,up,↑,0.5671345000009751,True,15
X039M35,170,experiment,36,↑,left,←,1.2083663000012166,False,15
X039M35,171,experiment,60,←,left,←,0.524869499997294,True,15
X039M35,172,experiment,36,→,left,←,0.6668865000028745,False,15
X039M35,173,experiment,168,←,left,←,0.7837719999988622,True,15
X039M35,174,experiment,96,↑,up,↑,0.5758699999969394,True,15
X039M35,175,experiment,48,↓,up,↑,0.5150748000014573,False,15
X039M35,176,experiment,72,→,left,←,0.8988917999995465,False,15
X039M35,177,experiment,108,←,left,←,0.6768302999989828,True,15
X039M35,178,experiment,12,←,no_key,no_letter,-1.0,False,15
X039M35,179,experiment,84,↓,down,↓,0.8130832999995619,True,15
X039M35,180,experiment,132,↑,up,↑,0.6031823999983317,True,15
X039M35,181,experiment,60,↓,up,↑,0.6036794999999984,False,15
X039M35,182,experiment,84,↑,up,↑,0.9060510999988765,True,15
X039M35,183,experiment,132,→,right,→,0.6330240000024787,True,15
X039M35,184,experiment,180,↓,right,→,1.1585488999990048,False,15
X039M35,185,experiment,156,↑,down,↓,0.9226201999990735,False,15
X039M35,186,experiment,48,→,right,→,0.7525800000003073,True,15
X039M35,187,experiment,180,←,right,→,0.7719776999983878,False,15
X039M35,188,experiment,120,→,right,→,0.9818410999978369,True,15
X039M35,189,experiment,144,←,left,←,0.7961916999993264,True,15
X039M35,190,experiment,24,→,left,←,1.0634869999994407,False,15
X039M35,191,experiment,120,←,right,→,0.7704298999997263,False,15
X039M35,192,experiment,24,↓,right,→,0.9362427999985812,False,15
X039M35,193,experiment,96,→,right,→,0.6449053999967873,True,15
X039M35,194,experiment,180,→,right,→,0.5491496000031475,True,15
X039M35,195,experiment,168,→,left,←,0.7235930000024382,False,15
X039M35,196,experiment,12,↓,no_key,no_letter,-1.0,False,15
X039M35,197,experiment,156,←,left,←,1.0028248000016902,True,15
X039M35,198,experiment,168,→,right,→,0.7319404000008944,True,15
X039M35,199,experiment,36,↓,up,↑,1.4535032000021602,False,15
X039M35,200,experiment,144,→,left,←,0.9230370000004768,False,15
X039M35,201,experiment,24,←,left,←,0.8768496999982744,True,15
X039M35,202,experiment,156,↑,up,↑,0.6292911000018648,True,15
X039M35,203,experiment,132,↓,up,↑,0.7905487999996694,False,15
X039M35,204,experiment,72,→,right,→,0.6107566999999108,True,15
X039M35,205,experiment,84,←,left,←,0.7547121000025072,True,15
X039M35,206,experiment,108,←,left,←,0.9105251000000862,True,15
X039M35,207,experiment,72,↑,up,↑,0.5816152000006696,True,15
X039M35,208,experiment,156,↑,up,↑,0.5205018000015116,True,15
X039M35,209,experiment,96,↑,up,↑,0.5337121000011393,True,15
X039M35,210,experiment,180,←,left,←,0.5821791000016674,True,15
X039M35,211,experiment,60,←,right,→,0.7456185000010009,False,15
X039M35,212,experiment,12,→,left,←,0.7190488000014739,False,15
X039M35,213,experiment,12,→,right,→,0.7538297000028251,True,15
X039M35,214,experiment,108,↓,down,↓,0.773992399997951,True,15
X039M35,215,experiment,108,↓,down,↓,0.9141892000006919,True,15
X039M35,216,experiment,48,→,right,→,0.5762844999990193,True,15
X039M35,217,experiment,120,↓,down,↓,0.7586792000001878,True,15
X039M35,218,experiment,144,↑,up,↑,0.7835956999988412,True,15
X039M35,219,experiment,84,→,right,→,0.5603872000028787,True,15
X039M35,220,training,60,→,right,→,0.8786863999994239,True,15
X039M35,221,training,48,↑,left,←,1.332404700002371,False,15
X039M35,222,training,24,→,right,→,0.6574888999966788,True,15
X039M35,223,experiment,60,←,left,←,0.6652513999979419,True,15
X039M35,224,experiment,12,→,right,→,0.7179852000008395,True,15
X039M35,225,experiment,132,↑,up,↑,0.6302711999996973,True,15
X039M35,226,experiment,12,←,left,←,1.3460575999997673,True,15
X039M35,227,experiment,48,→,right,→,0.5353442999985418,True,15
X039M35,228,experiment,84,↓,right,→,0.6347865999996429,False,15
X039M35,229,experiment,120,→,left,←,0.5553880999977991,False,15
X039M35,230,experiment,108,→,right,→,0.5947950999980094,True,15
X039M35,231,experiment,36,→,right,→,0.5335412000022188,True,15
X039M35,232,experiment,96,←,right,→,1.0661859000028926,False,15
X039M35,233,experiment,168,↓,up,↑,0.6577806999994209,False,15
X039M35,234,experiment,60,↑,up,↑,0.7140368000000308,True,15
X039M35,235,experiment,72,→,left,←,1.2099237000002177,False,15
X039M35,236,experiment,132,←,right,→,1.117465399998764,False,15
X039M35,237,experiment,36,←,left,←,0.6382936000009067,True,15
X039M35,238,experiment,144,←,left,←,0.7250779999994847,True,15
X039M35,239,experiment,84,→,right,→,0.6699369000016304,True,15
X039M35,240,experiment,144,←,left,←,0.7062169000018912,True,15
X039M35,241,experiment,144,↑,up,↑,1.3289801999999327,True,15
X039M35,242,experiment,156,←,left,←,0.8259870000001683,True,15
X039M35,243,experiment,24,↓,down,↓,0.8622737000005145,True,15
X039M35,244,experiment,48,↓,down,↓,0.7850478000000294,True,15
X039M35,245,experiment,180,↓,up,↑,0.6967865000005986,False,15
X039M35,246,experiment,24,↓,right,→,1.2113213000011456,False,15
X039M35,247,experiment,108,↑,up,↑,0.5650502999997116,True,15
X039M35,248,experiment,72,←,right,→,0.7227982000003976,False,15
X039M35,249,experiment,120,←,right,→,0.7762212999987241,False,15
X039M35,250,experiment,48,→,right,→,0.6300972999997612,True,15
X039M35,251,experiment,180,→,right,→,1.2364869999983057,True,15
X039M35,252,experiment,132,←,left,←,0.6198800999991363,True,15
X039M35,253,experiment,48,↓,right,→,0.7462279999999737,False,15
X039M35,254,experiment,24,→,right,→,0.7118354000012914,True,15
X039M35,255,experiment,72,←,left,←,0.9369346999992558,True,15
X039M35,256,experiment,60,↓,down,↓,0.9502931999995781,True,15
X039M35,257,experiment,96,↑,up,↑,0.5081915999980993,True,15
X039M35,258,experiment,180,←,left,←,0.6946261999983108,True,15
X039M35,259,experiment,120,↑,up,↑,0.8610533999999461,True,15
X039M35,260,experiment,168,→,right,→,0.8101151999981084,True,15
X039M35,261,experiment,156,↑,up,↑,0.9489100999999209,True,15
X039M35,262,experiment,108,→,right,→,0.9279912999991211,True,15
X039M35,263,experiment,132,↑,up,↑,0.5477209000018775,True,15
X039M35,264,experiment,168,↑,left,←,1.3216366999986349,False,15
X039M35,265,experiment,12,↑,up,↑,0.5595675000004121,True,15
X039M35,266,experiment,168,↓,down,↓,0.8473664999983157,True,15
X039M35,267,experiment,180,↓,down,↓,0.9296341000008397,True,15
X039M35,268,experiment,84,↓,right,→,1.292709700002888,False,15
X039M35,269,experiment,72,←,right,→,0.8452252999995835,False,15
X039M35,270,experiment,60,←,right,→,0.7208595999982208,False,15
X039M35,271,experiment,120,↑,up,↑,0.5826634999975795,True,15
X039M35,272,experiment,108,→,right,→,0.6061259000016435,True,15
X039M35,273,experiment,156,→,left,←,0.728047400003561,False,15
X039M35,274,experiment,36,→,right,→,0.9248903000006976,True,15
X039M35,275,experiment,96,→,left,←,0.950954299998557,False,15
X039M35,276,experiment,144,↓,right,→,1.0364303999995172,False,15
X039M35,277,experiment,36,←,right,→,0.764274100001785,False,15
X039M35,278,experiment,84,←,left,←,0.6795955000015965,True,15
X039M35,279,experiment,24,↑,left,←,0.733885100002226,False,15
X039M35,280,experiment,156,←,left,←,0.5647233000017877,True,15
X039M35,281,experiment,96,↑,up,↑,0.7552953999984311,True,15
X039M35,282,experiment,12,→,right,→,0.7157526000009966,True,15
X039M35,283,training,84,←,left,←,1.0348492999983137,True,15
X039M35,284,training,168,↑,up,↑,0.5241230999999971,True,15
X039M35,285,training,144,↓,left,←,1.122410600000876,False,15
X039M35,286,experiment,96,↓,right,→,0.8539547000000312,False,15
X039M35,287,experiment,144,↓,up,↑,0.9836376000021119,False,15
X039M35,288,experiment,48,←,right,→,1.0101489999979094,False,15
X039M35,289,experiment,132,↑,up,↑,0.6175677999999607,True,15
X039M35,290,experiment,180,↓,down,↓,1.0326114999988931,True,15
X039M35,291,experiment,24,←,left,←,0.8193565000001399,True,15
X039M35,292,experiment,60,→,left,←,0.8670990000027814,False,15
X039M35,293,experiment,108,→,right,→,0.6313257000001613,True,15
X039M35,294,experiment,156,↑,up,↑,0.6505157999999938,True,15
X039M35,295,experiment,72,→,right,→,0.8484251999980188,True,15
X039M35,296,experiment,36,↑,up,↑,0.5432531999977073,True,15
X039M35,297,experiment,36,→,right,→,0.9823050999984844,True,15
X039M35,298,experiment,96,↓,up,↑,0.70728919999965,False,15
X039M35,299,experiment,156,→,right,→,0.7217108000004373,True,15
X039M35,300,experiment,180,←,left,←,0.5943936000003305,True,15
X039M35,301,experiment,120,↑,up,↑,0.6601176000003761,True,15
X039M35,302,experiment,24,↑,right,→,1.0607159999999567,False,15
X039M35,303,experiment,72,→,right,→,0.606675200000609,True,15
X039M35,304,experiment,132,←,right,→,0.7307271999998193,False,15
X039M35,305,experiment,108,←,right,→,0.6445958000003884,False,15
X039M35,306,experiment,168,↓,down,↓,0.7784294000011869,True,15
X039M35,307,experiment,48,→,right,→,0.6903060999975423,True,15
X039M35,308,experiment,72,←,left,←,0.7189990000006219,True,15
X039M35,309,experiment,36,↓,right,→,1.1459792999994534,False,15
X039M35,310,experiment,60,↑,up,↑,0.7949740000003658,True,15
X039M35,311,experiment,12,↑,no_key,no_letter,-1.0,False,15
X039M35,312,experiment,12,→,right,→,0.5996893999981694,True,15
X039M35,313,experiment,168,↓,down,↓,0.7633697999990545,True,15
X039M35,314,experiment,72,←,right,→,0.5670170000012149,False,15
X039M35,315,experiment,96,→,right,→,0.7124924000017927,True,15
X039M35,316,experiment,84,←,left,←,0.740386600002239,True,15
X039M35,317,experiment,168,←,left,←,0.5123074999974051,True,15
X039M35,318,experiment,48,→,right,→,0.7111746999980824,True,15
X039M35,319,experiment,108,→,right,→,0.855107000003045,True,15
X039M35,320,experiment,132,↑,up,↑,0.5943441999988863,True,15
X039M35,321,experiment,12,↑,no_key,no_letter,-1.0,False,15
X039M35,322,experiment,84,←,left,←,0.9153976000015973,True,15
X039M35,323,experiment,120,↓,down,↓,0.8996322999992117,True,15
X039M35,324,experiment,84,→,right,→,0.7159747000005154,True,15
X039M35,325,experiment,24,→,right,→,0.9185311000001093,True,15
X039M35,326,experiment,84,↓,down,↓,0.7717689999990398,True,15
X039M35,327,experiment,156,→,left,←,0.7176474999978382,False,15
X039M35,328,experiment,108,↓,right,→,0.895045500001288,False,15
X039M35,329,experiment,180,←,right,→,0.6777041999994253,False,15
X039M35,330,experiment,60,↓,down,↓,1.0056782999999996,True,15
X039M35,331,experiment,60,↓,down,↓,0.6950351000014052,True,15
X039M35,332,experiment,156,←,left,←,0.5750926999971853,True,15
X039M35,333,experiment,24,↓,right,→,0.9866072000004351,False,15
X039M35,334,experiment,120,←,right,→,0.6039474999997765,False,15
X039M35,335,experiment,168,↓,right,→,0.8870117000005848,False,15
X039M35,336,experiment,48,↑,up,↑,0.7175739000012982,True,15
X039M35,337,experiment,144,←,right,→,0.6164898999995785,False,15
X039M35,338,experiment,12,→,right,→,0.6162927999976091,True,15
X039M35,339,experiment,96,↑,up,↑,0.5746359000004304,True,15
X039M35,340,experiment,132,↓,down,↓,1.0441007999979774,True,15
X039M35,341,experiment,120,↓,down,↓,0.7230522999998357,True,15
X039M35,342,experiment,144,←,left,←,0.5992302999984531,True,15
X039M35,343,experiment,180,↑,right,→,1.3749380999979621,False,15
X039M35,344,experiment,144,→,left,←,0.7711946000017633,False,15
X039M35,345,experiment,36,←,left,←,0.891797399999632,True,15
X039M35,346,training,24,←,right,→,0.9445873000004212,False,15
X039M35,347,training,36,↑,up,↑,0.664433599999029,True,15
X039M35,348,training,132,↑,up,↑,0.663324900000589,True,15
X039M35,349,experiment,12,↑,left,←,1.069948899999872,False,15
X039M35,350,experiment,180,→,right,→,0.4981465999990178,True,15
X039M35,351,experiment,132,←,left,←,0.46154069999829517,True,15
X039M35,352,experiment,36,→,right,→,0.46470050000061747,True,15
X039M35,353,experiment,12,↑,up,↑,0.6954852000017127,True,15
X039M35,354,experiment,72,↓,down,↓,0.7534900000027847,True,15
X039M35,355,experiment,108,→,right,→,1.0483290999982273,True,15
X039M35,356,experiment,84,←,left,←,0.6932991000030597,True,15
X039M35,357,experiment,36,→,right,→,0.7590740000014193,True,15
X039M35,358,experiment,24,←,left,←,1.0969164000016463,True,15
X039M35,359,experiment,156,↓,up,↑,1.775084600001719,False,15
X039M35,360,experiment,144,↓,left,←,0.6532621999976982,False,15
X039M35,361,experiment,180,→,left,←,0.6790800999988278,False,15
X039M35,362,experiment,120,←,left,←,0.7541204000008292,True,15
X039M35,363,experiment,108,←,left,←,0.6016660000022966,True,15
X039M35,364,experiment,156,→,left,←,0.7171531000021787,False,15
X039M35,365,experiment,120,↓,down,↓,0.8891871000014362,True,15
X039M35,366,experiment,168,←,left,←,0.7926595999997517,True,15
X039M35,367,experiment,120,←,right,→,0.8922511999990093,False,15
X039M35,368,experiment,180,↓,down,↓,0.9476582999996026,True,15
X039M35,369,experiment,84,←,left,←,0.6310307000021567,True,15
X039M35,370,experiment,180,↑,down,↓,0.7740561999999045,False,15
X039M35,371,experiment,144,→,left,←,0.7962597000005189,False,15
X039M35,372,experiment,132,←,left,←,0.8276821999970707,True,15
X039M35,373,experiment,48,←,left,←,0.5566187000003993,True,15
X039M35,374,experiment,168,→,right,→,0.7496774999999616,True,15
X039M35,375,experiment,12,→,right,→,0.6416040999974939,True,15
X039M35,376,experiment,96,↓,left,←,1.5786240999987058,False,15
X039M35,377,experiment,168,↓,down,↓,0.7964427000006253,True,15
X039M35,378,experiment,144,←,left,←,0.6644827999989502,True,15
X039M35,379,experiment,108,→,right,→,0.7217548999979044,True,15
X039M35,380,experiment,60,←,left,←,0.8705981999992218,True,15
X039M35,381,experiment,24,↓,down,↓,0.9687693000014406,True,15
X039M35,382,experiment,24,→,right,→,0.8233156999995117,True,15
X039M35,383,experiment,120,→,right,→,0.7289135000028182,True,15
X039M35,384,experiment,156,↓,down,↓,0.7411635999997088,True,15
X039M35,385,experiment,60,↓,down,↓,0.7115262999977858,True,15
X039M35,386,experiment,84,→,right,→,0.5832825999968918,True,15
X039M35,387,experiment,168,↓,down,↓,0.6972022999980254,True,15
X039M35,388,experiment,72,↑,down,↓,1.0848662999997032,False,15
X039M35,389,experiment,132,↑,down,↓,0.6461239000018395,False,15
X039M35,390,experiment,72,→,left,←,0.9325939000009384,False,15
X039M35,391,experiment,84,→,right,→,0.5554410000004282,True,15
X039M35,392,experiment,72,→,right,→,0.6491988000016136,True,15
X039M35,393,experiment,156,→,left,←,0.7178401999990456,False,15
X039M35,394,experiment,132,↑,down,↓,1.0600776999999653,False,15
X039M35,395,experiment,36,↑,down,↓,0.7573005999984161,False,15
X039M35,396,experiment,60,→,right,→,0.7097036999984994,True,15
X039M35,397,experiment,108,↑,up,↑,0.6408172999981616,True,15
X039M35,398,experiment,60,↓,down,↓,0.8067071000004944,True,15
X039M35,399,experiment,48,→,right,→,0.5570532999990974,True,15
X039M35,400,experiment,96,↓,down,↓,0.8612874999998894,True,15
X039M35,401,experiment,96,↑,up,↑,0.5728082999994513,True,15
X039M35,402,experiment,12,↑,no_key,no_letter,-1.0,False,15
X039M35,403,experiment,144,↓,down,↓,0.8096622999983083,True,15
X039M35,404,experiment,24,↑,up,↑,0.7320280999992974,True,15
X039M35,405,experiment,48,↓,down,↓,0.7170997000030184,True,15
X039M35,406,experiment,48,←,left,←,0.6007258999998157,True,15
X039M35,407,experiment,96,←,left,←,0.5395358999994642,True,15
X039M35,408,experiment,36,←,right,→,0.676283600001625,False,15
X039M35,409,training,36,↑,up,↑,0.7827710999990813,True,15
X039M35,410,training,84,→,up,↑,0.8912634000007529,False,15
X039M35,411,training,108,←,left,←,0.5718730999979016,True,15
X039M35,412,experiment,180,↓,down,↓,1.0030512000012095,True,15
X039M35,413,experiment,84,↑,up,↑,0.8977440000016941,True,15
X039M35,414,experiment,120,↑,down,↓,0.9612744999976712,False,15
X039M35,415,experiment,60,←,left,←,0.8028242000000319,True,15
X039M35,416,experiment,168,↓,right,→,1.0379004999995232,False,15
X039M35,417,experiment,24,↓,down,↓,0.7931422000001476,True,15
X039M35,418,experiment,108,←,left,←,0.8253788000001805,True,15
X039M35,419,experiment,96,←,right,→,0.7854963000027055,False,15
X039M35,420,experiment,12,←,left,←,0.9786886000001687,True,15
X039M35,421,experiment,48,→,right,→,0.8608154000030481,True,15
X039M35,422,experiment,144,→,left,←,0.7717840999976033,False,15
X039M35,423,experiment,36,↑,up,↑,0.6290468000006513,True,15
X039M35,424,experiment,156,←,left,←,0.7859284000005573,True,15
X039M35,425,experiment,180,↑,up,↑,0.5669619999971474,True,15
X039M35,426,experiment,60,→,right,→,0.6663421000012022,True,15
X039M35,427,experiment,96,↑,up,↑,0.5918386000012106,True,15
X039M35,428,experiment,168,→,right,→,0.8215939000001526,True,15
X039M35,429,experiment,48,→,right,→,0.7787323999982618,True,15
X039M35,430,experiment,180,→,left,←,0.6493663000001106,False,15
X039M35,431,experiment,156,→,right,→,0.772519199999806,True,15
X039M35,432,experiment,120,↓,left,←,1.0402886999982002,False,15
X039M35,433,experiment,132,↑,up,↑,0.5991294999985257,True,15
X039M35,434,experiment,120,↓,up,↑,0.7342697999993106,False,15
X039M35,435,experiment,96,↓,down,↓,0.8687529000017093,True,15
X039M35,436,experiment,144,↑,up,↑,0.5934304999973392,True,15
X039M35,437,experiment,132,↑,down,↓,0.9311345000023721,False,15
X039M35,438,experiment,72,→,right,→,0.738900599997578,True,15
X039M35,439,experiment,60,↑,up,↑,0.612027200000739,True,15
X039M35,440,experiment,36,←,left,←,0.6983246999989206,True,15
X039M35,441,experiment,72,←,left,←,0.7319089000011445,True,15
X039M35,442,experiment,168,→,right,→,0.705767299998115,True,15
X039M35,443,experiment,156,→,left,←,1.0431967000004079,False,15
X039M35,444,experiment,24,↓,down,↓,1.0267858000006527,True,15
X039M35,445,experiment,60,↓,down,↓,0.6756736999996065,True,15
X039M35,446,experiment,84,↑,up,↑,0.6762138999984018,True,15
X039M35,447,experiment,12,↑,right,→,0.8372075000006589,False,15
X039M35,448,experiment,108,←,right,→,0.7052647999989858,False,15
X039M35,449,experiment,96,↑,right,→,0.7718122000005678,False,15
X039M35,450,experiment,180,←,left,←,0.619706600002246,True,15
X039M35,451,experiment,84,←,right,→,0.5899353000022529,False,15
X039M35,452,experiment,48,↓,up,↑,0.7756473999979789,False,15
X039M35,453,experiment,12,←,right,→,0.5840544999991835,False,15
X039M35,454,experiment,132,→,right,→,0.6307371999973839,True,15
X039M35,455,experiment,108,↑,right,→,0.5884416000008059,False,15
X039M35,456,experiment,120,↑,down,↓,0.9232343000003311,False,15
X039M35,457,experiment,156,↑,up,↑,0.505451400000311,True,15
X039M35,458,experiment,36,→,right,→,0.6859193999989657,True,15
X039M35,459,experiment,144,→,left,←,0.675697399998171,False,15
X039M35,460,experiment,12,→,right,→,0.5006251000013435,True,15
X039M35,461,experiment,36,←,right,→,0.7573993999976665,False,15
X039M35,462,experiment,48,←,right,→,0.7707286000004387,False,15
X039M35,463,experiment,144,→,right,→,0.8221774000012374,True,15
X039M35,464,experiment,72,↑,up,↑,0.6461128000009921,True,15
X039M35,465,experiment,108,↓,up,↑,0.6110684999985097,False,15
X039M35,466,experiment,84,↓,down,↓,1.6690729000001738,True,15
X039M35,467,experiment,72,↓,right,→,0.7593925000001036,False,15
X039M35,468,experiment,132,↓,down,↓,0.9764085999995586,True,15
X039M35,469,experiment,168,←,left,←,0.5635884999974223,True,15
X039M35,470,experiment,24,↑,up,↑,0.7197925000000396,True,15
X039M35,471,experiment,24,←,left,←,0.5705884999988484,True,15
X039M35,472,training,120,↑,no_key,no_letter,-1.0,False,15
X039M35,473,training,120,↑,up,↑,0.9839944000013929,True,15
X039M35,474,training,36,↑,up,↑,0.6431087999990268,True,15
X039M35,475,experiment,120,↑,up,↑,0.8227745000003779,True,15
X039M35,476,experiment,96,↑,up,↑,0.951669199999742,True,15
X039M35,477,experiment,120,↓,up,↑,0.8862819999994827,False,15
X039M35,478,experiment,84,↑,up,↑,0.855143799999496,True,15
X039M35,479,experiment,168,↑,up,↑,0.5628041999989364,True,15
X039M35,480,experiment,156,↑,down,↓,0.93903599999976,False,15
X039M35,481,experiment,96,↓,down,↓,0.8214024000008067,True,15
X039M35,482,experiment,156,→,left,←,1.1722909000018262,False,15
X039M35,483,experiment,12,←,left,←,0.9772033000008378,True,15
X039M35,484,experiment,60,↑,up,↑,0.7761945000020205,True,15
X039M35,485,experiment,132,↑,up,↑,1.1293150999990758,True,15
X039M35,486,experiment,72,↓,down,↓,0.9061479000010877,True,15
X039M35,487,experiment,156,←,left,←,0.6967803999978059,True,15
X039M35,488,experiment,24,↑,up,↑,1.0853895000000193,True,15
X039M35,489,experiment,60,↑,up,↑,0.4605891999999585,True,15
X039M35,490,experiment,180,↑,up,↑,0.584286900000734,True,15
X039M35,491,experiment,168,↓,down,↓,0.6742760999986785,True,15
X039M35,492,experiment,24,↑,up,↑,0.5942442000014125,True,15
X039M35,493,experiment,48,↑,up,↑,0.492150699999911,True,15
X039M35,494,experiment,108,→,up,↑,0.959102000000712,False,15
X039M35,495,experiment,168,↓,down,↓,0.7091201000002911,True,15
X039M35,496,experiment,48,↑,up,↑,0.7405956000002334,True,15
X039M35,497,experiment,108,←,up,↑,0.7436404000000039,False,15
X039M35,498,experiment,24,←,left,←,0.6024065000019618,True,15
X039M35,499,experiment,84,←,left,←,0.6654087999995681,True,15
X039M35,500,experiment,120,→,right,→,0.984271200002695,True,15
X039M35,501,experiment,144,↑,up,↑,0.650716400003148,True,15
X039M35,502,experiment,48,↓,down,↓,0.8045213999976113,True,15
X039M35,503,experiment,156,↓,down,↓,0.9382613000016136,True,15
X039M35,504,experiment,36,↓,no_key,no_letter,-1.0,False,15
X039M35,505,experiment,96,↑,up,↑,0.8780326000014611,True,15
X039M35,506,experiment,108,←,left,←,0.5446618999994826,True,15
X039M35,507,experiment,144,↓,down,↓,0.6849709000016446,True,15
X039M35,508,experiment,60,→,down,↓,0.9432493999993312,False,15
X039M35,509,experiment,12,←,right,→,0.7406712000010884,False,15
X039M35,510,experiment,72,←,right,→,0.7999645999989298,False,15
X039M35,511,experiment,60,←,left,←,0.679669199998898,True,15
X039M35,512,experiment,24,→,left,←,0.8061777000002621,False,15
X039M35,513,experiment,132,↓,left,←,0.7527092000018456,False,15
X039M35,514,experiment,84,→,right,→,0.8634717999993882,True,15
X039M35,515,experiment,144,←,left,←,1.01281519999975,True,15
X039M35,516,experiment,12,↓,down,↓,1.0220182000011846,True,15
X039M35,517,experiment,120,→,right,→,0.6250701000026311,True,15
X039M35,518,experiment,36,←,no_key,no_letter,-1.0,False,15
X039M35,519,experiment,72,←,up,↑,1.1320518000029551,False,15
X039M35,520,experiment,132,↓,down,↓,0.768324600001506,True,15
X039M35,521,experiment,36,↓,down,↓,0.7608596999998554,True,15
X039M35,522,experiment,168,←,left,←,0.692620399997395,True,15
X039M35,523,experiment,72,↓,down,↓,0.7050096999992093,True,15
X039M35,524,experiment,180,→,right,→,0.5618236000009347,True,15
X039M35,525,experiment,180,→,left,←,0.7341723999998067,False,15
X039M35,526,experiment,108,←,up,↑,0.7625052999974287,False,15
X039M35,527,experiment,180,→,right,→,0.7105111000018951,True,15
X039M35,528,experiment,144,↓,down,↓,0.7942955999969854,True,15
X039M35,529,experiment,132,↓,no_key,no_letter,-1.0,False,15
X039M35,530,experiment,12,↑,up,↑,0.6154800000003888,True,15
X039M35,531,experiment,84,↓,down,↓,0.7850293000010424,True,15
X039M35,532,experiment,36,→,right,→,0.8150759999989532,True,15
X039M35,533,experiment,96,↓,down,↓,0.780513500001689,True,15
X039M35,534,experiment,48,←,left,←,0.7921808999999485,True,15
X039M35,535,training,156,←,no_key,no_letter,-1.0,False,15
X039M35,536,training,84,↑,up,↑,0.624661499998183,True,15
X039M35,537,training,48,↑,up,↑,0.533777700002247,True,15
X039M35,538,experiment,168,←,left,←,0.6061439000004611,True,15
X039M35,539,experiment,96,↑,up,↑,0.7709270999985165,True,15
X039M35,540,experiment,96,←,left,←,0.48689290000038454,True,15
X039M35,541,experiment,36,↑,up,↑,0.5098083999982919,True,15
X039M35,542,experiment,132,↑,up,↑,1.0483954999981506,True,15
X039M35,543,experiment,108,→,right,→,0.7123562000015227,True,15
X039M35,544,experiment,84,↓,up,↑,0.656734600001073,False,15
X039M35,545,experiment,144,→,right,→,0.8359133999983897,True,15
X039M35,546,experiment,96,↑,up,↑,0.4955370999996376,True,15
X039M35,547,experiment,132,→,right,→,0.7213117999999668,True,15
X039M35,548,experiment,108,←,right,→,0.6277194999966014,False,15
X039M35,549,experiment,12,→,right,→,0.5370301000002655,True,15
X039M35,550,experiment,180,←,right,→,0.8522905000027095,False,15
X039M35,551,experiment,72,↓,up,↑,0.7110178999973868,False,15
X039M35,552,experiment,72,←,left,←,0.6282657000010659,True,15
X039M35,553,experiment,60,↑,up,↑,0.5415318999985175,True,15
X039M35,554,experiment,84,↓,down,↓,0.7772035000016331,True,15
X039M35,555,experiment,48,→,right,→,0.6110095000003639,True,15
X039M35,556,experiment,120,←,right,→,0.8111497000027157,False,15
X039M35,557,experiment,120,→,right,→,0.6488144000031753,True,15
X039M35,558,experiment,24,↓,down,↓,0.7024599999967904,True,15
X039M35,559,experiment,72,←,up,↑,0.8154506999999285,False,15
X039M35,560,experiment,24,←,right,→,0.7503324000026623,False,15
X039M35,561,experiment,48,→,right,→,0.7257921999989776,True,15
X039M35,562,experiment,156,←,left,←,0.7707793000008678,True,15
X039M35,563,experiment,132,↓,up,↑,0.6364221000003454,False,15
X039M35,564,experiment,144,→,right,→,0.750527799998963,True,15
X039M35,565,experiment,60,→,right,→,0.6188213000023097,True,15
X039M35,566,experiment,168,↑,up,↑,0.6728292000007059,True,15
X039M35,567,experiment,144,↓,down,↓,0.8487762000004295,True,15
X039M35,568,experiment,36,←,left,←,0.5761201999994228,True,15
X039M35,569,experiment,48,←,right,→,0.6862579000007827,False,15
X039M35,570,experiment,84,←,left,←,0.5819765999985975,True,15
X039M35,571,experiment,156,→,right,→,0.7244714999978896,True,15
X039M35,572,experiment,180,→,right,→,0.6542276999971364,True,15
X039M35,573,experiment,48,←,left,←,0.8301807999996527,True,15
X039M35,574,experiment,120,←,left,←,0.6723158000022522,True,15
X039M35,575,experiment,12,↓,up,↑,0.7477238999999827,False,15
X039M35,576,experiment,84,←,left,←,0.7348582000013266,True,15
X039M35,577,experiment,132,←,right,→,0.6354124999998021,False,15
X039M35,578,experiment,168,↑,up,↑,0.5568447000005108,True,15
X039M35,579,experiment,156,→,right,→,0.653225800000655,True,15
X039M35,580,experiment,60,→,right,→,0.595242600000347,True,15
X039M35,581,experiment,36,↓,left,←,0.6482165999987046,False,15
X039M35,582,experiment,108,←,left,←,0.5441303000006883,True,15
X039M35,583,experiment,108,↑,up,↑,0.5705926999980875,True,15
X039M35,584,experiment,12,→,right,→,0.46781320000081905,True,15
X039M35,585,experiment,180,←,left,←,1.0833420999988448,True,15
X039M35,586,experiment,36,↓,up,↑,0.844555700001365,False,15
X039M35,587,experiment,60,↑,up,↑,0.5811093000011169,True,15
X039M35,588,experiment,120,←,left,←,0.8112828999983321,True,15
X039M35,589,experiment,168,↑,up,↑,0.5381782000004023,True,15
X039M35,590,experiment,156,↓,down,↓,0.7659356999974989,True,15
X039M35,591,experiment,72,↓,up,↑,0.7728860000024724,False,15
X039M35,592,experiment,144,↓,down,↓,0.6757017000018095,True,15
X039M35,593,experiment,180,↑,up,↑,0.474238199996762,True,15
X039M35,594,experiment,12,←,left,←,0.5376991000011913,True,15
X039M35,595,experiment,24,↑,no_key,no_letter,-1.0,False,15
X039M35,596,experiment,24,→,right,→,0.6763552000011259,True,15
X039M35,597,experiment,96,→,left,←,0.937095400000544,False,15
X039M35,598,training,48,↑,up,↑,0.5870838000009826,True,15
X039M35,599,training,60,↓,no_key,no_letter,-1.0,False,15
X039M35,600,training,156,←,left,←,0.7946960999979638,True,15
X039M35,601,experiment,48,→,right,→,0.6245524000005389,True,15
X039M35,602,experiment,12,↓,right,→,0.9421394999990298,False,15
X039M35,603,experiment,12,→,right,→,0.8188980000013544,True,15
X039M35,604,experiment,60,↑,up,↑,0.5575195000019448,True,15
X039M35,605,experiment,168,←,left,←,0.6200934000007692,True,15
X039M35,606,experiment,84,→,left,←,0.9549623999992036,False,15
X039M35,607,experiment,24,↓,down,↓,0.9209259999988717,True,15
X039M35,608,experiment,168,↑,up,↑,0.615924099998665,True,15
X039M35,609,experiment,48,↑,up,↑,0.511798200001067,True,15
X039M35,610,experiment,144,↓,down,↓,0.7376360000016575,True,15
X039M35,611,experiment,60,→,down,↓,0.8630080000002636,False,15
X039M35,612,experiment,180,↑,down,↓,0.7305575999998837,False,15
X039M35,613,experiment,120,→,right,→,0.9163754999972298,True,15
X039M35,614,experiment,72,←,right,→,0.6762952999997651,False,15
X039M35,615,experiment,120,↑,up,↑,0.6809709000008297,True,15
X039M35,616,experiment,108,↑,up,↑,0.5410539000004064,True,15
X039M35,617,experiment,96,←,right,→,0.6508086999965599,False,15
X039M35,618,experiment,168,↓,down,↓,1.1070036000019172,True,15
X039M35,619,experiment,156,→,right,→,0.6471931999985827,True,15
X039M35,620,experiment,24,↑,right,→,1.4331239000021014,False,15
X039M35,621,experiment,72,↓,down,↓,0.7384600000004866,True,15
X039M35,622,experiment,60,↓,down,↓,0.793314399998053,True,15
X039M35,623,experiment,120,↑,up,↑,0.5020367999968585,True,15
X039M35,624,experiment,108,↓,up,↑,1.013912700000219,False,15
X039M35,625,experiment,144,←,right,→,1.1439860000027693,False,15
X039M35,626,experiment,84,↓,down,↓,0.7231661000005261,True,15
X039M35,627,experiment,96,←,left,←,0.6247874000000593,True,15
X039M35,628,experiment,36,↑,up,↑,0.5766990999982227,True,15
X039M35,629,experiment,180,↓,no_key,no_letter,-1.0,False,15
X039M35,630,experiment,72,→,right,→,0.7358882000007725,True,15
X039M35,631,experiment,96,↓,no_key,no_letter,-1.0,False,15
X039M35,632,experiment,144,↑,up,↑,0.5104396999995515,True,15
X039M35,633,experiment,156,→,left,←,0.9206432000028144,False,15
X039M35,634,experiment,12,←,no_key,no_letter,-1.0,False,15
X039M35,635,experiment,156,→,right,→,0.8452933999978995,True,15
X039M35,636,experiment,84,↑,up,↑,0.5451614000012341,True,15
X039M35,637,experiment,12,↓,down,↓,0.8639844999997877,True,15
X039M35,638,experiment,60,↓,down,↓,0.8110204999975394,True,15
X039M35,639,experiment,48,↓,down,↓,0.6797632000016165,True,15
X039M35,640,experiment,132,←,left,←,0.6017060999984096,True,15
X039M35,641,experiment,48,→,right,→,0.587108799998532,True,15
X039M35,642,experiment,132,↑,up,↑,0.6534998999995878,True,15
X039M35,643,experiment,36,→,right,→,1.2495564999990165,True,15
X039M35,644,experiment,120,↓,down,↓,0.9043292999995174,True,15
X039M35,645,experiment,108,↑,up,↑,0.5012569999998959,True,15
X039M35,646,experiment,132,→,right,→,0.7530276999968919,True,15
X039M35,647,experiment,96,→,right,→,0.944729599999846,True,15
X039M35,648,experiment,24,→,right,→,0.8388856999990821,True,15
X039M35,649,experiment,144,→,left,←,0.8527010000034352,False,15
X039M35,650,experiment,36,→,left,←,0.619700000002922,False,15
X039M35,651,experiment,132,→,left,←,0.8347595000013825,False,15
X039M35,652,experiment,24,←,right,→,0.7689384000004793,False,15
X039M35,653,experiment,108,→,left,←,0.8722936999984086,False,15
X039M35,654,experiment,180,↓,down,↓,0.8497072999998636,True,15
X039M35,655,experiment,36,←,left,←,0.6259289000008721,True,15
X039M35,656,experiment,156,↓,left,←,0.7771360999977333,False,15
X039M35,657,experiment,72,↓,down,↓,1.0002970999994432,True,15
X039M35,658,experiment,168,↑,up,↑,0.5615281999998842,True,15
X039M35,659,experiment,180,↓,up,↑,0.989310499997373,False,15
X039M35,660,experiment,84,↓,up,↑,0.6849261999996088,False,15
X039M35,661,training,36,←,left,←,0.896738399998867,True,15
X039M35,662,training,168,↑,up,↑,0.5119135000022652,True,15
X039M35,663,training,84,←,left,←,0.46665380000195,True,15
X039M35,664,experiment,120,↑,up,↑,0.7071519999990414,True,15
X039M35,665,experiment,60,→,right,→,0.632146299998567,True,15
X039M35,666,experiment,12,↑,up,↑,0.4448283000019728,True,15
X039M35,667,experiment,36,→,right,→,0.5204340000018419,True,15
X039M35,668,experiment,48,←,left,←,0.5269656000018585,True,15
X039M35,669,experiment,156,←,left,←,0.46904260000155773,True,15
X039M35,670,experiment,60,↑,up,↑,0.5565958000006503,True,15
X039M35,671,experiment,60,↑,up,↑,0.4807239000001573,True,15
X039M35,672,experiment,108,↓,down,↓,0.9579546999993909,True,15
X039M35,673,experiment,12,↑,right,→,1.4494560999992245,False,15
X039M35,674,experiment,144,↑,right,→,0.8569267999992007,False,15
X039M35,675,experiment,144,→,right,→,0.46433089999845834,True,15
X039M35,676,experiment,180,←,right,→,0.7458814999990864,False,15
X039M35,677,experiment,96,↑,right,→,0.9620976000005612,False,15
X039M35,678,experiment,108,→,right,→,0.5374729999966803,True,15
X039M35,679,experiment,180,→,right,→,0.8915470000029018,True,15
X039M35,680,experiment,156,→,right,→,0.689547499998298,True,15
X039M35,681,experiment,120,↑,left,←,1.4119716999994125,False,15
X039M35,682,experiment,120,↓,down,↓,0.7124895000015385,True,15
X039M35,683,experiment,12,↓,down,↓,0.8410296000001836,True,15
X039M35,684,experiment,96,→,right,→,1.3056643000018084,True,15
X039M35,685,experiment,24,→,right,→,0.6892686999999569,True,15
X039M35,686,experiment,24,←,left,←,0.7938873999992211,True,15
X039M35,687,experiment,60,↑,right,→,0.9945312999989255,False,15
X039M35,688,experiment,36,↑,up,↑,0.4889011999985087,True,15
X039M35,689,experiment,108,↓,up,↑,0.7302143000015349,False,15
X039M35,690,experiment,84,→,right,→,0.44819339999958174,True,15
X039M35,691,experiment,84,↓,down,↓,0.7084901000016544,True,15
X039M35,692,experiment,84,←,left,←,0.6343285000002652,True,15
X039M35,693,experiment,120,→,right,→,0.6218316000013147,True,15
X039M35,694,experiment,180,↓,down,↓,0.8255429999990156,True,15
X039M35,695,experiment,36,↓,down,↓,0.6472216000001936,True,15
X039M35,696,experiment,156,↑,left,←,1.2964104000020598,False,15
X039M35,697,experiment,72,↓,down,↓,0.7048570000006293,True,15
X039M35,698,experiment,144,↓,right,→,1.2858842999994522,False,15
X039M35,699,experiment,156,←,left,←,0.6371394000016153,True,15
X039M35,700,experiment,168,↑,right,→,1.0447222999973746,False,15
X039M35,701,experiment,96,→,right,→,0.7308585999999195,True,15
X039M35,702,experiment,144,↓,no_key,no_letter,-1.0,False,15
X039M35,703,experiment,168,→,right,→,1.4022824999992736,True,15
X039M35,704,experiment,132,↓,no_key,no_letter,-1.0,False,15
X039M35,705,experiment,72,↑,up,↑,0.7154517999988457,True,15
X039M35,706,experiment,72,→,up,↑,0.8448925999982748,False,15
X039M35,707,experiment,24,→,right,→,0.6416185000016412,True,15
X039M35,708,experiment,96,↑,up,↑,0.6642360000005283,True,15
X039M35,709,experiment,48,→,right,→,0.8522736999984772,True,15
X039M35,710,experiment,84,→,right,→,0.5378583000019717,True,15
X039M35,711,experiment,48,↓,up,↑,0.6742061000004469,False,15
X039M35,712,experiment,108,↓,right,→,1.472174400001677,False,15
X039M35,713,experiment,180,↑,up,↑,0.6726492999987386,True,15
X039M35,714,experiment,168,↓,right,→,1.0089995000016643,False,15
X039M35,715,experiment,132,←,right,→,0.5561906000002637,False,15
X039M35,716,experiment,12,↓,no_key,no_letter,-1.0,False,15
X039M35,717,experiment,24,←,left,←,0.5568290000010165,True,15
X039M35,718,experiment,132,←,right,→,0.5754744000005303,False,15
X039M35,719,experiment,48,↓,up,↑,0.5410502999984601,False,15
X039M35,720,experiment,132,→,right,→,0.4210940999982995,True,15
X039M35,721,experiment,168,↑,up,↑,0.4583500999979151,True,15
X039M35,722,experiment,36,↓,no_key,no_letter,-1.0,False,15
X039M35,723,experiment,72,↓,down,↓,0.8908513999995193,True,15
X039M35,724,training,60,↓,down,↓,0.7801395000024058,True,15
X039M35,725,training,60,←,left,←,0.4686312999983784,True,15
X039M35,726,training,144,←,right,→,0.563753500002349,False,15
X039M35,727,experiment,96,←,left,←,0.48306789999696775,True,15
X039M35,728,experiment,12,→,right,→,0.5532304000007571,True,15
X039M35,729,experiment,156,→,right,→,0.49192300000140676,True,15
X039M35,730,experiment,180,←,left,←,0.7990720000016154,True,15
X039M35,731,experiment,156,→,left,←,0.7052578000002541,False,15
X039M35,732,experiment,12,↓,no_key,no_letter,-1.0,False,15
X039M35,733,experiment,156,→,right,→,0.8988941000025079,True,15
X039M35,734,experiment,72,↓,left,←,0.8435396999993827,False,15
X039M35,735,experiment,108,↑,up,↑,0.6970467000028293,True,15
X039M35,736,experiment,144,→,up,↑,1.15165960000013,False,15
X039M35,737,experiment,168,↓,down,↓,0.8016963999980362,True,15
X039M35,738,experiment,84,↑,up,↑,0.5637873000014224,True,15
X039M35,739,experiment,180,↑,up,↑,0.4712141999989399,True,15
X039M35,740,experiment,36,←,no_key,no_letter,-1.0,False,15
X039M35,741,experiment,24,↑,up,↑,0.5716702000026999,True,15
X039M35,742,experiment,120,↓,up,↑,1.0810817000019597,False,15
X039M35,743,experiment,96,→,down,↓,0.8285287999970024,False,15
X039M35,744,experiment,24,←,no_key,no_letter,-1.0,False,15
X039M35,745,experiment,84,↑,up,↑,0.9882574000002933,True,15
X039M35,746,experiment,144,↓,down,↓,0.7662664000017685,True,15
X039M35,747,experiment,12,→,right,→,0.6667457000003196,True,15
X039M35,748,experiment,168,→,left,←,1.4129084999985935,False,15
X039M35,749,experiment,36,↑,up,↑,0.5904148000008718,True,15
X039M35,750,experiment,156,→,right,→,0.8248501999987639,True,15
X039M35,751,experiment,48,→,right,→,0.8916327999977511,True,15
X039M35,752,experiment,72,←,no_key,no_letter,-1.0,False,15
X039M35,753,experiment,108,←,right,→,1.0269497999979649,False,15
X039M35,754,experiment,84,→,right,→,0.5073736999984249,True,15
X039M35,755,experiment,120,→,left,←,0.801332299997739,False,15
X039M35,756,experiment,168,←,left,←,0.7911156000009214,True,15
X039M35,757,experiment,180,←,left,←,0.8501371999991534,True,15
X039M35,758,experiment,120,←,left,←,0.5907157000001462,True,15
X039M35,759,experiment,108,↑,up,↑,0.6197977999981958,True,15
X039M35,760,experiment,132,↓,down,↓,1.185163599999214,True,15
X039M35,761,experiment,132,↑,up,↑,1.1311992000009923,True,15
X039M35,762,experiment,60,←,right,→,0.7001487999987148,False,15
X039M35,763,experiment,36,←,left,←,0.6343019000014465,True,15
X039M35,764,experiment,168,←,left,←,0.6404291999970155,True,15
X039M35,765,experiment,120,→,right,→,0.6532329999972717,True,15
X039M35,766,experiment,72,↑,right,→,0.8247066000003542,False,15
X039M35,767,experiment,48,→,right,→,0.5108707999970648,True,15
X039M35,768,experiment,60,↓,left,←,0.9848160000001371,False,15
X039M35,769,experiment,60,←,left,←,0.6128014000023541,True,15
X039M35,770,experiment,48,↑,left,←,0.9105617999994138,False,15
X039M35,771,experiment,24,→,right,→,0.8070657999996911,True,15
X039M35,772,experiment,96,←,left,←,0.4806792999988829,True,15
X039M35,773,experiment,84,→,left,←,0.8332049000018742,False,15
X039M35,774,experiment,36,↑,up,↑,0.4504142000005231,True,15
X039M35,775,experiment,144,←,left,←,0.4833143000032578,True,15
X039M35,776,experiment,12,←,left,←,0.5936432999988028,True,15
X039M35,777,experiment,132,←,left,←,0.44849619999877177,True,15
X039M35,778,experiment,60,↓,right,→,1.2422231000018655,False,15
X039M35,779,experiment,108,→,right,→,0.6021538000022701,True,15
X039M35,780,experiment,144,→,right,→,0.6300728999995044,True,15
X039M35,781,experiment,72,↓,up,↑,0.9096958000009181,False,15
X039M35,782,experiment,48,↓,right,→,0.6568570999988879,False,15
X039M35,783,experiment,132,→,right,→,0.7928432000007888,True,15
X039M35,784,experiment,24,←,left,←,0.6163430999986304,True,15
X039M35,785,experiment,180,↑,up,↑,0.5421529000013834,True,15
X039M35,786,experiment,96,↑,up,↑,0.4306671999984246,True,15
X039M35,787,training,48,↓,up,↑,0.8691423000018403,False,15
X039M35,788,training,48,→,left,←,0.509043300000485,False,15
X039M35,789,training,132,→,right,→,0.8075693000027968,True,15
X039M35,790,experiment,156,↓,up,↑,0.7367344999984198,False,15
X039M35,791,experiment,120,↑,up,↑,0.5349884000024758,True,15
X039M35,792,experiment,96,→,right,→,0.5261557000012544,True,15
X039M35,793,experiment,96,→,right,→,0.47213360000023386,True,15
X039M35,794,experiment,120,↑,up,↑,0.5244745999989391,True,15
X039M35,795,experiment,120,↑,up,↑,0.9893007999999099,True,15
X039M35,796,experiment,144,↑,up,↑,1.056151000000682,True,15
X039M35,797,experiment,24,↓,left,←,0.9463460000006307,False,15
X039M35,798,experiment,48,↑,up,↑,0.5358960000012303,True,15
X039M35,799,experiment,180,↓,up,↑,0.5257115000022168,False,15
X039M35,800,experiment,84,↓,down,↓,0.903900799999974,True,15
X039M35,801,experiment,132,↑,up,↑,0.7517761000017344,True,15
X039M35,802,experiment,84,→,right,→,1.0185610000007728,True,15
X039M35,803,experiment,108,↓,down,↓,0.7952440999979444,True,15
X039M35,804,experiment,132,→,right,→,0.7478510000000824,True,15
X039M35,805,experiment,180,←,left,←,0.6336050000027171,True,15
X039M35,806,experiment,108,↑,up,↑,0.7291384999989532,True,15
X039M35,807,experiment,36,→,right,→,0.6697476000008464,True,15
X039M35,808,experiment,168,↓,down,↓,0.9938122999992629,True,15
X039M35,809,experiment,168,↑,up,↑,0.8758669999988342,True,15
X039M35,810,experiment,48,↑,down,↓,0.7642269999996643,False,15
X039M35,811,experiment,12,↑,up,↑,0.6288329000017256,True,15
X039M35,812,experiment,96,↑,no_key,no_letter,-1.0,False,15
X039M35,813,experiment,24,←,left,←,0.8055423999976483,True,15
X039M35,814,experiment,180,↓,up,↑,0.7617866000000504,False,15
X039M35,815,experiment,24,→,right,→,0.6612495999979728,True,15
X039M35,816,experiment,72,↑,up,↑,0.7991953000018839,True,15
X039M35,817,experiment,36,→,right,→,0.703149900000426,True,15
X039M35,818,experiment,36,→,right,→,0.6372499999997672,True,15
X039M35,819,experiment,96,→,up,↑,0.7034256999977515,False,15
X039M35,820,experiment,132,↑,up,↑,0.6985286999988602,True,15
X039M35,821,experiment,72,←,up,↑,0.7459435999990092,False,15
X039M35,822,experiment,60,↓,down,↓,0.8054272000008496,True,15
X039M35,823,experiment,72,↑,down,↓,1.0391415000012785,False,15
X039M35,824,experiment,60,↑,up,↑,0.7350826000001689,True,15
X039M35,825,experiment,132,↓,down,↓,1.1086811999994097,True,15
X039M35,826,experiment,12,↓,up,↑,0.8738298000025679,False,15
X039M35,827,experiment,24,→,up,↑,0.7047175999978208,False,15
X039M35,828,experiment,48,↓,up,↑,0.8006187999999383,False,15
X039M35,829,experiment,108,↑,down,↓,0.9467039999981353,False,15
X039M35,830,experiment,84,↑,left,←,0.7842631999992591,False,15
X039M35,831,experiment,180,→,left,←,0.641705499998352,False,15
X039M35,832,experiment,156,↓,up,↑,0.6923968999981298,False,15
X039M35,833,experiment,144,↑,left,←,0.974463000002288,False,15
X039M35,834,experiment,12,→,no_key,no_letter,-1.0,False,15
X039M35,835,experiment,108,↓,down,↓,0.7266736999990826,True,15
X039M35,836,experiment,156,↑,up,↑,0.6166903999983333,True,15
X039M35,837,experiment,156,←,right,→,1.1743339999993623,False,15
X039M35,838,experiment,60,→,right,→,0.6545441000016581,True,15
X039M35,839,experiment,120,↓,left,←,0.9532994000001054,False,15
X039M35,840,experiment,168,←,right,→,0.6558602000004612,False,15
X039M35,841,experiment,84,→,right,→,0.5490867000007711,True,15
X039M35,842,experiment,36,↓,down,↓,0.823893600001611,True,15
X039M35,843,experiment,168,↓,left,←,0.7725853000010829,False,15
X039M35,844,experiment,12,↓,down,↓,0.6587664999970002,True,15
X039M35,845,experiment,48,→,right,→,0.8044054999991204,True,15
X039M35,846,experiment,72,↑,no_key,no_letter,-1.0,False,15
X039M35,847,experiment,60,↓,no_key,no_letter,-1.0,False,15
X039M35,848,experiment,144,↓,down,↓,0.7607797999989998,True,15
X039M35,849,experiment,144,←,left,←,0.6602388999999675,True,15
