PART_ID,Trial_no,Trial_type,PDI,Stim_letter,Key_pressed,letter_choose,Rt,Corr,Stimulus Time
X040K32,1,training,10,↑,no_key,no_letter,-1.0,False,30
X040K32,2,training,10,←,right,→,0.6337463000090793,False,30
X040K32,3,training,10,←,up,↑,1.4296062999637797,False,30
X040K32,4,training,10,←,down,↓,1.580416199984029,False,30
X040K32,5,training,10,→,no_key,no_letter,-1.0,False,30
X040K32,6,training,10,↑,left,←,0.7866945998976007,False,30
X040K32,7,training,10,→,right,→,0.43380230001639575,True,30
X040K32,8,training,10,↑,right,→,0.33420709997881204,False,30
X040K32,9,training,10,←,right,→,0.36697249999269843,False,30
X040K32,10,training,10,←,left,←,0.33360070001799613,True,30
X040K32,11,training,10,↑,left,←,0.5837815999984741,False,30
X040K32,12,training,10,↑,no_key,no_letter,-1.0,False,30
X040K32,13,training,10,↓,left,←,0.9274700999958441,False,30
X040K32,14,training,10,↑,up,↑,0.8509424000512809,True,30
X040K32,15,training,10,←,left,←,0.6952159999636933,True,30
X040K32,16,training,10,→,left,←,0.971219899947755,False,30
X040K32,17,training,10,↓,left,←,0.7410272000124678,False,30
X040K32,18,training,10,↑,up,↑,0.7077788000460714,True,30
X040K32,19,training,10,↓,down,↓,1.16870309994556,True,30
X040K32,20,training,10,↑,left,←,0.766559400013648,False,30
X040K32,21,training,10,↑,left,←,1.304424999980256,False,18
X040K32,22,training,10,←,no_key,no_letter,-1.0,False,18
X040K32,23,training,10,↓,right,→,0.9834140000166371,False,18
X040K32,24,training,10,↑,up,↑,0.5432597999460995,True,18
X040K32,25,training,10,↓,down,↓,1.0244759999914095,True,18
X040K32,26,training,10,←,left,←,0.5648583000293002,True,18
X040K32,27,training,10,↑,up,↑,1.0521148999687284,True,18
X040K32,28,training,10,→,right,→,0.5715815000003204,True,18
X040K32,29,training,10,↓,down,↓,0.7252855999395251,True,18
X040K32,30,training,10,←,left,←,0.6438541999086738,True,18
X040K32,31,training,84,←,left,←,0.48438409995287657,True,15
X040K32,32,training,168,←,left,←,1.6095560999820009,True,15
X040K32,33,training,36,←,right,→,0.6966942000435665,False,15
X040K32,34,experiment,96,→,right,→,0.8753065000055358,True,15
X040K32,35,experiment,132,↑,left,←,0.5401835000375286,False,15
X040K32,36,experiment,60,↑,up,↑,0.7920887999935076,True,15
X040K32,37,experiment,72,→,left,←,0.818283100030385,False,15
X040K32,38,experiment,12,→,left,←,0.5960456000175327,False,15
X040K32,39,experiment,132,↓,down,↓,0.7142767999321222,True,15
X040K32,40,experiment,156,↓,down,↓,0.6457885999698192,True,15
X040K32,41,experiment,96,←,left,←,0.7351135000353679,True,15
X040K32,42,experiment,72,↑,up,↑,0.7973187000025064,True,15
X040K32,43,experiment,108,↓,down,↓,0.4221323999809101,True,15
X040K32,44,experiment,180,←,right,→,0.5706711000530049,False,15
X040K32,45,experiment,48,↓,down,↓,0.7945177999790758,True,15
X040K32,46,experiment,60,↓,down,↓,0.48671319999266416,True,15
X040K32,47,experiment,60,↓,down,↓,0.7328968000365421,True,15
X040K32,48,experiment,84,←,left,←,0.807800899958238,True,15
X040K32,49,experiment,60,↓,down,↓,0.642930900095962,True,15
X040K32,50,experiment,156,→,left,←,0.9073149999603629,False,15
X040K32,51,experiment,108,↓,down,↓,0.6584878000430763,True,15
X040K32,52,experiment,132,→,right,→,0.5503157000057399,True,15
X040K32,53,experiment,84,←,right,→,0.5421075000194833,False,15
X040K32,54,experiment,36,↓,down,↓,0.6224202000303194,True,15
X040K32,55,experiment,12,→,right,→,0.6411386000690982,True,15
X040K32,56,experiment,96,→,right,→,0.5331418999703601,True,15
X040K32,57,experiment,144,↓,left,←,0.8044043000554666,False,15
X040K32,58,experiment,48,→,right,→,0.5510686000343412,True,15
X040K32,59,experiment,132,→,right,→,0.7873321000952274,True,15
X040K32,60,experiment,24,↑,up,↑,0.735708300024271,True,15
X040K32,61,experiment,156,→,right,→,0.7141767999855801,True,15
X040K32,62,experiment,156,←,right,→,0.682060300023295,False,15
X040K32,63,experiment,84,↑,up,↑,0.9086106000468135,True,15
X040K32,64,experiment,24,←,left,←,0.5383807000471279,True,15
X040K32,65,experiment,36,↓,down,↓,0.6542849000543356,True,15
X040K32,66,experiment,108,↑,up,↑,0.7621892999159172,True,15
X040K32,67,experiment,36,→,right,→,0.7732872000196949,True,15
X040K32,68,experiment,72,→,left,←,0.6620232999557629,False,15
X040K32,69,experiment,96,↓,down,↓,0.8729639000957832,True,15
X040K32,70,experiment,36,↓,down,↓,0.5191930000437424,True,15
X040K32,71,experiment,12,↑,down,↓,0.6887984999921173,False,15
X040K32,72,experiment,168,↑,down,↓,0.5526264000218362,False,15
X040K32,73,experiment,180,↓,down,↓,0.5892534999875352,True,15
X040K32,74,experiment,120,←,left,←,0.4749716999940574,True,15
X040K32,75,experiment,144,↑,down,↓,0.805400799959898,False,15
X040K32,76,experiment,84,↓,down,↓,0.8224014999577776,True,15
X040K32,77,experiment,168,↑,down,↓,0.782122700009495,False,15
X040K32,78,experiment,180,←,right,→,0.6525023999856785,False,15
X040K32,79,experiment,72,←,left,←,0.6738300001015887,True,15
X040K32,80,experiment,144,↓,down,↓,0.7021183000179008,True,15
X040K32,81,experiment,168,←,left,←,0.5048107999609783,True,15
X040K32,82,experiment,168,←,down,↓,0.5598154000472277,False,15
X040K32,83,experiment,120,↓,down,↓,0.7307502999901772,True,15
X040K32,84,experiment,48,↑,right,→,0.9048460000194609,False,15
X040K32,85,experiment,144,→,left,←,0.7898632999276742,False,15
X040K32,86,experiment,180,↑,up,↑,0.6685350000625476,True,15
X040K32,87,experiment,120,←,left,←,0.5519247999181971,True,15
X040K32,88,experiment,120,→,right,→,0.5707357000792399,True,15
X040K32,89,experiment,48,←,left,←,0.8086808000225574,True,15
X040K32,90,experiment,12,→,left,←,0.703004700015299,False,15
X040K32,91,experiment,24,←,up,↑,1.4251971000339836,False,15
X040K32,92,experiment,24,→,right,→,0.9025493999943137,True,15
X040K32,93,experiment,108,↑,up,↑,0.6435043000383303,True,15
X040K32,94,training,144,←,down,↓,1.2312780000502244,False,15
X040K32,95,training,48,↑,up,↑,0.5188047999981791,True,15
X040K32,96,training,36,←,right,→,0.6017660999204963,False,15
X040K32,97,experiment,48,→,right,→,0.5636547999456525,True,15
X040K32,98,experiment,132,←,left,←,0.6540691000409424,True,15
X040K32,99,experiment,156,↑,up,↑,0.6883291000267491,True,15
X040K32,100,experiment,180,↑,up,↑,0.5990446999203414,True,15
X040K32,101,experiment,84,←,right,→,0.6565152000403032,False,15
X040K32,102,experiment,144,↑,up,↑,0.5526276999153197,True,15
X040K32,103,experiment,12,↑,up,↑,0.8104534999001771,True,15
X040K32,104,experiment,72,↓,up,↑,0.6819922999711707,False,15
X040K32,105,experiment,144,←,left,←,0.6932221000315621,True,15
X040K32,106,experiment,96,↓,left,←,0.738181299995631,False,15
X040K32,107,experiment,60,←,up,↑,1.0436064000241458,False,15
X040K32,108,experiment,36,↓,up,↑,0.895020000054501,False,15
X040K32,109,experiment,12,↓,down,↓,0.920998299960047,True,15
X040K32,110,experiment,120,↓,right,→,1.153925499995239,False,15
X040K32,111,experiment,96,→,right,→,0.766866400022991,True,15
X040K32,112,experiment,84,↓,down,↓,1.097293500090018,True,15
X040K32,113,experiment,132,↑,up,↑,0.7322586999507621,True,15
X040K32,114,experiment,168,↑,down,↓,0.9366344000445679,False,15
X040K32,115,experiment,60,←,left,←,0.6185504000168294,True,15
X040K32,116,experiment,156,←,left,←,0.7115744999609888,True,15
X040K32,117,experiment,12,←,right,→,0.7231758999405429,False,15
X040K32,118,experiment,132,→,up,↑,1.033517700037919,False,15
X040K32,119,experiment,24,←,right,→,0.6241929000243545,False,15
X040K32,120,experiment,72,→,right,→,0.8206275999546051,True,15
X040K32,121,experiment,24,↓,down,↓,0.6221274000126868,True,15
X040K32,122,experiment,108,↑,up,↑,0.5848653999855742,True,15
X040K32,123,experiment,24,↓,down,↓,0.5989137999713421,True,15
X040K32,124,experiment,60,→,right,→,0.7103954999474809,True,15
X040K32,125,experiment,72,←,left,←,0.578978699981235,True,15
X040K32,126,experiment,120,←,right,→,0.8038488000165671,False,15
X040K32,127,experiment,36,←,left,←,0.5610123999649659,True,15
X040K32,128,experiment,156,↓,down,↓,0.5906023000134155,True,15
X040K32,129,experiment,108,↑,up,↑,0.5888274000026286,True,15
X040K32,130,experiment,84,←,left,←,0.6829161000205204,True,15
X040K32,131,experiment,120,←,left,←,0.48573439999017864,True,15
X040K32,132,experiment,120,←,left,←,0.4943050000583753,True,15
X040K32,133,experiment,12,↑,up,↑,0.8051491000223905,True,15
X040K32,134,experiment,48,←,right,→,0.7899679999100044,False,15
X040K32,135,experiment,84,→,right,→,0.6813478000694886,True,15
X040K32,136,experiment,168,←,left,←,1.3268016000511125,True,15
X040K32,137,experiment,36,→,right,→,0.5552609000587836,True,15
X040K32,138,experiment,36,←,left,←,0.746253399993293,True,15
X040K32,139,experiment,72,↓,down,↓,0.777165099978447,True,15
X040K32,140,experiment,24,←,left,←,0.6869911000831053,True,15
X040K32,141,experiment,168,↓,down,↓,0.6862952999072149,True,15
X040K32,142,experiment,96,↑,up,↑,0.9119716000277549,True,15
X040K32,143,experiment,108,↑,up,↑,0.6875414999667555,True,15
X040K32,144,experiment,156,↓,down,↓,0.6795150999678299,True,15
X040K32,145,experiment,180,↓,down,↓,0.4941173999104649,True,15
X040K32,146,experiment,108,↑,up,↑,0.792085999972187,True,15
X040K32,147,experiment,144,←,left,←,0.6817959999898449,True,15
X040K32,148,experiment,168,↓,down,↓,0.8035695999860764,True,15
X040K32,149,experiment,96,↑,up,↑,0.5972324999747798,True,15
X040K32,150,experiment,180,↓,down,↓,0.510152900009416,True,15
X040K32,151,experiment,48,↓,right,→,0.9162088000448421,False,15
X040K32,152,experiment,60,←,no_key,no_letter,-1.0,False,15
X040K32,153,experiment,132,←,down,↓,0.6462327999761328,False,15
X040K32,154,experiment,144,↑,up,↑,1.1675514999078587,True,15
X040K32,155,experiment,48,↑,down,↓,1.3083137000212446,False,15
X040K32,156,experiment,180,→,right,→,0.4617406000616029,True,15
X040K32,157,training,84,↑,up,↑,0.6963322000810876,True,15
X040K32,158,training,144,→,right,→,0.6901633000234142,True,15
X040K32,159,training,60,→,left,←,0.8309984999941662,False,15
X040K32,160,experiment,24,←,right,→,0.9278121999232098,False,15
X040K32,161,experiment,96,↑,up,↑,0.7694633000064641,True,15
X040K32,162,experiment,120,←,left,←,0.4742738000350073,True,15
X040K32,163,experiment,12,↑,down,↓,0.826385899912566,False,15
X040K32,164,experiment,24,→,left,←,1.1175318999448791,False,15
X040K32,165,experiment,12,↑,up,↑,0.6961146000539884,True,15
X040K32,166,experiment,72,↑,down,↓,0.8528962999116629,False,15
X040K32,167,experiment,72,→,right,→,0.6362074000062421,True,15
X040K32,168,experiment,156,→,right,→,0.6884466999908909,True,15
X040K32,169,experiment,156,←,left,←,1.0617566999280825,True,15
X040K32,170,experiment,36,↓,down,↓,0.7472974999109283,True,15
X040K32,171,experiment,180,←,right,→,1.0140433000633493,False,15
X040K32,172,experiment,60,↑,up,↑,0.8430507000302896,True,15
X040K32,173,experiment,36,→,right,→,0.5779730000067502,True,15
X040K32,174,experiment,168,→,right,→,0.49825130007229745,True,15
X040K32,175,experiment,168,→,left,←,0.6496741999872029,False,15
X040K32,176,experiment,48,↑,up,↑,0.7152483999961987,True,15
X040K32,177,experiment,132,←,right,→,0.9514288000063971,False,15
X040K32,178,experiment,180,←,right,→,0.603034200030379,False,15
X040K32,179,experiment,180,→,right,→,0.5579480000305921,True,15
X040K32,180,experiment,132,↑,up,↑,0.5370399000821635,True,15
X040K32,181,experiment,12,→,right,→,0.7340292999288067,True,15
X040K32,182,experiment,144,→,left,←,0.6424055999377742,False,15
X040K32,183,experiment,72,←,left,←,0.512727800058201,True,15
X040K32,184,experiment,132,↑,up,↑,0.6505296999821439,True,15
X040K32,185,experiment,108,↑,right,→,0.6246995999244973,False,15
X040K32,186,experiment,36,↓,up,↑,0.6250142999924719,False,15
X040K32,187,experiment,96,→,right,→,0.6941585999447852,True,15
X040K32,188,experiment,84,←,right,→,0.5133891999721527,False,15
X040K32,189,experiment,144,←,right,→,0.5567457999568433,False,15
X040K32,190,experiment,72,↓,down,↓,0.8068468000274152,True,15
X040K32,191,experiment,156,←,right,→,0.5029452999588102,False,15
X040K32,192,experiment,156,←,left,←,0.4509621999459341,True,15
X040K32,193,experiment,120,↑,right,→,0.8614409000147134,False,15
X040K32,194,experiment,84,→,left,←,0.5710572000825778,False,15
X040K32,195,experiment,96,→,left,←,0.572930800030008,False,15
X040K32,196,experiment,60,↓,down,↓,0.6654744000406936,True,15
X040K32,197,experiment,84,↑,down,↓,0.6478098999941722,False,15
X040K32,198,experiment,60,←,left,←,0.489038800005801,True,15
X040K32,199,experiment,108,↓,left,←,0.969455499900505,False,15
X040K32,200,experiment,168,→,right,→,0.6121155000291765,True,15
X040K32,201,experiment,24,←,left,←,0.7832745000487193,True,15
X040K32,202,experiment,84,↑,left,←,0.8791159000247717,False,15
X040K32,203,experiment,180,→,right,→,0.5690561999799684,True,15
X040K32,204,experiment,144,↓,right,→,1.6757849999703467,False,15
X040K32,205,experiment,24,←,left,←,0.8705102000385523,True,15
X040K32,206,experiment,168,→,right,→,0.7145644000265747,True,15
X040K32,207,experiment,36,↓,down,↓,0.5424106999998912,True,15
X040K32,208,experiment,96,→,down,↓,0.8246271000243723,False,15
X040K32,209,experiment,48,↓,down,↓,0.6433545999461785,True,15
X040K32,210,experiment,108,←,left,←,0.48049350001383573,True,15
X040K32,211,experiment,132,←,left,←,0.5242540000472218,True,15
X040K32,212,experiment,48,→,right,→,0.5303472999949008,True,15
X040K32,213,experiment,120,→,left,←,0.6919515000190586,False,15
X040K32,214,experiment,120,↓,left,←,0.7715354999527335,False,15
X040K32,215,experiment,108,→,right,→,0.7766267999541014,True,15
X040K32,216,experiment,12,↑,down,↓,0.9227207000367343,False,15
X040K32,217,experiment,48,↓,down,↓,0.6277256000321358,True,15
X040K32,218,experiment,144,↓,down,↓,0.5928483000025153,True,15
X040K32,219,experiment,60,↑,up,↑,0.925053899991326,True,15
X040K32,220,training,180,↓,down,↓,1.1841265999246389,True,16
X040K32,221,training,108,←,up,↑,0.9173118999460712,False,16
X040K32,222,training,120,←,left,←,0.8106043000007048,True,16
X040K32,223,experiment,144,↑,up,↑,0.8634428000077605,True,16
X040K32,224,experiment,36,↓,down,↓,1.2467962000519037,True,16
X040K32,225,experiment,72,←,left,←,0.7595071000978351,True,16
X040K32,226,experiment,168,↓,left,←,0.962940700002946,False,16
X040K32,227,experiment,96,↑,up,↑,0.618434099946171,True,16
X040K32,228,experiment,132,↓,up,↑,0.5384564000414684,False,16
X040K32,229,experiment,168,←,left,←,0.5785803999751806,True,16
X040K32,230,experiment,132,←,left,←,0.6984800000209361,True,16
X040K32,231,experiment,120,↑,up,↑,0.5561113000148907,True,16
X040K32,232,experiment,60,→,up,↑,0.6215820000506938,False,16
X040K32,233,experiment,48,←,left,←,0.5807961000828072,True,16
X040K32,234,experiment,156,↑,up,↑,0.5266683000372723,True,16
X040K32,235,experiment,168,↓,down,↓,0.7757454999955371,True,16
X040K32,236,experiment,24,↑,down,↓,0.8563866000622511,False,16
X040K32,237,experiment,180,←,left,←,0.716465099947527,True,16
X040K32,238,experiment,180,↓,up,↑,1.0366392999421805,False,16
X040K32,239,experiment,168,→,right,→,0.6810046000173315,True,16
X040K32,240,experiment,36,←,left,←,0.6353604999603704,True,16
X040K32,241,experiment,72,↓,down,↓,0.5970609000651166,True,16
X040K32,242,experiment,12,→,left,←,0.6151901000412181,False,16
X040K32,243,experiment,96,↑,up,↑,0.7928412999026477,True,16
X040K32,244,experiment,72,←,left,←,0.45293680008035153,True,16
X040K32,245,experiment,144,↓,left,←,0.47913529991637915,False,16
X040K32,246,experiment,120,↓,up,↑,1.090980999986641,False,16
X040K32,247,experiment,96,←,left,←,0.5072330000111833,True,16
X040K32,248,experiment,72,↑,up,↑,0.5579578999895602,True,16
X040K32,249,experiment,24,→,left,←,0.6074098000535741,False,16
X040K32,250,experiment,96,↓,up,↑,0.8353165999287739,False,16
X040K32,251,experiment,108,→,left,←,0.6635941000422463,False,16
X040K32,252,experiment,48,←,down,↓,1.008152800030075,False,16
X040K32,253,experiment,120,↓,down,↓,0.9119912999449298,True,16
X040K32,254,experiment,60,→,left,←,0.9995502000674605,False,16
X040K32,255,experiment,180,↑,left,←,0.7922846999717876,False,16
X040K32,256,experiment,48,→,right,→,0.5281288000987843,True,16
X040K32,257,experiment,156,←,left,←,0.7946315000299364,True,16
X040K32,258,experiment,156,→,right,→,0.4813283000839874,True,16
X040K32,259,experiment,108,←,right,→,0.8029741999926046,False,16
X040K32,260,experiment,60,←,right,→,0.6872803000733256,False,16
X040K32,261,experiment,60,↓,up,↑,0.8175776000134647,False,16
X040K32,262,experiment,132,↑,up,↑,0.5402579000219703,True,16
X040K32,263,experiment,36,↑,up,↑,0.5327472999924794,True,16
X040K32,264,experiment,84,←,right,→,1.108649699948728,False,16
X040K32,265,experiment,156,↓,down,↓,0.7308590000029653,True,16
X040K32,266,experiment,132,↓,down,↓,1.1673963000066578,True,16
X040K32,267,experiment,108,↓,right,→,1.0637229999992996,False,16
X040K32,268,experiment,144,→,left,←,1.3569260999793187,False,16
X040K32,269,experiment,12,↑,right,→,1.0732925001066178,False,16
X040K32,270,experiment,24,↓,down,↓,0.7675558000337332,True,16
X040K32,271,experiment,36,←,left,←,0.6244888999499381,True,16
X040K32,272,experiment,120,↑,up,↑,0.64207569998689,True,16
X040K32,273,experiment,144,→,right,→,0.8140037000412121,True,16
X040K32,274,experiment,108,↓,down,↓,0.8004771999549121,True,16
X040K32,275,experiment,84,→,right,→,0.7867085000034422,True,16
X040K32,276,experiment,24,→,right,→,0.715655800071545,True,16
X040K32,277,experiment,180,←,left,←,0.563630299991928,True,16
X040K32,278,experiment,12,↓,down,↓,0.5746456000488251,True,16
X040K32,279,experiment,84,↓,down,↓,0.5954770999960601,True,16
X040K32,280,experiment,48,↓,up,↑,0.8652293999912217,False,16
X040K32,281,experiment,84,↑,up,↑,0.5500378001015633,True,16
X040K32,282,experiment,12,←,left,←,0.8124750000424683,True,16
X040K32,283,training,132,↓,down,↓,0.645667799981311,True,16
X040K32,284,training,24,←,left,←,0.5175527998944744,True,16
X040K32,285,training,156,↑,down,↓,0.557571699959226,False,16
X040K32,286,experiment,48,←,up,↑,0.7639682999579236,False,16
X040K32,287,experiment,24,↓,down,↓,0.7824277000036091,True,16
X040K32,288,experiment,60,←,right,→,0.7081495000747964,False,16
X040K32,289,experiment,132,←,right,→,0.6978530999040231,False,16
X040K32,290,experiment,180,↓,down,↓,0.6653021000092849,True,16
X040K32,291,experiment,60,↓,no_key,no_letter,-1.0,False,16
X040K32,292,experiment,96,→,right,→,0.6277244000229985,True,16
X040K32,293,experiment,12,→,right,→,0.7089747000718489,True,16
X040K32,294,experiment,108,←,left,←,0.5916708000004292,True,16
X040K32,295,experiment,84,↑,down,↓,0.7768349000252783,False,16
X040K32,296,experiment,12,↑,up,↑,0.7570009001065046,True,16
X040K32,297,experiment,120,→,right,→,0.6404495000606403,True,16
X040K32,298,experiment,72,↑,right,→,1.3222969999769703,False,16
X040K32,299,experiment,156,→,right,→,0.6926463999552652,True,16
X040K32,300,experiment,108,↓,down,↓,0.5598478999454528,True,16
X040K32,301,experiment,144,→,no_key,no_letter,-1.0,False,16
X040K32,302,experiment,84,←,left,←,0.7930215999949723,True,16
X040K32,303,experiment,180,↓,up,↑,0.8637564999517053,False,16
X040K32,304,experiment,60,↑,up,↑,0.5358969999942929,True,16
X040K32,305,experiment,168,↓,down,↓,0.6644181000301614,True,16
X040K32,306,experiment,72,→,left,←,0.703031099983491,False,16
X040K32,307,experiment,108,↓,down,↓,0.5535475000506267,True,16
X040K32,308,experiment,180,↑,up,↑,0.5127235000254586,True,16
X040K32,309,experiment,120,←,left,←,0.6857973999576643,True,16
X040K32,310,experiment,120,←,up,↑,1.0925384999718517,False,16
X040K32,311,experiment,48,↓,down,↓,0.6207447999622673,True,16
X040K32,312,experiment,36,→,right,→,0.5166850000387058,True,16
X040K32,313,experiment,48,←,right,→,0.9872178999939933,False,16
X040K32,314,experiment,156,↑,left,←,0.8821209999732673,False,16
X040K32,315,experiment,132,←,right,→,0.5934068999486044,False,16
X040K32,316,experiment,132,↑,down,↓,0.7659832000499591,False,16
X040K32,317,experiment,156,↑,up,↑,0.6149463000474498,True,16
X040K32,318,experiment,96,↓,down,↓,0.8255579000106081,True,16
X040K32,319,experiment,168,→,left,←,0.7605238000396639,False,16
X040K32,320,experiment,24,→,left,←,1.0968204999808222,False,16
X040K32,321,experiment,12,↑,up,↑,0.6225728000281379,True,16
X040K32,322,experiment,12,→,left,←,1.1290586000541225,False,16
X040K32,323,experiment,36,→,left,←,1.172613500035368,False,16
X040K32,324,experiment,36,↑,down,↓,0.9177075999323279,False,16
X040K32,325,experiment,144,↓,down,↓,0.7395483000436798,True,16
X040K32,326,experiment,120,→,right,→,0.9905170999700204,True,16
X040K32,327,experiment,84,→,no_key,no_letter,-1.0,False,16
X040K32,328,experiment,36,↓,up,↑,0.5242342000128701,False,16
X040K32,329,experiment,60,→,right,→,0.5049239000072703,True,16
X040K32,330,experiment,84,←,right,→,0.5316199999069795,False,16
X040K32,331,experiment,108,←,right,→,0.5927792000584304,False,16
X040K32,332,experiment,144,→,right,→,0.5726364000001922,True,16
X040K32,333,experiment,72,→,down,↓,0.21650069998577237,False,16
X040K32,334,experiment,168,←,left,←,0.5492426999844611,True,16
X040K32,335,experiment,24,↓,down,↓,0.5015389000764117,True,16
X040K32,336,experiment,132,→,right,→,0.7552895999979228,True,16
X040K32,337,experiment,96,↓,down,↓,0.45257540000602603,True,16
X040K32,338,experiment,72,→,right,→,0.6191233999561518,True,16
X040K32,339,experiment,156,↑,up,↑,0.714975000009872,True,16
X040K32,340,experiment,180,←,down,↓,1.2973624999867752,False,16
X040K32,341,experiment,48,←,left,←,0.5003853000234812,True,16
X040K32,342,experiment,168,↑,up,↑,0.5766003000317141,True,16
X040K32,343,experiment,24,→,right,→,0.817847799975425,True,16
X040K32,344,experiment,96,↓,down,↓,0.7128961998969316,True,16
X040K32,345,experiment,144,↓,down,↓,0.5339910000329837,True,16
X040K32,346,training,60,↓,left,←,1.0106260000029579,False,17
X040K32,347,training,180,←,left,←,0.4521531000500545,True,17
X040K32,348,training,108,↑,down,↓,0.7751912999665365,False,17
X040K32,349,experiment,168,←,left,←,0.6895626001060009,True,17
X040K32,350,experiment,96,←,right,→,0.5916053000837564,False,17
X040K32,351,experiment,12,←,right,→,0.6037768999813125,False,17
X040K32,352,experiment,48,↑,up,↑,0.5630862000398338,True,17
X040K32,353,experiment,48,↑,up,↑,0.557331999996677,True,17
X040K32,354,experiment,132,←,left,←,0.5738901000004262,True,17
X040K32,355,experiment,96,←,left,←,0.7099363000597805,True,17
X040K32,356,experiment,96,→,right,→,0.5231595999794081,True,17
X040K32,357,experiment,132,→,right,→,0.5963608999736607,True,17
X040K32,358,experiment,96,↓,down,↓,0.710724400007166,True,17
X040K32,359,experiment,84,←,left,←,0.551220600027591,True,17
X040K32,360,experiment,72,→,left,←,0.5238422999391332,False,17
X040K32,361,experiment,60,↑,up,↑,0.8745332999387756,True,17
X040K32,362,experiment,72,←,left,←,0.5837401000317186,True,17
X040K32,363,experiment,36,→,right,→,0.5374262999976054,True,17
X040K32,364,experiment,180,←,left,←,0.5092666000127792,True,17
X040K32,365,experiment,168,↓,down,↓,0.761318700038828,True,17
X040K32,366,experiment,120,←,right,→,0.702711799996905,False,17
X040K32,367,experiment,108,→,right,→,0.7151168000418693,True,17
X040K32,368,experiment,84,←,left,←,0.493824900011532,True,17
X040K32,369,experiment,180,←,left,←,0.4173499000025913,True,17
X040K32,370,experiment,144,↑,up,↑,0.9184188999934122,True,17
X040K32,371,experiment,24,←,right,→,1.382404200034216,False,17
X040K32,372,experiment,84,↑,left,←,0.9508412000723183,False,17
X040K32,373,experiment,60,↓,down,↓,0.616215999936685,True,17
X040K32,374,experiment,132,→,left,←,0.49090799991972744,False,17
X040K32,375,experiment,36,↑,up,↑,0.5562049999134615,True,17
X040K32,376,experiment,180,↑,up,↑,0.6849990000482649,True,17
X040K32,377,experiment,72,↑,up,↑,0.7087016999721527,True,17
X040K32,378,experiment,12,↓,down,↓,0.5860384999541566,True,17
X040K32,379,experiment,120,↑,up,↑,0.7163010000949726,True,17
X040K32,380,experiment,132,↑,left,←,0.6896988999797031,False,17
X040K32,381,experiment,60,↓,down,↓,0.501325499964878,True,17
X040K32,382,experiment,144,←,left,←,0.41720520006492734,True,17
X040K32,383,experiment,156,↑,down,↓,0.7555974000133574,False,17
X040K32,384,experiment,144,↓,down,↓,0.6722424000035971,True,17
X040K32,385,experiment,120,↑,up,↑,0.7199075999669731,True,17
X040K32,386,experiment,120,←,left,←,0.6237042000284418,True,17
X040K32,387,experiment,24,↑,up,↑,0.49167610006406903,True,17
X040K32,388,experiment,48,→,right,→,0.49094559997320175,True,17
X040K32,389,experiment,108,←,down,↓,0.8965036000590771,False,17
X040K32,390,experiment,24,→,right,→,0.7456931000342593,True,17
X040K32,391,experiment,84,↓,down,↓,0.5115302000194788,True,17
X040K32,392,experiment,36,→,no_key,no_letter,-1.0,False,17
X040K32,393,experiment,108,←,left,←,0.6495261000236496,True,17
X040K32,394,experiment,156,→,right,→,0.7054118000669405,True,17
X040K32,395,experiment,24,←,down,↓,1.764428900089115,False,17
X040K32,396,experiment,168,←,left,←,0.5442325999028981,True,17
X040K32,397,experiment,36,←,left,←,0.5304401000030339,True,17
X040K32,398,experiment,60,→,left,←,0.5436193000059575,False,17
X040K32,399,experiment,72,←,left,←,0.608319399994798,True,17
X040K32,400,experiment,12,→,right,→,0.5076864000875503,True,17
X040K32,401,experiment,168,↓,down,↓,0.5683433000231162,True,17
X040K32,402,experiment,156,←,left,←,0.5043069999665022,True,17
X040K32,403,experiment,48,↑,up,↑,0.46622250007931143,True,17
X040K32,404,experiment,144,↑,up,↑,0.5045970999635756,True,17
X040K32,405,experiment,156,↑,left,←,1.2559688000474125,False,17
X040K32,406,experiment,180,→,right,→,0.5199524000054225,True,17
X040K32,407,experiment,12,←,left,←,0.9904723999788985,True,17
X040K32,408,experiment,108,↑,right,→,1.6118385000154376,False,17
X040K32,409,training,84,←,left,←,0.5728526000166312,True,17
X040K32,410,training,144,↓,left,←,0.6163718999596313,False,17
X040K32,411,training,84,↓,down,↓,0.9074820000678301,True,17
X040K32,412,experiment,72,↓,up,↑,0.6515717000002041,False,17
X040K32,413,experiment,132,→,right,→,0.5570264999987558,True,17
X040K32,414,experiment,96,↑,up,↑,0.5226464999141172,True,17
X040K32,415,experiment,48,←,left,←,0.5684722999576479,True,17
X040K32,416,experiment,180,↓,right,→,0.6879499000497162,False,17
X040K32,417,experiment,180,→,right,→,0.5553558999672532,True,17
X040K32,418,experiment,96,←,left,←,0.4917632000287995,True,17
X040K32,419,experiment,156,→,right,→,0.49548979999963194,True,17
X040K32,420,experiment,60,←,right,→,0.5967192999087274,False,17
X040K32,421,experiment,132,→,right,→,0.8956506999675184,True,17
X040K32,422,experiment,72,→,right,→,0.6512309999670833,True,17
X040K32,423,experiment,132,→,right,→,0.7954347999766469,True,17
X040K32,424,experiment,60,↓,up,↑,1.036667799926363,False,17
X040K32,425,experiment,108,↓,up,↑,0.715785100008361,False,17
X040K32,426,experiment,144,↓,down,↓,0.630915499990806,True,17
X040K32,427,experiment,48,→,right,→,0.4769995000679046,True,17
X040K32,428,experiment,84,↑,down,↓,0.9209185999352485,False,17
X040K32,429,experiment,168,←,down,↓,0.7276611999841407,False,17
X040K32,430,experiment,156,←,left,←,0.7751147999661043,True,17
X040K32,431,experiment,12,↓,down,↓,0.9160994000267237,True,17
X040K32,432,experiment,120,↓,up,↑,0.6213078000582755,False,17
X040K32,433,experiment,180,↑,right,→,0.8152296000625938,False,17
X040K32,434,experiment,120,↓,down,↓,0.5535070999758318,True,17
X040K32,435,experiment,72,→,left,←,0.6465447000227869,False,17
X040K32,436,experiment,120,→,right,→,0.4883980000158772,True,17
X040K32,437,experiment,120,→,left,←,0.7862014999845996,False,17
X040K32,438,experiment,144,→,right,→,0.6061631999909878,True,17
X040K32,439,experiment,60,↓,right,→,0.7435035000089556,False,17
X040K32,440,experiment,84,→,left,←,0.6982951000100002,False,17
X040K32,441,experiment,84,↓,down,↓,0.7053890998940915,True,17
X040K32,442,experiment,36,←,left,←,0.6632924999576062,True,17
X040K32,443,experiment,156,↑,right,→,0.9489092999137938,False,17
X040K32,444,experiment,84,↑,up,↑,0.68759190000128,True,17
X040K32,445,experiment,168,→,right,→,0.7562194999773055,True,17
X040K32,446,experiment,96,→,left,←,0.6805379999568686,False,17
X040K32,447,experiment,36,→,right,→,0.47224400006234646,True,17
X040K32,448,experiment,168,↑,up,↑,0.6193785999203101,True,17
X040K32,449,experiment,144,←,left,←,0.6673524000216275,True,17
X040K32,450,experiment,48,→,right,→,0.790329199982807,True,17
X040K32,451,experiment,180,←,left,←,0.6265783999115229,True,17
X040K32,452,experiment,24,↓,down,↓,0.9139734000200406,True,17
X040K32,453,experiment,132,↑,up,↑,0.6408883000258356,True,17
X040K32,454,experiment,144,↓,down,↓,0.6277812999906018,True,17
X040K32,455,experiment,36,←,left,←,0.6047392999753356,True,17
X040K32,456,experiment,24,←,left,←,0.4968382000224665,True,17
X040K32,457,experiment,108,↑,up,↑,0.7867284999229014,True,17
X040K32,458,experiment,24,←,left,←,0.7463089000666514,True,17
X040K32,459,experiment,72,↑,up,↑,0.5098147999960929,True,17
X040K32,460,experiment,108,↑,left,←,0.8733448000857607,False,17
X040K32,461,experiment,60,→,right,→,0.54239299998153,True,17
X040K32,462,experiment,12,←,left,←,0.7369910000124946,True,17
X040K32,463,experiment,168,←,left,←,0.7597857000073418,True,17
X040K32,464,experiment,48,↓,down,↓,0.738211499992758,True,17
X040K32,465,experiment,12,→,right,→,0.48900649999268353,True,17
X040K32,466,experiment,108,←,left,←,0.8284966999199241,True,17
X040K32,467,experiment,36,→,right,→,0.6100189000135288,True,17
X040K32,468,experiment,24,↑,up,↑,0.6668820000486448,True,17
X040K32,469,experiment,12,↓,up,↑,0.5642765000229701,False,17
X040K32,470,experiment,156,→,right,→,0.5264104000525549,True,17
X040K32,471,experiment,96,→,left,←,0.6014855999965221,False,17
X040K32,472,training,120,←,left,←,0.6096797999925911,True,17
X040K32,473,training,108,→,right,→,0.5935487999813631,True,17
X040K32,474,training,180,↓,up,↑,0.5693018999882042,False,17
X040K32,475,experiment,144,→,left,←,0.8202922000782564,False,17
X040K32,476,experiment,36,←,left,←,0.6784281999571249,True,17
X040K32,477,experiment,12,↓,right,→,0.8854486999334767,False,17
X040K32,478,experiment,72,↑,down,↓,0.9084484999766573,False,17
X040K32,479,experiment,132,↑,down,↓,0.9614413999952376,False,17
X040K32,480,experiment,36,↓,down,↓,0.8084601999726146,True,17
X040K32,481,experiment,96,↓,down,↓,0.6859876000089571,True,17
X040K32,482,experiment,84,→,right,→,0.6941798999905586,True,17
X040K32,483,experiment,60,←,left,←,0.7726792000466958,True,17
X040K32,484,experiment,36,↓,down,↓,0.8904979999642819,True,17
X040K32,485,experiment,132,↓,down,↓,0.7219364999327809,True,17
X040K32,486,experiment,12,←,left,←,0.753978000022471,True,17
X040K32,487,experiment,120,←,right,→,0.5894220999907702,False,17
X040K32,488,experiment,36,↑,down,↓,0.5825672999490052,False,17
X040K32,489,experiment,180,↓,down,↓,0.5385679999599233,True,17
X040K32,490,experiment,180,→,right,→,0.46757580002304167,True,17
X040K32,491,experiment,84,←,left,←,0.6241076999576762,True,17
X040K32,492,experiment,60,←,right,→,0.6438548999140039,False,17
X040K32,493,experiment,12,→,left,←,0.4771764000179246,False,17
X040K32,494,experiment,96,←,left,←,0.4862801000708714,True,17
X040K32,495,experiment,144,↑,up,↑,1.0669090000446886,True,17
X040K32,496,experiment,144,←,left,←,0.6299128999235108,True,17
X040K32,497,experiment,144,←,left,←,0.49109969998244196,True,17
X040K32,498,experiment,96,↓,down,↓,0.4681948999641463,True,17
X040K32,499,experiment,156,←,left,←,0.5947071000700817,True,17
X040K32,500,experiment,84,→,right,→,0.4896737999515608,True,17
X040K32,501,experiment,60,↓,left,←,0.8837750001111999,False,17
X040K32,502,experiment,24,↑,up,↑,0.9752573999576271,True,17
X040K32,503,experiment,120,→,right,→,0.5283048000419512,True,17
X040K32,504,experiment,24,←,left,←,0.5371237000217661,True,17
X040K32,505,experiment,156,↑,up,↑,0.6755061000585556,True,17
X040K32,506,experiment,96,↓,down,↓,0.6041873999638483,True,17
X040K32,507,experiment,108,↑,up,↑,0.5547497000079602,True,17
X040K32,508,experiment,168,→,right,→,0.4795016999123618,True,17
X040K32,509,experiment,108,→,right,→,0.7084593999898061,True,17
X040K32,510,experiment,72,↓,down,↓,0.917407099972479,True,17
X040K32,511,experiment,24,←,left,←,0.7503582000499591,True,17
X040K32,512,experiment,12,←,left,←,0.7464721000287682,True,17
X040K32,513,experiment,48,↑,up,↑,0.6549979000119492,True,17
X040K32,514,experiment,168,↑,up,↑,0.6626164999324828,True,17
X040K32,515,experiment,24,←,right,→,0.6398770000087097,False,17
X040K32,516,experiment,72,↓,down,↓,0.7607980000320822,True,17
X040K32,517,experiment,180,↑,up,↑,0.49445739993825555,True,17
X040K32,518,experiment,48,←,left,←,0.5258862000191584,True,17
X040K32,519,experiment,120,↓,up,↑,1.1128969999263063,False,17
X040K32,520,experiment,84,↑,up,↑,0.7193383000558242,True,17
X040K32,521,experiment,180,↑,left,←,1.071538700023666,False,17
X040K32,522,experiment,168,↑,up,↑,0.6704948999686167,True,17
X040K32,523,experiment,156,→,right,→,0.6625719999428838,True,17
X040K32,524,experiment,48,←,left,←,0.6455226999241859,True,17
X040K32,525,experiment,108,←,right,→,0.5068494000006467,False,17
X040K32,526,experiment,72,←,left,←,0.5520934999221936,True,17
X040K32,527,experiment,48,↑,up,↑,0.5792998999822885,True,17
X040K32,528,experiment,132,↑,no_key,no_letter,-1.0,False,17
X040K32,529,experiment,132,→,up,↑,0.8818048000102863,False,17
X040K32,530,experiment,108,→,right,→,0.5688239999581128,True,17
X040K32,531,experiment,168,←,left,←,0.5956798000261188,True,17
X040K32,532,experiment,120,↑,up,↑,0.803141099982895,True,17
X040K32,533,experiment,60,↓,down,↓,0.6939981000032276,True,17
X040K32,534,experiment,156,↓,down,↓,1.2301145000383258,True,17
X040K32,535,training,60,←,down,↓,1.0107042000163347,False,17
X040K32,536,training,24,↓,down,↓,0.5565409000264481,True,17
X040K32,537,training,96,↑,left,←,0.6912253999616951,False,17
X040K32,538,experiment,48,↓,down,↓,0.5979121000273153,True,17
X040K32,539,experiment,24,→,right,→,0.5020867999410257,True,17
X040K32,540,experiment,120,→,right,→,0.6042401000158861,True,17
X040K32,541,experiment,60,↑,up,↑,0.5420071000698954,True,17
X040K32,542,experiment,168,←,left,←,0.5993369000498205,True,17
X040K32,543,experiment,108,↓,down,↓,1.074332799995318,True,17
X040K32,544,experiment,12,←,left,←,0.5351514000212774,True,17
X040K32,545,experiment,144,→,right,→,0.5376785999396816,True,17
X040K32,546,experiment,84,↓,left,←,0.6897342000156641,False,17
X040K32,547,experiment,72,→,down,↓,0.6530738000292331,False,17
X040K32,548,experiment,180,←,left,←,0.5353160999948159,True,17
X040K32,549,experiment,120,←,no_key,no_letter,-1.0,False,17
X040K32,550,experiment,156,←,left,←,0.470496500027366,True,17
X040K32,551,experiment,48,↑,down,↓,1.1405943999998271,False,17
X040K32,552,experiment,36,↑,up,↑,0.7699193001026288,True,17
X040K32,553,experiment,180,↓,up,↑,0.8432036000303924,False,17
X040K32,554,experiment,108,→,right,→,0.5209759999997914,True,17
X040K32,555,experiment,144,↑,no_key,no_letter,-1.0,False,17
X040K32,556,experiment,96,←,left,←,0.5171485999599099,True,17
X040K32,557,experiment,96,↓,up,↑,0.572538600070402,False,17
X040K32,558,experiment,132,→,right,→,0.6610418999334797,True,17
X040K32,559,experiment,144,↓,down,↓,0.9782559999730438,True,17
X040K32,560,experiment,96,←,left,←,0.8931544000515714,True,17
X040K32,561,experiment,132,←,left,←,0.6368094999343157,True,17
X040K32,562,experiment,84,←,left,←,0.6101741000311449,True,17
X040K32,563,experiment,84,→,right,→,0.7258859999710694,True,17
X040K32,564,experiment,24,→,right,→,0.5747588999802247,True,17
X040K32,565,experiment,60,↓,down,↓,0.8869112000102177,True,17
X040K32,566,experiment,132,↑,up,↑,0.9491938999854028,True,17
X040K32,567,experiment,36,↑,up,↑,0.532985300058499,True,17
X040K32,568,experiment,72,→,left,←,1.0266108999494463,False,17
X040K32,569,experiment,48,↓,down,↓,0.9097629000898451,True,17
X040K32,570,experiment,168,←,left,←,0.5083616999909282,True,17
X040K32,571,experiment,60,→,right,→,0.6046523000113666,True,17
X040K32,572,experiment,48,↑,left,←,1.4656392999459058,False,17
X040K32,573,experiment,120,↓,down,↓,1.2826989000895992,True,17
X040K32,574,experiment,144,←,left,←,0.6832394000375643,True,17
X040K32,575,experiment,12,→,right,→,0.6043819000478834,True,17
X040K32,576,experiment,168,↑,up,↑,0.7515779999084771,True,17
X040K32,577,experiment,72,←,left,←,0.5017412999877706,True,17
X040K32,578,experiment,96,→,right,→,0.6335290999850258,True,17
X040K32,579,experiment,108,↑,up,↑,0.5481210000580177,True,17
X040K32,580,experiment,180,↓,down,↓,0.7321638000430539,True,17
X040K32,581,experiment,84,↑,up,↑,1.073307599988766,True,17
X040K32,582,experiment,132,↓,down,↓,0.8170756000326946,True,17
X040K32,583,experiment,12,→,down,↓,0.9565621999790892,False,17
X040K32,584,experiment,156,←,left,←,0.6928607999579981,True,17
X040K32,585,experiment,156,→,right,→,0.5191972000757232,True,17
X040K32,586,experiment,36,←,left,←,0.5019259999971837,True,17
X040K32,587,experiment,24,↑,right,→,0.7338805999606848,False,17
X040K32,588,experiment,60,↑,left,←,0.6684802999952808,False,17
X040K32,589,experiment,12,←,right,→,0.888420500094071,False,17
X040K32,590,experiment,180,↑,up,↑,0.7725227000191808,True,17
X040K32,591,experiment,108,↑,no_key,no_letter,-1.0,False,17
X040K32,592,experiment,36,→,right,→,0.4541367000201717,True,17
X040K32,593,experiment,168,↓,left,←,0.68338040006347,False,17
X040K32,594,experiment,72,←,left,←,0.6685244000982493,True,17
X040K32,595,experiment,24,→,left,←,0.8938132000621408,False,17
X040K32,596,experiment,120,↑,up,↑,0.47355450002942234,True,17
X040K32,597,experiment,156,↑,up,↑,0.5084587999153882,True,17
X040K32,598,training,36,→,left,←,0.7085530000040308,False,17
X040K32,599,training,48,↓,up,↑,0.6037435000762343,False,17
X040K32,600,training,108,↑,left,←,0.536493599996902,False,17
X040K32,601,experiment,108,↑,down,↓,1.0371253000339493,False,17
X040K32,602,experiment,36,←,left,←,0.5360712000401691,True,17
X040K32,603,experiment,144,↓,left,←,0.8719630999257788,False,17
X040K32,604,experiment,120,↓,down,↓,0.6826288000447676,True,17
X040K32,605,experiment,84,→,right,→,0.5830460999859497,True,17
X040K32,606,experiment,132,←,left,←,0.47734660003334284,True,17
X040K32,607,experiment,180,→,right,→,0.6317547999788076,True,17
X040K32,608,experiment,24,↑,up,↑,0.8186239000642672,True,17
X040K32,609,experiment,24,←,left,←,0.8535261999350041,True,17
X040K32,610,experiment,12,↓,right,→,1.0252668000757694,False,17
X040K32,611,experiment,168,←,up,↑,0.6178514999337494,False,17
X040K32,612,experiment,12,↑,up,↑,0.5244791000150144,True,17
X040K32,613,experiment,108,→,up,↑,0.63950389996171,False,17
X040K32,614,experiment,120,↑,up,↑,0.727769699995406,True,17
X040K32,615,experiment,156,↓,up,↑,0.643923299969174,False,17
X040K32,616,experiment,144,→,right,→,0.8807028000010177,True,17
X040K32,617,experiment,24,←,left,←,0.5506768000777811,True,17
X040K32,618,experiment,84,←,left,←,0.5750857000239193,True,17
X040K32,619,experiment,132,→,right,→,0.6117041999241337,True,17
X040K32,620,experiment,48,←,left,←,0.816874000011012,True,17
X040K32,621,experiment,84,←,right,→,0.593819799949415,False,17
X040K32,622,experiment,168,←,left,←,0.6319314999273047,True,17
X040K32,623,experiment,48,←,left,←,0.57671679998748,True,17
X040K32,624,experiment,120,↑,up,↑,0.6500368000706658,True,17
X040K32,625,experiment,120,↓,down,↓,0.9020709000760689,True,17
X040K32,626,experiment,72,←,left,←,0.6005880999146029,True,17
X040K32,627,experiment,144,↓,up,↑,0.6011670000152662,False,17
X040K32,628,experiment,144,↓,down,↓,0.5566213000565767,True,17
X040K32,629,experiment,156,↓,down,↓,0.7749670998891816,True,17
X040K32,630,experiment,72,↑,up,↑,0.6511190000455827,True,17
X040K32,631,experiment,12,→,down,↓,0.8684324000496417,False,17
X040K32,632,experiment,60,→,right,→,0.5680527000222355,True,17
X040K32,633,experiment,132,→,left,←,0.6074072000337765,False,17
X040K32,634,experiment,96,→,right,→,0.45790779998060316,True,17
X040K32,635,experiment,168,↑,right,→,0.8116652999306098,False,17
X040K32,636,experiment,48,←,no_key,no_letter,-1.0,False,17
X040K32,637,experiment,96,↓,down,↓,0.4003102999413386,True,17
X040K32,638,experiment,84,←,right,→,0.7520670000230893,False,17
X040K32,639,experiment,180,↑,up,↑,0.6435653999214992,True,17
X040K32,640,experiment,108,←,right,→,0.5071378999855369,False,17
X040K32,641,experiment,36,→,right,→,0.5333655000431463,True,17
X040K32,642,experiment,156,↑,up,↑,0.5491244000149891,True,17
X040K32,643,experiment,108,←,left,←,0.6942476000403985,True,17
X040K32,644,experiment,36,↓,down,↓,0.5531781999161467,True,17
X040K32,645,experiment,180,←,up,↑,0.9731575000332668,False,17
X040K32,646,experiment,60,↓,down,↓,0.5714048999361694,True,17
X040K32,647,experiment,60,→,right,→,0.5751257000956684,True,17
X040K32,648,experiment,156,↑,up,↑,0.5390704000601545,True,17
X040K32,649,experiment,36,↓,down,↓,0.7852204999653623,True,17
X040K32,650,experiment,96,←,left,←,0.45940410008188337,True,17
X040K32,651,experiment,60,→,right,→,0.46537019999232143,True,17
X040K32,652,experiment,12,↑,down,↓,0.951181499985978,False,17
X040K32,653,experiment,72,↓,down,↓,0.6915851999074221,True,17
X040K32,654,experiment,180,←,no_key,no_letter,-1.0,False,17
X040K32,655,experiment,72,→,right,→,0.5043768999166787,True,17
X040K32,656,experiment,132,↓,down,↓,0.6542733999667689,True,17
X040K32,657,experiment,96,←,left,←,0.46388189995195717,True,17
X040K32,658,experiment,168,↓,down,↓,0.8645758000202477,True,17
X040K32,659,experiment,24,←,left,←,0.6888809000374749,True,17
X040K32,660,experiment,48,↑,up,↑,0.4564728999976069,True,17
X040K32,661,training,60,→,right,→,0.8301460999064147,True,17
X040K32,662,training,132,↓,down,↓,0.6029623999493197,True,17
X040K32,663,training,48,←,left,←,0.598889600019902,True,17
X040K32,664,experiment,36,→,no_key,no_letter,-1.0,False,17
X040K32,665,experiment,60,←,left,←,0.48481459997128695,True,17
X040K32,666,experiment,60,↓,down,↓,0.500997000024654,True,17
X040K32,667,experiment,156,↑,down,↓,0.5400397999910638,False,17
X040K32,668,experiment,156,↑,up,↑,0.6614391000475734,True,17
X040K32,669,experiment,156,←,left,←,0.7248840999091044,True,17
X040K32,670,experiment,108,↑,up,↑,0.7963494000723585,True,17
X040K32,671,experiment,60,←,right,→,0.5039523999439552,False,17
X040K32,672,experiment,12,↑,left,←,0.7925552000524476,False,17
X040K32,673,experiment,180,↓,down,↓,0.7333131999475881,True,17
X040K32,674,experiment,36,←,right,→,0.7476894999854267,False,17
X040K32,675,experiment,72,←,left,←,0.548530500032939,True,17
X040K32,676,experiment,180,↑,up,↑,0.6705600999994203,True,17
X040K32,677,experiment,84,↓,down,↓,0.5803043999476358,True,17
X040K32,678,experiment,24,↑,up,↑,0.4837975000264123,True,17
X040K32,679,experiment,180,↑,up,↑,0.45452349993865937,True,17
X040K32,680,experiment,96,←,left,←,0.548359900014475,True,17
X040K32,681,experiment,120,↓,up,↑,0.6991207998944446,False,17
X040K32,682,experiment,12,→,left,←,0.4978732999879867,False,17
X040K32,683,experiment,60,←,left,←,0.5030708000995219,True,17
X040K32,684,experiment,96,↓,down,↓,0.7843761000549421,True,17
X040K32,685,experiment,168,↓,down,↓,0.5491140000522137,True,17
X040K32,686,experiment,36,↑,left,←,1.0802000000840053,False,17
X040K32,687,experiment,72,←,left,←,0.6724358999636024,True,17
X040K32,688,experiment,108,←,no_key,no_letter,-1.0,False,17
X040K32,689,experiment,132,↑,down,↓,0.7796032000333071,False,17
X040K32,690,experiment,180,↓,down,↓,0.5706721999449655,True,17
X040K32,691,experiment,108,→,right,→,0.7766452000942081,True,17
X040K32,692,experiment,12,↑,left,←,0.5924409000435844,False,17
X040K32,693,experiment,144,←,no_key,no_letter,-1.0,False,17
X040K32,694,experiment,120,←,left,←,0.4955060000065714,True,17
X040K32,695,experiment,96,→,right,→,0.5138206999981776,True,17
X040K32,696,experiment,84,↓,down,↓,0.5326903000241145,True,17
X040K32,697,experiment,132,↓,down,↓,0.4945044999476522,True,17
X040K32,698,experiment,168,←,right,→,0.5657112000044435,False,17
X040K32,699,experiment,144,→,right,→,0.5428212999831885,True,17
X040K32,700,experiment,48,←,left,←,0.4808562999824062,True,17
X040K32,701,experiment,120,→,right,→,0.5866937999380752,True,17
X040K32,702,experiment,24,→,right,→,0.4589120999444276,True,17
X040K32,703,experiment,168,←,left,←,0.8813161000143737,True,17
X040K32,704,experiment,156,→,left,←,0.5588012000080198,False,17
X040K32,705,experiment,168,←,right,→,0.77400720003061,False,17
X040K32,706,experiment,96,←,left,←,0.4554929001023993,True,17
X040K32,707,experiment,72,↓,down,↓,0.8541012000059709,True,17
X040K32,708,experiment,84,→,right,→,0.7058273999718949,True,17
X040K32,709,experiment,132,←,left,←,0.5042252000421286,True,17
X040K32,710,experiment,108,↑,up,↑,0.7440621999558061,True,17
X040K32,711,experiment,72,↓,up,↑,0.5917563999537379,False,17
X040K32,712,experiment,36,↑,up,↑,0.6165535999462008,True,17
X040K32,713,experiment,132,←,left,←,0.609823799924925,True,17
X040K32,714,experiment,84,←,right,→,0.814131599967368,False,17
X040K32,715,experiment,120,→,right,→,0.5950910999672487,True,17
X040K32,716,experiment,24,←,left,←,0.48648670001421124,True,17
X040K32,717,experiment,48,←,left,←,0.6866874999832362,True,17
X040K32,718,experiment,12,↑,up,↑,1.398875099956058,True,17
X040K32,719,experiment,48,↓,right,→,0.9683748999377713,False,17
X040K32,720,experiment,144,↑,up,↑,0.5124607000034302,True,17
X040K32,721,experiment,24,↓,up,↑,0.6782041999977082,False,17
X040K32,722,experiment,48,↓,up,↑,0.5450749999145046,False,17
X040K32,723,experiment,144,←,left,←,0.4997656000778079,True,17
X040K32,724,training,36,↓,down,↓,0.8364268000004813,True,17
X040K32,725,training,108,↑,up,↑,0.6965837000170723,True,17
X040K32,726,training,12,←,left,←,0.4646620999556035,True,17
X040K32,727,experiment,72,←,left,←,0.9683878000359982,True,17
X040K32,728,experiment,108,↓,right,→,0.5980015000095591,False,17
X040K32,729,experiment,24,→,left,←,0.4959385000402108,False,17
X040K32,730,experiment,108,→,right,→,0.6429066999116912,True,17
X040K32,731,experiment,156,↑,up,↑,0.5417527999961749,True,17
X040K32,732,experiment,48,→,right,→,0.47284329996909946,True,17
X040K32,733,experiment,84,↓,up,↑,0.5805002999259159,False,17
X040K32,734,experiment,168,↑,up,↑,0.5847059999359772,True,17
X040K32,735,experiment,24,↑,up,↑,0.49903980002272874,True,17
X040K32,736,experiment,120,→,right,→,0.5708411000669003,True,17
X040K32,737,experiment,48,↑,up,↑,0.4587357999989763,True,17
X040K32,738,experiment,144,↑,no_key,no_letter,-1.0,False,17
X040K32,739,experiment,180,↓,down,↓,0.719998300075531,True,17
X040K32,740,experiment,60,↑,up,↑,0.7849872000515461,True,17
X040K32,741,experiment,132,↓,down,↓,0.6713099000044167,True,17
X040K32,742,experiment,96,↓,down,↓,0.7642020001076162,True,17
X040K32,743,experiment,12,↑,up,↑,0.6005185999674723,True,17
X040K32,744,experiment,168,↓,down,↓,0.5809754999354482,True,17
X040K32,745,experiment,36,↓,down,↓,0.5665167999686673,True,17
X040K32,746,experiment,156,↓,right,→,0.5885886000469327,False,17
X040K32,747,experiment,156,→,right,→,0.6743704000255093,True,17
X040K32,748,experiment,120,→,right,→,0.7105441000312567,True,17
X040K32,749,experiment,24,→,left,←,0.6607089000754058,False,17
X040K32,750,experiment,120,←,left,←,0.5368962000356987,True,17
X040K32,751,experiment,180,←,right,→,0.5772012999514118,False,17
X040K32,752,experiment,48,→,right,→,0.5698767999419942,True,17
X040K32,753,experiment,180,↑,up,↑,0.5013136999914423,True,17
X040K32,754,experiment,60,↓,up,↑,0.5986025000456721,False,17
X040K32,755,experiment,144,←,left,←,0.6108817999484017,True,17
X040K32,756,experiment,12,→,right,→,0.4742192999692634,True,17
X040K32,757,experiment,120,↑,up,↑,0.49122510000597686,True,17
X040K32,758,experiment,144,←,up,↑,0.6342475999845192,False,17
X040K32,759,experiment,132,←,left,←,0.7173205999424681,True,17
X040K32,760,experiment,156,→,left,←,0.7912689000368118,False,17
X040K32,761,experiment,108,↑,up,↑,0.48359449999406934,True,17
X040K32,762,experiment,180,↑,up,↑,0.5269471000647172,True,17
X040K32,763,experiment,72,↓,down,↓,0.6578354999655858,True,17
X040K32,764,experiment,132,↓,down,↓,0.6616698999423534,True,17
X040K32,765,experiment,24,↑,up,↑,0.7039449999574572,True,17
X040K32,766,experiment,168,↑,up,↑,0.4515394000336528,True,17
X040K32,767,experiment,60,←,left,←,0.6002891999669373,True,17
X040K32,768,experiment,12,←,left,←,0.7098182999761775,True,17
X040K32,769,experiment,36,←,no_key,no_letter,-1.0,False,17
X040K32,770,experiment,84,↑,up,↑,0.6468749999767169,True,17
X040K32,771,experiment,132,↑,up,↑,0.5352577000157908,True,17
X040K32,772,experiment,72,→,left,←,0.624471899936907,False,17
X040K32,773,experiment,60,↓,down,↓,0.5408131999429315,True,17
X040K32,774,experiment,96,↓,down,↓,0.5064730000449345,True,17
X040K32,775,experiment,144,→,left,←,0.6117634000256658,False,17
X040K32,776,experiment,72,↑,up,↑,0.6144073999021202,True,17
X040K32,777,experiment,84,↓,down,↓,0.6377632999792695,True,17
X040K32,778,experiment,84,←,left,←,0.4764537001028657,True,17
X040K32,779,experiment,168,↑,up,↑,0.6850703000091016,True,17
X040K32,780,experiment,96,←,no_key,no_letter,-1.0,False,17
X040K32,781,experiment,108,↓,left,←,0.46321220009122044,False,17
X040K32,782,experiment,36,←,left,←,0.571279100026004,True,17
X040K32,783,experiment,96,↓,down,↓,1.1295884000137448,True,17
X040K32,784,experiment,48,→,up,↑,0.9840385999996215,False,17
X040K32,785,experiment,12,→,right,→,0.5843372999224812,True,17
X040K32,786,experiment,36,←,left,←,0.7197920000180602,True,17
X040K32,787,training,108,↑,up,↑,0.47004519996698946,True,17
X040K32,788,training,72,↑,up,↑,0.4005662000272423,True,17
X040K32,789,training,84,←,left,←,1.420927600003779,True,17
X040K32,790,experiment,156,→,right,→,0.5580411000410095,True,17
X040K32,791,experiment,144,→,left,←,0.8902184000471607,False,17
X040K32,792,experiment,36,→,right,→,0.6656791999703273,True,17
X040K32,793,experiment,132,←,left,←,0.6011249999282882,True,17
X040K32,794,experiment,24,←,left,←,0.4576056000078097,True,17
X040K32,795,experiment,60,↑,no_key,no_letter,-1.0,False,17
X040K32,796,experiment,72,→,right,→,0.7126301999669522,True,17
X040K32,797,experiment,180,↓,down,↓,0.9329917000140995,True,17
X040K32,798,experiment,96,→,right,→,0.5572963999584317,True,17
X040K32,799,experiment,60,→,right,→,0.8094840999692678,True,17
X040K32,800,experiment,132,↑,up,↑,0.5849616000195965,True,17
X040K32,801,experiment,96,→,right,→,0.6737314999336377,True,17
X040K32,802,experiment,108,→,right,→,0.5916572000132874,True,17
X040K32,803,experiment,120,←,right,→,0.5392876999685541,False,17
X040K32,804,experiment,180,↓,down,↓,0.8220449999207631,True,17
X040K32,805,experiment,24,↓,down,↓,0.8126650999765843,True,17
X040K32,806,experiment,96,↑,up,↑,0.5735858000116423,True,17
X040K32,807,experiment,48,↑,down,↓,0.7130060000345111,False,17
X040K32,808,experiment,12,↑,up,↑,0.5577759000007063,True,17
X040K32,809,experiment,120,↑,up,↑,0.6700391999911517,True,17
X040K32,810,experiment,84,↓,left,←,0.8759707999415696,False,17
X040K32,811,experiment,108,↓,up,↑,0.5440221999306232,False,17
X040K32,812,experiment,132,→,right,→,0.5414761999854818,True,17
X040K32,813,experiment,144,↓,down,↓,0.5663038999773562,True,17
X040K32,814,experiment,156,↑,no_key,no_letter,-1.0,False,17
X040K32,815,experiment,120,→,right,→,0.5934948999201879,True,17
X040K32,816,experiment,12,↑,right,→,0.5521297000814229,False,17
X040K32,817,experiment,180,↓,left,←,0.7075856999726966,False,17
X040K32,818,experiment,24,←,left,←,0.5193845999892801,True,17
X040K32,819,experiment,60,↑,left,←,0.949321600026451,False,17
X040K32,820,experiment,168,↓,right,→,0.9258276999462396,False,17
X040K32,821,experiment,108,↑,right,→,0.5874111999291927,False,17
X040K32,822,experiment,144,↓,up,↑,0.5223148999502882,False,17
X040K32,823,experiment,24,↓,down,↓,0.5768142000306398,True,17
X040K32,824,experiment,36,→,down,↓,0.6990873999893665,False,17
X040K32,825,experiment,120,↓,down,↓,0.5561248000012711,True,17
X040K32,826,experiment,96,→,right,→,0.5096531000453979,True,17
X040K32,827,experiment,72,←,left,←,0.7529873999301344,True,17
X040K32,828,experiment,36,↓,down,↓,0.6188242000062019,True,17
X040K32,829,experiment,180,↑,up,↑,0.5198648000368848,True,17
X040K32,830,experiment,168,←,left,←,0.5844033999601379,True,17
X040K32,831,experiment,144,←,left,←,0.6087153000989929,True,17
X040K32,832,experiment,48,→,left,←,0.5228663000743836,False,17
X040K32,833,experiment,60,→,right,→,0.6897483000066131,True,17
X040K32,834,experiment,36,↑,left,←,0.8999905000673607,False,17
X040K32,835,experiment,168,↑,left,←,0.49599029996898025,False,17
X040K32,836,experiment,48,↓,down,↓,0.7951737999683246,True,17
X040K32,837,experiment,168,←,left,←,0.5326888000126928,True,17
X040K32,838,experiment,48,↑,down,↓,1.0186306000687182,False,17
X040K32,839,experiment,84,→,right,→,0.5555758000118658,True,17
X040K32,840,experiment,156,→,right,→,0.5875457000220194,True,17
X040K32,841,experiment,132,↑,up,↑,0.8883072999306023,True,17
X040K32,842,experiment,84,→,right,→,0.5412054000189528,True,17
X040K32,843,experiment,72,↑,up,↑,0.638494799961336,True,17
X040K32,844,experiment,12,↓,up,↑,0.8317013999912888,False,17
X040K32,845,experiment,108,→,right,→,0.5249584999401122,True,17
X040K32,846,experiment,84,↑,up,↑,0.531692499993369,True,17
X040K32,847,experiment,72,→,left,←,0.5408456999575719,False,17
X040K32,848,experiment,12,↓,up,↑,0.7232563000870869,False,17
X040K32,849,experiment,156,↓,down,↓,0.689170700032264,True,17
