PART_ID,Trial_no,Trial_type,PDI,Stim_letter,Key_pressed,letter_choose,Rt,Corr,Stimulus Time
X041M18,1,training,10,↑,left,←,2.0290069000038784,False,30
X041M18,2,training,10,↓,no_key,no_letter,-1.0,False,30
X041M18,3,training,10,↓,no_key,no_letter,-1.0,False,30
X041M18,4,training,10,↓,no_key,no_letter,-1.0,False,30
X041M18,5,training,10,→,right,→,1.0639780000055907,True,30
X041M18,6,training,10,↓,up,↑,2.02133029999095,False,30
X041M18,7,training,10,←,left,←,0.9301498999993782,True,30
X041M18,8,training,10,→,right,→,0.7805066999862902,True,30
X041M18,9,training,10,←,left,←,0.956038999996963,True,30
X041M18,10,training,10,←,left,←,0.9409162000083597,True,30
X041M18,11,training,10,←,left,←,0.7009328999993159,True,30
X041M18,12,training,10,←,left,←,1.1041442999994615,True,30
X041M18,13,training,10,←,left,←,1.1242466999974567,True,30
X041M18,14,training,10,→,right,→,0.73009290000482,True,30
X041M18,15,training,10,↓,down,↓,0.6337031000002753,True,30
X041M18,16,training,10,↓,down,↓,0.7251453999924706,True,30
X041M18,17,training,10,↓,down,↓,1.4426564000023063,True,30
X041M18,18,training,10,→,right,→,0.6688692000025185,True,30
X041M18,19,training,10,↓,down,↓,0.7074703999969643,True,30
X041M18,20,training,10,→,right,→,0.6007309999986319,True,30
X041M18,21,training,10,↑,down,↓,0.8820952999958536,False,18
X041M18,22,training,10,←,left,←,0.7717272000008961,True,18
X041M18,23,training,10,↑,up,↑,0.8252313999983016,True,18
X041M18,24,training,10,↑,up,↑,0.7615367000107653,True,18
X041M18,25,training,10,↓,down,↓,0.6846415000036359,True,18
X041M18,26,training,10,→,right,→,0.6419084999943152,True,18
X041M18,27,training,10,→,right,→,0.6389682000008179,True,18
X041M18,28,training,10,→,right,→,0.651335000002291,True,18
X041M18,29,training,10,↓,down,↓,0.7589469000085955,True,18
X041M18,30,training,10,←,left,←,0.6393283999932464,True,18
X041M18,31,training,12,←,left,←,0.7978881000017282,True,15
X041M18,32,training,156,↓,left,←,1.2023257999971975,False,15
X041M18,33,training,108,↓,down,↓,0.6417747999948915,True,15
X041M18,34,experiment,48,↓,down,↓,0.8386137000052258,True,15
X041M18,35,experiment,108,→,right,→,0.6749005000019679,True,15
X041M18,36,experiment,72,→,right,→,0.703186699989601,True,15
X041M18,37,experiment,180,↑,right,→,0.8991263999923831,False,15
X041M18,38,experiment,84,→,right,→,0.762016799999401,True,15
X041M18,39,experiment,156,→,right,→,0.6302546999941114,True,15
X041M18,40,experiment,180,→,right,→,0.8610216999950353,True,15
X041M18,41,experiment,120,↓,down,↓,0.7508259000023827,True,15
X041M18,42,experiment,96,→,right,→,0.7059255000058329,True,15
X041M18,43,experiment,96,→,right,→,0.8329450000019278,True,15
X041M18,44,experiment,84,→,right,→,0.709126899993862,True,15
X041M18,45,experiment,60,↑,down,↓,0.9300032999890391,False,15
X041M18,46,experiment,12,←,left,←,0.7075810000096681,True,15
X041M18,47,experiment,24,↓,down,↓,0.8682475999958115,True,15
X041M18,48,experiment,132,→,left,←,1.0314667999919038,False,15
X041M18,49,experiment,96,←,left,←,0.7808162000001175,True,15
X041M18,50,experiment,108,←,left,←,0.6952305000013439,True,15
X041M18,51,experiment,144,↓,down,↓,0.830979300008039,True,15
X041M18,52,experiment,72,↓,down,↓,0.93479159999697,True,15
X041M18,53,experiment,36,→,right,→,0.6995722999999998,True,15
X041M18,54,experiment,96,↑,down,↓,1.1320765999989817,False,15
X041M18,55,experiment,120,↓,down,↓,0.6446602999931201,True,15
X041M18,56,experiment,12,←,left,←,0.7234084000083385,True,15
X041M18,57,experiment,36,↓,down,↓,0.714817200001562,True,15
X041M18,58,experiment,108,→,left,←,0.7643570999935037,False,15
X041M18,59,experiment,48,↑,up,↑,1.0120654000056675,True,15
X041M18,60,experiment,48,↑,up,↑,1.4634366999962367,True,15
X041M18,61,experiment,120,↓,down,↓,0.5567656000057468,True,15
X041M18,62,experiment,108,→,right,→,0.5544496000075014,True,15
X041M18,63,experiment,12,←,left,←,0.7692012999905273,True,15
X041M18,64,experiment,84,←,left,←,0.6176054000097793,True,15
X041M18,65,experiment,156,↓,down,↓,0.740335500013316,True,15
X041M18,66,experiment,156,↑,down,↓,1.2201550000027055,False,15
X041M18,67,experiment,156,←,left,←,1.5598029000102542,True,15
X041M18,68,experiment,72,←,down,↓,0.8745284999895375,False,15
X041M18,69,experiment,144,→,right,→,0.9271268000011332,True,15
X041M18,70,experiment,120,↓,down,↓,0.9192700999992667,True,15
X041M18,71,experiment,60,←,left,←,0.7744688000093447,True,15
X041M18,72,experiment,168,↑,up,↑,0.939503199988394,True,15
X041M18,73,experiment,24,↓,left,←,0.8291895000002114,False,15
X041M18,74,experiment,132,↑,left,←,0.7821000999974785,False,15
X041M18,75,experiment,12,↑,up,↑,1.4546505000034813,True,15
X041M18,76,experiment,60,→,left,←,0.8254019000014523,False,15
X041M18,77,experiment,72,→,left,←,0.8055642000108492,False,15
X041M18,78,experiment,36,←,no_key,no_letter,-1.0,False,15
X041M18,79,experiment,132,↑,left,←,0.699186900004861,False,15
X041M18,80,experiment,180,↓,down,↓,0.786004800000228,True,15
X041M18,81,experiment,60,→,right,→,0.6042244999989634,True,15
X041M18,82,experiment,168,↑,left,←,0.8864296999963699,False,15
X041M18,83,experiment,24,↑,up,↑,0.7124677999963751,True,15
X041M18,84,experiment,84,↓,down,↓,0.7403642999997828,True,15
X041M18,85,experiment,168,↓,down,↓,0.708320099991397,True,15
X041M18,86,experiment,48,→,left,←,0.9976257999951486,False,15
X041M18,87,experiment,24,↑,up,↑,0.7979881000064779,True,15
X041M18,88,experiment,132,←,left,←,0.5773157000076026,True,15
X041M18,89,experiment,144,↓,left,←,1.101236800008337,False,15
X041M18,90,experiment,36,→,right,→,0.6502250999910757,True,15
X041M18,91,experiment,180,←,left,←,0.6605719000071986,True,15
X041M18,92,experiment,144,↑,left,←,0.6920219000021461,False,15
X041M18,93,experiment,168,→,right,→,0.5416657000023406,True,15
X041M18,94,training,24,←,left,←,0.7263530000054743,True,15
X041M18,95,training,24,→,right,→,0.6131254999927478,True,15
X041M18,96,training,132,↓,down,↓,0.711564900004305,True,15
X041M18,97,experiment,96,→,no_key,no_letter,-1.0,False,15
X041M18,98,experiment,180,←,left,←,0.5499752000032458,True,15
X041M18,99,experiment,132,↑,down,↓,0.8512270999926841,False,15
X041M18,100,experiment,36,→,right,→,0.5984446999937063,True,15
X041M18,101,experiment,108,↑,up,↑,0.6396119999990333,True,15
X041M18,102,experiment,36,←,right,→,0.5469860000011977,False,15
X041M18,103,experiment,60,←,left,←,0.677479800011497,True,15
X041M18,104,experiment,96,↓,down,↓,0.6331938999937847,True,15
X041M18,105,experiment,36,←,left,←,0.6630151999997906,True,15
X041M18,106,experiment,12,←,left,←,0.6447738999995636,True,15
X041M18,107,experiment,108,→,right,→,0.5381782000040403,True,15
X041M18,108,experiment,168,←,left,←,0.7453372000018135,True,15
X041M18,109,experiment,72,↓,down,↓,0.6374266000057105,True,15
X041M18,110,experiment,132,↓,left,←,0.8962832000106573,False,15
X041M18,111,experiment,144,→,left,←,1.2482082999922568,False,15
X041M18,112,experiment,120,↓,down,↓,0.5225838000042131,True,15
X041M18,113,experiment,180,←,left,←,0.6091350999922724,True,15
X041M18,114,experiment,48,←,left,←,0.7149007999978494,True,15
X041M18,115,experiment,156,↓,left,←,1.5775565999938408,False,15
X041M18,116,experiment,108,↓,down,↓,0.6950955999927828,True,15
X041M18,117,experiment,144,↑,up,↑,0.9108896999969147,True,15
X041M18,118,experiment,96,→,right,→,0.6502423000056297,True,15
X041M18,119,experiment,156,↑,up,↑,1.1245502999954624,True,15
X041M18,120,experiment,84,↑,down,↓,0.8202250999893295,False,15
X041M18,121,experiment,12,↑,up,↑,0.7474948000017321,True,15
X041M18,122,experiment,48,←,left,←,0.7448949000099674,True,15
X041M18,123,experiment,84,←,left,←,0.7317989000002854,True,15
X041M18,124,experiment,168,←,right,→,0.7974450000037905,False,15
X041M18,125,experiment,60,↑,up,↑,0.9818891000031726,True,15
X041M18,126,experiment,156,↓,down,↓,0.7485109999979613,True,15
X041M18,127,experiment,48,←,left,←,0.6670774000085657,True,15
X041M18,128,experiment,180,←,left,←,0.9092717000021366,True,15
X041M18,129,experiment,60,↑,up,↑,0.6812421999929938,True,15
X041M18,130,experiment,108,↓,down,↓,0.7410743999935221,True,15
X041M18,131,experiment,180,↑,down,↓,0.8346622999961255,False,15
X041M18,132,experiment,144,↓,down,↓,0.6317010000057053,True,15
X041M18,133,experiment,36,→,right,→,0.6923231999971904,True,15
X041M18,134,experiment,132,↑,up,↑,0.9285212000104366,True,15
X041M18,135,experiment,24,↓,down,↓,0.7073013000044739,True,15
X041M18,136,experiment,84,←,left,←,0.569481899990933,True,15
X041M18,137,experiment,132,←,left,←,0.6691570999973919,True,15
X041M18,138,experiment,120,←,left,←,0.6832646000111708,True,15
X041M18,139,experiment,24,↑,down,↓,0.7970218999980716,False,15
X041M18,140,experiment,72,→,right,→,0.608613400007016,True,15
X041M18,141,experiment,120,←,left,←,0.6211175000062212,True,15
X041M18,142,experiment,48,↓,down,↓,0.6539628999889828,True,15
X041M18,143,experiment,72,↓,down,↓,0.6306181999971159,True,15
X041M18,144,experiment,24,↓,down,↓,0.7253122000111034,True,15
X041M18,145,experiment,144,↓,down,↓,0.726218499999959,True,15
X041M18,146,experiment,120,→,right,→,1.2908200999954715,True,15
X041M18,147,experiment,24,→,no_key,no_letter,-1.0,False,15
X041M18,148,experiment,168,→,right,→,0.5878951999911806,True,15
X041M18,149,experiment,72,→,left,←,0.690170500005479,False,15
X041M18,150,experiment,12,↑,up,↑,0.6442016999935731,True,15
X041M18,151,experiment,60,↑,up,↑,0.6155189999990398,True,15
X041M18,152,experiment,12,→,right,→,0.5366459999931976,True,15
X041M18,153,experiment,168,↓,down,↓,0.6826068000082159,True,15
X041M18,154,experiment,96,↓,down,↓,0.6618119000049774,True,15
X041M18,155,experiment,84,↓,down,↓,0.6456885999941733,True,15
X041M18,156,experiment,156,↓,down,↓,0.7450936999957776,True,15
X041M18,157,training,48,→,right,→,0.522807000001194,True,15
X041M18,158,training,84,↓,down,↓,0.6803903999971226,True,15
X041M18,159,training,48,←,left,←,0.9763951000059023,True,15
X041M18,160,experiment,12,←,left,←,0.6628086999990046,True,15
X041M18,161,experiment,108,→,right,→,0.6501837000105297,True,15
X041M18,162,experiment,180,↓,left,←,0.9636161999951582,False,15
X041M18,163,experiment,180,←,left,←,0.6890244999958668,True,15
X041M18,164,experiment,24,↓,down,↓,0.9164626999991015,True,15
X041M18,165,experiment,108,←,left,←,0.6607146000023931,True,15
X041M18,166,experiment,48,←,left,←,0.46938339999178424,True,15
X041M18,167,experiment,48,→,right,→,0.6053168999933405,True,15
X041M18,168,experiment,84,→,right,→,0.6184470000007423,True,15
X041M18,169,experiment,120,↓,down,↓,0.8105858000053558,True,15
X041M18,170,experiment,96,↑,up,↑,0.6603621000103885,True,15
X041M18,171,experiment,132,→,right,→,0.5898903000052087,True,15
X041M18,172,experiment,84,↓,down,↓,0.7203694000054384,True,15
X041M18,173,experiment,24,→,right,→,0.6958287000015844,True,15
X041M18,174,experiment,36,↓,up,↑,0.8763302000006661,False,15
X041M18,175,experiment,144,↓,down,↓,0.8057434000074863,True,15
X041M18,176,experiment,144,↑,up,↑,0.897018499992555,True,15
X041M18,177,experiment,108,→,right,→,0.6108940999984043,True,15
X041M18,178,experiment,36,↓,down,↓,0.6834615999978269,True,15
X041M18,179,experiment,120,↑,up,↑,0.7348227000038605,True,15
X041M18,180,experiment,60,→,right,→,0.7549698999937391,True,15
X041M18,181,experiment,84,→,right,→,0.7030048000015086,True,15
X041M18,182,experiment,132,←,left,←,0.6021574000042165,True,15
X041M18,183,experiment,36,↓,up,↑,0.9880108000070322,False,15
X041M18,184,experiment,108,↓,down,↓,0.7729456000088248,True,15
X041M18,185,experiment,120,→,left,←,0.715513799994369,False,15
X041M18,186,experiment,60,↓,down,↓,0.7187242999934824,True,15
X041M18,187,experiment,60,↓,down,↓,0.6363210999988951,True,15
X041M18,188,experiment,156,→,right,→,0.632847100001527,True,15
X041M18,189,experiment,156,↓,down,↓,0.6121234000020195,True,15
X041M18,190,experiment,144,↑,down,↓,0.7676265000045532,False,15
X041M18,191,experiment,72,←,left,←,0.7328103000036208,True,15
X041M18,192,experiment,36,→,right,→,0.6322496999928262,True,15
X041M18,193,experiment,12,→,no_key,no_letter,-1.0,False,15
X041M18,194,experiment,96,↑,down,↓,0.9048926000104984,False,15
X041M18,195,experiment,180,↓,down,↓,0.6660989000083646,True,15
X041M18,196,experiment,144,←,left,←,0.7227507999923546,True,15
X041M18,197,experiment,60,↑,up,↑,0.6572750999912387,True,15
X041M18,198,experiment,168,↑,up,↑,0.6583016999938991,True,15
X041M18,199,experiment,168,↓,down,↓,0.705241700008628,True,15
X041M18,200,experiment,12,↑,down,↓,0.9525611999997636,False,15
X041M18,201,experiment,72,←,left,←,0.6503210999944713,True,15
X041M18,202,experiment,168,→,right,→,0.6296452999959001,True,15
X041M18,203,experiment,72,←,left,←,0.7181264000100782,True,15
X041M18,204,experiment,156,↑,up,↑,0.8136820999934571,True,15
X041M18,205,experiment,48,←,left,←,0.6983470999985002,True,15
X041M18,206,experiment,96,←,left,←,0.6033261999982642,True,15
X041M18,207,experiment,156,↑,up,↑,0.6837584000022616,True,15
X041M18,208,experiment,24,←,left,←,0.7252886000060244,True,15
X041M18,209,experiment,132,↓,down,↓,0.7475206999952206,True,15
X041M18,210,experiment,132,→,right,→,0.6744775999977719,True,15
X041M18,211,experiment,180,↓,no_key,no_letter,-1.0,False,15
X041M18,212,experiment,72,←,left,←,0.6332913999940502,True,15
X041M18,213,experiment,12,↑,up,↑,0.7164534999901662,True,15
X041M18,214,experiment,84,←,left,←,0.5754812000086531,True,15
X041M18,215,experiment,96,↓,down,↓,0.690815100009786,True,15
X041M18,216,experiment,48,↓,down,↓,1.2952211999945575,True,15
X041M18,217,experiment,168,↓,down,↓,0.738414899999043,True,15
X041M18,218,experiment,24,←,left,←,0.62484950000362,True,15
X041M18,219,experiment,120,↓,down,↓,0.5672385999932885,True,15
X041M18,220,training,156,→,right,→,0.5816723000025377,True,15
X041M18,221,training,168,←,left,←,0.6168316999974195,True,15
X041M18,222,training,168,↓,down,↓,0.656848099999479,True,15
X041M18,223,experiment,180,↑,up,↑,0.6558421999943675,True,15
X041M18,224,experiment,132,↑,up,↑,0.6647489000024507,True,15
X041M18,225,experiment,84,←,left,←,0.7359264000115218,True,15
X041M18,226,experiment,84,↓,down,↓,0.6320601000043098,True,15
X041M18,227,experiment,84,↑,up,↑,0.5648096000077203,True,15
X041M18,228,experiment,144,→,right,→,0.5766137000027811,True,15
X041M18,229,experiment,96,↑,up,↑,0.4960659999924246,True,15
X041M18,230,experiment,180,↓,down,↓,0.7590356000000611,True,15
X041M18,231,experiment,156,←,left,←,0.5749345999938669,True,15
X041M18,232,experiment,24,↓,up,↑,0.902045700000599,False,15
X041M18,233,experiment,60,→,right,→,0.5519112000038149,True,15
X041M18,234,experiment,72,↑,up,↑,0.665885000009439,True,15
X041M18,235,experiment,144,←,left,←,0.7042214000102831,True,15
X041M18,236,experiment,12,↓,up,↑,0.8495465000014519,False,15
X041M18,237,experiment,48,↑,up,↑,0.5767454000015277,True,15
X041M18,238,experiment,180,↑,up,↑,0.604635399999097,True,15
X041M18,239,experiment,96,→,right,→,0.5726684000110254,True,15
X041M18,240,experiment,36,→,right,→,1.1256852999940747,True,15
X041M18,241,experiment,168,←,left,←,0.6735855000006268,True,15
X041M18,242,experiment,132,→,right,→,0.6374825999955647,True,15
X041M18,243,experiment,72,↓,down,↓,0.7568886999943061,True,15
X041M18,244,experiment,60,↓,down,↓,0.7007887000072515,True,15
X041M18,245,experiment,24,↑,up,↑,0.5650948000111384,True,15
X041M18,246,experiment,168,↓,no_key,no_letter,-1.0,False,15
X041M18,247,experiment,156,↑,up,↑,0.7632611000008183,True,15
X041M18,248,experiment,60,→,right,→,0.6508861000038451,True,15
X041M18,249,experiment,108,←,left,←,0.5826048000017181,True,15
X041M18,250,experiment,168,↑,left,←,0.8181929999991553,False,15
X041M18,251,experiment,60,↓,down,↓,0.8132731999940006,True,15
X041M18,252,experiment,108,→,right,→,0.5696613999898545,True,15
X041M18,253,experiment,72,↑,down,↓,0.9116713999974309,False,15
X041M18,254,experiment,12,↑,up,↑,0.591910100003588,True,15
X041M18,255,experiment,180,↓,left,←,0.9960098000010476,False,15
X041M18,256,experiment,36,↑,down,↓,0.9956466000003275,False,15
X041M18,257,experiment,36,↑,left,←,0.7247331999969902,False,15
X041M18,258,experiment,96,←,left,←,0.6214313000091352,True,15
X041M18,259,experiment,132,↓,down,↓,0.6820846000046004,True,15
X041M18,260,experiment,156,↓,down,↓,0.7326806000055512,True,15
X041M18,261,experiment,36,↓,left,←,1.0019379000004847,False,15
X041M18,262,experiment,24,←,left,←,0.6718135999981314,True,15
X041M18,263,experiment,84,↑,left,←,0.6882475000020349,False,15
X041M18,264,experiment,48,↑,up,↑,1.4859661999944365,True,15
X041M18,265,experiment,48,→,right,→,0.8386032999987947,True,15
X041M18,266,experiment,120,↑,left,←,0.6825104000017745,False,15
X041M18,267,experiment,108,↑,left,←,1.1259929000079865,False,15
X041M18,268,experiment,24,→,right,→,0.5706678999995347,True,15
X041M18,269,experiment,108,↓,no_key,no_letter,-1.0,False,15
X041M18,270,experiment,120,→,right,→,0.5787886000034632,True,15
X041M18,271,experiment,12,↓,left,←,0.7117012000089744,False,15
X041M18,272,experiment,132,→,right,→,0.6172301999904448,True,15
X041M18,273,experiment,168,↑,right,→,0.5820890000031795,False,15
X041M18,274,experiment,144,↑,right,→,1.5395103999908315,False,15
X041M18,275,experiment,72,→,right,→,0.7053883999906247,True,15
X041M18,276,experiment,96,←,left,←,0.7085690000094473,True,15
X041M18,277,experiment,120,←,left,←,0.8123008999973536,True,15
X041M18,278,experiment,156,←,left,←,0.668252500006929,True,15
X041M18,279,experiment,12,↓,down,↓,1.0434249999962049,True,15
X041M18,280,experiment,48,↑,right,→,1.1217926000099396,False,15
X041M18,281,experiment,144,↓,down,↓,0.744479599990882,True,15
X041M18,282,experiment,120,←,left,←,0.5821984000067459,True,15
X041M18,283,training,72,↓,left,←,0.6808401000016602,False,15
X041M18,284,training,168,↑,left,←,0.690614999999525,False,15
X041M18,285,training,60,→,right,→,0.6028165000025183,True,15
X041M18,286,experiment,168,←,left,←,0.7913081999868155,True,15
X041M18,287,experiment,120,↑,left,←,0.5929941000067629,False,15
X041M18,288,experiment,144,↑,down,↓,0.65306780001265,False,15
X041M18,289,experiment,48,↓,down,↓,0.7140339000034146,True,15
X041M18,290,experiment,120,↑,up,↑,0.6744554000033531,True,15
X041M18,291,experiment,96,→,right,→,0.6125204000127269,True,15
X041M18,292,experiment,108,→,left,←,0.9257827999972505,False,15
X041M18,293,experiment,48,→,right,→,0.5808397999935551,True,15
X041M18,294,experiment,132,↑,down,↓,0.8552315999986604,False,15
X041M18,295,experiment,180,←,left,←,0.7777248999918811,True,15
X041M18,296,experiment,12,↓,down,↓,0.8160691999946721,True,15
X041M18,297,experiment,48,↑,no_key,no_letter,-1.0,False,15
X041M18,298,experiment,84,↑,up,↑,0.7663437000010163,True,15
X041M18,299,experiment,96,←,left,←,0.6960459999972954,True,15
X041M18,300,experiment,180,↓,down,↓,0.9677217999997083,True,15
X041M18,301,experiment,72,→,right,→,0.6145493000076385,True,15
X041M18,302,experiment,60,←,left,←,0.6274829000030877,True,15
X041M18,303,experiment,36,←,left,←,0.6133898999978555,True,15
X041M18,304,experiment,132,→,right,→,0.7041059999901336,True,15
X041M18,305,experiment,60,←,left,←,0.6367145999975037,True,15
X041M18,306,experiment,60,↑,up,↑,0.5763549999974202,True,15
X041M18,307,experiment,156,↓,left,←,0.8006681999977445,False,15
X041M18,308,experiment,24,←,left,←,0.6825747999973828,True,15
X041M18,309,experiment,84,↑,left,←,0.6878027000057045,False,15
X041M18,310,experiment,96,→,right,→,0.6013781999936327,True,15
X041M18,311,experiment,48,→,left,←,0.7044740999990609,False,15
X041M18,312,experiment,144,←,left,←,0.6024177999934182,True,15
X041M18,313,experiment,144,←,left,←,0.8675665999908233,True,15
X041M18,314,experiment,168,↓,down,↓,0.8567138000071282,True,15
X041M18,315,experiment,24,←,right,→,0.8576413999981014,False,15
X041M18,316,experiment,60,↑,up,↑,0.7366847000084817,True,15
X041M18,317,experiment,156,↓,no_key,no_letter,-1.0,False,15
X041M18,318,experiment,36,↓,down,↓,0.8736591999913799,True,15
X041M18,319,experiment,108,↓,down,↓,0.74409769999329,True,15
X041M18,320,experiment,72,↓,down,↓,0.7068232000019634,True,15
X041M18,321,experiment,84,→,right,→,0.6291072000021813,True,15
X041M18,322,experiment,72,→,right,→,0.5327008999884129,True,15
X041M18,323,experiment,36,↓,down,↓,0.6639002000010805,True,15
X041M18,324,experiment,12,←,left,←,0.5114194999914616,True,15
X041M18,325,experiment,108,→,right,→,0.5768699000036577,True,15
X041M18,326,experiment,156,←,left,←,0.6467507000052137,True,15
X041M18,327,experiment,108,↑,up,↑,0.6038128000072902,True,15
X041M18,328,experiment,24,←,left,←,0.6188876999949571,True,15
X041M18,329,experiment,180,↑,up,↑,0.8494597999961115,True,15
X041M18,330,experiment,120,↓,down,↓,0.7651595000061207,True,15
X041M18,331,experiment,132,↑,up,↑,0.5806061000039335,True,15
X041M18,332,experiment,24,↑,up,↑,0.76245489998837,True,15
X041M18,333,experiment,96,↓,down,↓,0.6564879000070505,True,15
X041M18,334,experiment,168,↑,down,↓,0.8260853999963729,False,15
X041M18,335,experiment,168,↓,down,↓,0.6182122999889543,True,15
X041M18,336,experiment,72,↑,up,↑,0.5442413999990094,True,15
X041M18,337,experiment,36,↑,down,↓,0.5767099999939092,False,15
X041M18,338,experiment,84,↓,down,↓,0.7540244999981951,True,15
X041M18,339,experiment,144,↓,down,↓,0.6195013999968069,True,15
X041M18,340,experiment,12,←,left,←,0.601363499998115,True,15
X041M18,341,experiment,12,↑,up,↑,0.6274187000090024,True,15
X041M18,342,experiment,180,→,right,→,0.5718240999995032,True,15
X041M18,343,experiment,132,←,left,←,0.5650411000096938,True,15
X041M18,344,experiment,120,↑,up,↑,0.5357687999930931,True,15
X041M18,345,experiment,156,→,right,→,0.7135058999992907,True,15
X041M18,346,training,48,↑,up,↑,0.5453385000000708,True,15
X041M18,347,training,48,←,left,←,0.5605254999973113,True,15
X041M18,348,training,180,↑,up,↑,0.5556709000084084,True,15
X041M18,349,experiment,156,↓,down,↓,0.7295767000032356,True,15
X041M18,350,experiment,156,→,right,→,0.6820842000015546,True,15
X041M18,351,experiment,120,↓,down,↓,0.6685119000030681,True,15
X041M18,352,experiment,108,→,right,→,0.5923803000041516,True,15
X041M18,353,experiment,132,↓,down,↓,0.6804999000014504,True,15
X041M18,354,experiment,180,→,right,→,0.5639733000134584,True,15
X041M18,355,experiment,96,↑,up,↑,0.5560467000032077,True,15
X041M18,356,experiment,144,→,right,→,0.5981812000100035,True,15
X041M18,357,experiment,48,↑,up,↑,0.7327886999992188,True,15
X041M18,358,experiment,36,↓,down,↓,0.7874464000051375,True,15
X041M18,359,experiment,48,→,right,→,0.5392056999990018,True,15
X041M18,360,experiment,36,↓,down,↓,0.5729887000052258,True,15
X041M18,361,experiment,144,↓,down,↓,1.1856221000052756,True,15
X041M18,362,experiment,132,→,right,→,0.7545289999980014,True,15
X041M18,363,experiment,108,←,left,←,0.6268300999945495,True,15
X041M18,364,experiment,108,↑,up,↑,0.726854499996989,True,15
X041M18,365,experiment,84,↓,down,↓,0.6344958999980008,True,15
X041M18,366,experiment,120,←,left,←,0.6059893999918131,True,15
X041M18,367,experiment,24,→,right,→,0.7261819999985164,True,15
X041M18,368,experiment,96,→,right,→,0.5796559999871533,True,15
X041M18,369,experiment,144,→,right,→,0.6436352000018815,True,15
X041M18,370,experiment,168,↓,down,↓,0.7244342000049073,True,15
X041M18,371,experiment,180,←,left,←,0.5828349999937927,True,15
X041M18,372,experiment,72,↑,up,↑,0.6503212999959942,True,15
X041M18,373,experiment,12,↓,down,↓,0.6075313000037568,True,15
X041M18,374,experiment,168,←,left,←,0.7280069000116782,True,15
X041M18,375,experiment,12,↑,up,↑,0.6898974000068847,True,15
X041M18,376,experiment,24,←,left,←,0.535286600003019,True,15
X041M18,377,experiment,120,↑,no_key,no_letter,-1.0,False,15
X041M18,378,experiment,48,↓,down,↓,0.84293530001014,True,15
X041M18,379,experiment,168,↓,down,↓,1.1286099999997532,True,15
X041M18,380,experiment,156,↑,up,↑,0.9153106000012485,True,15
X041M18,381,experiment,48,→,right,→,0.814088899991475,True,15
X041M18,382,experiment,132,←,left,←,0.5930157999973744,True,15
X041M18,383,experiment,72,↓,down,↓,0.6670266000000993,True,15
X041M18,384,experiment,84,↑,up,↑,0.6932175999972969,True,15
X041M18,385,experiment,60,↑,up,↑,1.5525722000020323,True,15
X041M18,386,experiment,120,↑,up,↑,0.7273935999983223,True,15
X041M18,387,experiment,72,↓,down,↓,0.5934445999882882,True,15
X041M18,388,experiment,144,←,left,←,0.5097439000091981,True,15
X041M18,389,experiment,84,→,right,→,0.6077674999978626,True,15
X041M18,390,experiment,72,→,right,→,0.5764475000032689,True,15
X041M18,391,experiment,60,→,right,→,0.7098452999925939,True,15
X041M18,392,experiment,36,↓,down,↓,0.6946969000127865,True,15
X041M18,393,experiment,84,←,left,←,0.6260698000114644,True,15
X041M18,394,experiment,180,←,left,←,0.8696234999952139,True,15
X041M18,395,experiment,156,←,left,←,0.5886281999992207,True,15
X041M18,396,experiment,168,↑,up,↑,0.5714498999877833,True,15
X041M18,397,experiment,60,←,left,←,0.6353776999894762,True,15
X041M18,398,experiment,12,→,right,→,0.5953124999941792,True,15
X041M18,399,experiment,24,→,right,→,0.7381509000115329,True,15
X041M18,400,experiment,96,→,no_key,no_letter,-1.0,False,15
X041M18,401,experiment,108,←,left,←,0.549299099991913,True,15
X041M18,402,experiment,60,←,left,←,0.5247575000103097,True,15
X041M18,403,experiment,96,↑,up,↑,0.8050934999919264,True,15
X041M18,404,experiment,24,↓,down,↓,0.746000200000708,True,15
X041M18,405,experiment,12,↓,down,↓,0.6315962000080617,True,15
X041M18,406,experiment,132,←,left,←,0.566956199996639,True,15
X041M18,407,experiment,36,↑,up,↑,0.5711734000069555,True,15
X041M18,408,experiment,180,→,right,→,0.6547112999978708,True,15
X041M18,409,training,60,↑,down,↓,1.2602452999999514,False,14
X041M18,410,training,180,→,right,→,0.5412953000050038,True,14
X041M18,411,training,180,↓,down,↓,0.6631894000020111,True,14
X041M18,412,experiment,156,←,left,←,0.5372448999987682,True,14
X041M18,413,experiment,132,←,left,←,0.4501650000020163,True,14
X041M18,414,experiment,36,→,right,→,0.5466517000022577,True,14
X041M18,415,experiment,156,→,left,←,0.6399775000027148,False,14
X041M18,416,experiment,84,←,left,←,0.6242800000036368,True,14
X041M18,417,experiment,120,←,left,←,0.5648911999887787,True,14
X041M18,418,experiment,60,←,left,←,0.46788419999938924,True,14
X041M18,419,experiment,144,↑,up,↑,0.5443068000022322,True,14
X041M18,420,experiment,108,→,left,←,1.1269353000097908,False,14
X041M18,421,experiment,180,→,right,→,0.5209261999989394,True,14
X041M18,422,experiment,84,↑,up,↑,0.6682615000026999,True,14
X041M18,423,experiment,132,↓,down,↓,0.8096548999892548,True,14
X041M18,424,experiment,72,↑,up,↑,0.5733212000050116,True,14
X041M18,425,experiment,72,→,right,→,0.8886265000037383,True,14
X041M18,426,experiment,120,→,no_key,no_letter,-1.0,False,14
X041M18,427,experiment,48,↓,down,↓,0.7932199000060791,True,14
X041M18,428,experiment,12,↓,down,↓,0.746531299999333,True,14
X041M18,429,experiment,84,→,no_key,no_letter,-1.0,False,14
X041M18,430,experiment,120,←,left,←,0.5325268000015058,True,14
X041M18,431,experiment,72,←,left,←,0.5503375999978743,True,14
X041M18,432,experiment,24,↑,up,↑,0.7092581000033533,True,14
X041M18,433,experiment,108,↓,down,↓,0.6146869999938644,True,14
X041M18,434,experiment,36,←,left,←,0.5797555000026478,True,14
X041M18,435,experiment,132,→,right,→,0.6046227000042563,True,14
X041M18,436,experiment,12,→,right,→,0.5956485000060638,True,14
X041M18,437,experiment,180,↑,up,↑,0.5462854000070365,True,14
X041M18,438,experiment,12,→,right,→,0.5490838999976404,True,14
X041M18,439,experiment,48,→,left,←,0.6889370999997482,False,14
X041M18,440,experiment,144,→,right,→,0.5239323999994667,True,14
X041M18,441,experiment,108,←,left,←,0.5808639999886509,True,14
X041M18,442,experiment,48,←,left,←,0.5641096000035759,True,14
X041M18,443,experiment,156,↓,down,↓,0.6623940999998013,True,14
X041M18,444,experiment,60,→,right,→,0.6041078999987803,True,14
X041M18,445,experiment,96,↓,down,↓,0.7254514000087511,True,14
X041M18,446,experiment,132,←,left,←,0.44909589999588206,True,14
X041M18,447,experiment,36,→,right,→,0.7026309999928344,True,14
X041M18,448,experiment,72,↑,up,↑,0.6146842000016477,True,14
X041M18,449,experiment,60,←,left,←,0.5994752000115113,True,14
X041M18,450,experiment,144,←,left,←,0.6338327999983449,True,14
X041M18,451,experiment,60,↓,down,↓,0.6596610999986297,True,14
X041M18,452,experiment,36,←,left,←,0.520454500001506,True,14
X041M18,453,experiment,108,→,right,→,0.4991864000039641,True,14
X041M18,454,experiment,156,↑,up,↑,0.7940922999987379,True,14
X041M18,455,experiment,24,↓,down,↓,0.7506014999962645,True,14
X041M18,456,experiment,144,→,right,→,0.5268099999957485,True,14
X041M18,457,experiment,180,←,left,←,0.6310510000039358,True,14
X041M18,458,experiment,48,→,right,→,0.49311529999249615,True,14
X041M18,459,experiment,96,←,right,→,0.44426360000215936,False,14
X041M18,460,experiment,96,↑,up,↑,0.663058700010879,True,14
X041M18,461,experiment,120,↓,down,↓,0.704601300007198,True,14
X041M18,462,experiment,180,↓,down,↓,0.8527579999936279,True,14
X041M18,463,experiment,168,↑,up,↑,0.6695686000020942,True,14
X041M18,464,experiment,96,←,left,←,0.5011531000054674,True,14
X041M18,465,experiment,168,↓,down,↓,0.7020824999926845,True,14
X041M18,466,experiment,168,↓,down,↓,0.6643600999959745,True,14
X041M18,467,experiment,12,↑,down,↓,0.7253005999955349,False,14
X041M18,468,experiment,24,←,left,←,0.788797599991085,True,14
X041M18,469,experiment,168,↑,down,↓,0.6271328000002541,False,14
X041M18,470,experiment,84,↓,down,↓,0.5027935000107391,True,14
X041M18,471,experiment,24,↓,down,↓,0.5510750000103144,True,14
X041M18,472,training,120,↓,down,↓,0.7690398999984609,True,14
X041M18,473,training,24,↓,down,↓,0.6219752999895718,True,14
X041M18,474,training,144,←,left,←,0.5646893999946769,True,14
X041M18,475,experiment,132,←,left,←,1.280818499988527,True,14
X041M18,476,experiment,132,↓,down,↓,0.6629949000052875,True,14
X041M18,477,experiment,156,←,right,→,0.839331700000912,False,14
X041M18,478,experiment,132,→,right,→,0.5493275000044378,True,14
X041M18,479,experiment,96,←,left,←,0.6338966000039363,True,14
X041M18,480,experiment,84,←,left,←,0.5550731999974232,True,14
X041M18,481,experiment,24,↑,down,↓,0.6976189999986673,False,14
X041M18,482,experiment,180,→,left,←,1.018383000002359,False,14
X041M18,483,experiment,24,↓,down,↓,0.6180866999930004,True,14
X041M18,484,experiment,72,↓,down,↓,0.7156899999972666,True,14
X041M18,485,experiment,156,→,right,→,0.8543041000084486,True,14
X041M18,486,experiment,24,↑,down,↓,0.7039533000061056,False,14
X041M18,487,experiment,36,←,left,←,0.5711947999952827,True,14
X041M18,488,experiment,108,←,left,←,0.8638191999925766,True,14
X041M18,489,experiment,24,←,left,←,0.6622321999893757,True,14
X041M18,490,experiment,144,↑,left,←,0.6258347999973921,False,14
X041M18,491,experiment,36,←,left,←,0.5220837000088068,True,14
X041M18,492,experiment,72,→,right,→,0.8992426000040723,True,14
X041M18,493,experiment,120,↓,left,←,0.678014399993117,False,14
X041M18,494,experiment,84,←,left,←,0.685837500001071,True,14
X041M18,495,experiment,48,←,left,←,0.5435407000040868,True,14
X041M18,496,experiment,180,→,no_key,no_letter,-1.0,False,14
X041M18,497,experiment,60,→,right,→,0.6640467999968678,True,14
X041M18,498,experiment,156,→,left,←,0.6117792000004556,False,14
X041M18,499,experiment,36,↓,down,↓,0.7014259999996284,True,14
X041M18,500,experiment,168,→,right,→,0.5417830000078538,True,14
X041M18,501,experiment,84,→,right,→,0.495444399988628,True,14
X041M18,502,experiment,132,↑,up,↑,0.6232194000040181,True,14
X041M18,503,experiment,12,↓,down,↓,0.8649576000025263,True,14
X041M18,504,experiment,168,←,left,←,0.6928283999877749,True,14
X041M18,505,experiment,120,↓,down,↓,1.393228300003102,True,14
X041M18,506,experiment,84,↑,up,↑,0.6128531999856932,True,14
X041M18,507,experiment,168,↑,down,↓,0.8432952000002842,False,14
X041M18,508,experiment,168,↓,down,↓,0.5955774000030942,True,14
X041M18,509,experiment,108,→,right,→,0.6396788999991259,True,14
X041M18,510,experiment,60,←,left,←,0.544415399999707,True,14
X041M18,511,experiment,96,↑,up,↑,0.5995646999945166,True,14
X041M18,512,experiment,96,↓,down,↓,0.7912611000065226,True,14
X041M18,513,experiment,72,↑,up,↑,0.46581190000870265,True,14
X041M18,514,experiment,12,→,left,←,0.6100890999950934,False,14
X041M18,515,experiment,12,←,left,←,0.539429199998267,True,14
X041M18,516,experiment,48,←,left,←,0.5293110000056913,True,14
X041M18,517,experiment,60,←,left,←,0.7604367000021739,True,14
X041M18,518,experiment,96,↑,no_key,no_letter,-1.0,False,14
X041M18,519,experiment,156,←,left,←,0.5715020000061486,True,14
X041M18,520,experiment,48,→,right,→,0.8050925999996252,True,14
X041M18,521,experiment,12,→,right,→,0.6831793000019388,True,14
X041M18,522,experiment,144,→,right,→,1.233693600006518,True,14
X041M18,523,experiment,48,←,left,←,0.5656988999980967,True,14
X041M18,524,experiment,144,↓,no_key,no_letter,-1.0,False,14
X041M18,525,experiment,180,→,right,→,0.7868890000099782,True,14
X041M18,526,experiment,180,↑,up,↑,0.612853400001768,True,14
X041M18,527,experiment,108,→,no_key,no_letter,-1.0,False,14
X041M18,528,experiment,120,↓,down,↓,0.680724799996824,True,14
X041M18,529,experiment,36,↓,down,↓,0.6270779000042239,True,14
X041M18,530,experiment,144,↓,down,↓,0.8249604000011459,True,14
X041M18,531,experiment,60,↓,down,↓,0.7678654000046663,True,14
X041M18,532,experiment,108,→,right,→,0.6542138999939198,True,14
X041M18,533,experiment,72,←,left,←,0.8293204999936279,True,14
X041M18,534,experiment,120,↑,up,↑,0.6131374999968102,True,14
X041M18,535,training,180,↑,up,↑,0.5593456999922637,True,14
X041M18,536,training,144,←,left,←,0.5573218000063207,True,14
X041M18,537,training,60,→,right,→,0.5210152000072412,True,14
X041M18,538,experiment,144,→,right,→,0.5892051000118954,True,14
X041M18,539,experiment,72,←,left,←,0.5428236000007018,True,14
X041M18,540,experiment,132,←,left,←,0.48955060000298545,True,14
X041M18,541,experiment,48,→,right,→,0.4835274000070058,True,14
X041M18,542,experiment,168,←,left,←,0.7884289000066929,True,14
X041M18,543,experiment,60,←,left,←,0.5711332999926526,True,14
X041M18,544,experiment,144,↑,up,↑,0.6011089000094216,True,14
X041M18,545,experiment,156,↓,down,↓,0.8341412000008859,True,14
X041M18,546,experiment,96,↑,up,↑,0.5196231000008993,True,14
X041M18,547,experiment,60,←,left,←,0.6218668999936199,True,14
X041M18,548,experiment,24,←,left,←,0.5660286000056658,True,14
X041M18,549,experiment,180,←,left,←,0.5420536000019638,True,14
X041M18,550,experiment,36,←,left,←,0.555704300000798,True,14
X041M18,551,experiment,120,↑,up,↑,0.5467490000010002,True,14
X041M18,552,experiment,24,→,right,→,0.6004817000066396,True,14
X041M18,553,experiment,60,↓,up,↑,0.561257299996214,False,14
X041M18,554,experiment,48,↓,up,↑,0.7322531999961939,False,14
X041M18,555,experiment,12,↑,up,↑,0.7305227999895578,True,14
X041M18,556,experiment,96,↓,up,↑,0.7556189999886556,False,14
X041M18,557,experiment,180,↑,up,↑,0.8077592000045115,True,14
X041M18,558,experiment,12,↓,down,↓,0.575477200007299,True,14
X041M18,559,experiment,180,↑,down,↓,0.8658218000055058,False,14
X041M18,560,experiment,180,↓,down,↓,0.7400992999901064,True,14
X041M18,561,experiment,84,→,right,→,0.5646528000070248,True,14
X041M18,562,experiment,120,↓,no_key,no_letter,-1.0,False,14
X041M18,563,experiment,108,←,left,←,0.5692077999992762,True,14
X041M18,564,experiment,108,↓,down,↓,0.6947960999968927,True,14
X041M18,565,experiment,24,↓,up,↑,1.0533677999919746,False,14
X041M18,566,experiment,168,→,right,→,0.7366946999973152,True,14
X041M18,567,experiment,132,↑,down,↓,0.8147783000022173,False,14
X041M18,568,experiment,48,↓,down,↓,0.7006177000002936,True,14
X041M18,569,experiment,96,↓,down,↓,0.6340612000058172,True,14
X041M18,570,experiment,84,←,left,←,0.5745076000021072,True,14
X041M18,571,experiment,84,→,right,→,0.5716765000106534,True,14
X041M18,572,experiment,132,↓,down,↓,0.7254419999953825,True,14
X041M18,573,experiment,72,↓,down,↓,0.7083006000029854,True,14
X041M18,574,experiment,12,↑,down,↓,1.2309385999978986,False,14
X041M18,575,experiment,72,→,right,→,0.577619899995625,True,14
X041M18,576,experiment,168,→,right,→,0.542217599999276,True,14
X041M18,577,experiment,84,→,right,→,0.5233713999914471,True,14
X041M18,578,experiment,108,↓,down,↓,0.6441618999961065,True,14
X041M18,579,experiment,72,←,right,→,0.48995869999635033,False,14
X041M18,580,experiment,48,↑,down,↓,0.6556689999997616,False,14
X041M18,581,experiment,120,↓,right,→,0.8182656999997562,False,14
X041M18,582,experiment,120,↑,up,↑,0.6807067000045208,True,14
X041M18,583,experiment,36,←,right,→,0.9363136000029044,False,14
X041M18,584,experiment,108,←,left,←,0.45271489999140613,True,14
X041M18,585,experiment,24,↓,left,←,0.6324801000009757,False,14
X041M18,586,experiment,156,←,left,←,0.5444982000044547,True,14
X041M18,587,experiment,36,←,left,←,0.8704660999937914,True,14
X041M18,588,experiment,60,→,left,←,0.644994799993583,False,14
X041M18,589,experiment,36,↓,down,↓,0.8399061000091024,True,14
X041M18,590,experiment,156,←,left,←,0.5536462000018219,True,14
X041M18,591,experiment,12,←,right,→,0.7378572999878088,False,14
X041M18,592,experiment,144,↑,down,↓,0.6759455999999773,False,14
X041M18,593,experiment,168,←,left,←,0.538370299997041,True,14
X041M18,594,experiment,144,←,left,←,0.5344047999969916,True,14
X041M18,595,experiment,132,←,left,←,0.8704211000003852,True,14
X041M18,596,experiment,156,→,right,→,0.9653548000060255,True,14
X041M18,597,experiment,96,↑,up,↑,0.8121835000056308,True,14
X041M18,598,training,48,→,left,←,0.6274284999963129,False,14
X041M18,599,training,120,↓,down,↓,0.6263331999944057,True,14
X041M18,600,training,156,←,left,←,0.47738319999189116,True,14
X041M18,601,experiment,48,→,left,←,0.8831921000091825,False,14
X041M18,602,experiment,120,↓,down,↓,0.5956274999916786,True,14
X041M18,603,experiment,168,↓,down,↓,0.6779398999933619,True,14
X041M18,604,experiment,108,←,left,←,0.5281000999966636,True,14
X041M18,605,experiment,84,↑,left,←,0.6648096999997506,False,14
X041M18,606,experiment,24,↓,down,↓,0.734265699997195,True,14
X041M18,607,experiment,36,←,left,←,0.469787299996824,True,14
X041M18,608,experiment,168,↑,down,↓,0.6367363000026671,False,14
X041M18,609,experiment,168,←,left,←,1.3193464999931166,True,14
X041M18,610,experiment,48,↑,down,↓,0.7116697000019485,False,14
X041M18,611,experiment,132,↓,down,↓,0.7001358999987133,True,14
X041M18,612,experiment,96,↓,down,↓,0.6008962000050815,True,14
X041M18,613,experiment,96,↑,up,↑,0.6286412000044947,True,14
X041M18,614,experiment,96,←,left,←,0.4894066999986535,True,14
X041M18,615,experiment,156,↓,down,↓,0.6223786999908043,True,14
X041M18,616,experiment,24,←,left,←,0.6045583999948576,True,14
X041M18,617,experiment,108,←,no_key,no_letter,-1.0,False,14
X041M18,618,experiment,12,→,right,→,0.5854815000056988,True,14
X041M18,619,experiment,144,←,left,←,0.5180677000025753,True,14
X041M18,620,experiment,120,←,left,←,0.5454739999986487,True,14
X041M18,621,experiment,180,←,left,←,0.662153400000534,True,14
X041M18,622,experiment,132,←,left,←,0.5261713000072632,True,14
X041M18,623,experiment,108,↓,up,↑,0.5171183000056772,False,14
X041M18,624,experiment,180,→,right,→,0.6219401999987895,True,14
X041M18,625,experiment,12,↓,up,↑,0.6229200000088895,False,14
X041M18,626,experiment,132,→,left,←,0.4984039999981178,False,14
X041M18,627,experiment,156,↓,down,↓,1.1622783000057098,True,14
X041M18,628,experiment,156,↓,left,←,0.6582336999999825,False,14
X041M18,629,experiment,12,↓,up,↑,0.643739999999525,False,14
X041M18,630,experiment,60,↑,no_key,no_letter,-1.0,False,14
X041M18,631,experiment,24,←,left,←,0.6140450999955647,True,14
X041M18,632,experiment,84,↑,no_key,no_letter,-1.0,False,14
X041M18,633,experiment,108,↓,down,↓,0.6003251999936765,True,14
X041M18,634,experiment,36,↓,down,↓,0.7177607000048738,True,14
X041M18,635,experiment,24,↑,up,↑,0.5154558000067482,True,14
X041M18,636,experiment,60,↑,down,↓,0.7667057999933604,False,14
X041M18,637,experiment,72,→,right,→,0.5339801000081934,True,14
X041M18,638,experiment,72,←,right,→,0.9570183000032557,False,14
X041M18,639,experiment,48,←,left,←,0.5860511000064434,True,14
X041M18,640,experiment,144,←,left,←,0.6488714000006439,True,14
X041M18,641,experiment,36,→,right,→,0.6562093999964418,True,14
X041M18,642,experiment,180,↓,down,↓,0.7435815999924671,True,14
X041M18,643,experiment,12,↑,up,↑,0.7854326000087894,True,14
X041M18,644,experiment,48,→,right,→,0.5473848999972688,True,14
X041M18,645,experiment,60,↓,down,↓,0.622260299991467,True,14
X041M18,646,experiment,60,→,right,→,0.6005493999982718,True,14
X041M18,647,experiment,96,←,left,←,0.5611842999933288,True,14
X041M18,648,experiment,72,→,right,→,0.5112279000022681,True,14
X041M18,649,experiment,84,↑,up,↑,0.5515347000036854,True,14
X041M18,650,experiment,120,↑,up,↑,0.8957272999978159,True,14
X041M18,651,experiment,144,↑,down,↓,0.6474178000062238,False,14
X041M18,652,experiment,144,↓,down,↓,0.6378475000092294,True,14
X041M18,653,experiment,72,↓,down,↓,0.9757270999980392,True,14
X041M18,654,experiment,36,→,right,→,0.5260360000102082,True,14
X041M18,655,experiment,156,→,right,→,0.5368156999902567,True,14
X041M18,656,experiment,168,↑,up,↑,0.5144498000008753,True,14
X041M18,657,experiment,84,↓,down,↓,0.6933816999953706,True,14
X041M18,658,experiment,132,↓,right,→,0.629512400002568,False,14
X041M18,659,experiment,180,↑,no_key,no_letter,-1.0,False,14
X041M18,660,experiment,120,←,left,←,0.5692551999964053,True,14
X041M18,661,training,108,←,down,↓,0.8665681999991648,False,14
X041M18,662,training,108,↓,down,↓,0.7743464999948628,True,14
X041M18,663,training,180,←,left,←,0.5411674000060884,True,14
X041M18,664,experiment,96,↑,down,↓,0.6541087000077823,False,14
X041M18,665,experiment,180,←,right,→,0.5565174000075785,False,14
X041M18,666,experiment,24,↑,down,↓,0.8484855999995489,False,14
X041M18,667,experiment,84,↓,down,↓,0.6075723999965703,True,14
X041M18,668,experiment,168,↑,down,↓,0.56319459999213,False,14
X041M18,669,experiment,168,←,left,←,0.6823103000060655,True,14
X041M18,670,experiment,120,↑,up,↑,0.5645308999955887,True,14
X041M18,671,experiment,108,←,right,→,0.712681100005284,False,14
X041M18,672,experiment,36,→,right,→,0.8023417000076734,True,14
X041M18,673,experiment,60,←,left,←,0.6610014000034425,True,14
X041M18,674,experiment,36,←,left,←,0.567688499999349,True,14
X041M18,675,experiment,48,↓,down,↓,0.720583499991335,True,14
X041M18,676,experiment,156,→,right,→,0.6154788000130793,True,14
X041M18,677,experiment,96,↑,up,↑,0.6238732999918284,True,14
X041M18,678,experiment,72,←,left,←,0.5917887000105111,True,14
X041M18,679,experiment,144,←,left,←,0.5720434000104433,True,14
X041M18,680,experiment,108,↑,up,↑,0.5377128999971319,True,14
X041M18,681,experiment,168,↑,up,↑,0.6137648000003537,True,14
X041M18,682,experiment,24,↑,right,→,1.1186656000063522,False,14
X041M18,683,experiment,48,→,left,←,0.6219731000019237,False,14
X041M18,684,experiment,84,↑,up,↑,0.5634492999961367,True,14
X041M18,685,experiment,132,←,left,←,0.7045399000053294,True,14
X041M18,686,experiment,156,←,left,←,0.6374287999933586,True,14
X041M18,687,experiment,144,↑,left,←,0.746724999989965,False,14
X041M18,688,experiment,132,→,right,→,0.733453599998029,True,14
X041M18,689,experiment,24,↑,up,↑,0.8611156999977538,True,14
X041M18,690,experiment,180,→,left,←,0.7562086000107229,False,14
X041M18,691,experiment,108,↑,up,↑,0.5853702000022167,True,14
X041M18,692,experiment,12,↓,down,↓,0.9046844999975292,True,14
X041M18,693,experiment,36,→,right,→,0.6963505000021541,True,14
X041M18,694,experiment,120,→,right,→,0.6420255999983056,True,14
X041M18,695,experiment,72,←,left,←,0.6539918999915244,True,14
X041M18,696,experiment,60,↓,right,→,0.7573044999880949,False,14
X041M18,697,experiment,180,↑,left,←,1.1678202000039164,False,14
X041M18,698,experiment,36,↑,right,→,0.6074933000054443,False,14
X041M18,699,experiment,180,→,right,→,0.7258383000007598,True,14
X041M18,700,experiment,96,←,right,→,0.6787515999894822,False,14
X041M18,701,experiment,144,←,left,←,0.47019409999484196,True,14
X041M18,702,experiment,48,→,right,→,0.6432715999981156,True,14
X041M18,703,experiment,168,↑,right,→,0.5745240999967791,False,14
X041M18,704,experiment,120,↓,left,←,0.714923399995314,False,14
X041M18,705,experiment,156,←,right,→,0.5893387999967672,False,14
X041M18,706,experiment,12,→,right,→,0.6608545999915805,True,14
X041M18,707,experiment,12,↑,right,→,0.7452075000037439,False,14
X041M18,708,experiment,96,↓,down,↓,0.538107599990326,True,14
X041M18,709,experiment,132,↓,up,↑,0.667236099994625,False,14
X041M18,710,experiment,72,←,left,←,0.6164408000040567,True,14
X041M18,711,experiment,108,←,left,←,0.5449948999885237,True,14
X041M18,712,experiment,12,→,right,→,0.874413999990793,True,14
X041M18,713,experiment,132,→,right,→,0.5989479999989271,True,14
X041M18,714,experiment,60,→,right,→,1.0476384999928996,True,14
X041M18,715,experiment,84,←,left,←,0.7440894000028493,True,14
X041M18,716,experiment,156,↓,down,↓,0.8078894000063883,True,14
X041M18,717,experiment,84,←,right,→,0.5857603000040399,False,14
X041M18,718,experiment,120,↑,up,↑,0.5305571000062628,True,14
X041M18,719,experiment,48,↓,down,↓,0.6944875000044703,True,14
X041M18,720,experiment,144,↓,down,↓,0.6633223000098951,True,14
X041M18,721,experiment,60,↓,down,↓,0.6698120000073686,True,14
X041M18,722,experiment,72,←,left,←,0.46968150000611786,True,14
X041M18,723,experiment,24,←,left,←,0.8031183999992209,True,14
X041M18,724,training,144,→,left,←,0.8093214000109583,False,14
X041M18,725,training,132,↓,down,↓,0.5220556999993278,True,14
X041M18,726,training,168,←,left,←,0.6338969000062207,True,14
X041M18,727,experiment,60,←,left,←,0.5101026999909664,True,14
X041M18,728,experiment,132,↓,down,↓,0.5489336000027834,True,14
X041M18,729,experiment,132,↓,down,↓,0.5003567999956431,True,14
X041M18,730,experiment,180,←,left,←,0.5641922000068007,True,14
X041M18,731,experiment,72,↓,down,↓,0.5481650000001537,True,14
X041M18,732,experiment,144,↓,down,↓,0.6685884000035003,True,14
X041M18,733,experiment,36,↑,up,↑,0.8952649999991991,True,14
X041M18,734,experiment,120,→,right,→,0.5645412000012584,True,14
X041M18,735,experiment,24,←,left,←,0.5732948000077158,True,14
X041M18,736,experiment,12,↓,down,↓,1.0180496000102721,True,14
X041M18,737,experiment,60,↓,down,↓,0.7069389999960549,True,14
X041M18,738,experiment,60,←,left,←,0.593059999999241,True,14
X041M18,739,experiment,96,→,right,→,0.7984474999975646,True,14
X041M18,740,experiment,180,↓,left,←,0.545798899998772,False,14
X041M18,741,experiment,156,↑,up,↑,0.6029535000125179,True,14
X041M18,742,experiment,108,←,right,→,0.5749214999959804,False,14
X041M18,743,experiment,132,→,right,→,0.7805726000078721,True,14
X041M18,744,experiment,96,↑,up,↑,0.5432034999976167,True,14
X041M18,745,experiment,144,↓,up,↑,0.5503201999963494,False,14
X041M18,746,experiment,180,↑,up,↑,0.5515200999943772,True,14
X041M18,747,experiment,120,←,right,→,0.6219443000009051,False,14
X041M18,748,experiment,24,↓,right,→,0.8493633999896701,False,14
X041M18,749,experiment,168,←,left,←,0.6694144000066444,True,14
X041M18,750,experiment,108,←,left,←,0.626250200002687,True,14
X041M18,751,experiment,96,↑,right,→,0.6560308999905828,False,14
X041M18,752,experiment,24,←,left,←,0.5394740999909118,True,14
X041M18,753,experiment,84,↑,up,↑,0.602206199997454,True,14
X041M18,754,experiment,48,↓,up,↑,0.7590624000004027,False,14
X041M18,755,experiment,72,↑,right,→,1.2182888000097591,False,14
X041M18,756,experiment,156,←,left,←,0.6079138000059174,True,14
X041M18,757,experiment,36,←,right,→,0.7628685000090627,False,14
X041M18,758,experiment,168,↑,left,←,0.7959876999957487,False,14
X041M18,759,experiment,72,→,left,←,0.6461367000010796,False,14
X041M18,760,experiment,132,↓,right,→,0.7158970000018599,False,14
X041M18,761,experiment,84,←,left,←,0.55443779999041,True,14
X041M18,762,experiment,144,↑,up,↑,0.5458533000055468,True,14
X041M18,763,experiment,12,←,right,→,0.9634098999958951,False,14
X041M18,764,experiment,144,←,left,←,0.49801519999164157,True,14
X041M18,765,experiment,12,↓,down,↓,0.7085816000035265,True,14
X041M18,766,experiment,168,←,left,←,0.5245723000116413,True,14
X041M18,767,experiment,60,←,left,←,0.5231575999932829,True,14
X041M18,768,experiment,180,→,right,→,0.5466595999896526,True,14
X041M18,769,experiment,24,←,left,←,0.8083590000023833,True,14
X041M18,770,experiment,48,→,left,←,0.5778182999929413,False,14
X041M18,771,experiment,168,↑,up,↑,0.5730577000067569,True,14
X041M18,772,experiment,72,↓,down,↓,0.73759930000233,True,14
X041M18,773,experiment,48,→,right,→,0.6443989999970654,True,14
X041M18,774,experiment,108,→,right,→,1.0332556000066688,True,14
X041M18,775,experiment,156,↓,no_key,no_letter,-1.0,False,14
X041M18,776,experiment,156,↓,up,↑,0.7417662000079872,False,14
X041M18,777,experiment,36,←,left,←,0.7246062000049278,True,14
X041M18,778,experiment,84,↑,down,↓,0.8179660000023432,False,14
X041M18,779,experiment,120,↓,no_key,no_letter,-1.0,False,14
X041M18,780,experiment,36,↓,up,↑,0.9598343000106979,False,14
X041M18,781,experiment,108,↓,no_key,no_letter,-1.0,False,14
X041M18,782,experiment,120,→,right,→,0.5891637000022456,True,14
X041M18,783,experiment,96,←,left,←,0.5903885000006994,True,14
X041M18,784,experiment,12,→,right,→,0.8887624999915715,True,14
X041M18,785,experiment,48,→,right,→,0.6086164000007557,True,14
X041M18,786,experiment,84,↓,right,→,0.713925800009747,False,14
X041M18,787,training,12,↑,no_key,no_letter,-1.0,False,14
X041M18,788,training,12,↓,down,↓,0.7237984999956097,True,14
X041M18,789,training,144,↓,down,↓,0.5601404000044568,True,14
X041M18,790,experiment,84,←,left,←,0.5763291000039317,True,14
X041M18,791,experiment,36,↓,down,↓,0.6624947000091197,True,14
X041M18,792,experiment,36,→,right,→,0.6270642000017688,True,14
X041M18,793,experiment,156,↑,up,↑,0.7375832000107039,True,14
X041M18,794,experiment,180,→,right,→,0.8084111000061966,True,14
X041M18,795,experiment,144,←,left,←,0.5273788000049535,True,14
X041M18,796,experiment,12,→,right,→,0.6811511999985669,True,14
X041M18,797,experiment,144,↑,up,↑,0.5563306999974884,True,14
X041M18,798,experiment,120,↑,up,↑,0.5163728999905288,True,14
X041M18,799,experiment,120,↑,up,↑,0.6587838999985252,True,14
X041M18,800,experiment,12,→,right,→,0.7502404999977443,True,14
X041M18,801,experiment,180,←,left,←,0.794507300000987,True,14
X041M18,802,experiment,12,→,right,→,0.6518943999981275,True,14
X041M18,803,experiment,48,→,right,→,0.635381200001575,True,14
X041M18,804,experiment,96,→,right,→,0.5958836999925552,True,14
X041M18,805,experiment,48,↑,right,→,0.6671730000089156,False,14
X041M18,806,experiment,144,↓,up,↑,0.6951395000069169,False,14
X041M18,807,experiment,168,←,left,←,0.6190612000063993,True,14
X041M18,808,experiment,144,→,right,→,0.7140942999976687,True,14
X041M18,809,experiment,60,↑,right,→,1.511623900005361,False,14
X041M18,810,experiment,132,→,right,→,0.7000356999924406,True,14
X041M18,811,experiment,156,↑,right,→,1.0899572999915108,False,14
X041M18,812,experiment,180,↑,no_key,no_letter,-1.0,False,14
X041M18,813,experiment,84,↓,down,↓,0.6922419000038644,True,14
X041M18,814,experiment,132,↓,up,↑,0.6218265000061365,False,14
X041M18,815,experiment,48,↑,down,↓,0.7824220000038622,False,14
X041M18,816,experiment,156,→,left,←,0.6100136999884853,False,14
X041M18,817,experiment,24,→,right,→,0.6223994000029052,True,14
X041M18,818,experiment,120,↑,right,→,1.0002072999923257,False,14
X041M18,819,experiment,72,→,right,→,0.7182701999990968,True,14
X041M18,820,experiment,72,↓,left,←,0.6573211000068113,False,14
X041M18,821,experiment,168,↑,left,←,0.6326783999975305,False,14
X041M18,822,experiment,72,↓,down,↓,0.7116267999954289,True,14
X041M18,823,experiment,132,↓,right,→,0.5785920000053011,False,14
X041M18,824,experiment,96,↑,left,←,0.6498886000044877,False,14
X041M18,825,experiment,132,↑,up,↑,1.3830748000036692,True,14
X041M18,826,experiment,84,→,right,→,0.5754947999957949,True,14
X041M18,827,experiment,60,←,left,←,0.5780556999961846,True,14
X041M18,828,experiment,72,↑,up,↑,0.6381661999912467,True,14
X041M18,829,experiment,96,←,right,→,0.5979723999917042,False,14
X041M18,830,experiment,36,↓,down,↓,0.7120348999887938,True,14
X041M18,831,experiment,60,↓,no_key,no_letter,-1.0,False,14
X041M18,832,experiment,108,→,right,→,0.5340250999870477,True,14
X041M18,833,experiment,180,↓,left,←,1.348575299998629,False,14
X041M18,834,experiment,108,←,left,←,0.7018442999979015,True,14
X041M18,835,experiment,156,→,right,→,0.5013391000102274,True,14
X041M18,836,experiment,24,↓,down,↓,0.9867271999974037,True,14
X041M18,837,experiment,24,↑,up,↑,0.6210690000007162,True,14
X041M18,838,experiment,48,↓,right,→,0.764057699998375,False,14
X041M18,839,experiment,168,↓,down,↓,1.178653299997677,True,14
X041M18,840,experiment,108,↑,up,↑,0.7721824000036577,True,14
X041M18,841,experiment,12,←,left,←,0.6322118000098271,True,14
X041M18,842,experiment,108,↑,up,↑,0.5849242999975104,True,14
X041M18,843,experiment,60,↓,down,↓,1.017967800013139,True,14
X041M18,844,experiment,36,↓,right,→,1.2306393000035314,False,14
X041M18,845,experiment,84,↓,down,↓,0.6021516999899177,True,14
X041M18,846,experiment,120,↑,up,↑,0.554329599995981,True,14
X041M18,847,experiment,24,↑,down,↓,0.8863415000087116,False,14
X041M18,848,experiment,168,↑,up,↑,0.5427201999991667,True,14
X041M18,849,experiment,96,→,right,→,0.6046036000043387,True,14
