PART_ID,Trial_no,Trial_type,PDI,Stim_letter,Key_pressed,letter_choose,Rt,Corr,Stimulus Time
X042K25,1,training,10,↓,no_key,no_letter,-1.0,False,30
X042K25,2,training,10,→,right,→,0.914470300078392,True,30
X042K25,3,training,10,↓,left,←,1.0881349999690428,False,30
X042K25,4,training,10,↓,down,↓,1.0118160999845713,True,30
X042K25,5,training,10,↑,up,↑,1.0633396999910474,True,30
X042K25,6,training,10,↓,down,↓,0.7287101000547409,True,30
X042K25,7,training,10,→,left,←,1.0799385000718758,False,30
X042K25,8,training,10,←,left,←,0.9075103999348357,True,30
X042K25,9,training,10,→,right,→,0.9491429999470711,True,30
X042K25,10,training,10,↑,down,↓,1.469285300001502,False,30
X042K25,11,training,10,→,right,→,0.9562972999410704,True,30
X042K25,12,training,10,→,right,→,1.9281343000475317,True,30
X042K25,13,training,10,←,left,←,0.9740446999203414,True,30
X042K25,14,training,10,↓,left,←,1.5129082999192178,False,30
X042K25,15,training,10,↑,up,↑,1.0311608999036252,True,30
X042K25,16,training,10,↓,down,↓,0.9695581999840215,True,30
X042K25,17,training,10,→,right,→,0.9169149999506772,True,30
X042K25,18,training,10,←,left,←,0.9547298999968916,True,30
X042K25,19,training,10,→,right,→,0.9062956999987364,True,30
X042K25,20,training,10,↑,up,↑,0.82382679998409,True,30
X042K25,21,training,10,↓,left,←,0.5569644999923185,False,18
X042K25,22,training,10,↑,up,↑,0.9704850999405608,True,18
X042K25,23,training,10,↑,up,↑,1.144853400066495,True,18
X042K25,24,training,10,←,left,←,1.124688099953346,True,18
X042K25,25,training,10,↓,down,↓,0.9331052999477834,True,18
X042K25,26,training,10,←,left,←,0.8738259000238031,True,18
X042K25,27,training,10,↑,up,↑,0.737904499983415,True,18
X042K25,28,training,10,↓,down,↓,0.8113197000930086,True,18
X042K25,29,training,10,↓,down,↓,0.7216331000672653,True,18
X042K25,30,training,10,↑,up,↑,0.8079897999996319,True,18
X042K25,31,training,156,→,left,←,1.1002885999623686,False,15
X042K25,32,training,48,→,no_key,no_letter,-1.0,False,15
X042K25,33,training,96,←,left,←,0.8860889000352472,True,15
X042K25,34,experiment,12,↓,down,↓,0.8521269999910146,True,15
X042K25,35,experiment,60,→,right,→,0.8850598999997601,True,15
X042K25,36,experiment,96,→,right,→,1.3321287999860942,True,15
X042K25,37,experiment,120,↓,left,←,1.2888065999140963,False,15
X042K25,38,experiment,24,↑,no_key,no_letter,-1.0,False,15
X042K25,39,experiment,84,↑,no_key,no_letter,-1.0,False,15
X042K25,40,experiment,132,↓,left,←,0.4633077000034973,False,15
X042K25,41,experiment,36,←,left,←,0.9062358000082895,True,15
X042K25,42,experiment,144,→,left,←,1.111504300031811,False,15
X042K25,43,experiment,36,↓,no_key,no_letter,-1.0,False,15
X042K25,44,experiment,144,→,right,→,1.235005100024864,True,15
X042K25,45,experiment,12,→,no_key,no_letter,-1.0,False,15
X042K25,46,experiment,84,→,left,←,0.7346723000518978,False,15
X042K25,47,experiment,120,←,left,←,0.7452086999546736,True,15
X042K25,48,experiment,156,↑,up,↑,0.8652340000262484,True,15
X042K25,49,experiment,84,↓,no_key,no_letter,-1.0,False,15
X042K25,50,experiment,96,↓,up,↑,0.8895713000092655,False,15
X042K25,51,experiment,108,↓,up,↑,1.0189580000005662,False,15
X042K25,52,experiment,180,↑,no_key,no_letter,-1.0,False,15
X042K25,53,experiment,180,↓,no_key,no_letter,-1.0,False,15
X042K25,54,experiment,108,↑,no_key,no_letter,-1.0,False,15
X042K25,55,experiment,120,↓,down,↓,0.8159187999553978,True,15
X042K25,56,experiment,120,↑,left,←,1.8260153000010177,False,15
X042K25,57,experiment,48,←,left,←,1.0784291999880224,True,15
X042K25,58,experiment,12,↑,no_key,no_letter,-1.0,False,15
X042K25,59,experiment,168,↑,no_key,no_letter,-1.0,False,15
X042K25,60,experiment,96,→,right,→,1.5259581001009792,True,15
X042K25,61,experiment,168,↑,no_key,no_letter,-1.0,False,15
X042K25,62,experiment,132,↓,no_key,no_letter,-1.0,False,15
X042K25,63,experiment,180,←,right,→,1.1398447999963537,False,15
X042K25,64,experiment,72,↓,no_key,no_letter,-1.0,False,15
X042K25,65,experiment,84,→,no_key,no_letter,-1.0,False,15
X042K25,66,experiment,72,↑,no_key,no_letter,-1.0,False,15
X042K25,67,experiment,156,→,right,→,0.7370020999806002,True,15
X042K25,68,experiment,132,←,left,←,1.549312699935399,True,15
X042K25,69,experiment,36,←,no_key,no_letter,-1.0,False,15
X042K25,70,experiment,60,→,right,→,1.4711586000630632,True,15
X042K25,71,experiment,48,↑,right,→,1.2803023000014946,False,15
X042K25,72,experiment,24,↑,up,↑,0.7607111000688747,True,15
X042K25,73,experiment,12,↓,down,↓,0.660315899993293,True,15
X042K25,74,experiment,60,↑,no_key,no_letter,-1.0,False,15
X042K25,75,experiment,60,→,no_key,no_letter,-1.0,False,15
X042K25,76,experiment,144,→,right,→,0.8595609000185505,True,15
X042K25,77,experiment,168,↓,down,↓,0.9934566000010818,True,15
X042K25,78,experiment,180,→,no_key,no_letter,-1.0,False,15
X042K25,79,experiment,156,→,right,→,0.9790757999289781,True,15
X042K25,80,experiment,24,↓,down,↓,1.1121316000353545,True,15
X042K25,81,experiment,48,←,no_key,no_letter,-1.0,False,15
X042K25,82,experiment,24,↑,no_key,no_letter,-1.0,False,15
X042K25,83,experiment,108,←,left,←,1.1717490999726579,True,15
X042K25,84,experiment,132,←,left,←,1.0454965999815613,True,15
X042K25,85,experiment,48,↑,up,↑,0.9612694999668747,True,15
X042K25,86,experiment,36,→,no_key,no_letter,-1.0,False,15
X042K25,87,experiment,156,→,right,→,0.6712599999736995,True,15
X042K25,88,experiment,144,↓,no_key,no_letter,-1.0,False,15
X042K25,89,experiment,168,↓,no_key,no_letter,-1.0,False,15
X042K25,90,experiment,96,→,right,→,0.7032832000404596,True,15
X042K25,91,experiment,72,↑,right,→,1.9003428000723943,False,15
X042K25,92,experiment,72,↑,up,↑,0.709358699969016,True,15
X042K25,93,experiment,108,→,right,→,0.7880902999313548,True,15
X042K25,94,training,36,↑,no_key,no_letter,-1.0,False,16
X042K25,95,training,144,↑,up,↑,1.2140749000245705,True,16
X042K25,96,training,108,↓,no_key,no_letter,-1.0,False,16
X042K25,97,experiment,180,↑,up,↑,0.813123399973847,True,16
X042K25,98,experiment,144,↑,up,↑,0.6748570000054315,True,16
X042K25,99,experiment,180,→,right,→,0.7438379999948665,True,16
X042K25,100,experiment,36,↑,no_key,no_letter,-1.0,False,16
X042K25,101,experiment,144,←,left,←,0.7327047999715433,True,16
X042K25,102,experiment,168,↑,up,↑,0.8631678000092506,True,16
X042K25,103,experiment,24,←,no_key,no_letter,-1.0,False,16
X042K25,104,experiment,96,→,right,→,0.9324816999724135,True,16
X042K25,105,experiment,48,←,no_key,no_letter,-1.0,False,16
X042K25,106,experiment,84,↑,no_key,no_letter,-1.0,False,16
X042K25,107,experiment,108,→,right,→,0.5335187999298796,True,16
X042K25,108,experiment,60,↓,no_key,no_letter,-1.0,False,16
X042K25,109,experiment,168,→,right,→,0.561043200083077,True,16
X042K25,110,experiment,180,←,left,←,0.80676940002013,True,16
X042K25,111,experiment,156,→,left,←,0.9511572999181226,False,16
X042K25,112,experiment,108,←,right,→,1.5293443999253213,False,16
X042K25,113,experiment,96,←,right,→,1.434268799959682,False,16
X042K25,114,experiment,48,↑,up,↑,0.7842354000313208,True,16
X042K25,115,experiment,120,↓,down,↓,0.7640610000817105,True,16
X042K25,116,experiment,108,→,no_key,no_letter,-1.0,False,16
X042K25,117,experiment,60,↑,no_key,no_letter,-1.0,False,16
X042K25,118,experiment,120,↓,down,↓,1.0451502000214532,True,16
X042K25,119,experiment,60,↓,down,↓,1.371858400059864,True,16
X042K25,120,experiment,72,↓,no_key,no_letter,-1.0,False,16
X042K25,121,experiment,12,↓,down,↓,0.7254097999539226,True,16
X042K25,122,experiment,144,↓,no_key,no_letter,-1.0,False,16
X042K25,123,experiment,84,↓,down,↓,0.7539048999315128,True,16
X042K25,124,experiment,72,→,right,→,1.3531571000348777,True,16
X042K25,125,experiment,48,←,right,→,1.0760165000101551,False,16
X042K25,126,experiment,168,↑,no_key,no_letter,-1.0,False,16
X042K25,127,experiment,48,↑,no_key,no_letter,-1.0,False,16
X042K25,128,experiment,24,→,right,→,0.7272981000132859,True,16
X042K25,129,experiment,24,←,right,→,1.1526430000085384,False,16
X042K25,130,experiment,156,↑,up,↑,0.896081899991259,True,16
X042K25,131,experiment,96,←,no_key,no_letter,-1.0,False,16
X042K25,132,experiment,36,←,left,←,0.8564073999878019,True,16
X042K25,133,experiment,120,↑,no_key,no_letter,-1.0,False,16
X042K25,134,experiment,12,←,no_key,no_letter,-1.0,False,16
X042K25,135,experiment,156,↓,no_key,no_letter,-1.0,False,16
X042K25,136,experiment,120,↑,up,↑,0.7032927999971434,True,16
X042K25,137,experiment,132,↓,down,↓,0.864684300031513,True,16
X042K25,138,experiment,60,←,left,←,0.760417899931781,True,16
X042K25,139,experiment,12,←,right,→,0.9787755999714136,False,16
X042K25,140,experiment,84,↑,up,↑,0.9602725999429822,True,16
X042K25,141,experiment,36,→,left,←,0.8502417999552563,False,16
X042K25,142,experiment,168,←,left,←,1.5488543999381363,True,16
X042K25,143,experiment,144,←,no_key,no_letter,-1.0,False,16
X042K25,144,experiment,156,↓,down,↓,0.7208316000178456,True,16
X042K25,145,experiment,180,↓,down,↓,0.8362965999403968,True,16
X042K25,146,experiment,72,←,no_key,no_letter,-1.0,False,16
X042K25,147,experiment,96,↑,no_key,no_letter,-1.0,False,16
X042K25,148,experiment,84,↑,up,↑,0.6004733999725431,True,16
X042K25,149,experiment,36,←,left,←,0.8145921999821439,True,16
X042K25,150,experiment,24,↓,no_key,no_letter,-1.0,False,16
X042K25,151,experiment,132,→,right,→,0.7398002000991255,True,16
X042K25,152,experiment,132,→,right,→,0.8221921999938786,True,16
X042K25,153,experiment,108,↓,left,←,1.4755472999531776,False,16
X042K25,154,experiment,12,←,right,→,1.433947299956344,False,16
X042K25,155,experiment,132,↓,down,↓,0.6669052999932319,True,16
X042K25,156,experiment,72,↓,no_key,no_letter,-1.0,False,16
X042K25,157,training,12,↑,up,↑,1.036790799931623,True,17
X042K25,158,training,180,→,right,→,0.8879168999847025,True,17
X042K25,159,training,84,↑,up,↑,0.8811421999707818,True,17
X042K25,160,experiment,168,↓,down,↓,0.6839405000209808,True,17
X042K25,161,experiment,84,↓,down,↓,0.8730615999083966,True,17
X042K25,162,experiment,36,→,right,→,0.8662880000192672,True,17
X042K25,163,experiment,24,→,right,→,0.9524858000222594,True,17
X042K25,164,experiment,108,←,right,→,0.7617697999812663,False,17
X042K25,165,experiment,36,→,right,→,0.7402211999287829,True,17
X042K25,166,experiment,12,←,left,←,0.7011384000070393,True,17
X042K25,167,experiment,48,↓,down,↓,0.688719299971126,True,17
X042K25,168,experiment,60,←,right,→,1.2482913999119774,False,17
X042K25,169,experiment,96,↓,down,↓,0.7654579000081867,True,17
X042K25,170,experiment,60,→,down,↓,0.7431203000014648,False,17
X042K25,171,experiment,168,↓,down,↓,0.9420415000058711,True,17
X042K25,172,experiment,12,→,left,←,0.8823978999862447,False,17
X042K25,173,experiment,168,↓,down,↓,0.7049472999060526,True,17
X042K25,174,experiment,60,←,left,←,0.6650006000418216,True,17
X042K25,175,experiment,96,←,left,←,0.8595656999386847,True,17
X042K25,176,experiment,60,←,left,←,0.7204357000300661,True,17
X042K25,177,experiment,48,←,left,←,0.7833364000543952,True,17
X042K25,178,experiment,144,←,left,←,0.7605135999619961,True,17
X042K25,179,experiment,48,↓,down,↓,0.6578280000248924,True,17
X042K25,180,experiment,72,↑,up,↑,0.6233914000913501,True,17
X042K25,181,experiment,84,↓,down,↓,0.6623337999917567,True,17
X042K25,182,experiment,12,↓,down,↓,0.6616800000192598,True,17
X042K25,183,experiment,180,→,right,→,0.6202424999792129,True,17
X042K25,184,experiment,72,→,right,→,0.7260306000243872,True,17
X042K25,185,experiment,36,↓,down,↓,0.6029859000118449,True,17
X042K25,186,experiment,132,→,right,→,0.8501778999343514,True,17
X042K25,187,experiment,132,↑,up,↑,0.8800449999980628,True,17
X042K25,188,experiment,132,→,right,→,0.6698204000713304,True,17
X042K25,189,experiment,168,→,right,→,0.6177070999983698,True,17
X042K25,190,experiment,180,→,right,→,0.6510592000558972,True,17
X042K25,191,experiment,72,↑,no_key,no_letter,-1.0,False,17
X042K25,192,experiment,72,←,left,←,0.6422279999824241,True,17
X042K25,193,experiment,84,↑,up,↑,0.5674247000133619,True,17
X042K25,194,experiment,84,←,left,←,0.7032753999810666,True,17
X042K25,195,experiment,144,←,left,←,0.5574326999485493,True,17
X042K25,196,experiment,24,↑,no_key,no_letter,-1.0,False,17
X042K25,197,experiment,24,↓,no_key,no_letter,-1.0,False,17
X042K25,198,experiment,108,→,right,→,0.8985278999898583,True,17
X042K25,199,experiment,108,↑,up,↑,0.5928667999105528,True,17
X042K25,200,experiment,120,↑,up,↑,0.550244800047949,True,17
X042K25,201,experiment,180,←,left,←,0.6927561999764293,True,17
X042K25,202,experiment,180,←,left,←,0.7028640999924392,True,17
X042K25,203,experiment,144,←,left,←,0.671092199976556,True,17
X042K25,204,experiment,36,←,left,←,0.517217900021933,True,17
X042K25,205,experiment,120,→,right,→,0.6016480999533087,True,17
X042K25,206,experiment,156,↑,up,↑,0.8163777999579906,True,17
X042K25,207,experiment,156,→,right,→,0.5798760999459773,True,17
X042K25,208,experiment,96,↑,up,↑,0.7903117999667302,True,17
X042K25,209,experiment,96,←,left,←,0.6241220999509096,True,17
X042K25,210,experiment,108,←,left,←,0.7801613999763504,True,17
X042K25,211,experiment,144,↓,down,↓,0.7219788000220433,True,17
X042K25,212,experiment,132,↓,down,↓,0.6882856000447646,True,17
X042K25,213,experiment,48,→,right,→,0.8474796999944374,True,17
X042K25,214,experiment,12,←,left,←,0.9488091999664903,True,17
X042K25,215,experiment,120,←,left,←,0.6651133999694139,True,17
X042K25,216,experiment,120,→,left,←,0.7395990999648347,False,17
X042K25,217,experiment,156,↓,no_key,no_letter,-1.0,False,17
X042K25,218,experiment,156,↑,up,↑,0.7201159000396729,True,17
X042K25,219,experiment,24,↓,no_key,no_letter,-1.0,False,17
X042K25,220,training,120,←,no_key,no_letter,-1.0,False,17
X042K25,221,training,144,→,no_key,no_letter,-1.0,False,17
X042K25,222,training,84,↓,down,↓,0.6866731999907643,True,17
X042K25,223,experiment,24,→,left,←,0.8602433999767527,False,17
X042K25,224,experiment,60,→,right,→,0.6464074000250548,True,17
X042K25,225,experiment,168,→,right,→,0.5917780998861417,True,17
X042K25,226,experiment,48,↓,down,↓,1.2707108999602497,True,17
X042K25,227,experiment,168,→,right,→,0.7024187999777496,True,17
X042K25,228,experiment,84,↓,down,↓,0.6922163999406621,True,17
X042K25,229,experiment,60,↓,down,↓,0.6925679999403656,True,17
X042K25,230,experiment,84,↑,up,↑,0.7403266999172047,True,17
X042K25,231,experiment,180,→,right,→,0.5892531999852508,True,17
X042K25,232,experiment,108,↓,right,→,1.317470800015144,False,17
X042K25,233,experiment,108,↓,down,↓,0.6755329999141395,True,17
X042K25,234,experiment,120,→,right,→,0.5798611000645906,True,17
X042K25,235,experiment,12,←,left,←,0.8482709999661893,True,17
X042K25,236,experiment,72,↓,no_key,no_letter,-1.0,False,17
X042K25,237,experiment,144,↓,down,↓,0.4642055999720469,True,17
X042K25,238,experiment,108,←,left,←,1.0279838999267668,True,17
X042K25,239,experiment,144,↓,down,↓,0.662519000004977,True,17
X042K25,240,experiment,120,→,right,→,0.754302000044845,True,17
X042K25,241,experiment,180,←,left,←,0.8148914999328554,True,17
X042K25,242,experiment,156,←,left,←,0.7155727000208572,True,17
X042K25,243,experiment,60,↑,no_key,no_letter,-1.0,False,17
X042K25,244,experiment,108,↓,down,↓,0.6381129000801593,True,17
X042K25,245,experiment,72,→,right,→,0.810341399977915,True,17
X042K25,246,experiment,132,↑,up,↑,0.7397872000001371,True,17
X042K25,247,experiment,60,←,left,←,0.7034359999233857,True,17
X042K25,248,experiment,24,→,right,→,0.745135199977085,True,17
X042K25,249,experiment,168,↑,up,↑,0.6536118999356404,True,17
X042K25,250,experiment,168,→,right,→,0.9535577000351623,True,17
X042K25,251,experiment,132,↑,up,↑,0.7663262999849394,True,17
X042K25,252,experiment,48,↑,up,↑,0.9614020000444725,True,17
X042K25,253,experiment,144,→,no_key,no_letter,-1.0,False,17
X042K25,254,experiment,96,←,left,←,0.672558700083755,True,17
X042K25,255,experiment,132,←,left,←,1.2217612999957055,True,17
X042K25,256,experiment,96,↑,up,↑,0.6727954999078065,True,17
X042K25,257,experiment,48,→,right,→,1.0076143000042066,True,17
X042K25,258,experiment,84,↑,up,↑,0.7306691000703722,True,17
X042K25,259,experiment,48,←,left,←,0.9674238000297919,True,17
X042K25,260,experiment,96,↓,down,↓,0.7538945999694988,True,17
X042K25,261,experiment,180,↑,up,↑,0.8396955999778584,True,17
X042K25,262,experiment,156,↓,no_key,no_letter,-1.0,False,17
X042K25,263,experiment,36,→,right,→,0.8677025999641046,True,17
X042K25,264,experiment,72,→,left,←,0.7609069000463933,False,17
X042K25,265,experiment,36,↑,no_key,no_letter,-1.0,False,17
X042K25,266,experiment,180,←,left,←,0.7269459000090137,True,17
X042K25,267,experiment,36,↑,up,↑,0.7151407999917865,True,17
X042K25,268,experiment,12,→,right,→,0.7923181999940425,True,17
X042K25,269,experiment,72,↓,up,↑,0.6552563000004739,False,17
X042K25,270,experiment,120,↓,no_key,no_letter,-1.0,False,17
X042K25,271,experiment,156,↑,up,↑,1.290169300045818,True,17
X042K25,272,experiment,24,→,right,→,0.6614065999165177,True,17
X042K25,273,experiment,96,↓,up,↑,1.048346500028856,False,17
X042K25,274,experiment,24,↓,no_key,no_letter,-1.0,False,17
X042K25,275,experiment,132,→,right,→,0.8713813999202102,True,17
X042K25,276,experiment,12,↑,up,↑,1.3455731000285596,True,17
X042K25,277,experiment,120,←,left,←,0.8083112000022084,True,17
X042K25,278,experiment,12,↓,down,↓,0.6446267999708652,True,17
X042K25,279,experiment,36,←,no_key,no_letter,-1.0,False,17
X042K25,280,experiment,84,↑,no_key,no_letter,-1.0,False,17
X042K25,281,experiment,156,→,right,→,0.9572846000082791,True,17
X042K25,282,experiment,144,↑,up,↑,0.7849257999332622,True,17
X042K25,283,training,36,↑,no_key,no_letter,-1.0,False,17
X042K25,284,training,144,←,left,←,0.6881004999158904,True,17
X042K25,285,training,84,↑,up,↑,0.7257802000967786,True,17
X042K25,286,experiment,36,→,right,→,0.862423500046134,True,17
X042K25,287,experiment,72,→,right,→,0.6388577999314293,True,17
X042K25,288,experiment,48,→,right,→,0.7491125999949872,True,17
X042K25,289,experiment,156,↑,no_key,no_letter,-1.0,False,17
X042K25,290,experiment,156,→,right,→,0.7923472999827936,True,17
X042K25,291,experiment,24,→,right,→,0.6859698999905959,True,17
X042K25,292,experiment,180,↓,right,→,0.71596399997361,False,17
X042K25,293,experiment,168,↑,up,↑,0.6027291999198496,True,17
X042K25,294,experiment,144,→,no_key,no_letter,-1.0,False,17
X042K25,295,experiment,24,→,right,→,0.6377766000805423,True,17
X042K25,296,experiment,144,↓,no_key,no_letter,-1.0,False,17
X042K25,297,experiment,36,←,left,←,0.8869740000227466,True,17
X042K25,298,experiment,84,←,left,←,0.6878132000565529,True,17
X042K25,299,experiment,12,↑,left,←,0.914188600028865,False,17
X042K25,300,experiment,12,←,right,→,0.8459003999596462,False,17
X042K25,301,experiment,120,←,left,←,0.69622389995493,True,17
X042K25,302,experiment,84,↑,up,↑,0.5780886999564245,True,17
X042K25,303,experiment,72,↑,up,↑,0.8045012000948191,True,17
X042K25,304,experiment,180,↑,up,↑,0.7080308001022786,True,17
X042K25,305,experiment,96,→,right,→,0.805976300034672,True,17
X042K25,306,experiment,180,←,left,←,0.7199705999810249,True,17
X042K25,307,experiment,84,↓,down,↓,0.8575281000230461,True,17
X042K25,308,experiment,12,↓,right,→,0.9108159999595955,False,17
X042K25,309,experiment,168,←,left,←,0.6875237000640482,True,17
X042K25,310,experiment,72,←,left,←,1.032545099966228,True,17
X042K25,311,experiment,132,←,left,←,0.6928504999959841,True,17
X042K25,312,experiment,36,↑,up,↑,0.6675845000427216,True,17
X042K25,313,experiment,96,↓,down,↓,0.7056390999350697,True,17
X042K25,314,experiment,60,↓,no_key,no_letter,-1.0,False,17
X042K25,315,experiment,120,←,left,←,0.668875899980776,True,17
X042K25,316,experiment,156,↓,down,↓,0.6989363000029698,True,17
X042K25,317,experiment,108,→,right,→,1.0411572000011802,True,17
X042K25,318,experiment,108,→,no_key,no_letter,-1.0,False,17
X042K25,319,experiment,48,→,right,→,0.942216599942185,True,17
X042K25,320,experiment,60,→,right,→,0.8700970000354573,True,17
X042K25,321,experiment,96,↑,up,↑,0.7606174000538886,True,17
X042K25,322,experiment,48,→,right,→,0.8895860000047833,True,17
X042K25,323,experiment,180,←,left,←,0.7522902999771759,True,17
X042K25,324,experiment,12,←,left,←,0.781074299942702,True,17
X042K25,325,experiment,120,↓,up,↑,0.7153149999212474,False,17
X042K25,326,experiment,156,↓,down,↓,0.7103457000339404,True,17
X042K25,327,experiment,96,↑,up,↑,0.7574637000216171,True,17
X042K25,328,experiment,120,→,right,→,0.9257783000357449,True,17
X042K25,329,experiment,144,←,left,←,0.6689188999589533,True,17
X042K25,330,experiment,168,←,left,←,0.7338268999010324,True,17
X042K25,331,experiment,24,↑,no_key,no_letter,-1.0,False,17
X042K25,332,experiment,60,↑,no_key,no_letter,-1.0,False,17
X042K25,333,experiment,72,←,left,←,0.68590280006174,True,17
X042K25,334,experiment,108,↑,up,↑,0.8690734000410885,True,17
X042K25,335,experiment,132,←,left,←,0.729920299956575,True,17
X042K25,336,experiment,48,←,left,←,0.8545016000280157,True,17
X042K25,337,experiment,144,↑,up,↑,0.6358121000230312,True,17
X042K25,338,experiment,24,↑,no_key,no_letter,-1.0,False,17
X042K25,339,experiment,132,↑,up,↑,0.7594021999975666,True,17
X042K25,340,experiment,132,↑,up,↑,0.6927365000592545,True,17
X042K25,341,experiment,36,→,up,↑,1.1465237999800593,False,17
X042K25,342,experiment,84,↑,up,↑,0.7095331000164151,True,17
X042K25,343,experiment,108,→,right,→,0.9035021000308916,True,17
X042K25,344,experiment,168,↑,up,↑,0.7022923000622541,True,17
X042K25,345,experiment,60,←,left,←,0.6685757000232115,True,17
X042K25,346,training,48,→,left,←,1.0787338999798521,False,17
X042K25,347,training,12,→,right,→,0.9723631999222562,True,17
X042K25,348,training,168,↑,up,↑,0.7176388999214396,True,17
X042K25,349,experiment,132,↑,up,↑,0.6315428999951109,True,17
X042K25,350,experiment,132,↑,up,↑,0.7599899000488222,True,17
X042K25,351,experiment,84,↓,down,↓,0.7666845000348985,True,17
X042K25,352,experiment,108,↑,no_key,no_letter,-1.0,False,17
X042K25,353,experiment,12,→,right,→,0.7794820999260992,True,17
X042K25,354,experiment,96,→,right,→,0.6887358000967652,True,17
X042K25,355,experiment,120,↓,down,↓,0.6873905999818817,True,17
X042K25,356,experiment,180,→,right,→,0.6880340999923646,True,17
X042K25,357,experiment,120,↑,down,↓,0.8288924000225961,False,17
X042K25,358,experiment,48,←,left,←,0.6878636999754235,True,17
X042K25,359,experiment,48,↓,down,↓,1.0156931999372318,True,17
X042K25,360,experiment,132,↓,down,↓,0.611929899896495,True,17
X042K25,361,experiment,96,↑,up,↑,0.8692143999505788,True,17
X042K25,362,experiment,72,←,left,←,0.606112299952656,True,17
X042K25,363,experiment,60,↑,up,↑,0.7989120000274852,True,17
X042K25,364,experiment,180,↓,down,↓,0.7145177000202239,True,17
X042K25,365,experiment,144,→,right,→,0.7729718000628054,True,17
X042K25,366,experiment,120,↑,up,↑,0.6963197001023218,True,17
X042K25,367,experiment,72,↑,up,↑,0.7943420000374317,True,17
X042K25,368,experiment,96,→,up,↑,1.000825299997814,False,17
X042K25,369,experiment,84,↑,up,↑,0.7746797000290826,True,17
X042K25,370,experiment,36,↑,left,←,0.9626873000524938,False,17
X042K25,371,experiment,108,←,left,←,0.6971416999585927,True,17
X042K25,372,experiment,84,↓,no_key,no_letter,-1.0,False,17
X042K25,373,experiment,96,←,left,←,0.5993292999919504,True,17
X042K25,374,experiment,168,↓,down,↓,0.70198730006814,True,17
X042K25,375,experiment,156,←,left,←,0.8059485000558197,True,17
X042K25,376,experiment,84,↑,no_key,no_letter,-1.0,False,17
X042K25,377,experiment,156,←,left,←,0.6849712999537587,True,17
X042K25,378,experiment,132,→,right,→,0.803618700010702,True,17
X042K25,379,experiment,48,→,right,→,0.9706004000036046,True,17
X042K25,380,experiment,60,↑,up,↑,0.6303172999760136,True,17
X042K25,381,experiment,36,↓,down,↓,0.7234024000354111,True,17
X042K25,382,experiment,180,←,left,←,0.5915852999314666,True,17
X042K25,383,experiment,72,↑,up,↑,0.7217912001069635,True,17
X042K25,384,experiment,12,→,no_key,no_letter,-1.0,False,17
X042K25,385,experiment,156,←,left,←,0.6824701000005007,True,17
X042K25,386,experiment,144,↓,down,↓,0.6929492000490427,True,17
X042K25,387,experiment,24,↓,down,↓,0.673800399992615,True,17
X042K25,388,experiment,60,↑,up,↑,0.7469710999866948,True,17
X042K25,389,experiment,36,↑,no_key,no_letter,-1.0,False,17
X042K25,390,experiment,180,↑,up,↑,0.6739221999887377,True,17
X042K25,391,experiment,168,↑,up,↑,1.377337499987334,True,17
X042K25,392,experiment,24,→,left,←,0.8872304999968037,False,17
X042K25,393,experiment,144,↑,up,↑,0.6881126000080258,True,17
X042K25,394,experiment,168,→,right,→,0.8369048999156803,True,17
X042K25,395,experiment,108,↓,down,↓,0.7175615000305697,True,17
X042K25,396,experiment,168,←,left,←,0.7329916999442503,True,17
X042K25,397,experiment,108,↑,up,↑,0.6665818999754265,True,17
X042K25,398,experiment,144,↓,down,↓,0.6367890000110492,True,17
X042K25,399,experiment,48,→,left,←,0.8418840999947861,False,17
X042K25,400,experiment,120,↑,up,↑,0.692934500053525,True,17
X042K25,401,experiment,12,←,left,←,0.7349490000633523,True,17
X042K25,402,experiment,12,↓,down,↓,0.6052553999470547,True,17
X042K25,403,experiment,156,←,left,←,0.6072140999604017,True,17
X042K25,404,experiment,24,←,right,→,0.8879917999729514,False,17
X042K25,405,experiment,36,←,no_key,no_letter,-1.0,False,17
X042K25,406,experiment,72,→,left,←,0.9486264999723062,False,17
X042K25,407,experiment,60,↓,down,↓,0.6995752999791875,True,17
X042K25,408,experiment,24,→,right,→,0.7860678000142798,True,17
X042K25,409,training,108,←,left,←,0.7554804000537843,True,17
X042K25,410,training,120,↑,up,↑,0.6700429000193253,True,17
X042K25,411,training,168,←,left,←,0.692270900006406,True,17
X042K25,412,experiment,96,↓,no_key,no_letter,-1.0,False,17
X042K25,413,experiment,168,→,right,→,0.6946332000661641,True,17
X042K25,414,experiment,72,↓,down,↓,0.7577371000079438,True,17
X042K25,415,experiment,168,↑,up,↑,0.9085088999709114,True,17
X042K25,416,experiment,96,←,right,→,0.704531199997291,False,17
X042K25,417,experiment,180,←,no_key,no_letter,-1.0,False,17
X042K25,418,experiment,36,↓,down,↓,0.824921099934727,True,17
X042K25,419,experiment,60,↑,up,↑,0.6665477999486029,True,17
X042K25,420,experiment,132,→,left,←,0.7400961000239477,False,17
X042K25,421,experiment,48,↓,no_key,no_letter,-1.0,False,17
X042K25,422,experiment,132,←,left,←,0.9279894001083449,True,17
X042K25,423,experiment,60,↑,up,↑,0.6169800000498071,True,17
X042K25,424,experiment,108,↓,down,↓,0.7091199000133201,True,17
X042K25,425,experiment,120,←,left,←,0.6606122000375763,True,17
X042K25,426,experiment,36,↓,down,↓,0.9766669000964612,True,17
X042K25,427,experiment,24,↓,no_key,no_letter,-1.0,False,17
X042K25,428,experiment,96,←,left,←,0.6409888999769464,True,17
X042K25,429,experiment,108,↓,down,↓,0.6986507000401616,True,17
X042K25,430,experiment,108,→,right,→,0.7980701000196859,True,17
X042K25,431,experiment,84,→,right,→,0.8866126999491826,True,17
X042K25,432,experiment,12,↑,no_key,no_letter,-1.0,False,17
X042K25,433,experiment,36,↓,down,↓,0.76740599994082,True,17
X042K25,434,experiment,72,↓,down,↓,0.5340342000126839,True,17
X042K25,435,experiment,180,→,right,→,0.6406564000062644,True,17
X042K25,436,experiment,156,↑,up,↑,0.6404617000371218,True,17
X042K25,437,experiment,120,→,right,→,0.6387330000288785,True,17
X042K25,438,experiment,120,↓,down,↓,0.6124177000019699,True,17
X042K25,439,experiment,108,→,right,→,0.5327110000653192,True,17
X042K25,440,experiment,12,↑,no_key,no_letter,-1.0,False,17
X042K25,441,experiment,180,↑,up,↑,0.608887399896048,True,17
X042K25,442,experiment,132,↑,up,↑,0.6872307000448927,True,17
X042K25,443,experiment,144,↑,up,↑,0.6580779000651091,True,17
X042K25,444,experiment,180,→,right,→,0.6515975000802428,True,17
X042K25,445,experiment,72,↓,no_key,no_letter,-1.0,False,17
X042K25,446,experiment,48,→,up,↑,0.5861851000227034,False,17
X042K25,447,experiment,144,↓,down,↓,0.7007708000019193,True,17
X042K25,448,experiment,96,↓,down,↓,0.6521623999578878,True,17
X042K25,449,experiment,36,→,right,→,0.8025182000128552,True,17
X042K25,450,experiment,156,→,right,→,0.6810506000183523,True,17
X042K25,451,experiment,84,↓,down,↓,0.6408242000034079,True,17
X042K25,452,experiment,84,←,left,←,0.8234725000802428,True,17
X042K25,453,experiment,12,←,no_key,no_letter,-1.0,False,17
X042K25,454,experiment,168,→,right,→,0.7475436000386253,True,17
X042K25,455,experiment,12,←,right,→,0.9360021000029519,False,17
X042K25,456,experiment,144,←,left,←,0.6597800999879837,True,17
X042K25,457,experiment,120,←,left,←,0.6704925999511033,True,17
X042K25,458,experiment,132,↑,up,↑,0.7127752000233158,True,17
X042K25,459,experiment,24,↑,up,↑,0.5751149000134319,True,17
X042K25,460,experiment,24,→,down,↓,0.6117529000621289,False,17
X042K25,461,experiment,72,↓,no_key,no_letter,-1.0,False,17
X042K25,462,experiment,156,↓,down,↓,0.7404204000486061,True,17
X042K25,463,experiment,144,↓,down,↓,0.5357529000611976,True,17
X042K25,464,experiment,168,↓,down,↓,0.5169535999884829,True,17
X042K25,465,experiment,84,→,left,←,0.7114034000551328,False,17
X042K25,466,experiment,48,←,right,→,0.9189618999371305,False,17
X042K25,467,experiment,48,←,left,←,0.7001926000230014,True,17
X042K25,468,experiment,24,←,left,←,0.6057533000130206,True,17
X042K25,469,experiment,60,←,left,←,0.5335843999637291,True,17
X042K25,470,experiment,60,←,no_key,no_letter,-1.0,False,17
X042K25,471,experiment,156,↓,down,↓,0.6266654999926686,True,17
X042K25,472,training,96,↓,no_key,no_letter,-1.0,False,17
X042K25,473,training,12,↑,no_key,no_letter,-1.0,False,17
X042K25,474,training,96,←,left,←,0.6685670999577269,True,17
X042K25,475,experiment,84,↑,no_key,no_letter,-1.0,False,17
X042K25,476,experiment,48,←,no_key,no_letter,-1.0,False,17
X042K25,477,experiment,180,↓,no_key,no_letter,-1.0,False,17
X042K25,478,experiment,84,←,left,←,0.692203399958089,True,17
X042K25,479,experiment,180,←,left,←,0.6338405000278726,True,17
X042K25,480,experiment,144,→,right,→,0.686390099930577,True,17
X042K25,481,experiment,24,←,left,←,0.647895299945958,True,17
X042K25,482,experiment,48,←,left,←,0.6571414000354707,True,17
X042K25,483,experiment,36,↑,up,↑,0.7100244000321254,True,17
X042K25,484,experiment,108,↑,up,↑,0.6973319000098854,True,17
X042K25,485,experiment,180,→,right,→,0.5960265999892727,True,17
X042K25,486,experiment,24,←,left,←,0.653957000002265,True,17
X042K25,487,experiment,24,←,left,←,0.7194080000044778,True,17
X042K25,488,experiment,96,↓,no_key,no_letter,-1.0,False,17
X042K25,489,experiment,156,↓,down,↓,0.6877376999473199,True,17
X042K25,490,experiment,72,↑,no_key,no_letter,-1.0,False,17
X042K25,491,experiment,120,←,left,←,0.6743250000290573,True,17
X042K25,492,experiment,96,→,right,→,0.7396124999504536,True,17
X042K25,493,experiment,120,←,left,←,0.6166890999302268,True,17
X042K25,494,experiment,84,↑,up,↑,0.6965799999888986,True,17
X042K25,495,experiment,48,→,no_key,no_letter,-1.0,False,17
X042K25,496,experiment,132,↑,up,↑,0.6751623000018299,True,17
X042K25,497,experiment,144,←,left,←,0.702056200010702,True,17
X042K25,498,experiment,12,→,left,←,0.8617390999570489,False,17
X042K25,499,experiment,168,←,left,←,0.6913432000437751,True,17
X042K25,500,experiment,108,↑,up,↑,0.6458350999746472,True,17
X042K25,501,experiment,108,↑,left,←,0.7708839999977499,False,17
X042K25,502,experiment,108,→,right,→,0.9016283999662846,True,17
X042K25,503,experiment,36,↑,up,↑,0.6579797000158578,True,17
X042K25,504,experiment,132,↑,up,↑,0.5727713999804109,True,17
X042K25,505,experiment,72,→,right,→,0.699254099978134,True,17
X042K25,506,experiment,36,←,left,←,0.6693955999799073,True,17
X042K25,507,experiment,96,↑,up,↑,0.6746032000519335,True,17
X042K25,508,experiment,168,→,right,→,0.7958219000138342,True,17
X042K25,509,experiment,60,↓,up,↑,0.659152900101617,False,17
X042K25,510,experiment,12,←,left,←,0.8160848999395967,True,17
X042K25,511,experiment,12,↑,up,↑,0.7341856999555603,True,17
X042K25,512,experiment,156,↑,no_key,no_letter,-1.0,False,17
X042K25,513,experiment,132,→,right,→,0.709661899949424,True,17
X042K25,514,experiment,60,←,up,↑,0.737516300054267,False,17
X042K25,515,experiment,24,↑,up,↑,0.6815270000370219,True,17
X042K25,516,experiment,48,↑,up,↑,0.64343000005465,True,17
X042K25,517,experiment,144,↓,down,↓,0.572890599956736,True,17
X042K25,518,experiment,36,↑,down,↓,0.839302200009115,False,17
X042K25,519,experiment,12,↓,up,↑,1.0812249999726191,False,17
X042K25,520,experiment,168,↓,down,↓,0.6269831999670714,True,17
X042K25,521,experiment,144,↓,down,↓,0.8561996000353247,True,17
X042K25,522,experiment,132,→,right,→,0.7387435999698937,True,17
X042K25,523,experiment,60,←,left,←,1.0438891000812873,True,17
X042K25,524,experiment,60,→,no_key,no_letter,-1.0,False,17
X042K25,525,experiment,180,↓,down,↓,0.6814336000243202,True,17
X042K25,526,experiment,120,←,left,←,0.7292174999602139,True,17
X042K25,527,experiment,168,↑,up,↑,0.6731778999092057,True,17
X042K25,528,experiment,84,↑,up,↑,0.6719586999388412,True,17
X042K25,529,experiment,72,↑,no_key,no_letter,-1.0,False,17
X042K25,530,experiment,72,→,right,→,1.3612925000488758,True,17
X042K25,531,experiment,156,↑,up,↑,0.6853363999398425,True,17
X042K25,532,experiment,156,↓,down,↓,0.6001064999727532,True,17
X042K25,533,experiment,120,←,left,←,0.7776252999901772,True,17
X042K25,534,experiment,96,→,right,→,0.8100268000271171,True,17
X042K25,535,training,96,↑,no_key,no_letter,-1.0,False,17
X042K25,536,training,48,→,right,→,0.7860621999716386,True,17
X042K25,537,training,48,↓,down,↓,0.7406656999373809,True,17
X042K25,538,experiment,144,→,right,→,0.7099564999807626,True,17
X042K25,539,experiment,144,←,right,→,0.711239599972032,False,17
X042K25,540,experiment,156,←,left,←,0.6989107999252155,True,17
X042K25,541,experiment,96,→,right,→,0.8097563999472186,True,17
X042K25,542,experiment,96,↑,up,↑,0.6663712000008672,True,17
X042K25,543,experiment,168,→,right,→,0.6117048000451177,True,17
X042K25,544,experiment,156,←,left,←,0.6119623000267893,True,17
X042K25,545,experiment,96,←,left,←,0.6388249000301585,True,17
X042K25,546,experiment,24,↓,down,↓,0.6670832999516279,True,17
X042K25,547,experiment,120,↑,no_key,no_letter,-1.0,False,17
X042K25,548,experiment,48,→,right,→,0.7619667999679223,True,17
X042K25,549,experiment,144,↓,down,↓,0.6047866999870166,True,17
X042K25,550,experiment,120,→,right,→,0.6876489999704063,True,17
X042K25,551,experiment,84,↑,up,↑,0.7613201000494882,True,17
X042K25,552,experiment,60,→,right,→,0.8653721999144182,True,17
X042K25,553,experiment,12,↑,down,↓,0.9547933000139892,False,17
X042K25,554,experiment,144,↓,down,↓,0.5910801999270916,True,17
X042K25,555,experiment,168,↑,down,↓,0.6824867998948321,False,17
X042K25,556,experiment,48,↑,no_key,no_letter,-1.0,False,17
X042K25,557,experiment,36,↓,up,↑,0.7908631000900641,False,17
X042K25,558,experiment,132,←,left,←,0.7180224999319762,True,17
X042K25,559,experiment,120,←,left,←,0.5255868000676855,True,17
X042K25,560,experiment,108,←,left,←,0.6274860999546945,True,17
X042K25,561,experiment,108,↑,no_key,no_letter,-1.0,False,17
X042K25,562,experiment,72,↓,down,↓,0.5937579000601545,True,17
X042K25,563,experiment,180,→,left,←,0.6248082999372855,False,17
X042K25,564,experiment,72,↑,up,↑,0.555123999947682,True,17
X042K25,565,experiment,60,↑,no_key,no_letter,-1.0,False,17
X042K25,566,experiment,84,→,right,→,0.6980811000103131,True,17
X042K25,567,experiment,72,←,left,←,0.7891008999431506,True,17
X042K25,568,experiment,180,↑,no_key,no_letter,-1.0,False,17
X042K25,569,experiment,84,↑,up,↑,0.572986299986951,True,17
X042K25,570,experiment,108,↓,down,↓,0.7870989999501035,True,17
X042K25,571,experiment,36,↑,up,↑,0.6429114999482408,True,17
X042K25,572,experiment,180,←,left,←,0.72177439997904,True,17
X042K25,573,experiment,96,↓,down,↓,0.7795558999059722,True,17
X042K25,574,experiment,120,←,left,←,0.7713854000903666,True,17
X042K25,575,experiment,48,←,left,←,0.6642712999600917,True,17
X042K25,576,experiment,168,↑,up,↑,0.6674522999674082,True,17
X042K25,577,experiment,36,↑,down,↓,0.5986910000210628,False,17
X042K25,578,experiment,24,↓,down,↓,0.8049528999254107,True,17
X042K25,579,experiment,24,↓,down,↓,0.6957656000740826,True,17
X042K25,580,experiment,132,↓,down,↓,0.6748393999878317,True,17
X042K25,581,experiment,132,↓,down,↓,0.641983599984087,True,17
X042K25,582,experiment,60,→,right,→,0.7525314999511465,True,17
X042K25,583,experiment,12,↑,up,↑,0.7786328999791294,True,17
X042K25,584,experiment,156,↑,up,↑,0.6065874000778422,True,17
X042K25,585,experiment,60,↓,down,↓,0.681672599981539,True,17
X042K25,586,experiment,12,←,left,←,0.670348500018008,True,17
X042K25,587,experiment,48,↑,up,↑,0.6603943000081927,True,17
X042K25,588,experiment,180,↓,down,↓,0.64358789997641,True,17
X042K25,589,experiment,36,←,left,←,1.4248899999074638,True,17
X042K25,590,experiment,156,→,right,→,0.7056960999034345,True,17
X042K25,591,experiment,72,↑,up,↑,0.7774036000482738,True,17
X042K25,592,experiment,168,←,no_key,no_letter,-1.0,False,17
X042K25,593,experiment,84,↓,down,↓,0.7065130000701174,True,17
X042K25,594,experiment,132,←,left,←,0.7010517999297008,True,17
X042K25,595,experiment,12,↑,up,↑,0.9505592999048531,True,17
X042K25,596,experiment,24,↑,no_key,no_letter,-1.0,False,17
X042K25,597,experiment,108,↑,up,↑,0.5305520000401884,True,17
X042K25,598,training,24,↓,no_key,no_letter,-1.0,False,17
X042K25,599,training,156,←,left,←,0.6124337000073865,True,17
X042K25,600,training,144,←,left,←,0.8536362000741065,True,17
X042K25,601,experiment,156,↓,down,↓,0.7180760999908671,True,17
X042K25,602,experiment,132,→,right,→,0.6375343999825418,True,17
X042K25,603,experiment,84,↓,down,↓,0.7334453000221401,True,17
X042K25,604,experiment,108,→,right,→,0.6225800999673083,True,17
X042K25,605,experiment,132,↓,down,↓,0.5847540999529883,True,17
X042K25,606,experiment,48,→,right,→,1.1323893000371754,True,17
X042K25,607,experiment,72,←,left,←,0.675398499937728,True,17
X042K25,608,experiment,72,↓,down,↓,0.616027900017798,True,17
X042K25,609,experiment,72,↓,no_key,no_letter,-1.0,False,17
X042K25,610,experiment,180,→,right,→,0.6040567000163719,True,17
X042K25,611,experiment,168,→,no_key,no_letter,-1.0,False,17
X042K25,612,experiment,132,→,right,→,0.6898656999692321,True,17
X042K25,613,experiment,12,→,right,→,0.7262086999835446,True,17
X042K25,614,experiment,72,↓,down,↓,0.7855320000089705,True,17
X042K25,615,experiment,24,←,left,←,0.6141673000529408,True,17
X042K25,616,experiment,156,→,left,←,0.8026716000167653,False,17
X042K25,617,experiment,12,→,right,→,0.8713988000527024,True,17
X042K25,618,experiment,60,→,right,→,0.7345414999872446,True,17
X042K25,619,experiment,168,↓,down,↓,0.7951935000019148,True,17
X042K25,620,experiment,96,↓,down,↓,0.5516733999829739,True,17
X042K25,621,experiment,120,←,up,↑,0.7016936000436544,False,17
X042K25,622,experiment,144,←,left,←,0.5005229000234976,True,17
X042K25,623,experiment,96,←,left,←,0.7239012999925762,True,17
X042K25,624,experiment,12,↑,up,↑,0.6896567000076175,True,17
X042K25,625,experiment,84,←,left,←,0.4907434999477118,True,17
X042K25,626,experiment,108,←,left,←,0.8315413999371231,True,17
X042K25,627,experiment,108,↓,up,↑,0.7250539999222383,False,17
X042K25,628,experiment,156,→,right,→,0.7569940999383107,True,17
X042K25,629,experiment,156,←,left,←,0.6977098000934348,True,17
X042K25,630,experiment,36,→,right,→,0.6695967999985442,True,17
X042K25,631,experiment,84,→,no_key,no_letter,-1.0,False,17
X042K25,632,experiment,36,↓,no_key,no_letter,-1.0,False,17
X042K25,633,experiment,120,→,right,→,0.599496699986048,True,17
X042K25,634,experiment,180,↑,up,↑,0.6678888000315055,True,17
X042K25,635,experiment,36,→,right,→,0.7421838000882417,True,17
X042K25,636,experiment,60,→,right,→,0.5351040000095963,True,17
X042K25,637,experiment,108,→,right,→,0.5874364000046626,True,17
X042K25,638,experiment,168,↑,up,↑,0.6142991000087932,True,17
X042K25,639,experiment,180,←,left,←,0.6598111999919638,True,17
X042K25,640,experiment,144,→,up,↑,0.7411363000283018,False,17
X042K25,641,experiment,60,←,left,←,0.5948012999724597,True,17
X042K25,642,experiment,96,←,left,←,0.5073996999999508,True,17
X042K25,643,experiment,60,→,right,→,0.7728998999809846,True,17
X042K25,644,experiment,180,←,left,←,0.5472026000497863,True,17
X042K25,645,experiment,48,→,right,→,0.8367356000235304,True,17
X042K25,646,experiment,120,↓,down,↓,0.6123738000169396,True,17
X042K25,647,experiment,48,↓,no_key,no_letter,-1.0,False,17
X042K25,648,experiment,132,→,right,→,1.0549325000029057,True,17
X042K25,649,experiment,144,←,left,←,0.6307385000400245,True,17
X042K25,650,experiment,24,→,right,→,0.6724039000691846,True,17
X042K25,651,experiment,144,→,right,→,0.6255398000357673,True,17
X042K25,652,experiment,24,→,right,→,0.596517900004983,True,17
X042K25,653,experiment,12,←,left,←,0.4808518000645563,True,17
X042K25,654,experiment,24,→,no_key,no_letter,-1.0,False,17
X042K25,655,experiment,84,↑,up,↑,0.5683726000133902,True,17
X042K25,656,experiment,120,→,no_key,no_letter,-1.0,False,17
X042K25,657,experiment,168,←,left,←,0.5491248000180349,True,17
X042K25,658,experiment,96,←,right,→,0.9025586000643671,False,17
X042K25,659,experiment,36,↓,no_key,no_letter,-1.0,False,17
X042K25,660,experiment,48,→,left,←,0.6295046000741422,False,17
X042K25,661,training,144,↓,down,↓,0.6234408000018448,True,17
X042K25,662,training,108,←,left,←,0.9152459999313578,True,17
X042K25,663,training,132,→,right,→,0.6911159999435768,True,17
X042K25,664,experiment,84,↓,down,↓,0.7012097000842914,True,17
X042K25,665,experiment,156,↑,up,↑,0.545353899942711,True,17
X042K25,666,experiment,84,←,left,←,0.7376019000075758,True,17
X042K25,667,experiment,120,↑,up,↑,0.6676563000073656,True,17
X042K25,668,experiment,12,↓,no_key,no_letter,-1.0,False,17
X042K25,669,experiment,36,←,left,←,0.5351130999624729,True,17
X042K25,670,experiment,72,↓,no_key,no_letter,-1.0,False,17
X042K25,671,experiment,180,↓,down,↓,0.5992399000097066,True,17
X042K25,672,experiment,36,↑,up,↑,0.635213500005193,True,17
X042K25,673,experiment,96,↑,up,↑,0.6252201000461355,True,17
X042K25,674,experiment,144,↑,up,↑,0.5970781999640167,True,17
X042K25,675,experiment,120,←,left,←,0.6444894999731332,True,17
X042K25,676,experiment,144,↑,up,↑,0.7583311999915168,True,17
X042K25,677,experiment,48,→,right,→,0.9305696000810713,True,17
X042K25,678,experiment,96,↓,down,↓,0.5966425000224262,True,17
X042K25,679,experiment,108,→,right,→,0.8867327999323606,True,17
X042K25,680,experiment,24,↓,down,↓,0.7351388999959454,True,17
X042K25,681,experiment,48,↓,down,↓,0.5974864999298006,True,17
X042K25,682,experiment,60,↓,no_key,no_letter,-1.0,False,17
X042K25,683,experiment,60,←,left,←,0.6508180000819266,True,17
X042K25,684,experiment,168,→,no_key,no_letter,-1.0,False,17
X042K25,685,experiment,24,←,left,←,0.6300525000551715,True,17
X042K25,686,experiment,12,↓,down,↓,0.6126920999959111,True,17
X042K25,687,experiment,144,←,left,←,0.6107664000010118,True,17
X042K25,688,experiment,48,↑,up,↑,0.6708851000294089,True,17
X042K25,689,experiment,24,→,no_key,no_letter,-1.0,False,17
X042K25,690,experiment,180,↑,no_key,no_letter,-1.0,False,17
X042K25,691,experiment,12,↓,down,↓,0.6977866999804974,True,17
X042K25,692,experiment,60,↑,up,↑,0.5731524000875652,True,17
X042K25,693,experiment,132,↓,down,↓,0.4994863999309018,True,17
X042K25,694,experiment,132,→,right,→,0.7824639000464231,True,17
X042K25,695,experiment,180,↑,up,↑,0.6758213000139222,True,17
X042K25,696,experiment,72,←,right,→,1.6938242999603972,False,17
X042K25,697,experiment,168,↓,down,↓,0.7797019999707118,True,17
X042K25,698,experiment,12,←,no_key,no_letter,-1.0,False,17
X042K25,699,experiment,156,←,left,←,0.5587238000007346,True,17
X042K25,700,experiment,180,←,left,←,0.583958699950017,True,17
X042K25,701,experiment,84,↑,no_key,no_letter,-1.0,False,17
X042K25,702,experiment,168,↑,up,↑,0.5621217999141663,True,17
X042K25,703,experiment,108,→,no_key,no_letter,-1.0,False,17
X042K25,704,experiment,84,←,left,←,0.7512622999493033,True,17
X042K25,705,experiment,120,→,no_key,no_letter,-1.0,False,17
X042K25,706,experiment,24,←,left,←,0.4884484000504017,True,17
X042K25,707,experiment,144,→,no_key,no_letter,-1.0,False,17
X042K25,708,experiment,36,←,left,←,0.6098017999902368,True,17
X042K25,709,experiment,48,→,right,→,0.6038887000177056,True,17
X042K25,710,experiment,156,→,right,→,0.5738064999459311,True,17
X042K25,711,experiment,156,↓,down,↓,0.6584339999826625,True,17
X042K25,712,experiment,72,→,no_key,no_letter,-1.0,False,17
X042K25,713,experiment,72,↓,down,↓,0.6831927999155596,True,17
X042K25,714,experiment,96,↑,up,↑,0.6752068999921903,True,17
X042K25,715,experiment,168,↑,left,←,0.8823974999831989,False,17
X042K25,716,experiment,108,→,right,→,0.7004163999808952,True,17
X042K25,717,experiment,120,↓,no_key,no_letter,-1.0,False,17
X042K25,718,experiment,132,←,no_key,no_letter,-1.0,False,17
X042K25,719,experiment,36,←,left,←,0.510101499967277,True,17
X042K25,720,experiment,60,↓,down,↓,0.6712582999607548,True,17
X042K25,721,experiment,108,←,left,←,0.7727955000009388,True,17
X042K25,722,experiment,96,↑,no_key,no_letter,-1.0,False,17
X042K25,723,experiment,132,↓,no_key,no_letter,-1.0,False,17
X042K25,724,training,180,→,right,→,0.6866551000857726,True,17
X042K25,725,training,144,←,left,←,0.589898300007917,True,17
X042K25,726,training,96,→,right,→,0.6257134999614209,True,17
X042K25,727,experiment,132,↓,down,↓,0.5418184000300243,True,17
X042K25,728,experiment,96,↑,up,↑,0.774758700048551,True,17
X042K25,729,experiment,24,←,left,←,0.749896900029853,True,17
X042K25,730,experiment,120,↓,down,↓,0.5223378000082448,True,17
X042K25,731,experiment,108,↑,no_key,no_letter,-1.0,False,17
X042K25,732,experiment,156,↑,left,←,0.7499603000469506,False,17
X042K25,733,experiment,144,→,no_key,no_letter,-1.0,False,17
X042K25,734,experiment,108,↑,up,↑,0.5890859999926761,True,17
X042K25,735,experiment,180,↓,down,↓,0.7237773999804631,True,17
X042K25,736,experiment,72,→,right,→,0.6895154000958428,True,17
X042K25,737,experiment,84,→,right,→,0.9714147000340745,True,17
X042K25,738,experiment,180,←,left,←,0.524604200036265,True,17
X042K25,739,experiment,24,↓,up,↑,0.8739429999841377,False,17
X042K25,740,experiment,12,↑,up,↑,0.7442641999805346,True,17
X042K25,741,experiment,168,↓,down,↓,0.5589740000432357,True,17
X042K25,742,experiment,132,←,left,←,0.5979960999684408,True,17
X042K25,743,experiment,36,↑,up,↑,0.5623492000158876,True,17
X042K25,744,experiment,36,↓,down,↓,0.5714361000573263,True,17
X042K25,745,experiment,60,↓,up,↑,0.5067694999743253,False,17
X042K25,746,experiment,12,→,left,←,1.178357099997811,False,17
X042K25,747,experiment,96,↑,up,↑,0.7001611000159755,True,17
X042K25,748,experiment,168,↑,up,↑,0.5922733000479639,True,17
X042K25,749,experiment,180,↑,no_key,no_letter,-1.0,False,17
X042K25,750,experiment,24,→,right,→,0.6786718000657856,True,17
X042K25,751,experiment,168,←,left,←,0.8729275000514463,True,17
X042K25,752,experiment,120,→,right,→,1.2239515000255778,True,17
X042K25,753,experiment,84,→,right,→,0.6417646000627428,True,17
X042K25,754,experiment,96,→,right,→,0.7054569999454543,True,17
X042K25,755,experiment,156,↓,no_key,no_letter,-1.0,False,17
X042K25,756,experiment,84,↓,down,↓,0.6245612000348046,True,17
X042K25,757,experiment,60,↓,no_key,no_letter,-1.0,False,17
X042K25,758,experiment,144,↓,down,↓,0.6325449000578374,True,17
X042K25,759,experiment,144,↑,up,↑,0.6306734000099823,True,17
X042K25,760,experiment,48,←,left,←,0.6371087998850271,True,17
X042K25,761,experiment,108,→,right,→,0.6444974000332877,True,17
X042K25,762,experiment,132,←,left,←,0.9273049000184983,True,17
X042K25,763,experiment,60,←,left,←,0.5705938000464812,True,17
X042K25,764,experiment,156,→,right,→,0.6900221999967471,True,17
X042K25,765,experiment,84,↑,up,↑,0.6465004000347108,True,17
X042K25,766,experiment,120,←,left,←,0.6856591000687331,True,17
X042K25,767,experiment,48,←,left,←,0.7226095000514761,True,17
X042K25,768,experiment,132,↑,up,↑,0.6481783000053838,True,17
X042K25,769,experiment,180,←,left,←,0.6253909000661224,True,17
X042K25,770,experiment,72,←,left,←,0.6585006000241265,True,17
X042K25,771,experiment,48,↓,no_key,no_letter,-1.0,False,17
X042K25,772,experiment,12,←,no_key,no_letter,-1.0,False,17
X042K25,773,experiment,144,↓,down,↓,0.5439591000322253,True,17
X042K25,774,experiment,36,↓,no_key,no_letter,-1.0,False,17
X042K25,775,experiment,108,↑,up,↑,0.62717380002141,True,17
X042K25,776,experiment,96,↑,no_key,no_letter,-1.0,False,17
X042K25,777,experiment,48,↓,down,↓,0.6417245999909937,True,17
X042K25,778,experiment,72,←,left,←,0.9524223000044003,True,17
X042K25,779,experiment,156,↑,up,↑,0.7240149999270216,True,17
X042K25,780,experiment,120,↓,up,↑,0.7888357000192627,False,17
X042K25,781,experiment,72,↓,down,↓,0.8925856000278145,True,17
X042K25,782,experiment,36,→,no_key,no_letter,-1.0,False,17
X042K25,783,experiment,168,→,right,→,0.9416945000411943,True,17
X042K25,784,experiment,24,↓,no_key,no_letter,-1.0,False,17
X042K25,785,experiment,60,←,left,←,0.5812859999714419,True,17
X042K25,786,experiment,12,↑,up,↑,0.5652566000353545,True,17
X042K25,787,training,60,↓,down,↓,0.6989790999796242,True,17
X042K25,788,training,144,→,right,→,0.6663724000100046,True,17
X042K25,789,training,24,→,right,→,0.7798581999959424,True,17
X042K25,790,experiment,96,↑,up,↑,0.5853590000187978,True,17
X042K25,791,experiment,72,→,right,→,0.5713841000106186,True,17
X042K25,792,experiment,96,↓,down,↓,0.6023689999710768,True,17
X042K25,793,experiment,36,→,right,→,0.8110265999566764,True,17
X042K25,794,experiment,120,↑,up,↑,0.5648936999496073,True,17
X042K25,795,experiment,144,→,left,←,0.5402517999755219,False,17
X042K25,796,experiment,108,↓,down,↓,0.5411694999784231,True,17
X042K25,797,experiment,168,↓,down,↓,0.6259811000199988,True,17
X042K25,798,experiment,132,←,left,←,0.8188403999665752,True,17
X042K25,799,experiment,168,↓,down,↓,0.5677720999810845,True,17
X042K25,800,experiment,120,←,left,←,0.6816616000141948,True,17
X042K25,801,experiment,180,↑,down,↓,0.6047912000212818,False,17
X042K25,802,experiment,108,↑,up,↑,0.6545494999736547,True,17
X042K25,803,experiment,180,↑,up,↑,0.5349122000625357,True,17
X042K25,804,experiment,60,←,no_key,no_letter,-1.0,False,17
X042K25,805,experiment,48,↓,down,↓,0.791899099946022,True,17
X042K25,806,experiment,48,→,right,→,0.6315693999640644,True,17
X042K25,807,experiment,84,↓,no_key,no_letter,-1.0,False,17
X042K25,808,experiment,84,↓,no_key,no_letter,-1.0,False,17
X042K25,809,experiment,36,↑,no_key,no_letter,-1.0,False,17
X042K25,810,experiment,24,←,left,←,0.610278100008145,True,17
X042K25,811,experiment,96,→,right,→,0.5744093001121655,True,17
X042K25,812,experiment,84,↓,down,↓,0.7536215999862179,True,17
X042K25,813,experiment,24,↓,down,↓,0.5174673000583425,True,17
X042K25,814,experiment,60,←,no_key,no_letter,-1.0,False,17
X042K25,815,experiment,72,←,no_key,no_letter,-1.0,False,17
X042K25,816,experiment,96,←,left,←,0.46363080001901835,True,17
X042K25,817,experiment,12,←,no_key,no_letter,-1.0,False,17
X042K25,818,experiment,48,↑,up,↑,0.673256800044328,True,17
X042K25,819,experiment,168,→,no_key,no_letter,-1.0,False,17
X042K25,820,experiment,48,↑,up,↑,0.5152325999224558,True,17
X042K25,821,experiment,60,↓,up,↑,0.5735691998852417,False,17
X042K25,822,experiment,156,→,no_key,no_letter,-1.0,False,17
X042K25,823,experiment,168,←,left,←,0.6123860999941826,True,17
X042K25,824,experiment,156,↓,up,↑,0.8114170999033377,False,17
X042K25,825,experiment,72,↑,up,↑,0.7705381000414491,True,17
X042K25,826,experiment,72,↓,down,↓,0.6181735000573099,True,17
X042K25,827,experiment,132,↓,down,↓,0.5834004000062123,True,17
X042K25,828,experiment,12,→,right,→,0.7196176999714226,True,17
X042K25,829,experiment,156,→,no_key,no_letter,-1.0,False,17
X042K25,830,experiment,12,→,no_key,no_letter,-1.0,False,17
X042K25,831,experiment,144,↓,down,↓,0.5380814999807626,True,17
X042K25,832,experiment,120,↓,down,↓,0.5938243999844417,True,17
X042K25,833,experiment,108,→,right,→,0.7755737999686971,True,17
X042K25,834,experiment,132,→,right,→,0.986942799994722,True,17
X042K25,835,experiment,24,↓,no_key,no_letter,-1.0,False,17
X042K25,836,experiment,120,→,right,→,0.6137451999820769,True,17
X042K25,837,experiment,24,↓,no_key,no_letter,-1.0,False,17
X042K25,838,experiment,36,↓,down,↓,0.7386185000650585,True,17
X042K25,839,experiment,180,→,right,→,0.7770348000340164,True,17
X042K25,840,experiment,12,←,no_key,no_letter,-1.0,False,17
X042K25,841,experiment,84,↑,no_key,no_letter,-1.0,False,17
X042K25,842,experiment,144,↑,no_key,no_letter,-1.0,False,17
X042K25,843,experiment,144,←,left,←,0.6535459000151604,True,17
X042K25,844,experiment,108,↑,up,↑,0.6651216000318527,True,17
X042K25,845,experiment,60,→,right,→,0.6963920999551192,True,17
X042K25,846,experiment,36,↓,down,↓,0.6109380000270903,True,17
X042K25,847,experiment,132,↑,up,↑,0.4932152000255883,True,17
X042K25,848,experiment,156,↓,down,↓,0.8261130000464618,True,17
X042K25,849,experiment,180,↓,down,↓,0.5747554999543354,True,17
