PART_ID,Trial_no,Trial_type,PDI,Stim_letter,Key_pressed,letter_choose,Rt,Corr,Stimulus Time
X043K27,1,training,10,↑,no_key,no_letter,-1.0,False,30
X043K27,2,training,10,↓,left,←,1.709547400008887,False,30
X043K27,3,training,10,←,no_key,no_letter,-1.0,False,30
X043K27,4,training,10,↑,right,→,1.5428221999900416,False,30
X043K27,5,training,10,↑,no_key,no_letter,-1.0,False,30
X043K27,6,training,10,←,no_key,no_letter,-1.0,False,30
X043K27,7,training,10,↑,no_key,no_letter,-1.0,False,30
X043K27,8,training,10,←,left,←,0.8436528999591246,True,30
X043K27,9,training,10,↑,up,↑,1.0180842999834567,True,30
X043K27,10,training,10,↓,down,↓,1.052136900019832,True,30
X043K27,11,training,10,←,no_key,no_letter,-1.0,False,30
X043K27,12,training,10,↑,up,↑,1.1187605999875814,True,30
X043K27,13,training,10,←,left,←,0.8584529000800103,True,30
X043K27,14,training,10,←,left,←,0.61762280005496,True,30
X043K27,15,training,10,→,right,→,0.8211676999926567,True,30
X043K27,16,training,10,←,left,←,1.7128162999870256,True,30
X043K27,17,training,10,↓,down,↓,1.2370078000240028,True,30
X043K27,18,training,10,↑,up,↑,0.932057400001213,True,30
X043K27,19,training,10,→,right,→,1.6316433000611141,True,30
X043K27,20,training,10,↑,up,↑,0.6338038999820128,True,30
X043K27,21,training,10,↓,down,↓,0.8953515000175685,True,18
X043K27,22,training,10,↑,up,↑,0.6468201000243425,True,18
X043K27,23,training,10,↑,up,↑,0.6551741000730544,True,18
X043K27,24,training,10,↓,down,↓,0.7097136999946088,True,18
X043K27,25,training,10,←,left,←,0.5662444999907166,True,18
X043K27,26,training,10,→,right,→,0.601786500075832,True,18
X043K27,27,training,10,←,left,←,0.484697200008668,True,18
X043K27,28,training,10,←,left,←,0.5224046000512317,True,18
X043K27,29,training,10,↑,down,↓,0.8283284999197349,False,18
X043K27,30,training,10,↑,down,↓,1.089432500069961,False,18
X043K27,31,training,132,←,left,←,0.7531595999607816,True,15
X043K27,32,training,12,↑,no_key,no_letter,-1.0,False,15
X043K27,33,training,24,↑,up,↑,0.9070841999491677,True,15
X043K27,34,experiment,72,→,right,→,0.5849868999794126,True,15
X043K27,35,experiment,96,←,left,←,0.8474086999194697,True,15
X043K27,36,experiment,84,↓,down,↓,0.8650385000510141,True,15
X043K27,37,experiment,36,↑,up,↑,1.4738566000014544,True,15
X043K27,38,experiment,60,↓,no_key,no_letter,-1.0,False,15
X043K27,39,experiment,48,←,right,→,0.7553694999078289,False,15
X043K27,40,experiment,96,↑,down,↓,0.8757016999879852,False,15
X043K27,41,experiment,120,←,right,→,0.6425121000502259,False,15
X043K27,42,experiment,132,↑,up,↑,1.0811763999518007,True,15
X043K27,43,experiment,96,↓,down,↓,0.6737350999610499,True,15
X043K27,44,experiment,180,→,right,→,0.5384139999514446,True,15
X043K27,45,experiment,168,↓,down,↓,0.7055770000442863,True,15
X043K27,46,experiment,48,↑,down,↓,0.8322481999639422,False,15
X043K27,47,experiment,84,→,left,←,0.608789199963212,False,15
X043K27,48,experiment,36,→,left,←,0.7665353999473155,False,15
X043K27,49,experiment,84,←,left,←,0.5654347999952734,True,15
X043K27,50,experiment,132,↑,down,↓,1.0240269000642002,False,15
X043K27,51,experiment,132,→,right,→,0.6668880999786779,True,15
X043K27,52,experiment,24,↑,up,↑,1.3961493000388145,True,15
X043K27,53,experiment,36,←,left,←,0.7498905999818817,True,15
X043K27,54,experiment,144,↑,left,←,1.192986399983056,False,15
X043K27,55,experiment,168,→,right,→,0.6569645999697968,True,15
X043K27,56,experiment,36,←,left,←,0.7171601000009105,True,15
X043K27,57,experiment,12,↓,right,→,0.5571274999529123,False,15
X043K27,58,experiment,144,↓,left,←,0.5118255999404937,False,15
X043K27,59,experiment,108,↓,left,←,0.7680090001085773,False,15
X043K27,60,experiment,72,↓,down,↓,0.8706197999417782,True,15
X043K27,61,experiment,108,↑,right,→,0.7411419999552891,False,15
X043K27,62,experiment,24,←,left,←,0.7302595999790356,True,15
X043K27,63,experiment,12,↑,down,↓,0.9161717999959365,False,15
X043K27,64,experiment,108,→,left,←,0.853965500020422,False,15
X043K27,65,experiment,156,↓,left,←,0.45729409996420145,False,15
X043K27,66,experiment,156,→,right,→,1.018433199962601,True,15
X043K27,67,experiment,120,↑,no_key,no_letter,-1.0,False,15
X043K27,68,experiment,132,→,right,→,0.5758336000144482,True,15
X043K27,69,experiment,96,←,left,←,0.9023166000843048,True,15
X043K27,70,experiment,180,→,left,←,1.769735199981369,False,15
X043K27,71,experiment,12,↑,up,↑,0.6491245999932289,True,15
X043K27,72,experiment,168,↑,right,→,1.1593870000215247,False,15
X043K27,73,experiment,60,→,right,→,0.6019878999795765,True,15
X043K27,74,experiment,60,→,right,→,0.6043086999561638,True,15
X043K27,75,experiment,180,←,right,→,0.48078520002309233,False,15
X043K27,76,experiment,12,→,left,←,1.6839036999735981,False,15
X043K27,77,experiment,120,←,left,←,1.0567986000096425,True,15
X043K27,78,experiment,180,↓,down,↓,0.8975092999171466,True,15
X043K27,79,experiment,120,→,left,←,1.4133781000273302,False,15
X043K27,80,experiment,84,→,up,↑,1.227839299943298,False,15
X043K27,81,experiment,144,←,left,←,0.8004238000139594,True,15
X043K27,82,experiment,48,←,left,←,0.6780699000228196,True,15
X043K27,83,experiment,108,←,right,→,0.731651599984616,False,15
X043K27,84,experiment,24,←,right,→,1.2674456000095233,False,15
X043K27,85,experiment,48,→,left,←,1.6020418000407517,False,15
X043K27,86,experiment,24,↑,down,↓,1.1447649999754503,False,15
X043K27,87,experiment,156,←,left,←,0.7521469999337569,True,15
X043K27,88,experiment,72,↑,up,↑,0.8992251000599936,True,15
X043K27,89,experiment,144,↓,no_key,no_letter,-1.0,False,15
X043K27,90,experiment,72,→,right,→,0.5696212999755517,True,15
X043K27,91,experiment,60,→,left,←,0.5433330999221653,False,15
X043K27,92,experiment,156,↑,up,↑,0.7928580999141559,True,15
X043K27,93,experiment,168,→,left,←,1.350668500061147,False,15
X043K27,94,training,168,→,right,→,1.2611295999959111,True,16
X043K27,95,training,108,↑,up,↑,0.7718593999743462,True,16
X043K27,96,training,12,↑,no_key,no_letter,-1.0,False,16
X043K27,97,experiment,84,←,left,←,0.7661034000338987,True,16
X043K27,98,experiment,60,←,left,←,0.648283899994567,True,16
X043K27,99,experiment,96,→,right,→,0.7579766999697313,True,16
X043K27,100,experiment,156,←,left,←,1.0465193000854924,True,16
X043K27,101,experiment,36,←,left,←,1.5651689000660554,True,16
X043K27,102,experiment,24,↓,down,↓,0.8269446999765933,True,16
X043K27,103,experiment,36,←,left,←,0.7222980000078678,True,16
X043K27,104,experiment,180,←,left,←,0.7699941999744624,True,16
X043K27,105,experiment,96,←,left,←,0.7389083000598475,True,16
X043K27,106,experiment,96,↑,down,↓,1.0078939999220893,False,16
X043K27,107,experiment,168,↓,down,↓,0.8223752001067623,True,16
X043K27,108,experiment,72,↑,down,↓,0.8545489999232814,False,16
X043K27,109,experiment,180,↑,up,↑,0.900697199977003,True,16
X043K27,110,experiment,24,↓,down,↓,0.7756972999777645,True,16
X043K27,111,experiment,156,←,left,←,0.7048102000262588,True,16
X043K27,112,experiment,60,→,right,→,0.8087441000388935,True,16
X043K27,113,experiment,120,↓,down,↓,0.7407434999477118,True,16
X043K27,114,experiment,12,→,down,↓,1.9209757999051362,False,16
X043K27,115,experiment,156,←,left,←,0.8667414999799803,True,16
X043K27,116,experiment,168,←,left,←,0.6137959000188857,True,16
X043K27,117,experiment,168,←,left,←,0.5925954999402165,True,16
X043K27,118,experiment,132,→,right,→,1.5031577999470755,True,16
X043K27,119,experiment,72,↓,down,↓,0.9317310999613255,True,16
X043K27,120,experiment,84,→,left,←,1.3124391000019386,False,16
X043K27,121,experiment,108,↑,no_key,no_letter,-1.0,False,16
X043K27,122,experiment,144,↓,down,↓,0.8017338000936434,True,16
X043K27,123,experiment,84,←,right,→,0.7405648999847472,False,16
X043K27,124,experiment,60,↑,up,↑,0.8253565999912098,True,16
X043K27,125,experiment,36,→,left,←,1.2155662999721244,False,16
X043K27,126,experiment,96,→,right,→,0.750954799936153,True,16
X043K27,127,experiment,144,↑,up,↑,0.911292300093919,True,16
X043K27,128,experiment,72,↓,down,↓,0.9512830999447033,True,16
X043K27,129,experiment,12,↑,right,→,0.869739199988544,False,16
X043K27,130,experiment,132,↓,down,↓,0.8054436000529677,True,16
X043K27,131,experiment,48,→,right,→,0.7533561000600457,True,16
X043K27,132,experiment,120,→,right,→,0.7161844000220299,True,16
X043K27,133,experiment,156,↑,down,↓,0.8658882998861372,False,16
X043K27,134,experiment,180,→,right,→,1.233608900103718,True,16
X043K27,135,experiment,48,↑,up,↑,0.8087117000250146,True,16
X043K27,136,experiment,144,↑,down,↓,0.8609623999800533,False,16
X043K27,137,experiment,60,→,right,→,0.7682126000290737,True,16
X043K27,138,experiment,84,↑,up,↑,0.6968304000329226,True,16
X043K27,139,experiment,108,←,left,←,0.7357744000619277,True,16
X043K27,140,experiment,168,→,right,→,0.9664754999103025,True,16
X043K27,141,experiment,72,↓,down,↓,0.9843811999307945,True,16
X043K27,142,experiment,12,←,right,→,0.7843175999587402,False,16
X043K27,143,experiment,120,←,left,←,0.5774928999599069,True,16
X043K27,144,experiment,48,→,right,→,0.46671160007826984,True,16
X043K27,145,experiment,36,↑,no_key,no_letter,-1.0,False,16
X043K27,146,experiment,144,→,no_key,no_letter,-1.0,False,16
X043K27,147,experiment,180,→,right,→,0.5706417000619695,True,16
X043K27,148,experiment,108,↓,left,←,0.4706597999902442,False,16
X043K27,149,experiment,24,↓,down,↓,1.3887323000235483,True,16
X043K27,150,experiment,132,↓,up,↑,0.8078181999735534,False,16
X043K27,151,experiment,108,↑,up,↑,0.8599589000223204,True,16
X043K27,152,experiment,120,→,left,←,0.7110563999740407,False,16
X043K27,153,experiment,48,↓,down,↓,0.995989500079304,True,16
X043K27,154,experiment,24,←,left,←,0.599930900032632,True,16
X043K27,155,experiment,12,←,no_key,no_letter,-1.0,False,16
X043K27,156,experiment,132,↑,left,←,1.25605570001062,False,16
X043K27,157,training,120,↓,down,↓,0.9517189998878166,True,16
X043K27,158,training,96,↓,down,↓,0.8431358999805525,True,16
X043K27,159,training,36,↓,down,↓,0.8360013000201434,True,16
X043K27,160,experiment,180,→,no_key,no_letter,-1.0,False,16
X043K27,161,experiment,156,↓,down,↓,0.660767300054431,True,16
X043K27,162,experiment,120,↓,down,↓,0.6346955000190064,True,16
X043K27,163,experiment,144,↑,up,↑,0.8640275000361726,True,16
X043K27,164,experiment,60,←,left,←,0.6526598000200465,True,16
X043K27,165,experiment,96,←,left,←,0.5488528999267146,True,16
X043K27,166,experiment,84,↑,up,↑,0.6427590000675991,True,16
X043K27,167,experiment,180,←,left,←,0.6207844000309706,True,16
X043K27,168,experiment,24,↑,up,↑,0.597854100051336,True,16
X043K27,169,experiment,36,←,left,←,0.7120631000725552,True,16
X043K27,170,experiment,96,←,left,←,0.7103029999416322,True,16
X043K27,171,experiment,60,↓,down,↓,0.8163106000283733,True,16
X043K27,172,experiment,96,↑,up,↑,0.6925598999951035,True,16
X043K27,173,experiment,120,←,left,←,0.6058602000121027,True,16
X043K27,174,experiment,48,→,right,→,0.6422580999787897,True,16
X043K27,175,experiment,72,↑,up,↑,0.6968889000127092,True,16
X043K27,176,experiment,156,↑,up,↑,0.5856362000340596,True,16
X043K27,177,experiment,72,→,right,→,0.6373644999694079,True,16
X043K27,178,experiment,60,←,left,←,0.48269130010157824,True,16
X043K27,179,experiment,12,↑,up,↑,0.7395809999434277,True,16
X043K27,180,experiment,108,←,left,←,0.5344605999998748,True,16
X043K27,181,experiment,156,←,left,←,0.5486917999805883,True,16
X043K27,182,experiment,168,→,no_key,no_letter,-1.0,False,16
X043K27,183,experiment,168,↓,down,↓,0.9177348000230268,True,16
X043K27,184,experiment,48,↓,down,↓,1.0243917999323457,True,16
X043K27,185,experiment,84,↓,down,↓,0.7685072999447584,True,16
X043K27,186,experiment,60,↓,down,↓,0.8054505999898538,True,16
X043K27,187,experiment,120,↑,no_key,no_letter,-1.0,False,16
X043K27,188,experiment,180,↓,down,↓,0.7287187000038102,True,16
X043K27,189,experiment,180,→,right,→,0.764922900008969,True,16
X043K27,190,experiment,36,↓,down,↓,0.8653733000392094,True,16
X043K27,191,experiment,24,↑,no_key,no_letter,-1.0,False,16
X043K27,192,experiment,132,→,right,→,0.628957899985835,True,16
X043K27,193,experiment,120,←,left,←,1.030089500010945,True,16
X043K27,194,experiment,156,↑,left,←,0.8669030000455678,False,16
X043K27,195,experiment,72,↑,no_key,no_letter,-1.0,False,16
X043K27,196,experiment,132,↓,down,↓,0.8071641999995336,True,16
X043K27,197,experiment,24,→,right,→,0.7336647999472916,True,16
X043K27,198,experiment,84,→,right,→,1.0258190999738872,True,16
X043K27,199,experiment,36,←,no_key,no_letter,-1.0,False,16
X043K27,200,experiment,12,↑,down,↓,0.8607906999532133,False,16
X043K27,201,experiment,108,↓,no_key,no_letter,-1.0,False,16
X043K27,202,experiment,48,→,right,→,0.5762094999663532,True,16
X043K27,203,experiment,84,↑,no_key,no_letter,-1.0,False,16
X043K27,204,experiment,144,←,left,←,0.6430052000796422,True,16
X043K27,205,experiment,12,↓,down,↓,0.885269399965182,True,16
X043K27,206,experiment,96,↑,up,↑,0.8327866999898106,True,16
X043K27,207,experiment,36,↓,down,↓,0.7922986999619752,True,16
X043K27,208,experiment,144,↑,up,↑,0.7597816999768838,True,16
X043K27,209,experiment,132,→,right,→,0.6828437000513077,True,16
X043K27,210,experiment,108,→,right,→,0.6042808999773115,True,16
X043K27,211,experiment,108,↓,down,↓,0.7123068000655621,True,16
X043K27,212,experiment,144,↓,down,↓,0.895748500013724,True,16
X043K27,213,experiment,132,↑,up,↑,0.7032581999665126,True,16
X043K27,214,experiment,48,←,left,←,0.6725401000585407,True,16
X043K27,215,experiment,168,←,up,↑,0.7733025000197813,False,16
X043K27,216,experiment,168,↑,no_key,no_letter,-1.0,False,16
X043K27,217,experiment,12,→,no_key,no_letter,-1.0,False,16
X043K27,218,experiment,24,→,right,→,0.7233861000277102,True,16
X043K27,219,experiment,72,→,left,←,0.6736513999057934,False,16
X043K27,220,training,156,→,right,→,0.6509556999662891,True,16
X043K27,221,training,96,↓,right,→,0.8610218999674544,False,16
X043K27,222,training,156,↓,down,↓,0.8257931000553071,True,16
X043K27,223,experiment,180,↓,down,↓,0.8922198999207467,True,16
X043K27,224,experiment,72,←,left,←,0.6405839000362903,True,16
X043K27,225,experiment,60,←,left,←,1.029941500048153,True,16
X043K27,226,experiment,12,→,right,→,0.871254300000146,True,16
X043K27,227,experiment,24,→,right,→,0.8163583000423387,True,16
X043K27,228,experiment,144,↓,down,↓,0.8482190000358969,True,16
X043K27,229,experiment,96,↑,down,↓,0.6790142999961972,False,16
X043K27,230,experiment,144,↓,down,↓,0.643967300071381,True,16
X043K27,231,experiment,84,←,left,←,0.6565389999886975,True,16
X043K27,232,experiment,12,←,no_key,no_letter,-1.0,False,16
X043K27,233,experiment,108,↑,down,↓,0.7556925000390038,False,16
X043K27,234,experiment,48,↓,down,↓,0.7135370000032708,True,16
X043K27,235,experiment,60,←,left,←,0.5405925000086427,True,16
X043K27,236,experiment,72,→,right,→,0.7108924000058323,True,16
X043K27,237,experiment,120,←,right,→,1.2544605999719352,False,16
X043K27,238,experiment,168,→,right,→,0.6138031000737101,True,16
X043K27,239,experiment,36,→,no_key,no_letter,-1.0,False,16
X043K27,240,experiment,24,↓,down,↓,1.0333365000551566,True,16
X043K27,241,experiment,108,→,right,→,0.7175483000464737,True,16
X043K27,242,experiment,60,↑,up,↑,0.7739875999977812,True,16
X043K27,243,experiment,144,←,left,←,0.6255279000615701,True,16
X043K27,244,experiment,108,↓,down,↓,0.917822299990803,True,16
X043K27,245,experiment,36,→,right,→,0.7168140999274328,True,16
X043K27,246,experiment,132,←,left,←,0.5483087999746203,True,16
X043K27,247,experiment,168,→,right,→,0.6458177999593318,True,16
X043K27,248,experiment,156,↑,up,↑,0.7010499000316486,True,16
X043K27,249,experiment,60,↓,down,↓,0.740019700024277,True,16
X043K27,250,experiment,72,→,right,→,0.5635656999656931,True,16
X043K27,251,experiment,96,→,right,→,0.7539178999140859,True,16
X043K27,252,experiment,144,↓,down,↓,0.840015200083144,True,16
X043K27,253,experiment,132,←,no_key,no_letter,-1.0,False,16
X043K27,254,experiment,84,←,left,←,0.5575588999781758,True,16
X043K27,255,experiment,132,←,left,←,0.6892816000618041,True,16
X043K27,256,experiment,72,↓,no_key,no_letter,-1.0,False,16
X043K27,257,experiment,36,↓,no_key,no_letter,-1.0,False,16
X043K27,258,experiment,156,↑,no_key,no_letter,-1.0,False,16
X043K27,259,experiment,36,↓,down,↓,0.8633902000728995,True,16
X043K27,260,experiment,12,←,right,→,0.7596757999854162,False,16
X043K27,261,experiment,96,↓,down,↓,0.6833292000228539,True,16
X043K27,262,experiment,180,↑,no_key,no_letter,-1.0,False,16
X043K27,263,experiment,96,↑,up,↑,0.7270279000513256,True,16
X043K27,264,experiment,84,↓,no_key,no_letter,-1.0,False,16
X043K27,265,experiment,120,↑,up,↑,0.6082701999694109,True,16
X043K27,266,experiment,156,↑,up,↑,0.6485752000007778,True,16
X043K27,267,experiment,24,↑,no_key,no_letter,-1.0,False,16
X043K27,268,experiment,168,↑,no_key,no_letter,-1.0,False,16
X043K27,269,experiment,108,↑,up,↑,0.6264442999381572,True,16
X043K27,270,experiment,168,→,right,→,0.7131975999800488,True,16
X043K27,271,experiment,180,→,no_key,no_letter,-1.0,False,16
X043K27,272,experiment,48,↑,no_key,no_letter,-1.0,False,16
X043K27,273,experiment,180,→,right,→,0.7274051000131294,True,16
X043K27,274,experiment,120,↓,down,↓,0.9821866999845952,True,16
X043K27,275,experiment,48,→,no_key,no_letter,-1.0,False,16
X043K27,276,experiment,84,↓,down,↓,0.915813299943693,True,16
X043K27,277,experiment,156,←,no_key,no_letter,-1.0,False,16
X043K27,278,experiment,120,→,right,→,0.6181321999756619,True,16
X043K27,279,experiment,24,→,no_key,no_letter,-1.0,False,16
X043K27,280,experiment,48,←,no_key,no_letter,-1.0,False,16
X043K27,281,experiment,12,→,right,→,0.5589818999869749,True,16
X043K27,282,experiment,132,↑,up,↑,0.6984712000703439,True,16
X043K27,283,training,132,↓,down,↓,0.8070814999518916,True,16
X043K27,284,training,48,↑,up,↑,0.7494294000789523,True,16
X043K27,285,training,180,→,right,→,0.6676197999622673,True,16
X043K27,286,experiment,132,↓,down,↓,0.7829325000056997,True,16
X043K27,287,experiment,120,→,right,→,0.6661844999762252,True,16
X043K27,288,experiment,144,→,right,→,0.6746403999859467,True,16
X043K27,289,experiment,144,↑,no_key,no_letter,-1.0,False,16
X043K27,290,experiment,60,↑,up,↑,0.6178185999160632,True,16
X043K27,291,experiment,120,→,right,→,0.6069599000038579,True,16
X043K27,292,experiment,108,↑,up,↑,0.5765823000110686,True,16
X043K27,293,experiment,48,→,right,→,0.6105342000955716,True,16
X043K27,294,experiment,108,↑,up,↑,0.6494895999785513,True,16
X043K27,295,experiment,168,↓,no_key,no_letter,-1.0,False,16
X043K27,296,experiment,132,→,right,→,0.6740700000664219,True,16
X043K27,297,experiment,108,→,right,→,0.6447466999525204,True,16
X043K27,298,experiment,60,↑,no_key,no_letter,-1.0,False,16
X043K27,299,experiment,156,→,right,→,0.652367900009267,True,16
X043K27,300,experiment,132,←,right,→,1.027833400061354,False,16
X043K27,301,experiment,156,←,left,←,0.6618741999845952,True,16
X043K27,302,experiment,24,↑,no_key,no_letter,-1.0,False,16
X043K27,303,experiment,24,↑,up,↑,1.381372299976647,True,16
X043K27,304,experiment,144,↓,down,↓,1.0720273000188172,True,16
X043K27,305,experiment,120,↓,down,↓,0.7282654999289662,True,16
X043K27,306,experiment,36,→,no_key,no_letter,-1.0,False,16
X043K27,307,experiment,168,↑,up,↑,0.7765912000322714,True,16
X043K27,308,experiment,36,↑,no_key,no_letter,-1.0,False,16
X043K27,309,experiment,156,↓,down,↓,0.6915335999801755,True,16
X043K27,310,experiment,144,↓,up,↑,0.6759648999432102,False,16
X043K27,311,experiment,180,←,left,←,0.608247600030154,True,16
X043K27,312,experiment,84,↑,up,↑,0.631136600044556,True,16
X043K27,313,experiment,84,↑,up,↑,0.5397208000067621,True,16
X043K27,314,experiment,48,↑,up,↑,0.5604023999767378,True,16
X043K27,315,experiment,24,↓,no_key,no_letter,-1.0,False,16
X043K27,316,experiment,84,↑,up,↑,0.9163911999203265,True,16
X043K27,317,experiment,84,←,no_key,no_letter,-1.0,False,16
X043K27,318,experiment,60,←,left,←,0.6939375000074506,True,16
X043K27,319,experiment,168,↑,left,←,1.0283267999766394,False,16
X043K27,320,experiment,180,↓,down,↓,0.85715350008104,True,16
X043K27,321,experiment,12,↑,down,↓,1.227547200047411,False,16
X043K27,322,experiment,72,←,left,←,0.6530429000267759,True,16
X043K27,323,experiment,36,←,left,←,0.7851546000456437,True,16
X043K27,324,experiment,108,↑,up,↑,0.6420999000547454,True,16
X043K27,325,experiment,180,↑,up,↑,0.5816076999763027,True,16
X043K27,326,experiment,36,←,right,→,0.5996919000754133,False,16
X043K27,327,experiment,96,↓,down,↓,0.7992322000209242,True,16
X043K27,328,experiment,72,↓,down,↓,0.754994000075385,True,16
X043K27,329,experiment,60,→,right,→,0.6604202999733388,True,16
X043K27,330,experiment,48,↓,down,↓,0.7498366999207065,True,16
X043K27,331,experiment,24,←,left,←,0.6598373999586329,True,16
X043K27,332,experiment,48,↑,no_key,no_letter,-1.0,False,16
X043K27,333,experiment,132,←,left,←,0.6583142000017688,True,16
X043K27,334,experiment,168,↓,down,↓,0.7908776999684051,True,16
X043K27,335,experiment,72,↑,up,↑,0.6591806999640539,True,16
X043K27,336,experiment,12,←,left,←,0.6594519000500441,True,16
X043K27,337,experiment,96,←,left,←,0.6145670999540016,True,16
X043K27,338,experiment,156,→,right,→,0.6761403999989852,True,16
X043K27,339,experiment,180,→,right,→,0.547159899957478,True,16
X043K27,340,experiment,96,↓,no_key,no_letter,-1.0,False,16
X043K27,341,experiment,120,↓,down,↓,0.645254599978216,True,16
X043K27,342,experiment,72,↑,no_key,no_letter,-1.0,False,16
X043K27,343,experiment,12,↑,up,↑,0.6251049001002684,True,16
X043K27,344,experiment,12,↑,up,↑,0.6269230999751016,True,16
X043K27,345,experiment,96,↑,up,↑,0.6023043999448419,True,16
X043K27,346,training,168,↑,up,↑,0.6644260999746621,True,16
X043K27,347,training,168,→,right,→,0.5999445000197738,True,16
X043K27,348,training,96,↑,up,↑,0.5743997999234125,True,16
X043K27,349,experiment,36,↓,up,↑,0.6666294999886304,False,16
X043K27,350,experiment,60,→,right,→,0.5252760000294074,True,16
X043K27,351,experiment,144,↓,left,←,0.6032231999561191,False,16
X043K27,352,experiment,72,→,no_key,no_letter,-1.0,False,16
X043K27,353,experiment,108,→,right,→,0.5997071999590844,True,16
X043K27,354,experiment,48,→,right,→,0.6988094999687746,True,16
X043K27,355,experiment,24,→,no_key,no_letter,-1.0,False,16
X043K27,356,experiment,180,↓,down,↓,0.7475623999489471,True,16
X043K27,357,experiment,84,→,no_key,no_letter,-1.0,False,16
X043K27,358,experiment,120,↓,down,↓,0.6133165000937879,True,16
X043K27,359,experiment,156,↓,right,→,1.7123053999384865,False,16
X043K27,360,experiment,36,→,no_key,no_letter,-1.0,False,16
X043K27,361,experiment,168,↑,up,↑,0.8063952999655157,True,16
X043K27,362,experiment,120,→,right,→,0.6170246999245137,True,16
X043K27,363,experiment,132,←,no_key,no_letter,-1.0,False,16
X043K27,364,experiment,180,←,left,←,0.7352318000048399,True,16
X043K27,365,experiment,60,←,no_key,no_letter,-1.0,False,16
X043K27,366,experiment,12,↑,up,↑,0.6523343999870121,True,16
X043K27,367,experiment,156,←,left,←,0.6791152000660077,True,16
X043K27,368,experiment,180,↑,up,↑,0.6614220000337809,True,16
X043K27,369,experiment,48,↓,up,↑,0.8214295000070706,False,16
X043K27,370,experiment,108,↓,down,↓,0.8957369000418112,True,16
X043K27,371,experiment,24,→,right,→,0.5232214999850839,True,16
X043K27,372,experiment,132,↓,down,↓,0.9463303999509662,True,16
X043K27,373,experiment,168,←,left,←,0.6440319999819621,True,16
X043K27,374,experiment,72,←,no_key,no_letter,-1.0,False,16
X043K27,375,experiment,120,↑,up,↑,0.6461589999962598,True,16
X043K27,376,experiment,36,↑,up,↑,0.7188639000523835,True,16
X043K27,377,experiment,24,↑,no_key,no_letter,-1.0,False,16
X043K27,378,experiment,72,↓,down,↓,0.9016251999419183,True,16
X043K27,379,experiment,144,←,left,←,0.6506755999289453,True,16
X043K27,380,experiment,132,←,left,←,0.6151018999516964,True,16
X043K27,381,experiment,60,→,right,→,0.6907120000105351,True,16
X043K27,382,experiment,96,→,right,→,0.6149213999742642,True,16
X043K27,383,experiment,156,↓,down,↓,0.7111038999864832,True,16
X043K27,384,experiment,132,→,right,→,0.6337967999279499,True,16
X043K27,385,experiment,144,↑,down,↓,0.7437920999946073,False,16
X043K27,386,experiment,108,→,right,→,0.6275531999999657,True,16
X043K27,387,experiment,96,→,right,→,0.7014457000186667,True,16
X043K27,388,experiment,84,↑,up,↑,0.9007220999337733,True,16
X043K27,389,experiment,48,←,no_key,no_letter,-1.0,False,16
X043K27,390,experiment,156,↓,no_key,no_letter,-1.0,False,16
X043K27,391,experiment,108,←,left,←,0.6927142000058666,True,16
X043K27,392,experiment,60,↓,down,↓,0.8791135000064969,True,16
X043K27,393,experiment,48,↑,down,↓,0.8917320999316871,False,16
X043K27,394,experiment,12,←,left,←,0.6434983999934047,True,16
X043K27,395,experiment,180,↑,up,↑,0.969452999997884,True,16
X043K27,396,experiment,12,←,left,←,1.2148767000762746,True,16
X043K27,397,experiment,96,↑,no_key,no_letter,-1.0,False,16
X043K27,398,experiment,168,→,no_key,no_letter,-1.0,False,16
X043K27,399,experiment,144,←,left,←,0.6526858999859542,True,16
X043K27,400,experiment,24,↓,no_key,no_letter,-1.0,False,16
X043K27,401,experiment,96,↑,up,↑,0.6092904000543058,True,16
X043K27,402,experiment,72,↓,down,↓,0.8302836999064311,True,16
X043K27,403,experiment,84,←,left,←,0.5540335999103263,True,16
X043K27,404,experiment,168,↑,down,↓,1.0704080000286922,False,16
X043K27,405,experiment,120,←,left,←,0.6619060999946669,True,16
X043K27,406,experiment,84,→,no_key,no_letter,-1.0,False,16
X043K27,407,experiment,12,→,no_key,no_letter,-1.0,False,16
X043K27,408,experiment,36,→,no_key,no_letter,-1.0,False,16
X043K27,409,training,72,↑,up,↑,0.5906870999606326,True,16
X043K27,410,training,108,↑,no_key,no_letter,-1.0,False,16
X043K27,411,training,132,→,right,→,0.7163618999766186,True,16
X043K27,412,experiment,180,↓,down,↓,0.7943005999550223,True,16
X043K27,413,experiment,180,↓,down,↓,0.7292446000501513,True,16
X043K27,414,experiment,156,↑,up,↑,0.5880357000278309,True,16
X043K27,415,experiment,144,↑,down,↓,0.8958455000538379,False,16
X043K27,416,experiment,132,→,right,→,1.1857209000736475,True,16
X043K27,417,experiment,12,←,no_key,no_letter,-1.0,False,16
X043K27,418,experiment,84,↑,up,↑,0.6337490000296384,True,16
X043K27,419,experiment,72,→,right,→,0.634435800020583,True,16
X043K27,420,experiment,144,→,right,→,0.6326439999975264,True,16
X043K27,421,experiment,132,↑,up,↑,0.8390558999963105,True,16
X043K27,422,experiment,168,↓,down,↓,0.7361500000115484,True,16
X043K27,423,experiment,108,←,left,←,0.7080787000013515,True,16
X043K27,424,experiment,168,←,left,←,0.5207462999969721,True,16
X043K27,425,experiment,36,↑,down,↓,0.9215009999461472,False,16
X043K27,426,experiment,60,↓,down,↓,0.7212412999942899,True,16
X043K27,427,experiment,96,↓,down,↓,0.6900462999474257,True,16
X043K27,428,experiment,156,↓,down,↓,0.5658603000920266,True,16
X043K27,429,experiment,120,↓,down,↓,0.7174255000427365,True,16
X043K27,430,experiment,108,→,right,→,0.8105505999410525,True,16
X043K27,431,experiment,120,↓,down,↓,0.8091148000676185,True,16
X043K27,432,experiment,48,↑,no_key,no_letter,-1.0,False,16
X043K27,433,experiment,180,↓,down,↓,0.7028822998981923,True,16
X043K27,434,experiment,132,↓,down,↓,0.7342130999313667,True,16
X043K27,435,experiment,72,↓,down,↓,0.6824408000102267,True,16
X043K27,436,experiment,48,→,right,→,0.6550555999856442,True,16
X043K27,437,experiment,12,←,down,↓,0.9441301999613643,False,16
X043K27,438,experiment,72,←,no_key,no_letter,-1.0,False,16
X043K27,439,experiment,36,←,no_key,no_letter,-1.0,False,16
X043K27,440,experiment,12,→,no_key,no_letter,-1.0,False,16
X043K27,441,experiment,12,→,right,→,0.7078728000633419,True,16
X043K27,442,experiment,144,↑,up,↑,1.3933641000185162,True,16
X043K27,443,experiment,60,↓,no_key,no_letter,-1.0,False,16
X043K27,444,experiment,84,↑,up,↑,0.6290029999800026,True,16
X043K27,445,experiment,144,↓,down,↓,0.693849099916406,True,16
X043K27,446,experiment,168,→,right,→,0.604369500069879,True,16
X043K27,447,experiment,96,→,right,→,0.6284385001054034,True,16
X043K27,448,experiment,168,↑,up,↑,1.139524900005199,True,16
X043K27,449,experiment,156,→,right,→,0.6266306000761688,True,16
X043K27,450,experiment,60,→,right,→,0.6748088999884203,True,16
X043K27,451,experiment,84,→,right,→,0.5072726999642327,True,16
X043K27,452,experiment,24,↓,down,↓,0.8438463000347838,True,16
X043K27,453,experiment,36,↑,up,↑,0.5203376000281423,True,16
X043K27,454,experiment,156,↑,up,↑,0.5137278999900445,True,16
X043K27,455,experiment,132,←,left,←,0.5449589000781998,True,16
X043K27,456,experiment,48,↑,up,↑,0.38444819999858737,True,16
X043K27,457,experiment,48,↓,down,↓,0.5421186999883503,True,16
X043K27,458,experiment,120,↑,up,↑,0.5845433999784291,True,16
X043K27,459,experiment,72,↑,up,↑,0.6102782000089064,True,16
X043K27,460,experiment,24,↓,up,↑,1.2401415999047458,False,16
X043K27,461,experiment,96,→,no_key,no_letter,-1.0,False,16
X043K27,462,experiment,24,→,right,→,0.8649357000831515,True,16
X043K27,463,experiment,108,←,no_key,no_letter,-1.0,False,16
X043K27,464,experiment,60,←,right,→,1.165536499931477,False,16
X043K27,465,experiment,120,←,left,←,0.6876897000474855,True,16
X043K27,466,experiment,108,↓,no_key,no_letter,-1.0,False,16
X043K27,467,experiment,36,→,right,→,0.6863510999828577,True,16
X043K27,468,experiment,96,↑,no_key,no_letter,-1.0,False,16
X043K27,469,experiment,84,→,no_key,no_letter,-1.0,False,16
X043K27,470,experiment,180,→,right,→,0.9078993999864906,True,16
X043K27,471,experiment,24,↑,up,↑,0.4847723999992013,True,16
X043K27,472,training,120,↓,no_key,no_letter,-1.0,False,16
X043K27,473,training,12,↑,up,↑,0.9526768999639899,True,16
X043K27,474,training,72,→,right,→,0.8190482999198139,True,16
X043K27,475,experiment,48,↑,up,↑,0.6919773000990972,True,16
X043K27,476,experiment,24,↓,no_key,no_letter,-1.0,False,16
X043K27,477,experiment,108,↑,up,↑,0.6391984999645501,True,16
X043K27,478,experiment,96,←,left,←,0.5152460000244901,True,16
X043K27,479,experiment,120,→,right,→,0.653910499997437,True,16
X043K27,480,experiment,132,←,right,→,1.5175398999126628,False,16
X043K27,481,experiment,168,→,right,→,0.5968721999088302,True,16
X043K27,482,experiment,180,↑,up,↑,0.6559911000076681,True,16
X043K27,483,experiment,144,←,left,←,0.6843215000117198,True,16
X043K27,484,experiment,72,←,left,←,0.7515849999617785,True,16
X043K27,485,experiment,156,←,left,←,0.6569625000702217,True,16
X043K27,486,experiment,84,←,left,←,0.73335789993871,True,16
X043K27,487,experiment,120,↑,no_key,no_letter,-1.0,False,16
X043K27,488,experiment,72,←,left,←,0.5943879000842571,True,16
X043K27,489,experiment,168,←,left,←,0.6503210999071598,True,16
X043K27,490,experiment,36,↑,no_key,no_letter,-1.0,False,16
X043K27,491,experiment,180,↑,no_key,no_letter,-1.0,False,16
X043K27,492,experiment,96,↑,no_key,no_letter,-1.0,False,16
X043K27,493,experiment,84,←,left,←,0.5751128999982029,True,16
X043K27,494,experiment,12,←,no_key,no_letter,-1.0,False,16
X043K27,495,experiment,144,↑,left,←,1.1374019999057055,False,16
X043K27,496,experiment,60,↓,no_key,no_letter,-1.0,False,16
X043K27,497,experiment,36,→,right,→,0.6711309000384063,True,16
X043K27,498,experiment,24,→,no_key,no_letter,-1.0,False,16
X043K27,499,experiment,84,→,right,→,0.9631807999685407,True,16
X043K27,500,experiment,144,↑,no_key,no_letter,-1.0,False,16
X043K27,501,experiment,36,→,right,→,0.5495336999883875,True,16
X043K27,502,experiment,120,←,right,→,0.4749693999765441,False,16
X043K27,503,experiment,72,→,right,→,0.7455379999009892,True,16
X043K27,504,experiment,60,↓,down,↓,1.0383008000208065,True,16
X043K27,505,experiment,132,↑,up,↑,0.7791996999876574,True,16
X043K27,506,experiment,132,↑,up,↑,0.6704308000626042,True,16
X043K27,507,experiment,48,→,right,→,1.311670899973251,True,16
X043K27,508,experiment,156,←,left,←,0.6269143000245094,True,16
X043K27,509,experiment,48,↓,up,↑,0.7048174999654293,False,16
X043K27,510,experiment,108,→,right,→,0.6867301999591291,True,16
X043K27,511,experiment,60,↓,down,↓,0.842691499972716,True,16
X043K27,512,experiment,48,←,left,←,0.5255244999425486,True,16
X043K27,513,experiment,72,→,right,→,0.6373116000322625,True,16
X043K27,514,experiment,132,←,left,←,0.400625400012359,True,16
X043K27,515,experiment,84,←,left,←,0.5514069000491872,True,16
X043K27,516,experiment,36,←,left,←,0.6099758999189362,True,16
X043K27,517,experiment,12,↓,down,↓,0.8124202999752015,True,16
X043K27,518,experiment,156,↑,up,↑,0.7655463000992313,True,16
X043K27,519,experiment,24,↑,no_key,no_letter,-1.0,False,16
X043K27,520,experiment,168,↑,up,↑,0.6550047000637278,True,16
X043K27,521,experiment,60,←,left,←,0.6615608999272808,True,16
X043K27,522,experiment,156,←,left,←,0.5849354000529274,True,16
X043K27,523,experiment,96,←,left,←,0.5982169000199065,True,16
X043K27,524,experiment,108,↑,up,↑,0.7247095999773592,True,16
X043K27,525,experiment,12,↓,no_key,no_letter,-1.0,False,16
X043K27,526,experiment,12,←,right,→,0.7021857000654563,False,16
X043K27,527,experiment,120,↑,up,↑,0.6960100999567658,True,16
X043K27,528,experiment,180,↑,up,↑,0.5640208000550047,True,16
X043K27,529,experiment,144,↑,up,↑,0.6464684999082237,True,16
X043K27,530,experiment,108,←,left,←,0.5453016000101343,True,16
X043K27,531,experiment,24,→,right,→,0.6544840999413282,True,16
X043K27,532,experiment,168,↓,up,↑,0.6158249001018703,False,16
X043K27,533,experiment,180,←,left,←,0.8554079999448732,True,16
X043K27,534,experiment,96,↑,no_key,no_letter,-1.0,False,16
X043K27,535,training,132,←,no_key,no_letter,-1.0,False,16
X043K27,536,training,36,↓,down,↓,0.846207799972035,True,16
X043K27,537,training,36,→,no_key,no_letter,-1.0,False,16
X043K27,538,experiment,132,↑,up,↑,0.6111838999204338,True,16
X043K27,539,experiment,24,↑,down,↓,1.811670400085859,False,16
X043K27,540,experiment,48,↓,down,↓,0.8141622999683022,True,16
X043K27,541,experiment,108,→,right,→,0.7131019000662491,True,16
X043K27,542,experiment,168,↓,down,↓,0.7610095998970792,True,16
X043K27,543,experiment,144,→,right,→,0.5713189999805763,True,16
X043K27,544,experiment,72,↓,down,↓,0.7332996999612078,True,16
X043K27,545,experiment,156,↑,up,↑,0.7030934999929741,True,16
X043K27,546,experiment,48,↓,down,↓,0.7411237000487745,True,16
X043K27,547,experiment,108,→,right,→,0.647828400018625,True,16
X043K27,548,experiment,120,←,left,←,0.6614353000186384,True,16
X043K27,549,experiment,144,↓,up,↑,0.7750125000020489,False,16
X043K27,550,experiment,36,←,left,←,0.5743490000022575,True,16
X043K27,551,experiment,180,↓,down,↓,0.6846108000027016,True,16
X043K27,552,experiment,96,←,left,←,0.5433450000127777,True,16
X043K27,553,experiment,108,↓,down,↓,0.8758110000053421,True,16
X043K27,554,experiment,84,→,no_key,no_letter,-1.0,False,16
X043K27,555,experiment,48,→,right,→,0.5524348000762984,True,16
X043K27,556,experiment,168,←,no_key,no_letter,-1.0,False,16
X043K27,557,experiment,120,↑,up,↑,0.5998118000570685,True,16
X043K27,558,experiment,24,→,right,→,0.5833764999406412,True,16
X043K27,559,experiment,84,↑,up,↑,0.5221897000446916,True,16
X043K27,560,experiment,12,↑,up,↑,0.7619575998978689,True,16
X043K27,561,experiment,180,←,right,→,0.5001034999731928,False,16
X043K27,562,experiment,60,↑,up,↑,0.7040935000404716,True,16
X043K27,563,experiment,36,↑,up,↑,0.6403985000215471,True,16
X043K27,564,experiment,96,↓,up,↑,0.7228525000391528,False,16
X043K27,565,experiment,180,←,left,←,0.6107514000032097,True,16
X043K27,566,experiment,120,↑,no_key,no_letter,-1.0,False,16
X043K27,567,experiment,84,↓,no_key,no_letter,-1.0,False,16
X043K27,568,experiment,156,←,no_key,no_letter,-1.0,False,16
X043K27,569,experiment,24,↑,no_key,no_letter,-1.0,False,16
X043K27,570,experiment,168,←,left,←,0.7473470000550151,True,16
X043K27,571,experiment,72,←,no_key,no_letter,-1.0,False,16
X043K27,572,experiment,48,←,right,→,1.3022412999998778,False,16
X043K27,573,experiment,144,→,right,→,0.6750745000317693,True,16
X043K27,574,experiment,132,→,left,←,0.8266998999752104,False,16
X043K27,575,experiment,84,↓,down,↓,0.7595357000827789,True,16
X043K27,576,experiment,36,←,no_key,no_letter,-1.0,False,16
X043K27,577,experiment,36,↓,down,↓,0.6420737999724224,True,16
X043K27,578,experiment,180,←,left,←,0.5868491999572143,True,16
X043K27,579,experiment,156,←,left,←,0.6089533000485972,True,16
X043K27,580,experiment,96,↓,down,↓,0.6343739000149071,True,16
X043K27,581,experiment,168,→,no_key,no_letter,-1.0,False,16
X043K27,582,experiment,156,↓,no_key,no_letter,-1.0,False,16
X043K27,583,experiment,60,↑,up,↑,0.6323473999509588,True,16
X043K27,584,experiment,132,←,no_key,no_letter,-1.0,False,16
X043K27,585,experiment,12,↓,down,↓,0.8891768000321463,True,16
X043K27,586,experiment,72,↓,down,↓,0.741225800011307,True,16
X043K27,587,experiment,60,↑,up,↑,0.7366296000545844,True,16
X043K27,588,experiment,144,←,no_key,no_letter,-1.0,False,16
X043K27,589,experiment,24,←,no_key,no_letter,-1.0,False,16
X043K27,590,experiment,12,←,left,←,0.7907563999760896,True,16
X043K27,591,experiment,12,↓,no_key,no_letter,-1.0,False,16
X043K27,592,experiment,108,←,left,←,0.7837950000539422,True,16
X043K27,593,experiment,72,↑,up,↑,0.8494849000126123,True,16
X043K27,594,experiment,96,↓,up,↑,0.6560349999926984,False,16
X043K27,595,experiment,132,→,right,→,0.5253881000680849,True,16
X043K27,596,experiment,60,↓,down,↓,0.7964717999566346,True,16
X043K27,597,experiment,120,↑,up,↑,0.6734292999608442,True,16
X043K27,598,training,108,↓,no_key,no_letter,-1.0,False,16
X043K27,599,training,180,↓,down,↓,0.9308696000371128,True,16
X043K27,600,training,180,↑,up,↑,1.119005599990487,True,16
X043K27,601,experiment,48,←,left,←,0.7291911999927834,True,16
X043K27,602,experiment,156,←,left,←,0.5436275000683963,True,16
X043K27,603,experiment,132,←,left,←,0.7948853999841958,True,16
X043K27,604,experiment,132,→,right,→,0.6243976999539882,True,16
X043K27,605,experiment,144,↓,down,↓,0.8404637000057846,True,16
X043K27,606,experiment,168,↓,no_key,no_letter,-1.0,False,16
X043K27,607,experiment,60,↑,no_key,no_letter,-1.0,False,16
X043K27,608,experiment,108,←,left,←,0.6346523000393063,True,16
X043K27,609,experiment,24,←,no_key,no_letter,-1.0,False,16
X043K27,610,experiment,60,↑,up,↑,0.6285870999563485,True,16
X043K27,611,experiment,72,↑,up,↑,0.7126900000730529,True,16
X043K27,612,experiment,180,→,right,→,0.5798964999848977,True,16
X043K27,613,experiment,24,→,right,→,0.44244849996175617,True,16
X043K27,614,experiment,36,↑,no_key,no_letter,-1.0,False,16
X043K27,615,experiment,36,→,right,→,0.5824228000128642,True,16
X043K27,616,experiment,168,↑,no_key,no_letter,-1.0,False,16
X043K27,617,experiment,48,←,right,→,0.5755243999883533,False,16
X043K27,618,experiment,60,←,left,←,0.6819930000929162,True,16
X043K27,619,experiment,120,→,no_key,no_letter,-1.0,False,16
X043K27,620,experiment,168,→,right,→,0.5407100999727845,True,16
X043K27,621,experiment,24,→,no_key,no_letter,-1.0,False,16
X043K27,622,experiment,12,→,no_key,no_letter,-1.0,False,16
X043K27,623,experiment,72,↑,no_key,no_letter,-1.0,False,16
X043K27,624,experiment,120,↓,down,↓,0.658223900012672,True,16
X043K27,625,experiment,156,←,right,→,0.6653223999310285,False,16
X043K27,626,experiment,132,↓,no_key,no_letter,-1.0,False,16
X043K27,627,experiment,36,→,right,→,0.8051564999623224,True,16
X043K27,628,experiment,36,↓,down,↓,0.7541462000226602,True,16
X043K27,629,experiment,12,→,right,→,0.6677241999423131,True,16
X043K27,630,experiment,144,←,left,←,0.7786646999884397,True,16
X043K27,631,experiment,84,↑,up,↑,0.5784821000415832,True,16
X043K27,632,experiment,144,←,left,←,0.6541664000833407,True,16
X043K27,633,experiment,108,↑,up,↑,0.4815332000143826,True,16
X043K27,634,experiment,84,↑,up,↑,0.7026495999889448,True,16
X043K27,635,experiment,180,↑,no_key,no_letter,-1.0,False,16
X043K27,636,experiment,72,↓,no_key,no_letter,-1.0,False,16
X043K27,637,experiment,156,←,left,←,0.5607475000433624,True,16
X043K27,638,experiment,108,↓,down,↓,0.8850381999509409,True,16
X043K27,639,experiment,84,↑,up,↑,0.5956542999483645,True,16
X043K27,640,experiment,180,→,right,→,0.5893142999848351,True,16
X043K27,641,experiment,180,↓,down,↓,0.7788942999904975,True,16
X043K27,642,experiment,120,→,right,→,0.628461700049229,True,16
X043K27,643,experiment,96,→,right,→,0.5094584000762552,True,16
X043K27,644,experiment,120,←,right,→,0.5907116000307724,False,16
X043K27,645,experiment,84,↓,down,↓,0.716239899978973,True,16
X043K27,646,experiment,60,↓,down,↓,0.876490900060162,True,16
X043K27,647,experiment,48,↓,down,↓,0.6663093999959528,True,16
X043K27,648,experiment,12,→,right,→,0.6728148999391124,True,16
X043K27,649,experiment,24,←,left,←,0.6668715999694541,True,16
X043K27,650,experiment,156,→,right,→,0.5875273999990895,True,16
X043K27,651,experiment,168,↓,down,↓,0.5834294999949634,True,16
X043K27,652,experiment,12,↓,no_key,no_letter,-1.0,False,16
X043K27,653,experiment,132,→,right,→,0.5457091999705881,True,16
X043K27,654,experiment,48,↓,down,↓,0.7788315999787301,True,16
X043K27,655,experiment,72,↓,down,↓,0.5724718000274152,True,16
X043K27,656,experiment,108,↓,down,↓,0.7126379000255838,True,16
X043K27,657,experiment,96,←,no_key,no_letter,-1.0,False,16
X043K27,658,experiment,144,←,right,→,0.9942550000268966,False,16
X043K27,659,experiment,96,↑,down,↓,0.6200695999432355,False,16
X043K27,660,experiment,96,←,left,←,0.6873794000130147,True,16
X043K27,661,training,156,↓,no_key,no_letter,-1.0,False,16
X043K27,662,training,180,→,no_key,no_letter,-1.0,False,16
X043K27,663,training,36,↑,no_key,no_letter,-1.0,False,16
X043K27,664,experiment,24,↑,up,↑,0.6684939000988379,True,16
X043K27,665,experiment,156,→,right,→,0.5964288000250235,True,16
X043K27,666,experiment,60,↓,down,↓,0.7503576999297366,True,16
X043K27,667,experiment,144,↓,down,↓,0.6493346999632195,True,16
X043K27,668,experiment,60,→,no_key,no_letter,-1.0,False,16
X043K27,669,experiment,60,→,right,→,0.490999500034377,True,16
X043K27,670,experiment,84,←,left,←,0.5970550999045372,True,16
X043K27,671,experiment,132,→,right,→,0.49847570003475994,True,16
X043K27,672,experiment,108,↑,down,↓,0.6823434000834823,False,16
X043K27,673,experiment,84,←,right,→,1.0809292000485584,False,16
X043K27,674,experiment,108,↑,no_key,no_letter,-1.0,False,16
X043K27,675,experiment,48,←,no_key,no_letter,-1.0,False,16
X043K27,676,experiment,72,↓,down,↓,0.5998709999257699,True,16
X043K27,677,experiment,180,→,right,→,0.6426943000406027,True,16
X043K27,678,experiment,120,↓,down,↓,0.6915703000267968,True,16
X043K27,679,experiment,72,↑,down,↓,0.5558652000036091,False,16
X043K27,680,experiment,144,←,left,←,0.6959586999146268,True,16
X043K27,681,experiment,96,↑,up,↑,0.7259629999753088,True,16
X043K27,682,experiment,96,↓,down,↓,0.6707023000344634,True,16
X043K27,683,experiment,48,↓,down,↓,0.5715306999627501,True,16
X043K27,684,experiment,168,↑,up,↑,0.6552469000453129,True,16
X043K27,685,experiment,168,↓,down,↓,0.5025700000114739,True,16
X043K27,686,experiment,24,→,right,→,0.6821389000397176,True,16
X043K27,687,experiment,72,→,left,←,0.49165560002438724,False,16
X043K27,688,experiment,156,↓,down,↓,0.6465467000380158,True,16
X043K27,689,experiment,48,↑,no_key,no_letter,-1.0,False,16
X043K27,690,experiment,120,↑,up,↑,0.5248064999468625,True,16
X043K27,691,experiment,84,↑,up,↑,0.457516000024043,True,16
X043K27,692,experiment,144,↑,up,↑,0.5729293000185862,True,16
X043K27,693,experiment,180,→,no_key,no_letter,-1.0,False,16
X043K27,694,experiment,24,←,no_key,no_letter,-1.0,False,16
X043K27,695,experiment,12,↑,no_key,no_letter,-1.0,False,16
X043K27,696,experiment,24,→,right,→,0.4648305999580771,True,16
X043K27,697,experiment,48,↑,up,↑,0.4005107000702992,True,16
X043K27,698,experiment,156,←,right,→,0.5631713999900967,False,16
X043K27,699,experiment,108,↑,up,↑,0.5938531999709085,True,16
X043K27,700,experiment,108,←,right,→,0.6431144999805838,False,16
X043K27,701,experiment,120,←,left,←,0.8087666999781504,True,16
X043K27,702,experiment,180,↓,no_key,no_letter,-1.0,False,16
X043K27,703,experiment,72,←,left,←,0.5462597000878304,True,16
X043K27,704,experiment,180,→,left,←,1.158420699997805,False,16
X043K27,705,experiment,96,↑,no_key,no_letter,-1.0,False,16
X043K27,706,experiment,60,↓,down,↓,0.6880320999771357,True,16
X043K27,707,experiment,132,→,up,↑,1.76959879999049,False,16
X043K27,708,experiment,12,↑,up,↑,0.7146480999654159,True,16
X043K27,709,experiment,36,↓,down,↓,0.6999064999399707,True,16
X043K27,710,experiment,168,→,no_key,no_letter,-1.0,False,16
X043K27,711,experiment,36,←,right,→,0.6360967999789864,False,16
X043K27,712,experiment,96,→,right,→,0.5608694000402465,True,16
X043K27,713,experiment,144,→,right,→,0.611589000094682,True,16
X043K27,714,experiment,132,↓,down,↓,0.6397791999625042,True,16
X043K27,715,experiment,168,←,right,→,0.5900775999762118,False,16
X043K27,716,experiment,156,↑,up,↑,0.8254733999492601,True,16
X043K27,717,experiment,12,↓,no_key,no_letter,-1.0,False,16
X043K27,718,experiment,132,→,left,←,0.5087229000637308,False,16
X043K27,719,experiment,84,↓,no_key,no_letter,-1.0,False,16
X043K27,720,experiment,120,↑,up,↑,0.6573880000505596,True,16
X043K27,721,experiment,36,↑,up,↑,0.5305472000036389,True,16
X043K27,722,experiment,12,↓,down,↓,0.7728490999434143,True,16
X043K27,723,experiment,36,↓,no_key,no_letter,-1.0,False,16
X043K27,724,training,168,→,right,→,0.6638651000102982,True,16
X043K27,725,training,132,←,left,←,0.35071459994651377,True,16
X043K27,726,training,132,↑,up,↑,0.5292314999969676,True,16
X043K27,727,experiment,108,↓,down,↓,0.7888471999904141,True,16
X043K27,728,experiment,72,←,left,←,0.4534535000566393,True,16
X043K27,729,experiment,180,→,right,→,0.6169922000262886,True,16
X043K27,730,experiment,24,←,left,←,0.719725799979642,True,16
X043K27,731,experiment,60,←,left,←,0.5011729999678209,True,16
X043K27,732,experiment,120,→,right,→,0.8477640999481082,True,16
X043K27,733,experiment,168,→,right,→,0.5393397000152618,True,16
X043K27,734,experiment,132,↓,down,↓,0.7163820000132546,True,16
X043K27,735,experiment,24,↓,no_key,no_letter,-1.0,False,16
X043K27,736,experiment,36,↑,down,↓,1.241749900043942,False,16
X043K27,737,experiment,120,←,left,←,0.5064105000346899,True,16
X043K27,738,experiment,48,←,no_key,no_letter,-1.0,False,16
X043K27,739,experiment,132,↑,up,↑,1.089462999952957,True,16
X043K27,740,experiment,72,←,left,←,0.7012286999961361,True,16
X043K27,741,experiment,12,↓,no_key,no_letter,-1.0,False,16
X043K27,742,experiment,180,↓,down,↓,0.7703620999818668,True,16
X043K27,743,experiment,96,→,right,→,0.7245359000517055,True,16
X043K27,744,experiment,156,←,right,→,0.8329619000433013,False,16
X043K27,745,experiment,144,→,right,→,0.4952092000748962,True,16
X043K27,746,experiment,72,↓,down,↓,0.7794309000018984,True,16
X043K27,747,experiment,108,↓,down,↓,0.8009658000664786,True,16
X043K27,748,experiment,96,→,right,→,0.44564430008176714,True,16
X043K27,749,experiment,12,→,right,→,0.5829793000593781,True,16
X043K27,750,experiment,168,←,left,←,0.5710381999379024,True,16
X043K27,751,experiment,48,↑,no_key,no_letter,-1.0,False,16
X043K27,752,experiment,84,←,left,←,0.5616599000059068,True,16
X043K27,753,experiment,36,↓,down,↓,0.7894000000087544,True,16
X043K27,754,experiment,108,↓,down,↓,0.669748599990271,True,16
X043K27,755,experiment,96,↓,up,↑,0.7921986000146717,False,16
X043K27,756,experiment,12,←,down,↓,0.8922811000375077,False,16
X043K27,757,experiment,72,↓,down,↓,0.8841416999930516,True,16
X043K27,758,experiment,144,↓,down,↓,0.6092769000679255,True,16
X043K27,759,experiment,156,←,left,←,0.6345408000051975,True,16
X043K27,760,experiment,168,↑,no_key,no_letter,-1.0,False,16
X043K27,761,experiment,180,→,no_key,no_letter,-1.0,False,16
X043K27,762,experiment,108,←,left,←,0.611134700011462,True,16
X043K27,763,experiment,24,←,left,←,0.5041492000455037,True,16
X043K27,764,experiment,48,←,no_key,no_letter,-1.0,False,16
X043K27,765,experiment,84,→,no_key,no_letter,-1.0,False,16
X043K27,766,experiment,12,←,left,←,0.36710020003374666,True,16
X043K27,767,experiment,144,←,no_key,no_letter,-1.0,False,16
X043K27,768,experiment,156,→,right,→,0.7497442000312731,True,16
X043K27,769,experiment,120,→,no_key,no_letter,-1.0,False,16
X043K27,770,experiment,60,←,right,→,0.5927673000842333,False,16
X043K27,771,experiment,132,→,right,→,0.737247999990359,True,16
X043K27,772,experiment,84,↓,down,↓,0.84278229996562,True,16
X043K27,773,experiment,36,←,left,←,0.6872074999846518,True,16
X043K27,774,experiment,168,↓,down,↓,0.886312699993141,True,16
X043K27,775,experiment,96,↑,up,↑,0.7830914000514895,True,16
X043K27,776,experiment,24,←,right,→,0.6760675999103114,False,16
X043K27,777,experiment,48,↑,up,↑,0.6706539000151679,True,16
X043K27,778,experiment,120,↑,up,↑,0.6763190999627113,True,16
X043K27,779,experiment,84,↓,down,↓,0.9136069000232965,True,16
X043K27,780,experiment,60,↑,up,↑,0.7425275000277907,True,16
X043K27,781,experiment,132,↑,up,↑,0.6701064999215305,True,16
X043K27,782,experiment,144,↑,up,↑,0.8240783999208361,True,16
X043K27,783,experiment,180,↓,down,↓,0.751564500038512,True,16
X043K27,784,experiment,60,↑,down,↓,0.7003365000709891,False,16
X043K27,785,experiment,156,←,left,←,0.6084184000501409,True,16
X043K27,786,experiment,36,↓,up,↑,0.6079370999941602,False,16
X043K27,787,training,96,↓,down,↓,0.6809433000162244,True,16
X043K27,788,training,84,↓,down,↓,0.8579501999774948,True,16
X043K27,789,training,132,↓,down,↓,0.9098209999501705,True,16
X043K27,790,experiment,36,→,right,→,0.6644988999469206,True,16
X043K27,791,experiment,12,→,right,→,0.47124370001256466,True,16
X043K27,792,experiment,96,←,left,←,0.5021430000197142,True,16
X043K27,793,experiment,108,↓,down,↓,0.6917282999493182,True,16
X043K27,794,experiment,72,←,left,←,0.6821894999593496,True,16
X043K27,795,experiment,180,↑,up,↑,0.7675962999928743,True,16
X043K27,796,experiment,96,↑,up,↑,0.5620967999566346,True,16
X043K27,797,experiment,36,→,right,→,0.5767677000258118,True,16
X043K27,798,experiment,84,↓,down,↓,0.6385437999852002,True,16
X043K27,799,experiment,96,←,left,←,0.527806399972178,True,16
X043K27,800,experiment,72,←,left,←,0.5034043999621645,True,16
X043K27,801,experiment,168,←,left,←,0.48737750004511327,True,16
X043K27,802,experiment,120,→,right,→,0.6151263999054208,True,16
X043K27,803,experiment,36,→,no_key,no_letter,-1.0,False,16
X043K27,804,experiment,72,←,left,←,0.6292543000308797,True,16
X043K27,805,experiment,144,↓,down,↓,0.6938392999581993,True,16
X043K27,806,experiment,96,←,left,←,0.532996500027366,True,16
X043K27,807,experiment,48,→,left,←,0.36710690008476377,False,16
X043K27,808,experiment,60,↑,down,↓,0.8097255999455228,False,16
X043K27,809,experiment,132,↑,up,↑,0.7277086999965832,True,16
X043K27,810,experiment,132,↓,down,↓,0.6349027000833303,True,16
X043K27,811,experiment,24,→,right,→,0.7460085999919102,True,16
X043K27,812,experiment,108,↓,down,↓,0.702809700043872,True,16
X043K27,813,experiment,120,↓,down,↓,0.598395400098525,True,16
X043K27,814,experiment,48,→,right,→,0.3839798999251798,True,16
X043K27,815,experiment,144,↓,no_key,no_letter,-1.0,False,16
X043K27,816,experiment,168,↓,down,↓,1.0008528999751434,True,16
X043K27,817,experiment,168,→,right,→,0.4766352999722585,True,16
X043K27,818,experiment,72,←,left,←,0.4403146000113338,True,16
X043K27,819,experiment,24,→,no_key,no_letter,-1.0,False,16
X043K27,820,experiment,132,↑,up,↑,0.6660725999390706,True,16
X043K27,821,experiment,156,↓,down,↓,0.7298589000711218,True,16
X043K27,822,experiment,180,→,no_key,no_letter,-1.0,False,16
X043K27,823,experiment,12,←,left,←,0.766459200065583,True,16
X043K27,824,experiment,180,↑,up,↑,0.5881078999955207,True,16
X043K27,825,experiment,120,↓,down,↓,0.7178425000747666,True,16
X043K27,826,experiment,168,↑,down,↓,1.0377114000730217,False,16
X043K27,827,experiment,60,↑,up,↑,0.7105100000044331,True,16
X043K27,828,experiment,120,→,left,←,0.682660200051032,False,16
X043K27,829,experiment,12,←,left,←,0.6368900000816211,True,16
X043K27,830,experiment,180,←,no_key,no_letter,-1.0,False,16
X043K27,831,experiment,132,→,right,→,0.5982465000124648,True,16
X043K27,832,experiment,108,→,right,→,0.6455814000219107,True,16
X043K27,833,experiment,84,↑,down,↓,0.7779449999798089,False,16
X043K27,834,experiment,48,↓,down,↓,0.7417508000507951,True,16
X043K27,835,experiment,156,↑,up,↑,0.6549456999637187,True,16
X043K27,836,experiment,156,→,no_key,no_letter,-1.0,False,16
X043K27,837,experiment,60,←,right,→,0.6097461999161169,False,16
X043K27,838,experiment,12,→,right,→,0.47267459996510297,True,16
X043K27,839,experiment,156,→,right,→,0.5420635000336915,True,16
X043K27,840,experiment,144,→,right,→,0.5702661999966949,True,16
X043K27,841,experiment,36,→,left,←,0.8156342000002041,False,16
X043K27,842,experiment,84,←,left,←,0.5782677000388503,True,16
X043K27,843,experiment,48,→,right,→,0.6595494999783114,True,16
X043K27,844,experiment,60,↑,up,↑,0.5561383999884129,True,16
X043K27,845,experiment,108,→,left,←,0.570806699921377,False,16
X043K27,846,experiment,144,↓,down,↓,0.9324360000900924,True,16
X043K27,847,experiment,84,→,down,↓,0.960567899979651,False,16
X043K27,848,experiment,24,→,right,→,0.673392599914223,True,16
X043K27,849,experiment,24,↑,no_key,no_letter,-1.0,False,16
