PART_ID,Trial_no,Trial_type,PDI,Stim_letter,Key_pressed,letter_choose,Rt,Corr,Stimulus Time
X045K19,1,training,10,←,no_key,no_letter,-1.0,False,30
X045K19,2,training,10,←,no_key,no_letter,-1.0,False,30
X045K19,3,training,10,←,left,←,0.6173765000130516,True,30
X045K19,4,training,10,→,right,→,1.4607580000010785,True,30
X045K19,5,training,10,↑,left,←,0.766682999994373,False,30
X045K19,6,training,10,↓,left,←,0.43401969999831636,False,30
X045K19,7,training,10,←,down,↓,0.36744659999385476,False,30
X045K19,8,training,10,↑,up,↑,0.5838153999939095,True,30
X045K19,9,training,10,↓,down,↓,0.8852682000142522,True,30
X045K19,10,training,10,→,right,→,0.697998200004804,True,30
X045K19,11,training,10,↑,down,↓,2.073122899993905,False,30
X045K19,12,training,10,↓,down,↓,0.9908390000055078,True,30
X045K19,13,training,10,↓,down,↓,0.6864153000060469,True,30
X045K19,14,training,10,←,left,←,0.9383587000047555,True,30
X045K19,15,training,10,→,right,→,0.7515999999886844,True,30
X045K19,16,training,10,↑,up,↑,0.7344975000014529,True,30
X045K19,17,training,10,↑,up,↑,0.6962198999972316,True,30
X045K19,18,training,10,↑,up,↑,0.517288599992753,True,30
X045K19,19,training,10,←,left,←,0.5840019999886863,True,30
X045K19,20,training,10,↓,down,↓,0.8685056000103941,True,30
X045K19,21,training,10,→,left,←,0.5132688999874517,False,18
X045K19,22,training,10,↓,down,↓,1.4177528000000166,True,18
X045K19,23,training,10,↓,up,↑,1.7294702999934088,False,18
X045K19,24,training,10,←,left,←,1.2756924999994226,True,18
X045K19,25,training,10,→,right,→,0.9178515000094194,True,18
X045K19,26,training,10,→,left,←,1.0382353000022704,False,18
X045K19,27,training,10,↑,up,↑,0.9897253999952227,True,18
X045K19,28,training,10,↓,down,↓,0.6791570000059437,True,18
X045K19,29,training,10,↓,down,↓,0.6458608999964781,True,18
X045K19,30,training,10,→,right,→,0.5508246999961557,True,18
X045K19,31,training,180,↑,no_key,no_letter,-1.0,False,15
X045K19,32,training,84,→,right,→,1.3567571000021417,True,15
X045K19,33,training,60,←,left,←,1.383596800005762,True,15
X045K19,34,experiment,180,→,no_key,no_letter,-1.0,False,15
X045K19,35,experiment,84,↓,up,↑,1.8780148999940138,False,15
X045K19,36,experiment,48,↑,right,→,1.8671336999977939,False,15
X045K19,37,experiment,60,↑,up,↑,1.492430999991484,True,15
X045K19,38,experiment,60,←,no_key,no_letter,-1.0,False,15
X045K19,39,experiment,108,→,down,↓,1.0505629000108456,False,15
X045K19,40,experiment,132,←,up,↑,1.8828573000064353,False,15
X045K19,41,experiment,168,↑,left,←,1.1947006999980658,False,15
X045K19,42,experiment,180,→,no_key,no_letter,-1.0,False,15
X045K19,43,experiment,72,←,left,←,0.623439100003452,True,15
X045K19,44,experiment,156,↑,left,←,1.8227355999988504,False,15
X045K19,45,experiment,120,↓,down,↓,0.7524313000030816,True,15
X045K19,46,experiment,180,→,down,↓,1.179451899995911,False,15
X045K19,47,experiment,132,←,left,←,0.6338988000061363,True,15
X045K19,48,experiment,96,→,right,→,0.6895144000009168,True,15
X045K19,49,experiment,144,←,left,←,0.7090811999951256,True,15
X045K19,50,experiment,168,→,right,→,0.5866824999975506,True,15
X045K19,51,experiment,168,→,right,→,0.6266901999915717,True,15
X045K19,52,experiment,144,↓,left,←,0.8083180999965407,False,15
X045K19,53,experiment,180,←,left,←,0.7829995000065537,True,15
X045K19,54,experiment,168,←,left,←,0.46750929999689106,True,15
X045K19,55,experiment,96,↑,up,↑,0.6865398000081768,True,15
X045K19,56,experiment,60,→,left,←,0.9331262999912724,False,15
X045K19,57,experiment,132,←,left,←,0.8074248999910196,True,15
X045K19,58,experiment,12,→,left,←,1.4852954000089085,False,15
X045K19,59,experiment,24,↑,up,↑,0.5116715999902226,True,15
X045K19,60,experiment,108,↓,up,↑,1.2379555000079563,False,15
X045K19,61,experiment,24,←,up,↑,1.3721535000076983,False,15
X045K19,62,experiment,72,↑,up,↑,0.7176954000024125,True,15
X045K19,63,experiment,84,←,up,↑,0.9656757000047946,False,15
X045K19,64,experiment,156,↓,left,←,0.9966004000016255,False,15
X045K19,65,experiment,120,↑,up,↑,0.595770400002948,True,15
X045K19,66,experiment,156,←,left,←,0.6839423000055831,True,15
X045K19,67,experiment,36,←,left,←,1.6218520999973407,True,15
X045K19,68,experiment,132,↓,down,↓,0.6603762000013376,True,15
X045K19,69,experiment,144,↑,up,↑,1.3923421000072267,True,15
X045K19,70,experiment,36,↑,down,↓,0.86047490000783,False,15
X045K19,71,experiment,24,↑,up,↑,0.7684585999959381,True,15
X045K19,72,experiment,72,→,left,←,0.8447244000126375,False,15
X045K19,73,experiment,24,→,up,↑,0.9366458000004059,False,15
X045K19,74,experiment,12,→,down,↓,1.6641438000078779,False,15
X045K19,75,experiment,60,→,right,→,0.612923700013198,True,15
X045K19,76,experiment,108,←,left,←,0.7985939000063809,True,15
X045K19,77,experiment,84,↓,down,↓,0.6511084999947343,True,15
X045K19,78,experiment,120,↑,down,↓,0.8930134999973234,False,15
X045K19,79,experiment,120,←,left,←,0.5034633000032045,True,15
X045K19,80,experiment,48,↑,up,↑,0.5397914000059245,True,15
X045K19,81,experiment,84,↑,up,↑,0.5919408000045223,True,15
X045K19,82,experiment,48,←,down,↓,1.1260872999991989,False,15
X045K19,83,experiment,156,←,left,←,1.022381700007827,True,15
X045K19,84,experiment,36,←,up,↑,0.8995594000007259,False,15
X045K19,85,experiment,72,→,right,→,0.5140364999970188,True,15
X045K19,86,experiment,96,↑,left,←,1.0610101000056602,False,15
X045K19,87,experiment,12,↓,up,↑,0.7271680999983801,False,15
X045K19,88,experiment,12,↓,up,↑,1.4010844000004,False,15
X045K19,89,experiment,36,↓,down,↓,0.5653297999961069,True,15
X045K19,90,experiment,108,↓,up,↑,1.2082857999921544,False,15
X045K19,91,experiment,144,↑,down,↓,1.1024803000036627,False,15
X045K19,92,experiment,96,→,right,→,0.5043195000034757,True,15
X045K19,93,experiment,48,←,left,←,0.9445707999984734,True,15
X045K19,94,training,168,←,left,←,0.5944904000061797,True,16
X045K19,95,training,12,←,left,←,0.5057604000030551,True,16
X045K19,96,training,132,→,left,←,0.7843848000047728,False,16
X045K19,97,experiment,96,↓,up,↑,0.4942003000032855,False,16
X045K19,98,experiment,168,↓,down,↓,0.4506991999951424,True,16
X045K19,99,experiment,180,↑,up,↑,0.638638100004755,True,16
X045K19,100,experiment,48,↓,down,↓,0.4635189000109676,True,16
X045K19,101,experiment,156,↑,up,↑,0.694865999990725,True,16
X045K19,102,experiment,60,↑,left,←,0.9671425999986241,False,16
X045K19,103,experiment,144,↓,down,↓,0.9076414000010118,True,16
X045K19,104,experiment,168,←,up,↑,0.7979129000013927,False,16
X045K19,105,experiment,24,↑,left,←,1.1882621000113431,False,16
X045K19,106,experiment,36,→,right,→,0.5764767000073334,True,16
X045K19,107,experiment,132,↓,down,↓,0.8880567000014707,True,16
X045K19,108,experiment,72,↑,up,↑,0.5132052999979351,True,16
X045K19,109,experiment,36,↑,down,↓,1.0453701999940677,False,16
X045K19,110,experiment,84,↑,up,↑,0.5095335999940289,True,16
X045K19,111,experiment,60,↓,down,↓,0.9108943999890471,True,16
X045K19,112,experiment,108,←,left,←,0.488288200009265,True,16
X045K19,113,experiment,168,↑,up,↑,0.5089217000058852,True,16
X045K19,114,experiment,12,↑,up,↑,0.8167052999924636,True,16
X045K19,115,experiment,132,↓,down,↓,0.6113984999974491,True,16
X045K19,116,experiment,144,→,right,→,0.48843319999286905,True,16
X045K19,117,experiment,24,→,right,→,0.5086203000100795,True,16
X045K19,118,experiment,120,←,left,←,0.5464236999978311,True,16
X045K19,119,experiment,180,↓,down,↓,0.704605700011598,True,16
X045K19,120,experiment,12,←,left,←,1.1161805000010645,True,16
X045K19,121,experiment,12,→,right,→,1.4195792999962578,True,16
X045K19,122,experiment,144,→,left,←,0.9796327999938512,False,16
X045K19,123,experiment,72,↑,down,↓,1.1571220000041649,False,16
X045K19,124,experiment,120,↑,up,↑,0.6171186999999918,True,16
X045K19,125,experiment,180,→,right,→,0.538011099997675,True,16
X045K19,126,experiment,144,→,left,←,0.8172272000083467,False,16
X045K19,127,experiment,108,↑,up,↑,0.9226762999896891,True,16
X045K19,128,experiment,132,↓,up,↑,1.095769300009124,False,16
X045K19,129,experiment,24,←,down,↓,1.8549482000089483,False,16
X045K19,130,experiment,48,←,left,←,1.2678321000130381,True,16
X045K19,131,experiment,156,→,right,→,1.2100189999910071,True,16
X045K19,132,experiment,24,↑,left,←,1.0018649999983609,False,16
X045K19,133,experiment,72,←,down,↓,1.554126199989696,False,16
X045K19,134,experiment,60,↓,down,↓,0.6407240999978967,True,16
X045K19,135,experiment,132,→,right,→,0.5356372999958694,True,16
X045K19,136,experiment,84,→,right,→,0.9639374999969732,True,16
X045K19,137,experiment,84,→,down,↓,1.000181800001883,False,16
X045K19,138,experiment,108,↓,down,↓,0.502536300002248,True,16
X045K19,139,experiment,120,→,down,↓,0.9972345999995014,False,16
X045K19,140,experiment,180,→,up,↑,1.867700100003276,False,16
X045K19,141,experiment,72,←,left,←,0.499342399998568,True,16
X045K19,142,experiment,108,↓,down,↓,1.1069100000022445,True,16
X045K19,143,experiment,48,←,left,←,0.8456213000026764,True,16
X045K19,144,experiment,96,↑,up,↑,1.1818457000044873,True,16
X045K19,145,experiment,96,↓,down,↓,1.4513710000028368,True,16
X045K19,146,experiment,96,↑,up,↑,0.5604315000091447,True,16
X045K19,147,experiment,168,←,up,↑,0.8347933999903034,False,16
X045K19,148,experiment,84,→,left,←,0.4862704999977723,False,16
X045K19,149,experiment,156,↑,up,↑,0.5641785999905551,True,16
X045K19,150,experiment,36,↓,down,↓,0.7134103999997023,True,16
X045K19,151,experiment,60,↑,up,↑,0.8192907999909949,True,16
X045K19,152,experiment,120,←,left,←,0.7194600999937393,True,16
X045K19,153,experiment,36,←,up,↑,1.391793000002508,False,16
X045K19,154,experiment,48,←,left,←,0.5853152999916347,True,16
X045K19,155,experiment,12,←,left,←,0.8452662999916356,True,16
X045K19,156,experiment,156,→,up,↑,0.8789237999881152,False,16
X045K19,157,training,168,↑,left,←,0.7730150999996113,False,16
X045K19,158,training,24,→,right,→,0.4533464999985881,True,16
X045K19,159,training,84,→,right,→,0.5234195000084583,True,16
X045K19,160,experiment,72,→,left,←,0.7361614999972517,False,16
X045K19,161,experiment,168,↓,down,↓,1.0576247999997577,True,16
X045K19,162,experiment,36,↑,left,←,0.8038228000077652,False,16
X045K19,163,experiment,156,→,up,↑,0.748007799993502,False,16
X045K19,164,experiment,108,↓,down,↓,0.7770745000016177,True,16
X045K19,165,experiment,48,→,right,→,0.6731500999885611,True,16
X045K19,166,experiment,12,↓,right,→,1.3041721000045072,False,16
X045K19,167,experiment,168,→,right,→,0.8254398999997647,True,16
X045K19,168,experiment,144,←,left,←,0.48891839999123476,True,16
X045K19,169,experiment,144,↓,down,↓,0.7274552999879234,True,16
X045K19,170,experiment,36,←,left,←,0.49612519999209326,True,16
X045K19,171,experiment,120,←,left,←,0.4922503000125289,True,16
X045K19,172,experiment,168,→,right,→,0.509002299993881,True,16
X045K19,173,experiment,12,→,right,→,0.6474930999975186,True,16
X045K19,174,experiment,180,↑,down,↓,0.9551514000049792,False,16
X045K19,175,experiment,132,←,no_key,no_letter,-1.0,False,16
X045K19,176,experiment,144,←,left,←,0.7268301000003703,True,16
X045K19,177,experiment,156,↑,down,↓,0.9814441000053193,False,16
X045K19,178,experiment,72,↑,up,↑,0.504218200003379,True,16
X045K19,179,experiment,96,↓,down,↓,0.7612637999991421,True,16
X045K19,180,experiment,120,↑,up,↑,0.6642996000009589,True,16
X045K19,181,experiment,24,←,left,←,0.8166334999987157,True,16
X045K19,182,experiment,96,←,down,↓,1.2068205999967176,False,16
X045K19,183,experiment,108,↑,up,↑,0.7597927000024356,True,16
X045K19,184,experiment,180,↓,down,↓,0.5427528000000166,True,16
X045K19,185,experiment,60,→,up,↑,0.9836160999984713,False,16
X045K19,186,experiment,24,↓,down,↓,0.6545087999984389,True,16
X045K19,187,experiment,36,↑,up,↑,0.5211441999999806,True,16
X045K19,188,experiment,24,→,down,↓,0.9450944999989588,False,16
X045K19,189,experiment,60,→,left,←,0.9209318999928655,False,16
X045K19,190,experiment,156,→,right,→,0.8534278000006452,True,16
X045K19,191,experiment,84,↓,left,←,0.9066215000057127,False,16
X045K19,192,experiment,24,↓,down,↓,0.7642960999946808,True,16
X045K19,193,experiment,132,↓,right,→,1.297773900005268,False,16
X045K19,194,experiment,120,←,left,←,0.529256499998155,True,16
X045K19,195,experiment,60,←,right,→,1.0490542000043206,False,16
X045K19,196,experiment,132,↑,down,↓,0.910038700007135,False,16
X045K19,197,experiment,96,←,up,↑,0.9004260000074282,False,16
X045K19,198,experiment,60,→,right,→,0.7745447999914177,True,16
X045K19,199,experiment,180,→,left,←,0.8456427000055555,False,16
X045K19,200,experiment,84,←,left,←,0.7436448999942513,True,16
X045K19,201,experiment,120,←,left,←,0.6686271999933524,True,16
X045K19,202,experiment,48,↓,down,↓,0.9685644000128377,True,16
X045K19,203,experiment,12,←,left,←,0.6274926999903983,True,16
X045K19,204,experiment,72,→,left,←,0.8781295000080718,False,16
X045K19,205,experiment,168,→,right,→,0.917996200005291,True,16
X045K19,206,experiment,12,→,down,↓,0.9127668000000995,False,16
X045K19,207,experiment,48,↑,up,↑,0.5834346000046935,True,16
X045K19,208,experiment,144,←,left,←,1.1360481000010623,True,16
X045K19,209,experiment,84,↓,down,↓,0.6349906999967061,True,16
X045K19,210,experiment,132,←,right,→,1.0451125999970827,False,16
X045K19,211,experiment,84,←,no_key,no_letter,-1.0,False,16
X045K19,212,experiment,156,→,up,↑,1.0640525000053458,False,16
X045K19,213,experiment,72,↑,up,↑,0.4637287999939872,True,16
X045K19,214,experiment,36,↓,down,↓,1.2254087000037543,True,16
X045K19,215,experiment,180,←,left,←,0.47807329999341164,True,16
X045K19,216,experiment,96,←,left,←,0.4559791000065161,True,16
X045K19,217,experiment,108,↓,right,→,0.8841801999951713,False,16
X045K19,218,experiment,108,→,left,←,0.861127199998009,False,16
X045K19,219,experiment,48,↑,up,↑,0.460822900000494,True,16
X045K19,220,training,12,←,left,←,1.5527025000046706,True,16
X045K19,221,training,72,↑,up,↑,1.0193613000010373,True,16
X045K19,222,training,120,→,left,←,0.5096640999981901,False,16
X045K19,223,experiment,108,←,left,←,0.367234900011681,True,16
X045K19,224,experiment,12,→,right,→,0.6024979000067106,True,16
X045K19,225,experiment,48,←,up,↑,1.2298542000062298,False,16
X045K19,226,experiment,72,↓,down,↓,0.78355819999706,True,16
X045K19,227,experiment,168,→,left,←,0.974017400003504,False,16
X045K19,228,experiment,48,↑,down,↓,0.896832100013853,False,16
X045K19,229,experiment,84,↑,up,↑,0.4592734999896493,True,16
X045K19,230,experiment,36,←,left,←,0.6887694000033662,True,16
X045K19,231,experiment,96,←,left,←,0.4600524999987101,True,16
X045K19,232,experiment,180,↓,down,↓,0.56545370000822,True,16
X045K19,233,experiment,180,←,left,←,0.651314699993236,True,16
X045K19,234,experiment,180,←,left,←,0.9171054999897024,True,16
X045K19,235,experiment,36,↓,down,↓,0.5118470000015805,True,16
X045K19,236,experiment,48,←,left,←,1.1912451999960467,True,16
X045K19,237,experiment,132,→,right,→,0.52705029999197,True,16
X045K19,238,experiment,24,↑,up,↑,0.5016366000054404,True,16
X045K19,239,experiment,180,↑,up,↑,0.5005066000012448,True,16
X045K19,240,experiment,24,→,down,↓,0.9841927999950713,False,16
X045K19,241,experiment,24,←,left,←,0.9749177000048803,True,16
X045K19,242,experiment,156,↓,right,→,1.0758107000001473,False,16
X045K19,243,experiment,60,←,left,←,0.5135433999967063,True,16
X045K19,244,experiment,144,↑,down,↓,1.079028299995116,False,16
X045K19,245,experiment,108,↓,down,↓,0.8952637000038521,True,16
X045K19,246,experiment,120,→,right,→,0.7246646999992663,True,16
X045K19,247,experiment,144,→,right,→,0.4468057000049157,True,16
X045K19,248,experiment,60,↑,left,←,0.8816866999986814,False,16
X045K19,249,experiment,168,↑,up,↑,0.894051600000239,True,16
X045K19,250,experiment,96,→,right,→,1.424269600000116,True,16
X045K19,251,experiment,120,↑,up,↑,0.5508945000037784,True,16
X045K19,252,experiment,72,→,right,→,0.9658514000038849,True,16
X045K19,253,experiment,72,↓,down,↓,1.59906609999598,True,16
X045K19,254,experiment,84,←,down,↓,1.0725226000067778,False,16
X045K19,255,experiment,144,←,left,←,0.504568799995468,True,16
X045K19,256,experiment,156,↑,up,↑,1.6133651999989524,True,16
X045K19,257,experiment,84,←,down,↓,0.9879035999911139,False,16
X045K19,258,experiment,12,↓,left,←,1.4660372999933315,False,16
X045K19,259,experiment,12,→,left,←,1.4660204000101658,False,16
X045K19,260,experiment,12,→,down,↓,1.5730822000041371,False,16
X045K19,261,experiment,84,←,left,←,0.5505622000055155,True,16
X045K19,262,experiment,108,↓,down,↓,0.6153722000017297,True,16
X045K19,263,experiment,168,→,left,←,0.924723800009815,False,16
X045K19,264,experiment,120,→,left,←,0.8020338000060292,False,16
X045K19,265,experiment,96,↓,down,↓,0.7648373000120046,True,16
X045K19,266,experiment,132,←,left,←,0.5199840999994194,True,16
X045K19,267,experiment,36,↑,up,↑,0.5507823999942048,True,16
X045K19,268,experiment,96,←,right,→,1.165559500004747,False,16
X045K19,269,experiment,60,←,up,↑,1.2362012999947183,False,16
X045K19,270,experiment,156,←,up,↑,1.243156500000623,False,16
X045K19,271,experiment,144,↑,up,↑,0.9627955000032671,True,16
X045K19,272,experiment,156,↑,up,↑,0.619617800010019,True,16
X045K19,273,experiment,24,←,left,←,0.5874050999991596,True,16
X045K19,274,experiment,72,←,left,←,0.7574866000068141,True,16
X045K19,275,experiment,36,↓,up,↑,0.9390049000066938,False,16
X045K19,276,experiment,132,↓,down,↓,0.6074085000000196,True,16
X045K19,277,experiment,120,↑,up,↑,0.5117911999986973,True,16
X045K19,278,experiment,168,→,right,→,0.5876838999975007,True,16
X045K19,279,experiment,108,↓,down,↓,1.3396710000088206,True,16
X045K19,280,experiment,60,↑,up,↑,1.0726802999997744,True,16
X045K19,281,experiment,132,↓,down,↓,1.001874299996416,True,16
X045K19,282,experiment,48,↑,up,↑,0.6688375000085216,True,16
X045K19,283,training,168,↓,left,←,0.9921472999994876,False,16
X045K19,284,training,144,↓,right,→,1.245929700002307,False,16
X045K19,285,training,48,←,left,←,0.5176689000072656,True,16
X045K19,286,experiment,144,←,right,→,1.071167999994941,False,16
X045K19,287,experiment,60,↑,up,↑,0.981427699996857,True,16
X045K19,288,experiment,120,↓,down,↓,1.34657629999856,True,16
X045K19,289,experiment,36,↓,down,↓,0.848646699989331,True,16
X045K19,290,experiment,96,↑,down,↓,1.0106975000089733,False,16
X045K19,291,experiment,84,↓,up,↑,0.8545436999993399,False,16
X045K19,292,experiment,60,←,up,↑,1.2748726999998325,False,16
X045K19,293,experiment,120,↓,no_key,no_letter,-1.0,False,16
X045K19,294,experiment,12,→,down,↓,1.8041607000050135,False,16
X045K19,295,experiment,132,→,right,→,1.5136079999938374,True,16
X045K19,296,experiment,156,↑,down,↓,1.2199553000100423,False,16
X045K19,297,experiment,48,↓,down,↓,0.6609045000077458,True,16
X045K19,298,experiment,24,↑,up,↑,0.5727499000058742,True,16
X045K19,299,experiment,60,↓,left,←,1.4297137999965344,False,16
X045K19,300,experiment,156,↓,down,↓,0.6380513000040082,True,16
X045K19,301,experiment,120,←,down,↓,0.7642131000029622,False,16
X045K19,302,experiment,96,→,right,→,0.8287928999925498,True,16
X045K19,303,experiment,36,←,left,←,0.7977050999907078,True,16
X045K19,304,experiment,36,←,left,←,0.49792309998883866,True,16
X045K19,305,experiment,12,↑,up,↑,0.6157280000043102,True,16
X045K19,306,experiment,168,↑,up,↑,1.0111713999940548,True,16
X045K19,307,experiment,144,←,left,←,0.4401316000003135,True,16
X045K19,308,experiment,24,→,right,→,0.6772924000106286,True,16
X045K19,309,experiment,180,←,no_key,no_letter,-1.0,False,16
X045K19,310,experiment,84,←,right,→,0.7910437999962596,False,16
X045K19,311,experiment,12,→,left,←,0.7522086999961175,False,16
X045K19,312,experiment,120,→,down,↓,1.3275877999985823,False,16
X045K19,313,experiment,24,↑,no_key,no_letter,-1.0,False,16
X045K19,314,experiment,132,→,right,→,0.5660729000082938,True,16
X045K19,315,experiment,108,↓,down,↓,0.7117966999940109,True,16
X045K19,316,experiment,156,→,right,→,0.4522709000011673,True,16
X045K19,317,experiment,108,↓,down,↓,0.6604169000056572,True,16
X045K19,318,experiment,168,↑,down,↓,1.1724742999940645,False,16
X045K19,319,experiment,144,→,left,←,0.8348557999997865,False,16
X045K19,320,experiment,180,→,down,↓,0.8243034000042826,False,16
X045K19,321,experiment,72,←,no_key,no_letter,-1.0,False,16
X045K19,322,experiment,36,→,down,↓,0.8199308000039309,False,16
X045K19,323,experiment,12,↓,up,↑,0.715970200006268,False,16
X045K19,324,experiment,24,→,right,→,0.495026799995685,True,16
X045K19,325,experiment,48,→,left,←,0.8148698000004515,False,16
X045K19,326,experiment,96,↓,up,↑,0.9255839999968885,False,16
X045K19,327,experiment,96,↓,down,↓,1.2849873999948613,True,16
X045K19,328,experiment,156,↑,up,↑,0.5118921999965096,True,16
X045K19,329,experiment,180,→,right,→,0.49941030000627507,True,16
X045K19,330,experiment,84,←,right,→,0.8281146999943303,False,16
X045K19,331,experiment,168,↑,up,↑,0.5293380999937654,True,16
X045K19,332,experiment,48,←,left,←,0.4706531999981962,True,16
X045K19,333,experiment,108,←,left,←,0.4770328999875346,True,16
X045K19,334,experiment,168,←,right,→,0.8885033000115072,False,16
X045K19,335,experiment,144,→,left,←,0.8600968999962788,False,16
X045K19,336,experiment,84,→,up,↑,0.92175930000667,False,16
X045K19,337,experiment,48,→,left,←,0.6233812999998918,False,16
X045K19,338,experiment,108,→,left,←,0.7932979000033811,False,16
X045K19,339,experiment,72,↑,down,↓,1.3851354999933392,False,16
X045K19,340,experiment,132,←,up,↑,0.7217159000138054,False,16
X045K19,341,experiment,180,↓,down,↓,0.6295054000074742,True,16
X045K19,342,experiment,60,↑,up,↑,0.5895644999982323,True,16
X045K19,343,experiment,72,←,left,←,0.8703337000042666,True,16
X045K19,344,experiment,72,↓,up,↑,1.3432021000044188,False,16
X045K19,345,experiment,132,↑,up,↑,0.45524830000067595,True,16
X045K19,346,training,168,↑,up,↑,0.9221561000013025,True,17
X045K19,347,training,60,↑,up,↑,0.506376100005582,True,17
X045K19,348,training,84,→,up,↑,1.0833576000004541,False,17
X045K19,349,experiment,120,→,up,↑,1.395688999997219,False,17
X045K19,350,experiment,120,→,right,→,0.5046404999884544,True,17
X045K19,351,experiment,156,→,right,→,0.4938421999977436,True,17
X045K19,352,experiment,132,←,left,←,0.7548277000023518,True,17
X045K19,353,experiment,72,↓,down,↓,0.9527461999969091,True,17
X045K19,354,experiment,60,←,left,←,0.8326713999995263,True,17
X045K19,355,experiment,24,↑,up,↑,0.8198418999963906,True,17
X045K19,356,experiment,48,→,left,←,0.8302445000008447,False,17
X045K19,357,experiment,96,↑,up,↑,0.4942743999999948,True,17
X045K19,358,experiment,36,↓,down,↓,0.8996985999983735,True,17
X045K19,359,experiment,156,→,right,→,1.2029918000043835,True,17
X045K19,360,experiment,156,↓,up,↑,0.9439163000060944,False,17
X045K19,361,experiment,36,→,right,→,0.49558460000844207,True,17
X045K19,362,experiment,96,↑,left,←,0.9830860999936704,False,17
X045K19,363,experiment,144,→,up,↑,0.751892999993288,False,17
X045K19,364,experiment,144,↑,up,↑,0.5539924000040628,True,17
X045K19,365,experiment,96,↑,up,↑,0.40064919998985715,True,17
X045K19,366,experiment,84,↓,up,↑,1.1162953000020934,False,17
X045K19,367,experiment,108,↓,down,↓,0.6208943000092404,True,17
X045K19,368,experiment,144,↓,down,↓,0.8013014000025578,True,17
X045K19,369,experiment,24,↑,up,↑,0.62676630000351,True,17
X045K19,370,experiment,168,→,right,→,0.5441203999944264,True,17
X045K19,371,experiment,24,↑,up,↑,0.8826527999917744,True,17
X045K19,372,experiment,120,←,down,↓,0.9451339000079315,False,17
X045K19,373,experiment,84,←,right,→,0.9881020000029821,False,17
X045K19,374,experiment,180,←,left,←,0.7269937999953981,True,17
X045K19,375,experiment,72,↑,down,↓,1.1493586000142386,False,17
X045K19,376,experiment,96,↓,down,↓,0.7386265000095591,True,17
X045K19,377,experiment,12,→,up,↑,1.2073253999988083,False,17
X045K19,378,experiment,156,←,left,←,0.4693468000041321,True,17
X045K19,379,experiment,48,↓,right,→,1.1093030000047293,False,17
X045K19,380,experiment,24,→,left,←,1.127781999995932,False,17
X045K19,381,experiment,72,↓,down,↓,0.8987978999939514,True,17
X045K19,382,experiment,12,↑,down,↓,1.1541167999967001,False,17
X045K19,383,experiment,108,↑,up,↑,1.3117480000073556,True,17
X045K19,384,experiment,36,→,right,→,1.5148680999991484,True,17
X045K19,385,experiment,168,←,left,←,1.279101799998898,True,17
X045K19,386,experiment,180,↓,down,↓,0.644865900001605,True,17
X045K19,387,experiment,36,←,left,←,0.6310306999948807,True,17
X045K19,388,experiment,84,←,left,←,0.5789108000026317,True,17
X045K19,389,experiment,60,→,right,→,0.4816848000045866,True,17
X045K19,390,experiment,132,↓,down,↓,0.4557364999927813,True,17
X045K19,391,experiment,84,↓,down,↓,0.6664947999961441,True,17
X045K19,392,experiment,168,↑,up,↑,0.6480434999975841,True,17
X045K19,393,experiment,180,↓,down,↓,0.9670126999990316,True,17
X045K19,394,experiment,132,→,up,↑,0.7997393000114243,False,17
X045K19,395,experiment,144,→,right,→,0.4916083999996772,True,17
X045K19,396,experiment,168,→,right,→,0.467915000001085,True,17
X045K19,397,experiment,108,←,left,←,0.7521627000096487,True,17
X045K19,398,experiment,12,←,right,→,0.9967451999982586,False,17
X045K19,399,experiment,48,→,up,↑,0.839328200003365,False,17
X045K19,400,experiment,60,→,right,→,0.553406899998663,True,17
X045K19,401,experiment,60,↓,left,←,1.3594392999948468,False,17
X045K19,402,experiment,48,↓,down,↓,0.6299350000044797,True,17
X045K19,403,experiment,120,↑,up,↑,0.40048130000650417,True,17
X045K19,404,experiment,12,↓,down,↓,0.5569094000093173,True,17
X045K19,405,experiment,72,→,right,→,0.5360807000106433,True,17
X045K19,406,experiment,132,←,left,←,0.6081159000023035,True,17
X045K19,407,experiment,108,↓,down,↓,0.74766140000429,True,17
X045K19,408,experiment,180,→,down,↓,0.9935248000110732,False,17
X045K19,409,training,12,←,right,→,1.1746875999961048,False,17
X045K19,410,training,24,↓,down,↓,0.7200927999947453,True,17
X045K19,411,training,72,→,right,→,1.2513928999978816,True,17
X045K19,412,experiment,156,↑,up,↑,0.6625468999991426,True,17
X045K19,413,experiment,144,↓,down,↓,0.7583712000050582,True,17
X045K19,414,experiment,24,↓,up,↑,0.8538993999973172,False,17
X045K19,415,experiment,132,↓,down,↓,0.4623093999980483,True,17
X045K19,416,experiment,96,→,down,↓,0.7269310999981826,False,17
X045K19,417,experiment,60,←,left,←,0.7175664999958826,True,17
X045K19,418,experiment,60,↑,up,↑,0.9861398999928497,True,17
X045K19,419,experiment,132,↑,up,↑,0.5773772999964422,True,17
X045K19,420,experiment,120,←,left,←,0.6608277999912389,True,17
X045K19,421,experiment,144,→,right,→,0.6325977999949828,True,17
X045K19,422,experiment,144,→,right,→,0.6802829999942333,True,17
X045K19,423,experiment,120,←,left,←,0.5884171000070637,True,17
X045K19,424,experiment,108,↓,down,↓,0.7355105000024196,True,17
X045K19,425,experiment,108,↓,down,↓,0.5729201000067405,True,17
X045K19,426,experiment,12,←,right,→,0.8410290000028908,False,17
X045K19,427,experiment,168,↓,down,↓,0.5574463000084506,True,17
X045K19,428,experiment,84,→,right,→,0.6169074999925215,True,17
X045K19,429,experiment,96,↑,up,↑,0.697057199999108,True,17
X045K19,430,experiment,132,↓,down,↓,0.6327239999955054,True,17
X045K19,431,experiment,12,↓,left,←,1.0144010999938473,False,17
X045K19,432,experiment,96,↑,up,↑,0.7028615000017453,True,17
X045K19,433,experiment,168,→,right,→,0.5103117999969982,True,17
X045K19,434,experiment,180,←,left,←,0.4626923000032548,True,17
X045K19,435,experiment,60,↓,up,↑,0.9085198999964632,False,17
X045K19,436,experiment,96,←,left,←,0.36732089999713935,True,17
X045K19,437,experiment,168,↓,down,↓,0.8459310000034748,True,17
X045K19,438,experiment,108,↓,down,↓,0.7022831000067526,True,17
X045K19,439,experiment,72,↓,up,↑,0.9277075999998488,False,17
X045K19,440,experiment,84,→,right,→,0.5008804999961285,True,17
X045K19,441,experiment,36,→,right,→,0.4660338999965461,True,17
X045K19,442,experiment,180,←,left,←,0.6376251999899978,True,17
X045K19,443,experiment,168,←,right,→,0.7591835000057472,False,17
X045K19,444,experiment,180,↓,down,↓,0.9192670000047656,True,17
X045K19,445,experiment,12,↑,up,↑,0.7932093999988865,True,17
X045K19,446,experiment,72,↑,up,↑,0.46446519999881275,True,17
X045K19,447,experiment,72,←,down,↓,0.9840277999901446,False,17
X045K19,448,experiment,156,←,left,←,1.011970300009125,True,17
X045K19,449,experiment,84,↓,down,↓,0.4948199000064051,True,17
X045K19,450,experiment,36,→,right,→,0.5686015999963274,True,17
X045K19,451,experiment,108,↓,right,→,0.9543050000065705,False,17
X045K19,452,experiment,12,→,left,←,0.5916219000064302,False,17
X045K19,453,experiment,120,↑,down,↓,0.8248185999982525,False,17
X045K19,454,experiment,72,↓,up,↑,0.7580570999998599,False,17
X045K19,455,experiment,24,↑,up,↑,0.5101712999894517,True,17
X045K19,456,experiment,156,→,up,↑,0.7878134000056889,False,17
X045K19,457,experiment,48,→,up,↑,0.7220741999917664,False,17
X045K19,458,experiment,48,↓,up,↑,0.8387056999927154,False,17
X045K19,459,experiment,120,→,right,→,0.9264705000096001,True,17
X045K19,460,experiment,180,↑,no_key,no_letter,-1.0,False,17
X045K19,461,experiment,132,↑,up,↑,0.9902275999920676,True,17
X045K19,462,experiment,48,→,right,→,0.4642242999980226,True,17
X045K19,463,experiment,48,↓,down,↓,0.7678672000038205,True,17
X045K19,464,experiment,84,→,down,↓,1.34018699999433,False,17
X045K19,465,experiment,144,←,left,←,0.5184078000020236,True,17
X045K19,466,experiment,24,→,right,→,1.1087697000039043,True,17
X045K19,467,experiment,156,→,up,↑,0.9113809999980731,False,17
X045K19,468,experiment,36,→,right,→,0.944420399988303,True,17
X045K19,469,experiment,36,↑,up,↑,0.47176739999849815,True,17
X045K19,470,experiment,24,←,left,←,0.46635699999751523,True,17
X045K19,471,experiment,60,↓,down,↓,0.4735369000118226,True,17
X045K19,472,training,60,↓,down,↓,0.7048311000107788,True,17
X045K19,473,training,60,↑,up,↑,0.4872578000067733,True,17
X045K19,474,training,60,→,right,→,0.8026574999967124,True,17
X045K19,475,experiment,12,←,down,↓,0.8334622999973362,False,17
X045K19,476,experiment,96,→,right,→,0.4942964999936521,True,17
X045K19,477,experiment,144,→,right,→,0.5376115999970352,True,17
X045K19,478,experiment,48,↓,right,→,0.9387205999955768,False,17
X045K19,479,experiment,120,→,right,→,1.3771272000012686,True,17
X045K19,480,experiment,96,↓,down,↓,0.6660265999962576,True,17
X045K19,481,experiment,12,→,up,↑,0.7991028999967966,False,17
X045K19,482,experiment,168,↑,up,↑,0.8019864999951096,True,17
X045K19,483,experiment,60,↓,down,↓,0.7866400000057183,True,17
X045K19,484,experiment,96,↓,down,↓,1.2860490000020945,True,17
X045K19,485,experiment,132,↓,down,↓,0.6497630999947432,True,17
X045K19,486,experiment,120,→,right,→,0.7396792999934405,True,17
X045K19,487,experiment,108,↓,down,↓,0.5669034000020474,True,17
X045K19,488,experiment,12,↓,up,↑,0.8390077999938512,False,17
X045K19,489,experiment,120,←,down,↓,1.0771386999986134,False,17
X045K19,490,experiment,48,→,right,→,0.7686181000026409,True,17
X045K19,491,experiment,108,→,right,→,0.514476399999694,True,17
X045K19,492,experiment,120,←,right,→,1.0197909999988042,False,17
X045K19,493,experiment,180,←,left,←,0.7357972000027075,True,17
X045K19,494,experiment,72,↑,up,↑,0.7038920000049984,True,17
X045K19,495,experiment,132,←,left,←,0.5278381000098307,True,17
X045K19,496,experiment,48,↑,down,↓,0.9509786000126041,False,17
X045K19,497,experiment,156,→,right,→,0.49990080000134185,True,17
X045K19,498,experiment,84,←,left,←,0.4821548000036273,True,17
X045K19,499,experiment,24,↓,down,↓,0.694101100001717,True,17
X045K19,500,experiment,168,←,left,←,0.7988422999915201,True,17
X045K19,501,experiment,72,←,up,↑,0.8998357999953441,False,17
X045K19,502,experiment,108,↑,up,↑,0.547792199999094,True,17
X045K19,503,experiment,156,→,right,→,0.6158845999889309,True,17
X045K19,504,experiment,36,→,left,←,0.8046933000005083,False,17
X045K19,505,experiment,36,↑,right,→,1.1198928000085289,False,17
X045K19,506,experiment,60,↓,down,↓,0.7060637999966275,True,17
X045K19,507,experiment,84,←,left,←,0.6133999000012409,True,17
X045K19,508,experiment,36,←,left,←,0.6684071000054246,True,17
X045K19,509,experiment,72,↑,up,↑,0.5075703000038629,True,17
X045K19,510,experiment,108,↑,down,↓,1.1057447999919532,False,17
X045K19,511,experiment,96,↓,down,↓,0.5522364999924321,True,17
X045K19,512,experiment,168,↑,down,↓,1.1862694000010379,False,17
X045K19,513,experiment,132,↑,up,↑,0.4633943999942858,True,17
X045K19,514,experiment,48,←,left,←,0.5538442999968538,True,17
X045K19,515,experiment,144,←,left,←,0.4172603000042727,True,17
X045K19,516,experiment,60,←,left,←,0.8976493000081973,True,17
X045K19,517,experiment,180,↑,up,↑,0.6428711000044132,True,17
X045K19,518,experiment,60,←,left,←,0.5431409000011627,True,17
X045K19,519,experiment,24,→,up,↑,0.9734275000082562,False,17
X045K19,520,experiment,168,↑,up,↑,1.1947175999957835,True,17
X045K19,521,experiment,144,↓,down,↓,0.7071591000130866,True,17
X045K19,522,experiment,12,←,up,↑,0.7991163000115193,False,17
X045K19,523,experiment,156,↑,up,↑,0.7429791999893496,True,17
X045K19,524,experiment,84,←,left,←,0.659423599994625,True,17
X045K19,525,experiment,72,→,right,→,0.6165615000063553,True,17
X045K19,526,experiment,36,↑,down,↓,0.7674104999896372,False,17
X045K19,527,experiment,180,→,right,→,0.49971390000428073,True,17
X045K19,528,experiment,132,↓,down,↓,0.7134210000076564,True,17
X045K19,529,experiment,84,→,right,→,0.8770679000008386,True,17
X045K19,530,experiment,156,↑,up,↑,0.4616023000126006,True,17
X045K19,531,experiment,24,↓,down,↓,0.4543005999876186,True,17
X045K19,532,experiment,144,→,up,↑,0.4173814000096172,False,17
X045K19,533,experiment,180,↓,down,↓,0.7848967999889283,True,17
X045K19,534,experiment,24,←,left,←,0.6605928000062704,True,17
X045K19,535,training,132,↑,up,↑,0.8077543999970658,True,17
X045K19,536,training,132,↓,up,↑,0.9637839000060922,False,17
X045K19,537,training,96,↑,up,↑,0.4174487999989651,True,17
X045K19,538,experiment,180,↓,down,↓,1.0440162000013515,True,17
X045K19,539,experiment,84,→,right,→,0.47258899999724235,True,17
X045K19,540,experiment,84,→,left,←,0.7460815999947954,False,17
X045K19,541,experiment,132,→,right,→,1.023448299994925,True,17
X045K19,542,experiment,96,↓,up,↑,0.6699087000015425,False,17
X045K19,543,experiment,120,→,right,→,0.46531070000492036,True,17
X045K19,544,experiment,168,→,right,→,0.6786558000021614,True,17
X045K19,545,experiment,48,↑,up,↑,0.47274350000952836,True,17
X045K19,546,experiment,60,↓,down,↓,1.053497500004596,True,17
X045K19,547,experiment,48,↓,down,↓,0.6120667000068352,True,17
X045K19,548,experiment,36,←,left,←,1.0469555000017863,True,17
X045K19,549,experiment,96,←,left,←,0.7417139000026509,True,17
X045K19,550,experiment,144,←,left,←,0.7638567999965744,True,17
X045K19,551,experiment,60,→,up,↑,0.7348637000104645,False,17
X045K19,552,experiment,180,↑,up,↑,1.1212379999924451,True,17
X045K19,553,experiment,72,←,up,↑,0.8497760000027483,False,17
X045K19,554,experiment,156,←,left,←,0.48147999998764135,True,17
X045K19,555,experiment,168,→,right,→,0.8506198999966728,True,17
X045K19,556,experiment,180,↓,down,↓,0.7179325000033714,True,17
X045K19,557,experiment,132,↑,up,↑,0.49773639999330044,True,17
X045K19,558,experiment,24,←,left,←,0.8447098000033293,True,17
X045K19,559,experiment,48,←,left,←,0.847575699997833,True,17
X045K19,560,experiment,108,↓,down,↓,0.7753399999928661,True,17
X045K19,561,experiment,120,→,down,↓,0.8004461999953492,False,17
X045K19,562,experiment,24,↓,down,↓,0.9075852999958443,True,17
X045K19,563,experiment,96,→,left,←,0.6728142000065418,False,17
X045K19,564,experiment,48,←,right,→,0.801785599993309,False,17
X045K19,565,experiment,108,↑,up,↑,0.567849799990654,True,17
X045K19,566,experiment,12,↑,down,↓,0.7560154999955557,False,17
X045K19,567,experiment,108,→,left,←,0.7103831999993417,False,17
X045K19,568,experiment,144,↑,left,←,0.8228124000015669,False,17
X045K19,569,experiment,132,↓,down,↓,0.9903168000018923,True,17
X045K19,570,experiment,12,←,left,←,0.5619405000034021,True,17
X045K19,571,experiment,132,←,left,←,0.4581341000011889,True,17
X045K19,572,experiment,108,←,left,←,0.46768609998980537,True,17
X045K19,573,experiment,96,↑,left,←,0.9723864999978105,False,17
X045K19,574,experiment,168,↑,left,←,0.801017400008277,False,17
X045K19,575,experiment,120,↓,down,↓,0.612957200006349,True,17
X045K19,576,experiment,72,←,left,←,0.4965498999954434,True,17
X045K19,577,experiment,72,→,right,→,0.5582032000093022,True,17
X045K19,578,experiment,60,↓,down,↓,0.8779144000000088,True,17
X045K19,579,experiment,144,↓,down,↓,0.5410193999996409,True,17
X045K19,580,experiment,36,←,left,←,0.5349554999993416,True,17
X045K19,581,experiment,36,↓,down,↓,0.5588838000112446,True,17
X045K19,582,experiment,144,↑,up,↑,0.7185423000046285,True,17
X045K19,583,experiment,72,↓,down,↓,0.9264105000038398,True,17
X045K19,584,experiment,36,←,left,←,0.5744663000077708,True,17
X045K19,585,experiment,156,↓,down,↓,0.889090299999225,True,17
X045K19,586,experiment,84,↑,up,↑,0.7820789999968838,True,17
X045K19,587,experiment,24,↑,down,↓,0.865163800001028,False,17
X045K19,588,experiment,12,↓,up,↑,0.8055617000063648,False,17
X045K19,589,experiment,12,↓,down,↓,1.9191233000019565,True,17
X045K19,590,experiment,156,→,up,↑,0.6923363999958383,False,17
X045K19,591,experiment,156,↑,up,↑,0.8002908000053139,True,17
X045K19,592,experiment,120,↑,up,↑,0.4952200999978231,True,17
X045K19,593,experiment,60,→,left,←,0.7857222000020556,False,17
X045K19,594,experiment,180,→,right,→,0.5292060999927344,True,17
X045K19,595,experiment,168,→,right,→,1.0628206999972463,True,17
X045K19,596,experiment,24,→,left,←,0.7570479999994859,False,17
X045K19,597,experiment,84,←,left,←,0.9592441999993753,True,17
X045K19,598,training,96,←,left,←,0.7118962000095053,True,17
X045K19,599,training,24,↓,up,↑,0.8167054000077769,False,17
X045K19,600,training,36,←,left,←,0.4003867999999784,True,17
X045K19,601,experiment,132,→,right,→,0.40083660000527743,True,17
X045K19,602,experiment,180,↓,up,↑,0.6690305999945849,False,17
X045K19,603,experiment,156,↑,up,↑,0.6264608000055887,True,17
X045K19,604,experiment,36,↑,up,↑,0.6994207999960054,True,17
X045K19,605,experiment,84,→,up,↑,1.3549463999952422,False,17
X045K19,606,experiment,24,←,left,←,1.1227610999922035,True,17
X045K19,607,experiment,120,←,left,←,0.8349923999921884,True,17
X045K19,608,experiment,144,→,right,→,0.9518922999995993,True,17
X045K19,609,experiment,168,↓,down,↓,0.7038025999936508,True,17
X045K19,610,experiment,72,→,down,↓,1.2885079999978188,False,17
X045K19,611,experiment,156,←,left,←,0.5730489999987185,True,17
X045K19,612,experiment,36,↓,down,↓,0.6163335000019288,True,17
X045K19,613,experiment,84,→,right,→,0.9270824000122957,True,17
X045K19,614,experiment,168,→,right,→,0.5380264999985229,True,17
X045K19,615,experiment,144,←,left,←,0.7209609999990789,True,17
X045K19,616,experiment,132,↑,up,↑,0.9953310999990208,True,17
X045K19,617,experiment,60,→,right,→,0.5550339999899734,True,17
X045K19,618,experiment,60,←,left,←,0.5995672999997623,True,17
X045K19,619,experiment,144,↓,down,↓,0.7196375999919837,True,17
X045K19,620,experiment,48,←,left,←,0.5723295000061626,True,17
X045K19,621,experiment,84,↑,up,↑,0.4785877999966033,True,17
X045K19,622,experiment,48,↑,down,↓,0.9583114999986719,False,17
X045K19,623,experiment,72,→,right,→,0.8715645000047516,True,17
X045K19,624,experiment,60,↑,up,↑,0.8031269000057364,True,17
X045K19,625,experiment,84,←,left,←,0.4651341999997385,True,17
X045K19,626,experiment,96,↑,up,↑,0.5429435999976704,True,17
X045K19,627,experiment,180,→,right,→,0.6738872000132687,True,17
X045K19,628,experiment,180,←,down,↓,0.6765594000025885,False,17
X045K19,629,experiment,24,↓,right,→,0.901768900002935,False,17
X045K19,630,experiment,120,→,right,→,0.7445162999938475,True,17
X045K19,631,experiment,132,←,left,←,0.6114000999950804,True,17
X045K19,632,experiment,12,↓,left,←,0.6839073000010103,False,17
X045K19,633,experiment,48,←,left,←,0.4005924000084633,True,17
X045K19,634,experiment,24,↓,left,←,0.3506612000055611,False,17
X045K19,635,experiment,108,↓,down,↓,0.3676879000122426,True,17
X045K19,636,experiment,12,→,right,→,0.529291099999682,True,17
X045K19,637,experiment,96,↑,down,↓,1.2666393000108656,False,17
X045K19,638,experiment,48,→,right,→,0.6759404999902472,True,17
X045K19,639,experiment,120,→,right,→,0.9950187000067672,True,17
X045K19,640,experiment,156,↑,up,↑,0.6338670999975875,True,17
X045K19,641,experiment,108,→,right,→,0.49815910001052544,True,17
X045K19,642,experiment,96,←,left,←,0.8240136999957031,True,17
X045K19,643,experiment,36,→,right,→,0.8137759999954142,True,17
X045K19,644,experiment,24,→,right,→,0.5493674000026658,True,17
X045K19,645,experiment,156,→,right,→,0.5549735999957193,True,17
X045K19,646,experiment,168,↓,up,↑,0.6877721000055317,False,17
X045K19,647,experiment,180,→,right,→,0.6846093999920413,True,17
X045K19,648,experiment,12,↑,up,↑,1.3147644000127912,True,17
X045K19,649,experiment,132,↓,right,→,0.5502804999996442,False,17
X045K19,650,experiment,108,↑,up,↑,0.4005374000116717,True,17
X045K19,651,experiment,168,→,right,→,0.7380065000033937,True,17
X045K19,652,experiment,72,↑,up,↑,0.5931284999969648,True,17
X045K19,653,experiment,144,↓,down,↓,0.5807828999968478,True,17
X045K19,654,experiment,12,↑,up,↑,0.4894421999924816,True,17
X045K19,655,experiment,120,→,right,→,0.715553700007149,True,17
X045K19,656,experiment,72,↓,up,↑,0.7425911000027554,False,17
X045K19,657,experiment,108,→,down,↓,0.7558183999935864,False,17
X045K19,658,experiment,96,↓,no_key,no_letter,-1.0,False,17
X045K19,659,experiment,36,→,right,→,0.5202656000037678,True,17
X045K19,660,experiment,60,←,left,←,0.5087129000021378,True,17
X045K19,661,training,72,→,right,→,1.0154122999956599,True,17
X045K19,662,training,144,↑,up,↑,0.5098107999947388,True,17
X045K19,663,training,36,↑,up,↑,0.5012937999999849,True,17
X045K19,664,experiment,48,→,right,→,0.7244674999965355,True,17
X045K19,665,experiment,60,↑,up,↑,0.4784036999917589,True,17
X045K19,666,experiment,36,↓,up,↑,0.7875757999863708,False,17
X045K19,667,experiment,108,↓,down,↓,0.813237599999411,True,17
X045K19,668,experiment,108,←,left,←,0.9753427000105148,True,17
X045K19,669,experiment,156,↑,up,↑,0.41728750000766013,True,17
X045K19,670,experiment,168,↓,down,↓,1.2990238000056706,True,17
X045K19,671,experiment,120,↓,down,↓,0.6310531000053743,True,17
X045K19,672,experiment,12,→,right,→,0.5258329999924172,True,17
X045K19,673,experiment,84,←,left,←,0.38386559998616576,True,17
X045K19,674,experiment,36,↑,right,→,0.9713044999953127,False,17
X045K19,675,experiment,60,←,left,←,0.6972777000046335,True,17
X045K19,676,experiment,120,↑,up,↑,0.4709623999951873,True,17
X045K19,677,experiment,168,←,left,←,0.40056680000270717,True,17
X045K19,678,experiment,132,←,right,→,0.6014864000026137,False,17
X045K19,679,experiment,132,↓,right,→,0.41736420000961516,False,17
X045K19,680,experiment,48,↑,right,→,0.4560862999933306,False,17
X045K19,681,experiment,48,↓,down,↓,0.740134699997725,True,17
X045K19,682,experiment,72,↓,down,↓,0.5220428000029642,True,17
X045K19,683,experiment,168,↓,down,↓,0.6971048999985214,True,17
X045K19,684,experiment,132,→,right,→,0.7613379999966128,True,17
X045K19,685,experiment,156,→,right,→,0.4628286999941338,True,17
X045K19,686,experiment,120,←,left,←,0.522514800002682,True,17
X045K19,687,experiment,132,→,right,→,0.41731619999336544,True,17
X045K19,688,experiment,156,↓,down,↓,0.8508290999889141,True,17
X045K19,689,experiment,36,↑,up,↑,0.7623175000044284,True,17
X045K19,690,experiment,96,→,right,→,0.45425530000647996,True,17
X045K19,691,experiment,168,↓,down,↓,0.6413223999988986,True,17
X045K19,692,experiment,180,←,left,←,0.46800639999855775,True,17
X045K19,693,experiment,24,↓,down,↓,0.8464643000042997,True,17
X045K19,694,experiment,72,←,right,→,0.7856407999934163,False,17
X045K19,695,experiment,120,↓,down,↓,0.5755878999916604,True,17
X045K19,696,experiment,144,←,left,←,0.4740620999946259,True,17
X045K19,697,experiment,72,↓,down,↓,0.45142569999734405,True,17
X045K19,698,experiment,84,←,left,←,0.7374795000068843,True,17
X045K19,699,experiment,36,↓,down,↓,0.8374930999998469,True,17
X045K19,700,experiment,156,←,left,←,0.6493751999951201,True,17
X045K19,701,experiment,60,→,right,→,0.6046702000021469,True,17
X045K19,702,experiment,180,↑,up,↑,0.74160569999367,True,17
X045K19,703,experiment,84,↓,down,↓,0.990235200006282,True,17
X045K19,704,experiment,96,↑,up,↑,0.6975998000125401,True,17
X045K19,705,experiment,96,↑,up,↑,0.6807879000116372,True,17
X045K19,706,experiment,144,↓,down,↓,0.5763809000054607,True,17
X045K19,707,experiment,12,↑,up,↑,0.7669569999998203,True,17
X045K19,708,experiment,108,↓,down,↓,1.565503500009072,True,17
X045K19,709,experiment,108,←,left,←,0.802024699994945,True,17
X045K19,710,experiment,144,↓,down,↓,0.6281844000041019,True,17
X045K19,711,experiment,24,↓,down,↓,0.6251304000033997,True,17
X045K19,712,experiment,72,→,right,→,0.527143100000103,True,17
X045K19,713,experiment,144,↓,down,↓,0.6721436000079848,True,17
X045K19,714,experiment,96,→,right,→,0.9712632000009762,True,17
X045K19,715,experiment,48,→,right,→,0.9149825000058627,True,17
X045K19,716,experiment,12,→,left,←,0.9436787999875378,False,17
X045K19,717,experiment,84,↑,up,↑,0.6331189000047743,True,17
X045K19,718,experiment,180,↓,up,↑,1.3612865000031888,False,17
X045K19,719,experiment,24,←,right,→,0.8478563999960897,False,17
X045K19,720,experiment,60,→,right,→,0.7684138000040548,True,17
X045K19,721,experiment,24,↑,up,↑,0.8872235000017099,True,17
X045K19,722,experiment,180,↓,left,←,1.0485169000021415,False,17
X045K19,723,experiment,12,↓,right,→,0.8913128999993205,False,17
X045K19,724,training,120,↑,up,↑,0.5994554000062635,True,17
X045K19,725,training,72,←,left,←,0.7016331000049831,True,17
X045K19,726,training,36,←,up,↑,0.7905010000104085,False,17
X045K19,727,experiment,108,↓,down,↓,0.6132880999939516,True,17
X045K19,728,experiment,12,→,right,→,0.49141570000210777,True,17
X045K19,729,experiment,72,→,down,↓,1.0153636000031838,False,17
X045K19,730,experiment,96,←,up,↑,0.7989131999929668,False,17
X045K19,731,experiment,60,↑,up,↑,0.7485328000038862,True,17
X045K19,732,experiment,72,↓,down,↓,0.6217561999947065,True,17
X045K19,733,experiment,144,←,left,←,0.7442394000099739,True,17
X045K19,734,experiment,108,←,up,↑,0.7277149000001373,False,17
X045K19,735,experiment,60,→,right,→,0.7550393999990774,True,17
X045K19,736,experiment,120,↓,down,↓,1.133737000011024,True,17
X045K19,737,experiment,144,↑,up,↑,0.4643610999919474,True,17
X045K19,738,experiment,168,↑,up,↑,0.5743692000105511,True,17
X045K19,739,experiment,180,↓,down,↓,1.2942739999998594,True,17
X045K19,740,experiment,60,↓,down,↓,0.676358299999265,True,17
X045K19,741,experiment,156,←,down,↓,0.8666017999930773,False,17
X045K19,742,experiment,132,↓,up,↑,0.8092153000034159,False,17
X045K19,743,experiment,72,↓,down,↓,0.5313421000028029,True,17
X045K19,744,experiment,36,←,left,←,0.51179069999489,True,17
X045K19,745,experiment,96,←,left,←,0.46311639998748433,True,17
X045K19,746,experiment,84,←,down,↓,0.8854321999970125,False,17
X045K19,747,experiment,132,→,right,→,0.5027629000105662,True,17
X045K19,748,experiment,60,↑,left,←,0.9494223000074271,False,17
X045K19,749,experiment,48,↑,up,↑,0.49552419999963604,True,17
X045K19,750,experiment,12,→,down,↓,0.8394598000013502,False,17
X045K19,751,experiment,24,↓,no_key,no_letter,-1.0,False,17
X045K19,752,experiment,24,←,left,←,0.4521919999970123,True,17
X045K19,753,experiment,132,←,left,←,0.9662460000108695,True,17
X045K19,754,experiment,120,↑,left,←,0.33416359999682754,False,17
X045K19,755,experiment,36,↑,up,↑,0.5198688000091352,True,17
X045K19,756,experiment,144,→,up,↑,0.7720203999924706,False,17
X045K19,757,experiment,72,↑,down,↓,0.9387094999983674,False,17
X045K19,758,experiment,108,↑,up,↑,0.4169287999975495,True,17
X045K19,759,experiment,168,←,left,←,0.45697619998827577,True,17
X045K19,760,experiment,48,↓,down,↓,0.7236165000067558,True,17
X045K19,761,experiment,120,→,up,↑,0.7161299999861512,False,17
X045K19,762,experiment,168,↓,down,↓,0.8877501000097254,True,17
X045K19,763,experiment,12,↓,left,←,1.001741400003084,False,17
X045K19,764,experiment,120,↓,down,↓,0.6307284000067739,True,17
X045K19,765,experiment,156,←,left,←,0.47912519999954384,True,17
X045K19,766,experiment,156,←,left,←,0.8057912999938708,True,17
X045K19,767,experiment,84,←,left,←,0.41712259998894297,True,17
X045K19,768,experiment,24,↑,up,↑,0.8048139999882551,True,17
X045K19,769,experiment,108,←,left,←,0.5095762999990257,True,17
X045K19,770,experiment,96,↓,down,↓,0.6890372000052594,True,17
X045K19,771,experiment,144,→,right,→,0.46941099999821745,True,17
X045K19,772,experiment,84,↑,up,↑,0.9913422999961767,True,17
X045K19,773,experiment,36,→,right,→,0.45916340000985656,True,17
X045K19,774,experiment,84,←,right,→,0.8108718000003137,False,17
X045K19,775,experiment,180,←,up,↑,0.8759622999932617,False,17
X045K19,776,experiment,132,→,left,←,0.7600456999934977,False,17
X045K19,777,experiment,180,↓,left,←,0.5856348000088474,False,17
X045K19,778,experiment,24,→,up,↑,0.6134747000032803,False,17
X045K19,779,experiment,48,↓,up,↑,0.7956895000097575,False,17
X045K19,780,experiment,36,←,left,←,0.9790294999984326,True,17
X045K19,781,experiment,156,←,left,←,0.4172895000083372,True,17
X045K19,782,experiment,180,←,left,←,0.41719980000925716,True,17
X045K19,783,experiment,48,→,right,→,0.6440860000002431,True,17
X045K19,784,experiment,168,↑,up,↑,0.3175042999937432,True,17
X045K19,785,experiment,12,↑,down,↓,1.0133555999927921,False,17
X045K19,786,experiment,96,→,left,←,0.35037000000011176,False,17
X045K19,787,training,36,←,right,→,0.7798766000050819,False,17
X045K19,788,training,72,↑,right,→,1.1205820000031963,False,17
X045K19,789,training,180,↓,down,↓,0.8054904000018723,True,17
X045K19,790,experiment,156,←,down,↓,1.0757735000079265,False,17
X045K19,791,experiment,96,→,up,↑,0.7283859000017401,False,17
X045K19,792,experiment,120,↑,down,↓,1.0396059999911813,False,17
X045K19,793,experiment,108,←,left,←,0.4004715000046417,True,17
X045K19,794,experiment,36,↓,right,→,0.647672799997963,False,17
X045K19,795,experiment,24,→,up,↑,1.3097608000098262,False,17
X045K19,796,experiment,180,↓,up,↑,1.2040264000097523,False,17
X045K19,797,experiment,96,↓,right,→,0.6166659999871626,False,17
X045K19,798,experiment,24,←,down,↓,0.6968412999995053,False,17
X045K19,799,experiment,120,↑,up,↑,0.5697590999916429,True,17
X045K19,800,experiment,156,→,right,→,0.6503003999969224,True,17
X045K19,801,experiment,132,←,left,←,0.9686553000065032,True,17
X045K19,802,experiment,12,→,right,→,0.7285952999955043,True,17
X045K19,803,experiment,168,←,left,←,0.6733494999934919,True,17
X045K19,804,experiment,12,←,left,←,0.8430075000069337,True,17
X045K19,805,experiment,144,→,right,→,0.6407067999971332,True,17
X045K19,806,experiment,24,↓,down,↓,0.5754261999973096,True,17
X045K19,807,experiment,132,←,left,←,0.9466214999993099,True,17
X045K19,808,experiment,84,←,down,↓,0.6613015000039013,False,17
X045K19,809,experiment,48,↓,up,↑,0.909920999998576,False,17
X045K19,810,experiment,84,↓,up,↑,0.952175400001579,False,17
X045K19,811,experiment,144,↑,up,↑,0.9025676000019303,True,17
X045K19,812,experiment,144,←,left,←,0.6567385000089416,True,17
X045K19,813,experiment,132,↓,right,→,0.21732349999365397,False,17
X045K19,814,experiment,180,←,left,←,0.47441490000346676,True,17
X045K19,815,experiment,72,→,up,↑,0.7571834999980638,False,17
X045K19,816,experiment,156,←,down,↓,0.8421787999977823,False,17
X045K19,817,experiment,72,←,left,←,0.400574700004654,True,17
X045K19,818,experiment,108,↓,down,↓,1.1713444999913918,True,17
X045K19,819,experiment,120,←,left,←,0.6218174000096042,True,17
X045K19,820,experiment,168,→,right,→,0.9482605000084732,True,17
X045K19,821,experiment,168,←,right,→,0.5784887999907369,False,17
X045K19,822,experiment,156,→,right,→,0.5993027000076836,True,17
X045K19,823,experiment,60,←,right,→,0.749263499994413,False,17
X045K19,824,experiment,48,↓,down,↓,1.071295400004601,True,17
X045K19,825,experiment,180,→,right,→,0.5055912000098033,True,17
X045K19,826,experiment,36,→,right,→,0.5947886000067228,True,17
X045K19,827,experiment,120,→,right,→,0.4172486999887042,True,17
X045K19,828,experiment,132,↓,left,←,0.4558261000056518,False,17
X045K19,829,experiment,60,←,left,←,0.49990740000794176,True,17
X045K19,830,experiment,96,←,left,←,0.5037951999984216,True,17
X045K19,831,experiment,84,→,right,→,0.9455432999966433,True,17
X045K19,832,experiment,12,←,right,→,0.8796904999908293,False,17
X045K19,833,experiment,24,←,right,→,0.6422022000042489,False,17
X045K19,834,experiment,180,←,up,↑,0.7903974000073504,False,17
X045K19,835,experiment,108,→,down,↓,0.7070041999977548,False,17
X045K19,836,experiment,36,→,up,↑,1.1825314000016078,False,17
X045K19,837,experiment,84,↓,down,↓,0.9380722000059905,True,17
X045K19,838,experiment,144,↑,up,↑,0.6231368999870028,True,17
X045K19,839,experiment,72,↑,up,↑,0.9963820000120904,True,17
X045K19,840,experiment,108,←,left,←,0.4967239000106929,True,17
X045K19,841,experiment,168,←,right,→,1.04751830000896,False,17
X045K19,842,experiment,36,←,right,→,0.8950233000068692,False,17
X045K19,843,experiment,48,→,right,→,0.9246161999908509,True,17
X045K19,844,experiment,60,↓,down,↓,0.5705233000044245,True,17
X045K19,845,experiment,48,←,left,←,0.4172285999957239,True,17
X045K19,846,experiment,72,↑,up,↑,0.4603227999905357,True,17
X045K19,847,experiment,60,↑,down,↓,0.7178727999998955,False,17
X045K19,848,experiment,96,↓,down,↓,0.8827998000051593,True,17
X045K19,849,experiment,12,←,up,↑,0.6587508999946294,False,17
