PART_ID,Trial_no,Trial_type,PDI,Stim_letter,Key_pressed,letter_choose,Rt,Corr,Stimulus Time
X047M59,1,training,10,→,no_key,no_letter,-1.0,False,30
X047M59,2,training,10,←,no_key,no_letter,-1.0,False,30
X047M59,3,training,10,↓,no_key,no_letter,-1.0,False,30
X047M59,4,training,10,↓,no_key,no_letter,-1.0,False,30
X047M59,5,training,10,→,no_key,no_letter,-1.0,False,30
X047M59,6,training,10,↓,no_key,no_letter,-1.0,False,30
X047M59,7,training,10,↑,no_key,no_letter,-1.0,False,30
X047M59,8,training,10,←,no_key,no_letter,-1.0,False,30
X047M59,9,training,10,→,no_key,no_letter,-1.0,False,30
X047M59,10,training,10,←,no_key,no_letter,-1.0,False,30
X047M59,11,training,10,←,no_key,no_letter,-1.0,False,30
X047M59,12,training,10,↓,no_key,no_letter,-1.0,False,30
X047M59,13,training,10,↓,no_key,no_letter,-1.0,False,30
X047M59,14,training,10,↑,no_key,no_letter,-1.0,False,30
X047M59,15,training,10,↑,no_key,no_letter,-1.0,False,30
X047M59,16,training,10,→,no_key,no_letter,-1.0,False,30
X047M59,17,training,10,↑,no_key,no_letter,-1.0,False,30
X047M59,18,training,10,↓,no_key,no_letter,-1.0,False,30
X047M59,19,training,10,↑,no_key,no_letter,-1.0,False,30
X047M59,20,training,10,↓,no_key,no_letter,-1.0,False,30
X047M59,21,training,10,↑,right,→,0.31735839997418225,False,18
X047M59,22,training,10,←,left,←,0.20048610004596412,True,18
X047M59,23,training,10,→,left,←,0.3340350999496877,False,18
X047M59,24,training,10,↑,left,←,0.16701289999764413,False,18
X047M59,25,training,10,↑,right,→,0.21795259998179972,False,18
X047M59,26,training,10,↑,left,←,0.2503178999759257,False,18
X047M59,27,training,10,↓,left,←,0.2669009000528604,False,18
X047M59,28,training,10,↓,left,←,0.1335696999449283,False,18
X047M59,29,training,10,↓,left,←,0.15016740001738071,False,18
X047M59,30,training,10,←,left,←,0.183652599924244,True,18
X047M59,31,training,132,→,left,←,0.35035490000154823,False,15
X047M59,32,training,84,↑,left,←,0.16680709994398057,False,15
X047M59,33,training,96,←,left,←,0.1671476000919938,True,15
X047M59,34,experiment,168,↓,left,←,0.15052600007038563,False,15
X047M59,35,experiment,144,↑,right,→,0.21719280001707375,False,15
X047M59,36,experiment,120,←,left,←,0.3338260999880731,True,15
X047M59,37,experiment,36,→,right,→,0.43340470001567155,True,15
X047M59,38,experiment,24,→,left,←,0.2335555999306962,False,15
X047M59,39,experiment,24,↑,left,←,0.18421350000426173,False,15
X047M59,40,experiment,180,→,left,←,0.19987509993370622,False,15
X047M59,41,experiment,36,→,right,→,0.2671967000933364,True,15
X047M59,42,experiment,36,↑,left,←,0.18382490007206798,False,15
X047M59,43,experiment,84,←,left,←,0.16737150005064905,True,15
X047M59,44,experiment,48,←,right,→,0.16700639994814992,False,15
X047M59,45,experiment,168,↓,left,←,0.2006086999317631,False,15
X047M59,46,experiment,144,↓,right,→,0.18406660004984587,False,15
X047M59,47,experiment,96,←,left,←,0.20056180004030466,True,15
X047M59,48,experiment,180,↓,right,→,0.20056000002659857,False,15
X047M59,49,experiment,156,↑,left,←,0.1670404999749735,False,15
X047M59,50,experiment,84,→,left,←,0.33351310004945844,False,15
X047M59,51,experiment,72,↑,left,←,0.38416210003197193,False,15
X047M59,52,experiment,120,↓,right,→,0.2003240000922233,False,15
X047M59,53,experiment,132,→,right,→,0.1503684000344947,True,15
X047M59,54,experiment,24,↓,left,←,0.31711549998726696,False,15
X047M59,55,experiment,156,→,left,←,0.15049449994694442,False,15
X047M59,56,experiment,132,→,right,→,0.11712419998366386,True,15
X047M59,57,experiment,24,←,left,←,0.36719210003502667,True,15
X047M59,58,experiment,48,→,right,→,0.16671790007967502,True,15
X047M59,59,experiment,12,↓,right,→,0.38392120006028563,False,15
X047M59,60,experiment,108,↓,left,←,0.3003247999586165,False,15
X047M59,61,experiment,132,↑,right,→,0.1671262999298051,False,15
X047M59,62,experiment,120,↓,left,←,0.16694949998054653,False,15
X047M59,63,experiment,12,→,no_key,no_letter,-1.0,False,15
X047M59,64,experiment,156,←,right,→,0.6224742999766022,False,15
X047M59,65,experiment,120,↑,no_key,no_letter,-1.0,False,15
X047M59,66,experiment,96,↓,right,→,0.2670682000461966,False,15
X047M59,67,experiment,180,→,left,←,0.23419849993661046,False,15
X047M59,68,experiment,144,↑,right,→,0.31696830003056675,False,15
X047M59,69,experiment,108,↓,left,←,0.33374629996251315,False,15
X047M59,70,experiment,72,←,left,←,0.25059939990751445,True,15
X047M59,71,experiment,60,↑,left,←,0.26722200005315244,False,15
X047M59,72,experiment,60,↑,right,→,0.15043669997248799,False,15
X047M59,73,experiment,84,↑,left,←,0.13397349999286234,False,15
X047M59,74,experiment,108,↑,left,←,0.200691599980928,False,15
X047M59,75,experiment,60,↓,right,→,0.19992980000097305,False,15
X047M59,76,experiment,48,↑,left,←,0.2172866000328213,False,15
X047M59,77,experiment,72,↓,right,→,0.16717460006475449,False,15
X047M59,78,experiment,168,→,left,←,0.2179476999444887,False,15
X047M59,79,experiment,48,↑,left,←,0.36704839998856187,False,15
X047M59,80,experiment,108,↓,right,→,0.21697919990401715,False,15
X047M59,81,experiment,156,↑,right,→,0.35038199997507036,False,15
X047M59,82,experiment,168,↑,left,←,0.267452499945648,False,15
X047M59,83,experiment,180,↑,left,←,0.20042719994671643,False,15
X047M59,84,experiment,12,←,left,←,0.25049690005835146,True,15
X047M59,85,experiment,132,→,left,←,0.28445209993515164,False,15
X047M59,86,experiment,96,↑,no_key,no_letter,-1.0,False,15
X047M59,87,experiment,72,←,left,←,0.26734220003709197,True,15
X047M59,88,experiment,84,↑,right,→,0.11721649998798966,False,15
X047M59,89,experiment,12,←,left,←,0.2834517000010237,True,15
X047M59,90,experiment,60,↓,left,←,0.183970500016585,False,15
X047M59,91,experiment,144,→,right,→,0.23380270006600767,True,15
X047M59,92,experiment,36,↑,no_key,no_letter,-1.0,False,15
X047M59,93,experiment,96,←,right,→,0.4258957999991253,False,15
X047M59,94,training,60,→,no_key,no_letter,-1.0,False,16
X047M59,95,training,120,→,left,←,0.2004102999344468,False,16
X047M59,96,training,132,→,left,←,0.3003902999917045,False,16
X047M59,97,experiment,108,→,right,→,0.13363020005635917,True,16
X047M59,98,experiment,180,←,left,←,0.21702059998642653,True,16
X047M59,99,experiment,24,→,left,←,0.3171487000072375,False,16
X047M59,100,experiment,168,↓,left,←,0.26728540007025003,False,16
X047M59,101,experiment,132,→,left,←,0.20065599994268268,False,16
X047M59,102,experiment,108,↓,right,→,0.13335210003424436,False,16
X047M59,103,experiment,180,←,right,→,0.18355019995942712,False,16
X047M59,104,experiment,120,→,right,→,0.2171127999899909,True,16
X047M59,105,experiment,156,←,left,←,0.18435179989319295,True,16
X047M59,106,experiment,72,↓,left,←,0.2667017000494525,False,16
X047M59,107,experiment,36,↑,right,→,0.16667139995843172,False,16
X047M59,108,experiment,72,↓,left,←,0.18364270008169115,False,16
X047M59,109,experiment,168,↓,right,→,0.21775429998524487,False,16
X047M59,110,experiment,36,↑,right,→,0.2504925000248477,False,16
X047M59,111,experiment,168,↑,right,→,0.3171044000191614,False,16
X047M59,112,experiment,48,↓,right,→,0.4442269999999553,False,16
X047M59,113,experiment,156,↑,left,←,0.3171419999562204,False,16
X047M59,114,experiment,48,←,no_key,no_letter,-1.0,False,16
X047M59,115,experiment,84,↓,left,←,0.3502905999775976,False,16
X047M59,116,experiment,156,←,right,→,0.31827069993596524,False,16
X047M59,117,experiment,12,←,no_key,no_letter,-1.0,False,16
X047M59,118,experiment,12,→,left,←,0.3835895999800414,False,16
X047M59,119,experiment,144,↑,right,→,0.21699159999843687,False,16
X047M59,120,experiment,36,↑,right,→,0.2329357999842614,False,16
X047M59,121,experiment,120,→,right,→,0.35046210000291467,True,16
X047M59,122,experiment,48,←,right,→,0.7725342999910936,False,16
X047M59,123,experiment,96,↓,left,←,0.3168761000270024,False,16
X047M59,124,experiment,48,↓,left,←,0.25058550003450364,False,16
X047M59,125,experiment,132,↑,right,→,0.18397849996108562,False,16
X047M59,126,experiment,96,↑,right,→,0.26729180000256747,False,16
X047M59,127,experiment,84,↓,right,→,0.20063769991975278,False,16
X047M59,128,experiment,60,↓,left,←,0.35083850007504225,False,16
X047M59,129,experiment,156,→,left,←,0.2673355999868363,False,16
X047M59,130,experiment,120,←,left,←,0.26754989998880774,True,16
X047M59,131,experiment,108,↑,left,←,0.25058999995235354,False,16
X047M59,132,experiment,120,↑,left,←,0.34981159993913025,False,16
X047M59,133,experiment,36,↓,no_key,no_letter,-1.0,False,16
X047M59,134,experiment,60,↓,no_key,no_letter,-1.0,False,16
X047M59,135,experiment,84,↓,right,→,0.3342204000800848,False,16
X047M59,136,experiment,60,←,right,→,0.31717030005529523,False,16
X047M59,137,experiment,132,→,left,←,0.23400779999792576,False,16
X047M59,138,experiment,132,↑,right,→,0.1509172999067232,False,16
X047M59,139,experiment,12,←,right,→,0.44837450003251433,False,16
X047M59,140,experiment,72,↑,left,←,0.18371539993677288,False,16
X047M59,141,experiment,96,→,left,←,0.30019970005378127,False,16
X047M59,142,experiment,84,↓,right,→,0.21771720005199313,False,16
X047M59,143,experiment,72,←,left,←,1.0764505000552163,True,16
X047M59,144,experiment,24,→,left,←,0.251033200067468,False,16
X047M59,145,experiment,144,↓,left,←,0.1838227000553161,False,16
X047M59,146,experiment,12,↓,right,→,0.25057639996521175,False,16
X047M59,147,experiment,24,↓,left,←,0.16720969998277724,False,16
X047M59,148,experiment,144,→,no_key,no_letter,-1.0,False,16
X047M59,149,experiment,108,→,right,→,0.2671548000071198,True,16
X047M59,150,experiment,96,←,left,←,0.2338240999961272,True,16
X047M59,151,experiment,168,←,right,→,0.3174767999444157,False,16
X047M59,152,experiment,24,↑,right,→,0.2339572999626398,False,16
X047M59,153,experiment,144,→,left,←,0.16729220002889633,False,16
X047M59,154,experiment,180,↑,left,←,0.15058679995127022,False,16
X047M59,155,experiment,60,↓,right,→,0.23367200000211596,False,16
X047M59,156,experiment,180,→,left,←,0.2506926000351086,False,16
X047M59,157,training,108,→,left,←,0.3339746999554336,False,17
X047M59,158,training,144,←,right,→,0.4004428000189364,False,17
X047M59,159,training,180,←,left,←,0.3169889999553561,True,17
X047M59,160,experiment,180,←,right,→,0.36741629999596626,False,17
X047M59,161,experiment,132,→,no_key,no_letter,-1.0,False,17
X047M59,162,experiment,180,←,no_key,no_letter,-1.0,False,17
X047M59,163,experiment,60,↓,right,→,0.38400620000902563,False,17
X047M59,164,experiment,156,↑,right,→,0.33383619994856417,False,17
X047M59,165,experiment,48,→,left,←,0.333962400094606,False,17
X047M59,166,experiment,84,←,no_key,no_letter,-1.0,False,17
X047M59,167,experiment,36,→,right,→,0.5521086000371724,True,17
X047M59,168,experiment,156,↓,left,←,0.383662199950777,False,17
X047M59,169,experiment,12,↓,right,→,0.26704559999052435,False,17
X047M59,170,experiment,108,↓,left,←,0.35069440002553165,False,17
X047M59,171,experiment,120,→,no_key,no_letter,-1.0,False,17
X047M59,172,experiment,84,↓,left,←,0.3679140000604093,False,17
X047M59,173,experiment,72,↑,left,←,0.2672610000008717,False,17
X047M59,174,experiment,48,→,left,←,0.2670233999378979,False,17
X047M59,175,experiment,144,→,left,←,0.20058239996433258,False,17
X047M59,176,experiment,60,↑,left,←,0.23403009993489832,False,17
X047M59,177,experiment,96,←,left,←,0.20035399997141212,True,17
X047M59,178,experiment,96,←,left,←,0.3343913999851793,True,17
X047M59,179,experiment,156,→,left,←,0.23385840002447367,False,17
X047M59,180,experiment,24,←,right,→,0.26727850001771003,False,17
X047M59,181,experiment,12,↑,no_key,no_letter,-1.0,False,17
X047M59,182,experiment,132,↓,no_key,no_letter,-1.0,False,17
X047M59,183,experiment,132,↑,no_key,no_letter,-1.0,False,17
X047M59,184,experiment,24,↑,right,→,0.3339047000044957,False,17
X047M59,185,experiment,144,→,left,←,0.2347673000767827,False,17
X047M59,186,experiment,48,↑,right,→,0.2505738999461755,False,17
X047M59,187,experiment,180,←,left,←,0.31707379990257323,True,17
X047M59,188,experiment,72,↓,left,←,0.2507997000357136,False,17
X047M59,189,experiment,168,→,right,→,0.6496522000525147,True,17
X047M59,190,experiment,96,→,left,←,0.4676286999601871,False,17
X047M59,191,experiment,108,←,no_key,no_letter,-1.0,False,17
X047M59,192,experiment,168,→,right,→,0.3840493999887258,True,17
X047M59,193,experiment,96,↑,right,→,0.31714050006121397,False,17
X047M59,194,experiment,36,↑,left,←,0.267165599972941,False,17
X047M59,195,experiment,84,↓,left,←,0.25052559992764145,False,17
X047M59,196,experiment,12,↑,right,→,0.46851149993017316,False,17
X047M59,197,experiment,108,←,left,←,0.31698779994621873,True,17
X047M59,198,experiment,120,↓,no_key,no_letter,-1.0,False,17
X047M59,199,experiment,108,↑,left,←,0.3170824999688193,False,17
X047M59,200,experiment,180,↑,right,→,0.35070860001724213,False,17
X047M59,201,experiment,168,→,no_key,no_letter,-1.0,False,17
X047M59,202,experiment,132,←,left,←,0.41699199995491654,True,17
X047M59,203,experiment,60,↑,right,→,0.2670825000386685,False,17
X047M59,204,experiment,36,←,right,→,0.3338234000839293,False,17
X047M59,205,experiment,24,→,right,→,0.2669278000248596,True,17
X047M59,206,experiment,72,↓,right,→,0.2835462000221014,False,17
X047M59,207,experiment,12,↓,left,←,0.36721589998342097,False,17
X047M59,208,experiment,36,↓,right,→,0.16707880003377795,False,17
X047M59,209,experiment,60,←,left,←,0.23410369991324842,True,17
X047M59,210,experiment,156,←,right,→,0.21730500005651265,False,17
X047M59,211,experiment,48,→,left,←,0.23475220007821918,False,17
X047M59,212,experiment,168,→,right,→,0.21752529998775572,True,17
X047M59,213,experiment,72,↑,left,←,0.3170456999214366,False,17
X047M59,214,experiment,120,←,right,→,0.20013790007214993,False,17
X047M59,215,experiment,144,→,left,←,0.16721339989453554,False,17
X047M59,216,experiment,24,↑,no_key,no_letter,-1.0,False,17
X047M59,217,experiment,84,↓,right,→,0.30123720003757626,False,17
X047M59,218,experiment,144,↓,no_key,no_letter,-1.0,False,17
X047M59,219,experiment,120,↓,left,←,0.40028579998761415,False,17
X047M59,220,training,72,↑,right,→,0.46966549998614937,False,18
X047M59,221,training,144,→,right,→,0.38388059998396784,True,18
X047M59,222,training,120,↓,right,→,0.316628500004299,False,18
X047M59,223,experiment,156,←,left,←,0.26815850008279085,True,18
X047M59,224,experiment,156,→,right,→,0.20055589999537915,True,18
X047M59,225,experiment,72,↓,right,→,0.267306900001131,False,18
X047M59,226,experiment,96,→,right,→,0.2504831999540329,True,18
X047M59,227,experiment,60,←,left,←,0.23407819995190948,True,18
X047M59,228,experiment,12,↓,left,←,0.3172015999443829,False,18
X047M59,229,experiment,24,→,right,→,0.18373509997036308,True,18
X047M59,230,experiment,108,↓,left,←,0.16711330006364733,False,18
X047M59,231,experiment,48,→,right,→,0.20037050009705126,True,18
X047M59,232,experiment,60,←,right,→,0.2672263999702409,False,18
X047M59,233,experiment,132,↓,left,←,0.15057830000296235,False,18
X047M59,234,experiment,72,↑,right,→,0.23471300001256168,False,18
X047M59,235,experiment,144,←,left,←,0.18366709991823882,True,18
X047M59,236,experiment,168,↓,left,←,0.31684069999028,False,18
X047M59,237,experiment,120,←,left,←,0.3004589999327436,True,18
X047M59,238,experiment,84,←,left,←,0.1837999999988824,True,18
X047M59,239,experiment,168,↑,left,←,0.4761447999626398,False,18
X047M59,240,experiment,96,→,left,←,0.23354699998162687,False,18
X047M59,241,experiment,144,→,left,←,0.20014450000599027,False,18
X047M59,242,experiment,144,↑,left,←,0.21739520004484802,False,18
X047M59,243,experiment,180,↑,left,←,0.18364149995613843,False,18
X047M59,244,experiment,36,←,no_key,no_letter,-1.0,False,18
X047M59,245,experiment,24,←,right,→,0.1840725999791175,False,18
X047M59,246,experiment,12,↑,right,→,0.23366389994043857,False,18
X047M59,247,experiment,108,→,left,←,0.16706580005120486,False,18
X047M59,248,experiment,180,↓,right,→,0.21702820004429668,False,18
X047M59,249,experiment,132,←,right,→,0.26729009998962283,False,18
X047M59,250,experiment,48,→,left,←,0.26784709992352873,False,18
X047M59,251,experiment,48,→,right,→,0.2169807000318542,True,18
X047M59,252,experiment,132,→,right,→,0.41721709992270917,True,18
X047M59,253,experiment,12,↑,right,→,0.5249257999239489,False,18
X047M59,254,experiment,24,↓,left,←,0.30036859994288534,False,18
X047M59,255,experiment,120,↑,right,→,0.21712549997027963,False,18
X047M59,256,experiment,132,→,left,←,0.6845637999940664,False,18
X047M59,257,experiment,180,←,left,←,0.4170791999204084,True,18
X047M59,258,experiment,156,↑,left,←,0.25042290007695556,False,18
X047M59,259,experiment,12,↑,right,→,0.26732410001568496,False,18
X047M59,260,experiment,36,↓,left,←,0.21707579994108528,False,18
X047M59,261,experiment,24,↓,right,→,0.28345520002767444,False,18
X047M59,262,experiment,72,←,right,→,0.28408889996353537,False,18
X047M59,263,experiment,168,←,no_key,no_letter,-1.0,False,18
X047M59,264,experiment,48,←,right,→,0.2841042000800371,False,18
X047M59,265,experiment,84,↑,right,→,0.26704880001489073,False,18
X047M59,266,experiment,144,↓,left,←,0.5818947000661865,False,18
X047M59,267,experiment,36,←,right,→,0.36712459998670965,False,18
X047M59,268,experiment,84,←,right,→,0.3165433000540361,False,18
X047M59,269,experiment,120,↓,right,→,0.2669052000856027,False,18
X047M59,270,experiment,96,←,right,→,0.5501891999738291,False,18
X047M59,271,experiment,60,↑,left,←,0.38360149995423853,False,18
X047M59,272,experiment,60,↑,right,→,0.21704159991350025,False,18
X047M59,273,experiment,84,↓,right,→,0.4691523000365123,False,18
X047M59,274,experiment,72,↓,left,←,0.40081819996703416,False,18
X047M59,275,experiment,156,←,right,→,0.35054600005969405,False,18
X047M59,276,experiment,168,→,left,←,0.3005482000298798,False,18
X047M59,277,experiment,180,↓,right,→,0.21701619995292276,False,18
X047M59,278,experiment,36,↑,left,←,0.3337846000213176,False,18
X047M59,279,experiment,120,←,right,→,0.3169499998912215,False,18
X047M59,280,experiment,108,→,right,→,0.3171489000087604,True,18
X047M59,281,experiment,108,→,right,→,0.2845041999826208,True,18
X047M59,282,experiment,96,←,left,←,0.3002512000966817,True,18
X047M59,283,training,60,→,right,→,0.5103078000247478,True,18
X047M59,284,training,108,↑,left,←,0.48136880004312843,False,18
X047M59,285,training,132,↓,left,←,0.3001473000040278,False,18
X047M59,286,experiment,72,→,right,→,0.21773409994784743,True,18
X047M59,287,experiment,132,↓,right,→,0.2668587000807747,False,18
X047M59,288,experiment,72,→,right,→,0.3340262999990955,True,18
X047M59,289,experiment,168,↓,right,→,0.26729480002541095,False,18
X047M59,290,experiment,168,↓,left,←,0.18353499996010214,False,18
X047M59,291,experiment,132,↑,right,→,0.20043359999544919,False,18
X047M59,292,experiment,180,↓,left,←,0.25036579999141395,False,18
X047M59,293,experiment,120,→,right,→,0.3509112000465393,True,18
X047M59,294,experiment,60,↓,right,→,0.18383389990776777,False,18
X047M59,295,experiment,168,→,left,←,0.21692380006425083,False,18
X047M59,296,experiment,84,↑,right,→,0.2339953000191599,False,18
X047M59,297,experiment,72,↓,left,←,0.2669561000075191,False,18
X047M59,298,experiment,84,←,left,←,0.41755300003569573,True,18
X047M59,299,experiment,96,→,right,→,0.2172302999533713,True,18
X047M59,300,experiment,156,↑,right,→,0.3340402999892831,False,18
X047M59,301,experiment,24,←,right,→,0.3172999999951571,False,18
X047M59,302,experiment,96,←,right,→,0.5439249000046402,False,18
X047M59,303,experiment,48,↑,left,←,0.5011550999479368,False,18
X047M59,304,experiment,24,→,left,←,0.5098326000152156,False,18
X047M59,305,experiment,72,→,right,→,0.2504002000205219,True,18
X047M59,306,experiment,48,↓,left,←,0.3169812000123784,False,18
X047M59,307,experiment,108,←,right,→,0.3502955000149086,False,18
X047M59,308,experiment,12,↓,right,→,0.38454739993903786,False,18
X047M59,309,experiment,60,→,left,←,0.36709209997206926,False,18
X047M59,310,experiment,36,↓,left,←,0.3669478000374511,False,18
X047M59,311,experiment,120,↓,right,→,0.25130330002866685,False,18
X047M59,312,experiment,108,→,right,→,0.2849419000558555,True,18
X047M59,313,experiment,120,↑,left,←,0.2671840999973938,False,18
X047M59,314,experiment,36,↑,left,←,0.21728400001302361,False,18
X047M59,315,experiment,144,↓,right,→,0.39988819998688996,False,18
X047M59,316,experiment,36,→,left,←,0.26700089999940246,False,18
X047M59,317,experiment,156,→,right,→,0.31730879994574934,True,18
X047M59,318,experiment,84,↑,right,→,0.4872948999982327,False,18
X047M59,319,experiment,108,→,right,→,0.2841001000488177,True,18
X047M59,320,experiment,24,↑,left,←,0.300451600109227,False,18
X047M59,321,experiment,144,→,right,→,0.30058209993876517,True,18
X047M59,322,experiment,180,←,left,←,0.3169562000548467,True,18
X047M59,323,experiment,144,↑,right,→,0.3172845001099631,False,18
X047M59,324,experiment,12,←,right,→,0.33397779997903854,False,18
X047M59,325,experiment,180,←,right,→,0.28393839998170733,False,18
X047M59,326,experiment,12,↑,left,←,0.41804370004683733,False,18
X047M59,327,experiment,108,←,left,←,0.26759320008568466,True,18
X047M59,328,experiment,96,↓,left,←,0.2839173999382183,False,18
X047M59,329,experiment,84,↑,left,←,0.3171369000338018,False,18
X047M59,330,experiment,120,↓,right,→,0.16738989995792508,False,18
X047M59,331,experiment,168,↑,left,←,0.1842490000417456,False,18
X047M59,332,experiment,144,↑,right,→,0.21703910001087934,False,18
X047M59,333,experiment,180,↓,right,→,0.6519232999999076,False,18
X047M59,334,experiment,60,↓,left,←,0.2507309999782592,False,18
X047M59,335,experiment,132,↑,left,←,0.2670863000676036,False,18
X047M59,336,experiment,48,←,right,→,0.20071870007086545,False,18
X047M59,337,experiment,60,↑,right,→,0.2175783000420779,False,18
X047M59,338,experiment,132,←,right,→,0.2504555999767035,False,18
X047M59,339,experiment,24,→,left,←,0.2670479000080377,False,18
X047M59,340,experiment,48,→,left,←,0.2669507999671623,False,18
X047M59,341,experiment,156,←,right,→,0.18375470000319183,False,18
X047M59,342,experiment,36,→,right,→,0.4338925000047311,True,18
X047M59,343,experiment,12,↓,right,→,0.30028870003297925,False,18
X047M59,344,experiment,96,↑,right,→,0.26780909998342395,False,18
X047M59,345,experiment,156,↓,right,→,0.21743189997505397,False,18
X047M59,346,training,72,→,no_key,no_letter,-1.0,False,18
X047M59,347,training,36,←,left,←,0.4007784000132233,True,18
X047M59,348,training,12,↓,left,←,0.6236840999918059,False,18
X047M59,349,experiment,132,↓,right,→,0.3172493000747636,False,18
X047M59,350,experiment,180,↓,no_key,no_letter,-1.0,False,18
X047M59,351,experiment,60,←,right,→,0.6278111999854445,False,18
X047M59,352,experiment,60,↓,right,→,0.49594210006762296,False,18
X047M59,353,experiment,108,←,left,←,0.2004313999786973,True,18
X047M59,354,experiment,60,←,down,↓,0.3506261999718845,False,18
X047M59,355,experiment,48,↑,no_key,no_letter,-1.0,False,18
X047M59,356,experiment,132,←,left,←,0.33316759997978806,True,18
X047M59,357,experiment,72,↑,left,←,0.57125670008827,False,18
X047M59,358,experiment,48,←,left,←,0.43387269997037947,True,18
X047M59,359,experiment,156,→,left,←,0.4003891999600455,False,18
X047M59,360,experiment,132,→,right,→,0.4996610999805853,True,18
X047M59,361,experiment,12,↓,left,←,0.2834226000122726,False,18
X047M59,362,experiment,96,↓,right,→,0.473335099988617,False,18
X047M59,363,experiment,72,↑,right,→,0.3674684000434354,False,18
X047M59,364,experiment,120,↓,right,→,0.3503483000677079,False,18
X047M59,365,experiment,180,←,no_key,no_letter,-1.0,False,18
X047M59,366,experiment,144,↓,left,←,0.3833759999834001,False,18
X047M59,367,experiment,120,←,right,→,0.2508486000588164,False,18
X047M59,368,experiment,168,→,right,→,0.2504596000071615,True,18
X047M59,369,experiment,84,↑,left,←,0.28398149996064603,False,18
X047M59,370,experiment,132,←,left,←,0.33404099999461323,True,18
X047M59,371,experiment,120,↓,left,←,0.3338858999777585,False,18
X047M59,372,experiment,168,→,right,→,0.25044890004210174,True,18
X047M59,373,experiment,36,→,left,←,0.3166968000587076,False,18
X047M59,374,experiment,108,←,left,←,0.3669712000992149,True,18
X047M59,375,experiment,144,↑,left,←,0.06698620005045086,False,18
X047M59,376,experiment,168,↓,no_key,no_letter,-1.0,False,18
X047M59,377,experiment,156,↓,right,→,0.47360230004414916,False,18
X047M59,378,experiment,12,←,right,→,0.3342271000146866,False,18
X047M59,379,experiment,84,↓,left,←,0.3334701999556273,False,18
X047M59,380,experiment,24,↓,right,→,0.4170244999695569,False,18
X047M59,381,experiment,156,←,right,→,0.28344120003748685,False,18
X047M59,382,experiment,96,→,left,←,0.300328699988313,False,18
X047M59,383,experiment,36,←,right,→,0.28409980004653335,False,18
X047M59,384,experiment,180,→,left,←,0.2510865998920053,False,18
X047M59,385,experiment,108,↓,left,←,0.7160504999337718,False,18
X047M59,386,experiment,72,→,no_key,no_letter,-1.0,False,18
X047M59,387,experiment,24,←,no_key,no_letter,-1.0,False,18
X047M59,388,experiment,12,←,no_key,no_letter,-1.0,False,18
X047M59,389,experiment,156,↑,left,←,0.3669588000047952,False,18
X047M59,390,experiment,48,↓,right,→,0.2172150999540463,False,18
X047M59,391,experiment,168,←,left,←,0.18380799994338304,True,18
X047M59,392,experiment,108,←,right,→,0.16702619998250157,False,18
X047M59,393,experiment,72,←,left,←,0.23396230000071228,True,18
X047M59,394,experiment,36,↓,left,←,0.25062519998755306,False,18
X047M59,395,experiment,144,↑,no_key,no_letter,-1.0,False,18
X047M59,396,experiment,60,→,no_key,no_letter,-1.0,False,18
X047M59,397,experiment,48,→,right,→,0.2339782000053674,True,18
X047M59,398,experiment,144,↑,right,→,0.2844110999722034,False,18
X047M59,399,experiment,96,←,no_key,no_letter,-1.0,False,18
X047M59,400,experiment,24,→,no_key,no_letter,-1.0,False,18
X047M59,401,experiment,36,↓,left,←,0.26746599993202835,False,18
X047M59,402,experiment,84,↓,right,→,0.4004619000479579,False,18
X047M59,403,experiment,120,→,right,→,0.21689679997507483,True,18
X047M59,404,experiment,180,↑,right,→,0.21695460006594658,False,18
X047M59,405,experiment,24,→,right,→,0.23350690002553165,True,18
X047M59,406,experiment,96,↑,right,→,0.1837493000784889,False,18
X047M59,407,experiment,84,→,right,→,0.41707349999342114,True,18
X047M59,408,experiment,12,↑,right,→,0.3335482000838965,False,18
X047M59,409,training,36,↓,no_key,no_letter,-1.0,False,18
X047M59,410,training,156,↓,right,→,0.4335272000171244,False,18
X047M59,411,training,156,←,left,←,0.3341179999988526,True,18
X047M59,412,experiment,144,→,right,→,0.18393120006658137,True,18
X047M59,413,experiment,168,↑,right,→,0.2839829999720678,False,18
X047M59,414,experiment,132,↑,left,←,0.1840185000328347,False,18
X047M59,415,experiment,96,↑,left,←,0.3172200999688357,False,18
X047M59,416,experiment,108,↓,no_key,no_letter,-1.0,False,18
X047M59,417,experiment,168,↓,right,→,0.23456809995695949,False,18
X047M59,418,experiment,60,←,left,←,0.3337648999877274,True,18
X047M59,419,experiment,36,↓,left,←,0.5774389000143856,False,18
X047M59,420,experiment,72,←,right,→,0.3342035000678152,False,18
X047M59,421,experiment,156,↓,no_key,no_letter,-1.0,False,18
X047M59,422,experiment,180,↑,no_key,no_letter,-1.0,False,18
X047M59,423,experiment,120,↓,right,→,0.6922115999041125,False,18
X047M59,424,experiment,180,↑,left,←,0.266683500027284,False,18
X047M59,425,experiment,120,←,left,←,0.28378659998998046,True,18
X047M59,426,experiment,24,↓,left,←,0.31724050000775605,False,18
X047M59,427,experiment,84,→,left,←,0.36728800006676465,False,18
X047M59,428,experiment,84,↓,right,→,0.23391319997608662,False,18
X047M59,429,experiment,156,→,left,←,0.33373249997384846,False,18
X047M59,430,experiment,60,→,left,←,0.23354650009423494,False,18
X047M59,431,experiment,180,←,no_key,no_letter,-1.0,False,18
X047M59,432,experiment,48,↑,left,←,0.6157620999729261,False,18
X047M59,433,experiment,24,↓,left,←,0.2838035000022501,False,18
X047M59,434,experiment,36,↓,left,←,0.2674582999898121,False,18
X047M59,435,experiment,108,→,left,←,0.23218310007359833,False,18
X047M59,436,experiment,96,→,right,→,0.30061680008657277,True,18
X047M59,437,experiment,72,↑,left,←,0.28393470006994903,False,18
X047M59,438,experiment,72,↓,right,→,0.367047099978663,False,18
X047M59,439,experiment,144,←,right,→,0.2850179000524804,False,18
X047M59,440,experiment,84,→,right,→,0.36687010002788156,True,18
X047M59,441,experiment,12,↓,right,→,0.5232833999907598,False,18
X047M59,442,experiment,156,↓,left,←,0.2839510999619961,False,18
X047M59,443,experiment,108,→,right,→,0.283316999906674,True,18
X047M59,444,experiment,36,↑,right,→,0.49937400000635535,False,18
X047M59,445,experiment,84,↓,left,←,0.20153419999405742,False,18
X047M59,446,experiment,48,→,left,←,0.3007256999844685,False,18
X047M59,447,experiment,96,↓,left,←,0.26724640000611544,False,18
X047M59,448,experiment,144,→,left,←,0.25072379992343485,False,18
X047M59,449,experiment,48,↓,right,→,0.3504676000447944,False,18
X047M59,450,experiment,132,←,left,←,0.23382990004029125,True,18
X047M59,451,experiment,12,→,no_key,no_letter,-1.0,False,18
X047M59,452,experiment,96,↑,right,→,0.30071479990147054,False,18
X047M59,453,experiment,120,←,no_key,no_letter,-1.0,False,18
X047M59,454,experiment,24,↑,no_key,no_letter,-1.0,False,18
X047M59,455,experiment,132,↑,left,←,0.2506972000701353,False,18
X047M59,456,experiment,180,↑,right,→,0.20048050000332296,False,18
X047M59,457,experiment,156,↓,left,←,0.2837932000402361,False,18
X047M59,458,experiment,132,↓,right,→,0.2671222999924794,False,18
X047M59,459,experiment,36,→,no_key,no_letter,-1.0,False,18
X047M59,460,experiment,168,←,right,→,0.283813500078395,False,18
X047M59,461,experiment,48,←,left,←,0.28323240007739514,True,18
X047M59,462,experiment,144,↑,right,→,0.24985229992307723,False,18
X047M59,463,experiment,12,→,right,→,0.3670919999713078,True,18
X047M59,464,experiment,120,→,left,←,0.600499999942258,False,18
X047M59,465,experiment,168,↓,right,→,0.23357829998712987,False,18
X047M59,466,experiment,12,↓,right,→,0.28403680003248155,False,18
X047M59,467,experiment,72,←,right,→,0.20120289991609752,False,18
X047M59,468,experiment,108,←,right,→,0.18369010009337217,False,18
X047M59,469,experiment,60,→,right,→,0.25053069996647537,True,18
X047M59,470,experiment,24,↓,right,→,0.3507222000043839,False,18
X047M59,471,experiment,60,→,right,→,0.30067390005569905,True,18
X047M59,472,training,168,→,right,→,0.5660402999492362,True,18
X047M59,473,training,156,←,right,→,0.3675210999790579,False,18
X047M59,474,training,84,←,right,→,0.28409800003282726,False,18
X047M59,475,experiment,168,→,right,→,0.28389740001875907,True,18
X047M59,476,experiment,156,←,right,→,0.4172640999313444,False,18
X047M59,477,experiment,96,↓,left,←,0.40033620002213866,False,18
X047M59,478,experiment,12,→,no_key,no_letter,-1.0,False,18
X047M59,479,experiment,36,↑,left,←,0.4173116999445483,False,18
X047M59,480,experiment,108,→,right,→,0.2504663000581786,True,18
X047M59,481,experiment,144,↓,right,→,0.28334750002250075,False,18
X047M59,482,experiment,84,↑,right,→,0.43379929999355227,False,18
X047M59,483,experiment,48,→,left,←,0.40040370007045567,False,18
X047M59,484,experiment,24,←,left,←,0.31753220001701266,True,18
X047M59,485,experiment,132,↑,right,→,0.10051390004809946,False,18
X047M59,486,experiment,84,←,right,→,0.3166596000082791,False,18
X047M59,487,experiment,48,↓,right,→,0.3009117000037804,False,18
X047M59,488,experiment,108,←,right,→,0.217056900030002,False,18
X047M59,489,experiment,120,←,right,→,0.26714560005348176,False,18
X047M59,490,experiment,144,↑,left,←,0.3005573000991717,False,18
X047M59,491,experiment,132,↑,right,→,0.2674359999364242,False,18
X047M59,492,experiment,144,↑,left,←,0.36711400002241135,False,18
X047M59,493,experiment,72,↓,right,→,0.2505358000053093,False,18
X047M59,494,experiment,24,↑,right,→,0.31709189992398024,False,18
X047M59,495,experiment,180,←,right,→,0.3171553999418393,False,18
X047M59,496,experiment,168,↓,right,→,0.39990830002352595,False,18
X047M59,497,experiment,36,↓,right,→,0.3005563000915572,False,18
X047M59,498,experiment,24,→,right,→,0.40047520003281534,True,18
X047M59,499,experiment,156,→,left,←,0.40065409999806434,False,18
X047M59,500,experiment,72,↓,right,→,0.2839084999868646,False,18
X047M59,501,experiment,48,↑,right,→,0.3004499999806285,False,18
X047M59,502,experiment,96,→,left,←,0.5308288000524044,False,18
X047M59,503,experiment,108,→,right,→,0.26690270006656647,True,18
X047M59,504,experiment,84,↓,right,→,0.2510483000660315,False,18
X047M59,505,experiment,120,←,right,→,0.7930154000641778,False,18
X047M59,506,experiment,84,↑,right,→,0.48590980004519224,False,18
X047M59,507,experiment,168,←,right,→,0.2838430000701919,False,18
X047M59,508,experiment,72,↓,right,→,0.3838044999865815,False,18
X047M59,509,experiment,60,↓,left,←,0.15064159990288317,False,18
X047M59,510,experiment,60,↑,no_key,no_letter,-1.0,False,18
X047M59,511,experiment,180,←,right,→,0.3335341999772936,False,18
X047M59,512,experiment,36,↓,right,→,0.28385260002687573,False,18
X047M59,513,experiment,108,↑,left,←,0.3672944001154974,False,18
X047M59,514,experiment,60,↓,left,←,0.21715089993085712,False,18
X047M59,515,experiment,48,←,right,→,0.23356279998552054,False,18
X047M59,516,experiment,24,→,left,←,0.20046469999942929,False,18
X047M59,517,experiment,36,↓,left,←,0.3166980999521911,False,18
X047M59,518,experiment,12,←,left,←,0.4338407999603078,True,18
X047M59,519,experiment,96,↓,left,←,0.2505738000618294,False,18
X047M59,520,experiment,96,→,right,→,0.20052680000662804,True,18
X047M59,521,experiment,180,→,left,←,0.23365429998375475,False,18
X047M59,522,experiment,132,←,right,→,0.2006543999304995,False,18
X047M59,523,experiment,156,↓,right,→,0.2338395999977365,False,18
X047M59,524,experiment,60,↓,right,→,0.3005064999451861,False,18
X047M59,525,experiment,120,↑,left,←,0.2004315999802202,False,18
X047M59,526,experiment,72,→,right,→,0.217119500041008,True,18
X047M59,527,experiment,168,↓,right,→,0.3006184999831021,False,18
X047M59,528,experiment,144,←,right,→,0.2514550000196323,False,18
X047M59,529,experiment,120,↓,right,→,0.31697840010747313,False,18
X047M59,530,experiment,12,↑,left,←,0.5499343998963013,False,18
X047M59,531,experiment,180,↑,no_key,no_letter,-1.0,False,18
X047M59,532,experiment,156,←,no_key,no_letter,-1.0,False,18
X047M59,533,experiment,12,←,right,→,0.3842630999861285,False,18
X047M59,534,experiment,132,→,right,→,0.26692359999287874,True,18
X047M59,535,training,24,←,right,→,0.3671466000378132,False,18
X047M59,536,training,156,←,left,←,0.3338765000225976,True,18
X047M59,537,training,180,↑,left,←,0.2671312999445945,False,18
X047M59,538,experiment,144,←,right,→,0.26716569997370243,False,18
X047M59,539,experiment,60,↓,left,←,0.3171243000542745,False,18
X047M59,540,experiment,156,→,right,→,0.1837137999245897,True,18
X047M59,541,experiment,96,↑,right,→,0.25055600004270673,False,18
X047M59,542,experiment,72,←,right,→,0.21699990006163716,False,18
X047M59,543,experiment,120,←,right,→,0.21776929998304695,False,18
X047M59,544,experiment,84,→,left,←,0.26727240008767694,False,18
X047M59,545,experiment,108,↓,right,→,0.36636330001056194,False,18
X047M59,546,experiment,24,→,right,→,0.30061339994426817,True,18
X047M59,547,experiment,36,←,right,→,0.20034209999721497,False,18
X047M59,548,experiment,132,→,left,←,0.36696339992340654,False,18
X047M59,549,experiment,84,←,left,←,0.16707399999722838,True,18
X047M59,550,experiment,156,↑,right,→,0.1672287000110373,False,18
X047M59,551,experiment,60,↓,left,←,0.33336980000603944,False,18
X047M59,552,experiment,12,↑,right,→,0.4338177000172436,False,18
X047M59,553,experiment,60,↓,right,→,0.3836618000641465,False,18
X047M59,554,experiment,96,↑,right,→,0.35057890007738024,False,18
X047M59,555,experiment,132,↑,right,→,0.3337481999769807,False,18
X047M59,556,experiment,48,←,left,←,0.3838639999739826,True,18
X047M59,557,experiment,72,↓,right,→,0.266889400081709,False,18
X047M59,558,experiment,168,↓,left,←,0.4172675999579951,False,18
X047M59,559,experiment,12,↓,right,→,0.383758099982515,False,18
X047M59,560,experiment,144,→,right,→,0.3338651000522077,True,18
X047M59,561,experiment,48,↓,right,→,0.33356719999574125,False,18
X047M59,562,experiment,24,↑,right,→,0.23407460004091263,False,18
X047M59,563,experiment,168,↓,right,→,0.2839775999309495,False,18
X047M59,564,experiment,48,→,no_key,no_letter,-1.0,False,18
X047M59,565,experiment,156,↑,right,→,0.2169288001023233,False,18
X047M59,566,experiment,24,↑,left,←,0.3343814000254497,False,18
X047M59,567,experiment,120,→,right,→,0.26691589993424714,True,18
X047M59,568,experiment,84,↓,right,→,0.4339000000618398,False,18
X047M59,569,experiment,12,←,right,→,0.8432656000368297,False,18
X047M59,570,experiment,168,↓,no_key,no_letter,-1.0,False,18
X047M59,571,experiment,180,→,right,→,0.20055879990104586,True,18
X047M59,572,experiment,48,→,right,→,0.23376610002014786,True,18
X047M59,573,experiment,60,↓,right,→,0.20047859998885542,False,18
X047M59,574,experiment,12,→,left,←,0.2337783999973908,False,18
X047M59,575,experiment,36,→,right,→,0.18373080005403608,True,18
X047M59,576,experiment,36,↑,right,→,0.18395860004238784,False,18
X047M59,577,experiment,132,→,left,←,0.2669556000037119,False,18
X047M59,578,experiment,180,←,left,←,0.300395300029777,True,18
X047M59,579,experiment,144,←,right,→,0.19979710003826767,False,18
X047M59,580,experiment,132,↑,left,←,0.40060799999628216,False,18
X047M59,581,experiment,156,→,left,←,0.35031180002260953,False,18
X047M59,582,experiment,108,→,right,→,0.40053929993882775,True,18
X047M59,583,experiment,96,↓,right,→,0.4811849999241531,False,18
X047M59,584,experiment,144,↑,no_key,no_letter,-1.0,False,18
X047M59,585,experiment,36,←,left,←,0.4000750998966396,True,18
X047M59,586,experiment,96,←,left,←,0.33362229994963855,True,18
X047M59,587,experiment,72,←,right,→,0.23376350000035018,False,18
X047M59,588,experiment,24,↑,no_key,no_letter,-1.0,False,18
X047M59,589,experiment,180,↓,right,→,0.36716569995041937,False,18
X047M59,590,experiment,108,←,left,←,0.26740940008312464,True,18
X047M59,591,experiment,108,←,left,←,0.35049440001603216,True,18
X047M59,592,experiment,180,↑,right,→,0.334139300044626,False,18
X047M59,593,experiment,168,↓,right,→,0.31693269999232143,False,18
X047M59,594,experiment,120,→,right,→,0.25082909991033375,True,18
X047M59,595,experiment,84,↓,left,←,0.2671248000115156,False,18
X047M59,596,experiment,72,↓,left,←,0.26687950000632554,False,18
X047M59,597,experiment,120,←,left,←,0.23371400008909404,True,18
X047M59,598,training,72,→,right,→,0.4170894999988377,True,18
X047M59,599,training,180,→,right,→,0.30037630000151694,True,18
X047M59,600,training,156,↑,left,←,0.2669537999900058,False,18
X047M59,601,experiment,72,↓,left,←,0.23380389995872974,False,18
X047M59,602,experiment,84,→,right,→,0.2172222000081092,True,18
X047M59,603,experiment,180,→,left,←,0.31743749999441206,False,18
X047M59,604,experiment,84,↓,right,→,0.233741799951531,False,18
X047M59,605,experiment,108,←,right,→,0.23355240002274513,False,18
X047M59,606,experiment,96,→,right,→,0.21689819998573512,True,18
X047M59,607,experiment,120,↓,right,→,0.25062010006513447,False,18
X047M59,608,experiment,132,↑,left,←,0.3170490999473259,False,18
X047M59,609,experiment,24,←,no_key,no_letter,-1.0,False,18
X047M59,610,experiment,156,↓,no_key,no_letter,-1.0,False,18
X047M59,611,experiment,24,←,right,→,0.4341507999924943,False,18
X047M59,612,experiment,60,↓,left,←,0.3171911999816075,False,18
X047M59,613,experiment,36,←,right,→,0.23391650000121444,False,18
X047M59,614,experiment,156,↑,right,→,0.2340394000057131,False,18
X047M59,615,experiment,132,↑,right,→,0.2678563999943435,False,18
X047M59,616,experiment,60,→,left,←,0.2670276000862941,False,18
X047M59,617,experiment,144,←,right,→,0.18394099990837276,False,18
X047M59,618,experiment,120,→,left,←,0.2345323000336066,False,18
X047M59,619,experiment,180,←,left,←,0.40054619999136776,True,18
X047M59,620,experiment,96,↓,no_key,no_letter,-1.0,False,18
X047M59,621,experiment,108,→,right,→,0.4172514999518171,True,18
X047M59,622,experiment,12,→,no_key,no_letter,-1.0,False,18
X047M59,623,experiment,84,→,right,→,0.3006894999416545,True,18
X047M59,624,experiment,84,↓,right,→,0.4005477000027895,False,18
X047M59,625,experiment,168,↓,right,→,0.30044379993341863,False,18
X047M59,626,experiment,96,→,right,→,0.3337042999919504,True,18
X047M59,627,experiment,168,→,right,→,0.40042830002494156,True,18
X047M59,628,experiment,48,↑,left,←,0.36714750004466623,False,18
X047M59,629,experiment,72,↓,left,←,0.31705529999453574,False,18
X047M59,630,experiment,24,←,no_key,no_letter,-1.0,False,18
X047M59,631,experiment,12,←,right,→,0.41763839998748153,False,18
X047M59,632,experiment,108,↑,right,→,0.5465491999639198,False,18
X047M59,633,experiment,168,↑,right,→,0.2670739999739453,False,18
X047M59,634,experiment,180,→,no_key,no_letter,-1.0,False,18
X047M59,635,experiment,72,←,no_key,no_letter,-1.0,False,18
X047M59,636,experiment,48,↑,no_key,no_letter,-1.0,False,18
X047M59,637,experiment,108,↑,right,→,0.3503794999560341,False,18
X047M59,638,experiment,168,↓,right,→,0.5994995000073686,False,18
X047M59,639,experiment,132,→,right,→,0.2172254000324756,True,18
X047M59,640,experiment,48,↑,right,→,0.30061129992827773,False,18
X047M59,641,experiment,156,→,right,→,0.2684212999884039,True,18
X047M59,642,experiment,144,←,right,→,0.21725039999000728,False,18
X047M59,643,experiment,72,↑,right,→,0.3006798999849707,False,18
X047M59,644,experiment,60,↓,right,→,0.20069430000148714,False,18
X047M59,645,experiment,48,→,right,→,0.18440260004717857,True,18
X047M59,646,experiment,36,↑,left,←,0.23388070007786155,False,18
X047M59,647,experiment,36,↓,left,←,0.317155999946408,False,18
X047M59,648,experiment,120,↑,right,→,0.20036299992352724,False,18
X047M59,649,experiment,60,←,right,→,0.25084590003825724,False,18
X047M59,650,experiment,144,↑,right,→,0.2836008999729529,False,18
X047M59,651,experiment,144,→,left,←,0.23402040009386837,False,18
X047M59,652,experiment,24,↑,no_key,no_letter,-1.0,False,18
X047M59,653,experiment,12,→,no_key,no_letter,-1.0,False,18
X047M59,654,experiment,36,↑,no_key,no_letter,-1.0,False,18
X047M59,655,experiment,120,←,right,→,0.23385690001305193,False,18
X047M59,656,experiment,156,←,right,→,0.23386549996212125,False,18
X047M59,657,experiment,96,→,right,→,0.23391650000121444,True,18
X047M59,658,experiment,132,↑,right,→,0.21685600001364946,False,18
X047M59,659,experiment,12,→,right,→,0.40052669995930046,True,18
X047M59,660,experiment,180,←,right,→,0.23384670005179942,False,18
X047M59,661,training,156,→,right,→,0.38342410000041127,True,18
X047M59,662,training,108,↓,right,→,0.21672420005779713,False,18
X047M59,663,training,120,↑,right,→,0.3503824999788776,False,18
X047M59,664,experiment,144,↑,left,←,0.3841340000508353,False,18
X047M59,665,experiment,48,↓,left,←,0.43374250002671033,False,18
X047M59,666,experiment,156,↓,left,←,0.4338556999573484,False,18
X047M59,667,experiment,12,↑,left,←,0.3671434000134468,False,18
X047M59,668,experiment,84,→,left,←,0.250934400013648,False,18
X047M59,669,experiment,36,→,left,←,0.3171629999997094,False,18
X047M59,670,experiment,24,↓,left,←,0.23371439997572452,False,18
X047M59,671,experiment,12,↓,right,→,1.8430937000084668,False,18
X047M59,672,experiment,60,→,left,←,0.26680450001731515,False,18
X047M59,673,experiment,144,↑,right,→,0.2337163999909535,False,18
X047M59,674,experiment,120,←,left,←,0.26706270000431687,True,18
X047M59,675,experiment,36,→,left,←,0.30101729999296367,False,18
X047M59,676,experiment,96,↓,left,←,0.43374889995902777,False,18
X047M59,677,experiment,168,↓,left,←,0.23400289996061474,False,18
X047M59,678,experiment,144,↑,right,→,0.3503505999688059,False,18
X047M59,679,experiment,156,←,right,→,0.3509238000260666,False,18
X047M59,680,experiment,96,→,right,→,0.26712179998867214,True,18
X047M59,681,experiment,180,↑,right,→,0.38371700001880527,False,18
X047M59,682,experiment,120,↓,left,←,0.49387680005747825,False,18
X047M59,683,experiment,84,↓,left,←,0.3511740999529138,False,18
X047M59,684,experiment,180,↓,no_key,no_letter,-1.0,False,18
X047M59,685,experiment,120,→,right,→,0.20014990004710853,True,18
X047M59,686,experiment,108,↓,right,→,0.25077699997927994,False,18
X047M59,687,experiment,84,↓,left,←,0.25191560003440827,False,18
X047M59,688,experiment,84,←,right,→,0.2169888000935316,False,18
X047M59,689,experiment,12,↓,right,→,0.383744899998419,False,18
X047M59,690,experiment,144,←,left,←,0.1844586000079289,True,18
X047M59,691,experiment,156,↑,right,→,0.18377480003982782,False,18
X047M59,692,experiment,96,→,left,←,0.3339801999973133,False,18
X047M59,693,experiment,168,↓,left,←,0.23368179996032268,False,18
X047M59,694,experiment,12,←,right,→,0.48208440002053976,False,18
X047M59,695,experiment,48,↓,left,←,0.3334502000361681,False,18
X047M59,696,experiment,132,↓,right,→,0.21718999999575317,False,18
X047M59,697,experiment,108,↑,right,→,0.3671332999365404,False,18
X047M59,698,experiment,72,↑,left,←,0.2502319000195712,False,18
X047M59,699,experiment,48,→,right,→,0.3999010999687016,True,18
X047M59,700,experiment,120,↑,left,←,0.2010283999843523,False,18
X047M59,701,experiment,132,↓,right,→,0.26704050006810576,False,18
X047M59,702,experiment,72,↑,right,→,0.3008049000054598,False,18
X047M59,703,experiment,24,↑,left,←,0.4945929000386968,False,18
X047M59,704,experiment,72,↓,right,→,0.3172725000185892,False,18
X047M59,705,experiment,72,→,right,→,0.250381899997592,True,18
X047M59,706,experiment,24,↓,right,→,0.3502305999863893,False,18
X047M59,707,experiment,60,←,left,←,0.2676365999504924,True,18
X047M59,708,experiment,96,→,left,←,0.25058590003754944,False,18
X047M59,709,experiment,132,↑,right,→,0.20107910002116114,False,18
X047M59,710,experiment,168,↓,left,←,0.21715559996664524,False,18
X047M59,711,experiment,36,↑,right,→,0.2505439000669867,False,18
X047M59,712,experiment,132,↑,left,←,0.2503115999279544,False,18
X047M59,713,experiment,168,↓,left,←,0.2836984000168741,False,18
X047M59,714,experiment,108,↓,right,→,0.23367519991006702,False,18
X047M59,715,experiment,48,↓,left,←,0.2671571000246331,False,18
X047M59,716,experiment,60,↑,right,→,0.4002747000195086,False,18
X047M59,717,experiment,36,↓,left,←,0.31697130005341023,False,18
X047M59,718,experiment,180,←,right,→,0.2844131999881938,False,18
X047M59,719,experiment,108,↓,left,←,0.5922922999598086,False,18
X047M59,720,experiment,156,↑,right,→,0.3173123999731615,False,18
X047M59,721,experiment,60,→,left,←,0.2671611999394372,False,18
X047M59,722,experiment,180,↓,right,→,0.25037110003177077,False,18
X047M59,723,experiment,24,↓,left,←,0.4002531999722123,False,18
X047M59,724,training,156,←,left,←,0.3506981999380514,True,18
X047M59,725,training,144,↑,left,←,0.30057349998969585,False,18
X047M59,726,training,72,↓,left,←,0.4178507999749854,False,18
X047M59,727,experiment,156,↑,right,→,0.2335875000571832,False,18
X047M59,728,experiment,96,→,left,←,0.2678434000117704,False,18
X047M59,729,experiment,84,↓,right,→,0.18370230006985366,False,18
X047M59,730,experiment,60,←,no_key,no_letter,-1.0,False,18
X047M59,731,experiment,180,↑,left,←,0.2672538000624627,False,18
X047M59,732,experiment,132,→,right,→,0.25033819989766926,True,18
X047M59,733,experiment,120,→,left,←,0.2847609000746161,False,18
X047M59,734,experiment,156,→,right,→,0.23510960000567138,True,18
X047M59,735,experiment,48,→,right,→,0.4170685999561101,True,18
X047M59,736,experiment,36,←,left,←,0.3836537000024691,True,18
X047M59,737,experiment,72,↓,left,←,0.250422399956733,False,18
X047M59,738,experiment,36,←,right,→,0.5601061000488698,False,18
X047M59,739,experiment,96,↓,no_key,no_letter,-1.0,False,18
X047M59,740,experiment,180,→,right,→,0.31703010003548115,True,18
X047M59,741,experiment,84,→,left,←,0.3171013999963179,False,18
X047M59,742,experiment,60,→,left,←,0.7467073999578133,False,18
X047M59,743,experiment,24,→,no_key,no_letter,-1.0,False,18
X047M59,744,experiment,132,↑,left,←,0.383492200053297,False,18
X047M59,745,experiment,12,←,no_key,no_letter,-1.0,False,18
X047M59,746,experiment,168,→,right,→,0.31719980004709214,True,18
X047M59,747,experiment,12,↑,right,→,0.7516220000106841,False,18
X047M59,748,experiment,72,↑,left,←,0.25068469997495413,False,18
X047M59,749,experiment,120,↑,right,→,0.23376199998892844,False,18
X047M59,750,experiment,72,↓,right,→,0.2838655000086874,False,18
X047M59,751,experiment,72,←,right,→,0.4005359000293538,False,18
X047M59,752,experiment,120,→,right,→,0.2173197999363765,True,18
X047M59,753,experiment,84,↑,right,→,0.21775519999209791,False,18
X047M59,754,experiment,180,→,left,←,0.2670778000028804,False,18
X047M59,755,experiment,144,↓,right,→,0.3168596000177786,False,18
X047M59,756,experiment,132,↓,right,→,0.3674831000389531,False,18
X047M59,757,experiment,108,→,left,←,0.30069340008776635,False,18
X047M59,758,experiment,48,←,right,→,0.3003857999574393,False,18
X047M59,759,experiment,144,↓,left,←,0.20002310001291335,False,18
X047M59,760,experiment,144,↑,right,→,0.284604600048624,False,18
X047M59,761,experiment,144,←,left,←,0.3006531000137329,True,18
X047M59,762,experiment,96,↓,right,→,0.28370179992634803,False,18
X047M59,763,experiment,180,↓,right,→,0.3172156000509858,False,18
X047M59,764,experiment,24,→,right,→,0.3002703000092879,True,18
X047M59,765,experiment,84,↓,right,→,0.3002272999146953,False,18
X047M59,766,experiment,108,←,left,←,0.217305300058797,True,18
X047M59,767,experiment,24,←,right,→,0.35056350007653236,False,18
X047M59,768,experiment,132,↓,left,←,0.2506266999989748,False,18
X047M59,769,experiment,168,↓,right,→,0.23408969992306083,False,18
X047M59,770,experiment,168,↓,right,→,0.20033100002910942,False,18
X047M59,771,experiment,36,←,no_key,no_letter,-1.0,False,18
X047M59,772,experiment,120,↓,right,→,0.26743260002695024,False,18
X047M59,773,experiment,48,↑,left,←,0.21789810003247112,False,18
X047M59,774,experiment,156,↓,right,→,0.2503052999963984,False,18
X047M59,775,experiment,96,↓,left,←,0.266873300075531,False,18
X047M59,776,experiment,156,↑,right,→,0.21744560007937253,False,18
X047M59,777,experiment,12,→,no_key,no_letter,-1.0,False,18
X047M59,778,experiment,24,→,no_key,no_letter,-1.0,False,18
X047M59,779,experiment,168,↑,left,←,0.2840558000607416,False,18
X047M59,780,experiment,36,→,right,→,0.35035089997109026,True,18
X047M59,781,experiment,12,→,left,←,0.2169432999799028,False,18
X047M59,782,experiment,60,↓,left,←,0.26730519998818636,False,18
X047M59,783,experiment,108,←,left,←,0.30022890004329383,True,18
X047M59,784,experiment,108,↓,left,←,0.40034880000166595,False,18
X047M59,785,experiment,60,←,right,→,0.3674306001048535,False,18
X047M59,786,experiment,48,↑,left,←,0.2503281000535935,False,18
X047M59,787,training,108,←,no_key,no_letter,-1.0,False,18
X047M59,788,training,132,↓,left,←,0.2837711999891326,False,18
X047M59,789,training,24,↑,no_key,no_letter,-1.0,False,18
X047M59,790,experiment,108,↓,left,←,0.3505725000286475,False,18
X047M59,791,experiment,108,→,left,←,0.26835100003518164,False,18
X047M59,792,experiment,108,↑,left,←,0.2670512000331655,False,18
X047M59,793,experiment,24,←,left,←,0.36700530000962317,True,18
X047M59,794,experiment,156,↓,right,→,0.2001468000235036,False,18
X047M59,795,experiment,12,↑,right,→,0.3838262999197468,False,18
X047M59,796,experiment,72,↓,left,←,0.20094050001353025,False,18
X047M59,797,experiment,36,←,right,→,0.2168493999633938,False,18
X047M59,798,experiment,120,↑,right,→,0.30050400004256517,False,18
X047M59,799,experiment,132,←,left,←,0.20056499994825572,True,18
X047M59,800,experiment,168,←,right,→,0.25048470008186996,False,18
X047M59,801,experiment,60,↓,right,→,0.2003127000061795,False,18
X047M59,802,experiment,48,↑,right,→,0.2336924000410363,False,18
X047M59,803,experiment,132,←,left,←,0.23458630009554327,True,18
X047M59,804,experiment,120,→,right,→,0.21782869996968657,True,18
X047M59,805,experiment,180,←,left,←,0.20066560001578182,True,18
X047M59,806,experiment,132,→,left,←,0.2169570999685675,False,18
X047M59,807,experiment,60,↓,left,←,0.2838251000503078,False,18
X047M59,808,experiment,180,→,left,←,0.20059539994690567,False,18
X047M59,809,experiment,84,↑,left,←,0.3004211999941617,False,18
X047M59,810,experiment,48,↓,left,←,0.21744649996981025,False,18
X047M59,811,experiment,36,←,left,←,0.25057070003822446,True,18
X047M59,812,experiment,156,←,right,→,0.18476929992903024,False,18
X047M59,813,experiment,108,→,left,←,0.21790289995260537,False,18
X047M59,814,experiment,84,↓,right,→,0.25150539993774146,False,18
X047M59,815,experiment,96,↓,right,→,0.2834471999667585,False,18
X047M59,816,experiment,36,↑,no_key,no_letter,-1.0,False,18
X047M59,817,experiment,72,↓,no_key,no_letter,-1.0,False,18
X047M59,818,experiment,96,↑,left,←,0.31700020004063845,False,18
X047M59,819,experiment,168,←,left,←,0.3171549999387935,True,18
X047M59,820,experiment,48,→,right,→,0.3335949999745935,True,18
X047M59,821,experiment,96,←,left,←,0.2667645999463275,True,18
X047M59,822,experiment,60,←,right,→,0.28415839991066605,False,18
X047M59,823,experiment,120,←,left,←,0.2838040000060573,True,18
X047M59,824,experiment,24,↑,left,←,0.33368959999643266,False,18
X047M59,825,experiment,120,↓,right,→,0.2839439999079332,False,18
X047M59,826,experiment,144,↓,right,→,0.31721510004717857,False,18
X047M59,827,experiment,168,↑,right,→,0.2668550000526011,False,18
X047M59,828,experiment,144,→,left,←,0.3333748000441119,False,18
X047M59,829,experiment,168,↑,right,→,0.30055179994087666,False,18
X047M59,830,experiment,144,↑,right,→,0.283381599932909,False,18
X047M59,831,experiment,24,←,left,←,0.2336993000935763,True,18
X047M59,832,experiment,180,←,left,←,0.25075999996624887,True,18
X047M59,833,experiment,12,↑,no_key,no_letter,-1.0,False,18
X047M59,834,experiment,36,↑,right,→,0.30096440005581826,False,18
X047M59,835,experiment,48,←,left,←,0.2507760999724269,True,18
X047M59,836,experiment,156,↓,right,→,0.250668799970299,False,18
X047M59,837,experiment,24,→,right,→,0.3006890000542626,True,18
X047M59,838,experiment,84,↓,left,←,0.28413820010609925,False,18
X047M59,839,experiment,180,←,right,→,0.20029890001751482,False,18
X047M59,840,experiment,60,↑,left,←,0.26671890006400645,False,18
X047M59,841,experiment,96,→,left,←,0.2838752999668941,False,18
X047M59,842,experiment,84,↑,left,←,0.23406629997771233,False,18
X047M59,843,experiment,12,←,right,→,0.267147499951534,False,18
X047M59,844,experiment,156,→,left,←,0.24991160002537072,False,18
X047M59,845,experiment,12,↓,no_key,no_letter,-1.0,False,18
X047M59,846,experiment,72,→,left,←,0.28383779991418123,False,18
X047M59,847,experiment,132,↓,right,→,0.2340388000011444,False,18
X047M59,848,experiment,144,↓,left,←,0.30010009999386966,False,18
X047M59,849,experiment,72,→,right,→,0.47831359994597733,True,18
