PART_ID,Trial,Stimuli,Version,Training,FIXTIME,TIME,Correct,SOA,Reversal,Reversal_count,Latency,stim_name,Rating
209K20,1,SQUARES,First_showed,training,45,15,True,8,-,-,1.0339429999994536,right,-
209K20,2,SQUARES,First_showed,training,45,15,True,8,-,-,0.8006549000001542,left,-
209K20,3,SQUARES,First_showed,training,45,15,True,8,-,-,0.41707680000035907,right,-
209K20,4,SQUARES,First_showed,training,45,15,True,8,-,-,0.4667896999999357,right,-
209K20,5,SQUARES,First_showed,training,45,15,True,8,-,-,0.7672933000003468,left,-
209K20,6,SQUARES,First_showed,training,45,15,True,8,-,-,0.30049379999945813,right,-
209K20,7,SQUARES,First_showed,training,45,15,True,8,-,-,0.30071070000030886,right,-
209K20,8,SQUARES,First_showed,training,45,15,True,8,-,-,0.4501531999994768,right,-
209K20,9,SQUARES,First_showed,training,45,15,True,8,-,-,0.33391459999984363,left,-
209K20,10,SQUARES,First_showed,training,45,15,True,8,-,-,0.3171837999998388,left,-
209K20,11,SQUARES,First_showed,training,45,15,True,3,-,-,0.33397450000029494,right,-
209K20,12,SQUARES,First_showed,training,45,15,True,3,-,-,0.43389180000031047,left,-
209K20,13,SQUARES,First_showed,training,45,15,True,3,-,-,0.41722479999953066,right,-
209K20,14,SQUARES,First_showed,training,45,15,True,3,-,-,0.4006324999991193,right,-
209K20,15,SQUARES,First_showed,training,45,15,True,3,-,-,0.6006514000000607,left,-
209K20,16,SQUARES,First_showed,training,45,15,True,3,-,-,0.46684020000066084,right,-
209K20,17,SQUARES,First_showed,training,45,15,True,3,-,-,0.450790899999447,left,-
209K20,18,SQUARES,First_showed,training,45,15,True,3,-,-,0.4168699000001652,right,-
209K20,19,SQUARES,First_showed,training,45,15,True,3,-,-,0.3670664000001125,right,-
209K20,20,SQUARES,First_showed,training,45,15,True,3,-,-,0.35061080000014044,left,-
209K20,1,SQUARES,First_showed,exp,45,15,False,3,0,0,0.4340286999995442,left,-
209K20,2,SQUARES,First_showed,exp,45,15,True,4,0,-,0.2505055000001448,left,-
209K20,3,SQUARES,First_showed,exp,45,15,True,4,1,1,0.2840555000002496,right,-
209K20,4,SQUARES,First_showed,exp,45,15,True,3,0,-,0.3672621000005165,left,-
209K20,5,SQUARES,First_showed,exp,45,15,True,3,0,-,0.21722930000032648,right,-
209K20,6,SQUARES,First_showed,exp,45,15,True,2,0,-,0.4006680000002234,right,-
209K20,7,SQUARES,First_showed,exp,45,15,True,2,0,-,0.1506770999985747,right,-
209K20,8,SQUARES,First_showed,exp,45,15,True,1,0,-,0.633984000000055,left,-
209K20,9,SQUARES,First_showed,exp,45,15,False,1,1,2,1.9006552000009833,left,-
209K20,10,SQUARES,First_showed,exp,45,15,True,2,0,-,0.6172700000006444,right,-
209K20,11,SQUARES,First_showed,exp,45,15,True,2,1,3,0.36726869999984046,right,-
209K20,12,SQUARES,First_showed,exp,45,15,True,1,0,-,0.33391409999967436,right,-
209K20,13,SQUARES,First_showed,exp,45,15,True,1,0,-,0.500658700000713,right,-
209K20,14,SQUARES,First_showed,exp,45,15,True,0,0,-,0.9506631000003836,left,-
209K20,15,SQUARES,First_showed,exp,45,15,False,0,1,4,0.8506421000001865,left,-
209K20,16,SQUARES,First_showed,exp,45,15,False,1,0,-,0.8838529999993625,left,-
209K20,17,SQUARES,First_showed,exp,45,15,True,2,0,-,1.0173486000003322,left,-
209K20,18,SQUARES,First_showed,exp,45,15,True,2,1,5,0.9339799999997922,right,-
209K20,19,SQUARES,First_showed,exp,45,15,False,1,1,6,1.2338619000001927,left,-
209K20,20,SQUARES,First_showed,exp,45,15,True,2,0,-,0.33378690000063216,right,-
209K20,21,SQUARES,First_showed,exp,45,15,True,2,1,7,0.3174122999989777,right,-
209K20,22,SQUARES,First_showed,exp,45,15,False,1,1,8,0.4502210999999079,left,-
209K20,23,SQUARES,First_showed,exp,45,15,False,2,0,-,0.4340731999982381,left,-
209K20,24,SQUARES,First_showed,exp,45,15,True,3,0,-,0.43384940000032657,left,-
209K20,25,SQUARES,First_showed,exp,45,15,True,3,1,9,0.4673081999990245,right,-
209K20,26,SQUARES,First_showed,exp,45,15,True,2,0,-,0.33368870000049355,right,-
209K20,27,SQUARES,First_showed,exp,45,15,True,2,0,-,0.4004356999994343,right,-
209K20,28,SQUARES,First_showed,exp,45,15,True,1,0,-,0.8005756999991718,right,-
209K20,29,SQUARES,First_showed,exp,45,15,False,1,1,10,0.48375429999941844,left,-
209K20,1,CIRCLES,First_hidden,training,45,15,True,8,-,-,0.7502843999991455,left,-
209K20,2,CIRCLES,First_hidden,training,45,15,True,8,-,-,0.3841584999991028,left,-
209K20,3,CIRCLES,First_hidden,training,45,15,True,8,-,-,0.800114499999836,left,-
209K20,4,CIRCLES,First_hidden,training,45,15,True,8,-,-,0.3839533999998821,right,-
209K20,5,CIRCLES,First_hidden,training,45,15,True,8,-,-,0.6506484000001365,right,-
209K20,6,CIRCLES,First_hidden,training,45,15,True,8,-,-,0.23393020000003162,left,-
209K20,7,CIRCLES,First_hidden,training,45,15,True,8,-,-,0.40072070000132953,right,-
209K20,8,CIRCLES,First_hidden,training,45,15,True,8,-,-,0.30055389999870386,right,-
209K20,9,CIRCLES,First_hidden,training,45,15,True,8,-,-,0.4011719999998604,right,-
209K20,10,CIRCLES,First_hidden,training,45,15,True,8,-,-,0.30064349999884143,left,-
209K20,11,CIRCLES,First_hidden,training,45,15,True,3,-,-,0.5839447999987897,left,-
209K20,12,CIRCLES,First_hidden,training,45,15,True,3,-,-,0.41716639999867766,left,-
209K20,13,CIRCLES,First_hidden,training,45,15,True,3,-,-,0.3173117000005732,left,-
209K20,14,CIRCLES,First_hidden,training,45,15,False,3,-,-,1.3507215999998152,right,-
209K20,15,CIRCLES,First_hidden,training,45,15,True,3,-,-,0.7668150000008609,right,-
209K20,16,CIRCLES,First_hidden,training,45,15,True,3,-,-,0.5504645999990316,left,-
209K20,17,CIRCLES,First_hidden,training,45,15,True,3,-,-,0.6339427000002615,right,-
209K20,18,CIRCLES,First_hidden,training,45,15,True,3,-,-,0.5674125000005006,right,-
209K20,19,CIRCLES,First_hidden,training,45,15,True,3,-,-,0.7172441000002436,right,-
209K20,20,CIRCLES,First_hidden,training,45,15,True,3,-,-,0.5672447000015381,right,-
209K20,1,CIRCLES,First_hidden,exp,45,15,True,3,0,0,0.45065509999949427,left,-
209K20,2,CIRCLES,First_hidden,exp,45,15,True,3,0,-,0.550765500000125,left,-
209K20,3,CIRCLES,First_hidden,exp,45,15,True,2,0,-,0.5339807000000292,left,-
209K20,4,CIRCLES,First_hidden,exp,45,15,True,2,0,-,0.5506597000003239,left,-
209K20,5,CIRCLES,First_hidden,exp,45,15,True,1,0,-,0.9338855000005424,right,-
209K20,6,CIRCLES,First_hidden,exp,45,15,True,1,0,-,0.7840261000001192,right,-
209K20,7,CIRCLES,First_hidden,exp,45,15,True,0,0,-,0.9335659000007581,right,-
209K20,8,CIRCLES,First_hidden,exp,45,15,True,0,0,-,0.6507210999989184,left,-
209K20,9,CIRCLES,First_hidden,exp,45,15,True,-1,0,-,0.6339737999987847,left,-
209K20,10,CIRCLES,First_hidden,exp,45,15,True,-1,0,-,0.467364500000258,left,-
209K20,11,CIRCLES,First_hidden,exp,45,15,False,-2,1,1,0.7001237000004039,right,-
209K20,12,CIRCLES,First_hidden,exp,45,15,True,-1,0,-,0.8506282999987889,left,-
209K20,13,CIRCLES,First_hidden,exp,45,15,False,-1,0,-,0.9007177999992564,right,-
209K20,14,CIRCLES,First_hidden,exp,45,15,True,0,0,-,0.967435900000055,right,-
209K20,15,CIRCLES,First_hidden,exp,45,15,True,0,1,2,0.9679055999986304,left,-
209K20,16,CIRCLES,First_hidden,exp,45,15,False,-1,1,3,0.5844765999991068,left,-
209K20,17,CIRCLES,First_hidden,exp,45,15,False,0,0,-,0.5507145999999921,right,-
209K20,18,CIRCLES,First_hidden,exp,45,15,True,1,0,-,0.11721369999941089,left,-
209K20,19,CIRCLES,First_hidden,exp,45,15,False,1,0,-,0.01725609999994049,right,-
209K20,20,CIRCLES,First_hidden,exp,45,15,False,2,0,-,0.033922299999176175,right,-
209K20,21,CIRCLES,First_hidden,exp,45,15,True,3,0,-,0.8506642000011198,right,-
209K20,22,CIRCLES,First_hidden,exp,45,15,True,3,1,4,0.46749430000090797,right,-
209K20,23,CIRCLES,First_hidden,exp,45,15,False,2,1,5,0.7506319000003714,left,-
209K20,24,CIRCLES,First_hidden,exp,45,15,True,3,0,-,0.550452999999834,left,-
209K20,25,CIRCLES,First_hidden,exp,45,15,True,3,1,6,0.5837570999992749,right,-
209K20,26,CIRCLES,First_hidden,exp,45,15,True,2,0,-,0.43346940000083123,left,-
209K20,27,CIRCLES,First_hidden,exp,45,15,True,2,0,-,0.5672728000008647,right,-
209K20,28,CIRCLES,First_hidden,exp,45,15,False,1,1,7,0.867464299999483,right,-
209K20,29,CIRCLES,First_hidden,exp,45,15,True,2,0,-,0.5006579999990208,left,-
209K20,30,CIRCLES,First_hidden,exp,45,15,True,2,1,8,0.5336531000011746,right,-
209K20,31,CIRCLES,First_hidden,exp,45,15,True,1,0,-,0.41732390000106534,left,-
209K20,32,CIRCLES,First_hidden,exp,45,15,True,1,0,-,0.8340351999995619,right,-
209K20,33,CIRCLES,First_hidden,exp,45,15,True,0,0,-,0.8507030999990093,right,-
209K20,34,CIRCLES,First_hidden,exp,45,15,True,0,0,-,0.5006257999993977,right,-
209K20,35,CIRCLES,First_hidden,exp,45,15,True,-1,0,-,0.667300900000555,left,-
209K20,36,CIRCLES,First_hidden,exp,45,15,True,-1,0,-,0.5004449999996723,right,-
209K20,37,CIRCLES,First_hidden,exp,45,15,False,-2,1,9,1.0004939999998896,right,-
209K20,38,CIRCLES,First_hidden,exp,45,15,True,-1,0,-,0.6671059000000241,right,-
209K20,39,CIRCLES,First_hidden,exp,45,15,True,-1,1,10,1.7839311999996426,right,-
