PART_ID,Trial,Stimuli,Version,Training,FIXTIME,TIME,Correct,SOA,Reversal,Reversal_count,Latency,stim_name,Rating
PB015M39,1,SQUARES,First_showed,training,45,15,True,8,-,-,1.500622099993052,right,-
PB015M39,2,SQUARES,First_showed,training,45,15,True,8,-,-,0.7339249999931781,left,-
PB015M39,3,SQUARES,First_showed,training,45,15,True,8,-,-,0.6835037999990163,right,-
PB015M39,4,SQUARES,First_showed,training,45,15,True,8,-,-,0.26713350000500213,right,-
PB015M39,5,SQUARES,First_showed,training,45,15,True,8,-,-,0.15075069999147672,right,-
PB015M39,6,SQUARES,First_showed,training,45,15,True,8,-,-,0.4335280000086641,right,-
PB015M39,7,SQUARES,First_showed,training,45,15,True,8,-,-,0.2672026999935042,left,-
PB015M39,8,SQUARES,First_showed,training,45,15,True,8,-,-,0.4506614999991143,right,-
PB015M39,9,SQUARES,First_showed,training,45,15,True,8,-,-,0.3006671000039205,right,-
PB015M39,10,SQUARES,First_showed,training,45,15,True,8,-,-,0.1338528999913251,right,-
PB015M39,11,SQUARES,First_showed,training,45,15,True,3,-,-,0.5501180999999633,left,-
PB015M39,12,SQUARES,First_showed,training,45,15,True,3,-,-,0.45062679999682587,right,-
PB015M39,13,SQUARES,First_showed,training,45,15,True,3,-,-,0.3340345000033267,right,-
PB015M39,14,SQUARES,First_showed,training,45,15,True,3,-,-,0.5003899999865098,right,-
PB015M39,15,SQUARES,First_showed,training,45,15,True,3,-,-,0.23390800000925083,right,-
PB015M39,16,SQUARES,First_showed,training,45,15,True,3,-,-,0.2506528000085382,right,-
PB015M39,17,SQUARES,First_showed,training,45,15,True,3,-,-,0.3172974999906728,left,-
PB015M39,18,SQUARES,First_showed,training,45,15,True,3,-,-,0.3342138000007253,right,-
PB015M39,19,SQUARES,First_showed,training,45,15,True,3,-,-,0.2338997000042582,left,-
PB015M39,20,SQUARES,First_showed,training,45,15,True,3,-,-,0.4007364000135567,left,-
PB015M39,1,SQUARES,First_showed,exp,45,15,True,3,0,0,2.5008435000054305,right,-
PB015M39,2,SQUARES,First_showed,exp,45,15,True,3,0,-,0.43342780000239145,right,-
PB015M39,3,SQUARES,First_showed,exp,45,15,True,2,0,-,0.300736399993184,right,-
PB015M39,4,SQUARES,First_showed,exp,45,15,True,2,0,-,0.25043010000081267,left,-
PB015M39,5,SQUARES,First_showed,exp,45,15,True,1,0,-,0.433860300006927,left,-
PB015M39,6,SQUARES,First_showed,exp,45,15,True,1,0,-,0.46725709999736864,left,-
PB015M39,7,SQUARES,First_showed,exp,45,15,False,0,1,1,0.7670036999916192,right,-
PB015M39,8,SQUARES,First_showed,exp,45,15,False,1,0,-,0.900539199996274,right,-
PB015M39,9,SQUARES,First_showed,exp,45,15,True,2,0,-,0.38413340000261087,left,-
PB015M39,10,SQUARES,First_showed,exp,45,15,True,2,1,2,0.23398490001272876,left,-
PB015M39,11,SQUARES,First_showed,exp,45,15,True,1,0,-,0.28341019999061245,left,-
PB015M39,12,SQUARES,First_showed,exp,45,15,False,1,1,3,0.2171844999975292,right,-
PB015M39,13,SQUARES,First_showed,exp,45,15,True,2,0,-,0.2173694999946747,left,-
PB015M39,14,SQUARES,First_showed,exp,45,15,True,2,1,4,0.3339910000067903,right,-
PB015M39,15,SQUARES,First_showed,exp,45,15,True,1,0,-,0.9673540000076173,right,-
PB015M39,16,SQUARES,First_showed,exp,45,15,True,1,0,-,1.2172514999983832,right,-
PB015M39,17,SQUARES,First_showed,exp,45,15,False,0,1,5,1.100598999997601,left,-
PB015M39,18,SQUARES,First_showed,exp,45,15,True,1,0,-,1.2172969999955967,right,-
PB015M39,19,SQUARES,First_showed,exp,45,15,False,1,0,-,1.0839102000027196,right,-
PB015M39,20,SQUARES,First_showed,exp,45,15,True,2,0,-,0.5005718000029447,right,-
PB015M39,21,SQUARES,First_showed,exp,45,15,True,2,1,6,0.41715999999723863,left,-
PB015M39,22,SQUARES,First_showed,exp,45,15,False,1,1,7,0.5673203000042122,right,-
PB015M39,23,SQUARES,First_showed,exp,45,15,True,2,0,-,1.0339047000015853,right,-
PB015M39,24,SQUARES,First_showed,exp,45,15,True,2,1,8,0.433870199994999,left,-
PB015M39,25,SQUARES,First_showed,exp,45,15,False,1,1,9,0.7006130000081612,right,-
PB015M39,26,SQUARES,First_showed,exp,45,15,True,2,0,-,0.33343820000300184,left,-
PB015M39,27,SQUARES,First_showed,exp,45,15,True,2,1,10,1.1340793999988819,right,-
PB015M39,1,CIRCLES,First_hidden,training,45,15,True,8,-,-,2.0338482999941334,left,-
PB015M39,2,CIRCLES,First_hidden,training,45,15,True,8,-,-,1.250600100000156,right,-
PB015M39,3,CIRCLES,First_hidden,training,45,15,True,8,-,-,1.0503455999860307,left,-
PB015M39,4,CIRCLES,First_hidden,training,45,15,True,8,-,-,0.43412289999832865,left,-
PB015M39,5,CIRCLES,First_hidden,training,45,15,True,8,-,-,0.5671899000008125,left,-
PB015M39,6,CIRCLES,First_hidden,training,45,15,True,8,-,-,0.5004260999994585,right,-
PB015M39,7,CIRCLES,First_hidden,training,45,15,True,8,-,-,0.5005639000009978,right,-
PB015M39,8,CIRCLES,First_hidden,training,45,15,True,8,-,-,0.4171708999929251,left,-
PB015M39,9,CIRCLES,First_hidden,training,45,15,True,8,-,-,0.38362039999628905,right,-
PB015M39,10,CIRCLES,First_hidden,training,45,15,True,8,-,-,0.26721040000848006,right,-
PB015M39,11,CIRCLES,First_hidden,training,45,15,True,3,-,-,0.36691770001198165,right,-
PB015M39,12,CIRCLES,First_hidden,training,45,15,True,3,-,-,0.41717280000739265,left,-
PB015M39,13,CIRCLES,First_hidden,training,45,15,True,3,-,-,0.35056120000081137,left,-
PB015M39,14,CIRCLES,First_hidden,training,45,15,True,3,-,-,0.5172170000005281,right,-
PB015M39,15,CIRCLES,First_hidden,training,45,15,True,3,-,-,0.4506464000005508,right,-
PB015M39,16,CIRCLES,First_hidden,training,45,15,False,3,-,-,0.4673174000054132,left,-
PB015M39,17,CIRCLES,First_hidden,training,45,15,True,3,-,-,0.46700370000326075,right,-
PB015M39,18,CIRCLES,First_hidden,training,45,15,True,3,-,-,0.4168170999910217,right,-
PB015M39,19,CIRCLES,First_hidden,training,45,15,True,3,-,-,0.4838932999991812,right,-
PB015M39,20,CIRCLES,First_hidden,training,45,15,True,3,-,-,0.333702899995842,right,-
PB015M39,1,CIRCLES,First_hidden,exp,45,15,True,3,0,0,0.4673220999975456,right,-
PB015M39,2,CIRCLES,First_hidden,exp,45,15,True,3,0,-,0.5006387000030372,left,-
PB015M39,3,CIRCLES,First_hidden,exp,45,15,False,2,1,1,1.034069500004989,left,-
PB015M39,4,CIRCLES,First_hidden,exp,45,15,True,3,0,-,0.4501621000090381,right,-
PB015M39,5,CIRCLES,First_hidden,exp,45,15,True,3,1,2,0.5340294000052381,right,-
PB015M39,6,CIRCLES,First_hidden,exp,45,15,True,2,0,-,0.4506744999962393,right,-
PB015M39,7,CIRCLES,First_hidden,exp,45,15,True,2,0,-,0.7007006000058027,right,-
PB015M39,8,CIRCLES,First_hidden,exp,45,15,False,1,1,3,1.1839216000080341,left,-
PB015M39,9,CIRCLES,First_hidden,exp,45,15,True,2,0,-,1.1341587000060827,right,-
PB015M39,10,CIRCLES,First_hidden,exp,45,15,True,2,1,4,0.7340767999994569,right,-
PB015M39,11,CIRCLES,First_hidden,exp,45,15,False,1,1,5,0.9839324999920791,right,-
PB015M39,12,CIRCLES,First_hidden,exp,45,15,True,2,0,-,0.7172142000054009,left,-
PB015M39,13,CIRCLES,First_hidden,exp,45,15,True,2,1,6,0.700562700003502,left,-
PB015M39,14,CIRCLES,First_hidden,exp,45,15,True,1,0,-,0.7672951000131434,left,-
PB015M39,15,CIRCLES,First_hidden,exp,45,15,True,1,0,-,0.7505299000040395,left,-
PB015M39,16,CIRCLES,First_hidden,exp,45,15,False,0,1,7,1.0003367000026628,left,-
PB015M39,17,CIRCLES,First_hidden,exp,45,15,False,1,0,-,1.0502170999970986,left,-
PB015M39,18,CIRCLES,First_hidden,exp,45,15,True,2,0,-,0.8837629000045126,right,-
PB015M39,19,CIRCLES,First_hidden,exp,45,15,True,2,1,8,0.8173593999963487,left,-
PB015M39,20,CIRCLES,First_hidden,exp,45,15,True,1,0,-,0.8339458999980707,left,-
PB015M39,21,CIRCLES,First_hidden,exp,45,15,True,1,0,-,0.9838325000018813,left,-
PB015M39,22,CIRCLES,First_hidden,exp,45,15,False,0,1,9,1.0501495999924373,right,-
PB015M39,23,CIRCLES,First_hidden,exp,45,15,False,1,0,-,0.9339309999922989,left,-
PB015M39,24,CIRCLES,First_hidden,exp,45,15,True,2,0,-,0.6671749999950407,right,-
PB015M39,25,CIRCLES,First_hidden,exp,45,15,True,2,1,10,0.5173284999909811,left,-
