PART_ID,Trial,Stimuli,Version,Training,FIXTIME,TIME,Correct,SOA,Reversal,Reversal_count,Latency,stim_name,Rating
PB013M32,1,SQUARES,First_showed,training,45,15,True,8,-,-,0.4840855999937048,right,-
PB013M32,2,SQUARES,First_showed,training,45,15,True,8,-,-,0.15063860001100693,right,-
PB013M32,3,SQUARES,First_showed,training,45,15,True,8,-,-,0.20032839999475982,left,-
PB013M32,4,SQUARES,First_showed,training,45,15,True,8,-,-,0.2340835000068182,left,-
PB013M32,5,SQUARES,First_showed,training,45,15,True,8,-,-,0.13389230000029784,right,-
PB013M32,6,SQUARES,First_showed,training,45,15,True,8,-,-,0.35055950000241864,right,-
PB013M32,7,SQUARES,First_showed,training,45,15,True,8,-,-,0.06727059998956975,left,-
PB013M32,8,SQUARES,First_showed,training,45,15,True,8,-,-,0.2173958999919705,left,-
PB013M32,9,SQUARES,First_showed,training,45,15,True,8,-,-,0.08401279999816325,left,-
PB013M32,10,SQUARES,First_showed,training,45,15,True,8,-,-,0.01737420000426937,left,-
PB013M32,11,SQUARES,First_showed,training,45,15,True,3,-,-,0.15038959999219514,left,-
PB013M32,12,SQUARES,First_showed,training,45,15,True,3,-,-,0.20067459999700077,right,-
PB013M32,13,SQUARES,First_showed,training,45,15,True,3,-,-,0.1338711999997031,left,-
PB013M32,14,SQUARES,First_showed,training,45,15,True,3,-,-,0.10065059999760706,right,-
PB013M32,15,SQUARES,First_showed,training,45,15,False,3,-,-,0.1170912999950815,right,-
PB013M32,16,SQUARES,First_showed,training,45,15,True,3,-,-,0.15059910000127275,right,-
PB013M32,17,SQUARES,First_showed,training,45,15,True,3,-,-,0.20057480000832584,right,-
PB013M32,18,SQUARES,First_showed,training,45,15,True,3,-,-,0.3836790000059409,right,-
PB013M32,19,SQUARES,First_showed,training,45,15,True,3,-,-,0.30042510000930633,right,-
PB013M32,20,SQUARES,First_showed,training,45,15,True,3,-,-,0.11716530000558123,right,-
PB013M32,1,SQUARES,First_showed,exp,45,15,True,3,0,0,0.2505282000056468,left,-
PB013M32,2,SQUARES,First_showed,exp,45,15,True,3,0,-,0.1835226999974111,left,-
PB013M32,3,SQUARES,First_showed,exp,45,15,True,2,0,-,0.1838592999993125,left,-
PB013M32,4,SQUARES,First_showed,exp,45,15,True,2,0,-,0.10060190000513103,right,-
PB013M32,5,SQUARES,First_showed,exp,45,15,True,1,0,-,0.08389590001024771,left,-
PB013M32,6,SQUARES,First_showed,exp,45,15,False,1,1,1,0.1506331999989925,left,-
PB013M32,7,SQUARES,First_showed,exp,45,15,True,2,0,-,0.08402540000679437,left,-
PB013M32,8,SQUARES,First_showed,exp,45,15,True,2,1,2,0.11722640000516549,left,-
PB013M32,9,SQUARES,First_showed,exp,45,15,True,1,0,-,0.06726809999963734,left,-
PB013M32,10,SQUARES,First_showed,exp,45,15,True,1,0,-,0.06732390000252053,left,-
PB013M32,11,SQUARES,First_showed,exp,45,15,True,0,0,-,1.2173384000052465,left,-
PB013M32,12,SQUARES,First_showed,exp,45,15,True,0,0,-,0.11719570000423118,left,-
PB013M32,13,SQUARES,First_showed,exp,45,15,True,-1,0,-,0.03405919999931939,right,-
PB013M32,14,SQUARES,First_showed,exp,45,15,False,-1,1,3,0.05074340000282973,right,-
PB013M32,15,SQUARES,First_showed,exp,45,15,True,0,0,-,0.06717029999708757,left,-
PB013M32,16,SQUARES,First_showed,exp,45,15,False,0,0,-,1.2507176000071922,right,-
PB013M32,17,SQUARES,First_showed,exp,45,15,True,1,0,-,0.06717149999167304,right,-
PB013M32,18,SQUARES,First_showed,exp,45,15,False,1,0,-,0.41731720000097994,right,-
PB013M32,19,SQUARES,First_showed,exp,45,15,True,2,0,-,0.0005206999921938404,left,-
PB013M32,20,SQUARES,First_showed,exp,45,15,False,2,0,-,0.05066560000705067,right,-
PB013M32,21,SQUARES,First_showed,exp,45,15,True,3,0,-,0.05074160000367556,left,-
PB013M32,22,SQUARES,First_showed,exp,45,15,True,3,1,4,2.400673199997982,right,-
PB013M32,23,SQUARES,First_showed,exp,45,15,False,2,1,5,0.017085200001019984,left,-
PB013M32,24,SQUARES,First_showed,exp,45,15,True,3,0,-,0.050547800012282096,left,-
PB013M32,25,SQUARES,First_showed,exp,45,15,True,3,1,6,0.08396479999646544,right,-
PB013M32,26,SQUARES,First_showed,exp,45,15,True,2,0,-,0.016940200002864003,left,-
PB013M32,27,SQUARES,First_showed,exp,45,15,False,2,1,7,0.05062809999799356,left,-
PB013M32,28,SQUARES,First_showed,exp,45,15,True,3,0,-,0.1168102999945404,left,-
PB013M32,29,SQUARES,First_showed,exp,45,15,True,3,1,8,1.6670949999970617,left,-
PB013M32,30,SQUARES,First_showed,exp,45,15,True,2,0,-,0.7002508000005037,left,-
PB013M32,31,SQUARES,First_showed,exp,45,15,False,2,1,9,1.5671095999859972,right,-
PB013M32,32,SQUARES,First_showed,exp,45,15,True,3,0,-,0.6003549000015482,left,-
PB013M32,33,SQUARES,First_showed,exp,45,15,True,3,1,10,0.4670893000002252,left,-
PB013M32,1,CIRCLES,First_hidden,training,45,15,True,8,-,-,0.6340579999960028,left,-
PB013M32,2,CIRCLES,First_hidden,training,45,15,True,8,-,-,0.8340087999968091,left,-
PB013M32,3,CIRCLES,First_hidden,training,45,15,True,8,-,-,0.4506044000008842,left,-
PB013M32,4,CIRCLES,First_hidden,training,45,15,True,8,-,-,0.4505760000029113,right,-
PB013M32,5,CIRCLES,First_hidden,training,45,15,True,8,-,-,0.3337537000043085,left,-
PB013M32,6,CIRCLES,First_hidden,training,45,15,True,8,-,-,0.43378069999744184,right,-
PB013M32,7,CIRCLES,First_hidden,training,45,15,True,8,-,-,0.3668565999978455,right,-
PB013M32,8,CIRCLES,First_hidden,training,45,15,True,8,-,-,0.3674396999995224,right,-
PB013M32,9,CIRCLES,First_hidden,training,45,15,True,8,-,-,0.2840256000054069,right,-
PB013M32,10,CIRCLES,First_hidden,training,45,15,True,8,-,-,0.5505296000046656,right,-
PB013M32,11,CIRCLES,First_hidden,training,45,15,True,3,-,-,0.5839524999901187,left,-
PB013M32,12,CIRCLES,First_hidden,training,45,15,True,3,-,-,0.6005099000030896,right,-
PB013M32,13,CIRCLES,First_hidden,training,45,15,True,3,-,-,1.0005298999894876,left,-
PB013M32,14,CIRCLES,First_hidden,training,45,15,True,3,-,-,0.5333896000083769,right,-
PB013M32,15,CIRCLES,First_hidden,training,45,15,True,3,-,-,0.5173054999904707,left,-
PB013M32,16,CIRCLES,First_hidden,training,45,15,True,3,-,-,0.750443400000222,left,-
PB013M32,17,CIRCLES,First_hidden,training,45,15,True,3,-,-,0.7007431999954861,left,-
PB013M32,18,CIRCLES,First_hidden,training,45,15,True,3,-,-,0.6005968999961624,left,-
PB013M32,19,CIRCLES,First_hidden,training,45,15,True,3,-,-,0.7506465000042226,left,-
PB013M32,20,CIRCLES,First_hidden,training,45,15,True,3,-,-,0.9507695999927819,left,-
PB013M32,1,CIRCLES,First_hidden,exp,45,15,False,3,0,0,0.900746600003913,left,-
PB013M32,2,CIRCLES,First_hidden,exp,45,15,True,4,0,-,0.40060120000271127,right,-
PB013M32,3,CIRCLES,First_hidden,exp,45,15,True,4,1,1,0.4339767000055872,right,-
PB013M32,4,CIRCLES,First_hidden,exp,45,15,True,3,0,-,0.35064560000319034,right,-
PB013M32,5,CIRCLES,First_hidden,exp,45,15,True,3,0,-,0.35063200000149664,right,-
PB013M32,6,CIRCLES,First_hidden,exp,45,15,True,2,0,-,0.5334398999984842,left,-
PB013M32,7,CIRCLES,First_hidden,exp,45,15,True,2,0,-,0.5838216999982251,left,-
PB013M32,8,CIRCLES,First_hidden,exp,45,15,True,1,0,-,0.5000526999938302,right,-
PB013M32,9,CIRCLES,First_hidden,exp,45,15,True,1,0,-,0.5171940000000177,right,-
PB013M32,10,CIRCLES,First_hidden,exp,45,15,True,0,0,-,0.46715409999887925,left,-
PB013M32,11,CIRCLES,First_hidden,exp,45,15,False,0,1,2,0.4840449000039371,left,-
PB013M32,12,CIRCLES,First_hidden,exp,45,15,True,1,0,-,0.45028619999357034,right,-
PB013M32,13,CIRCLES,First_hidden,exp,45,15,True,1,1,3,0.7505674999993062,left,-
PB013M32,14,CIRCLES,First_hidden,exp,45,15,True,0,0,-,0.8338344000076177,right,-
PB013M32,15,CIRCLES,First_hidden,exp,45,15,False,0,1,4,0.8006717000098433,left,-
PB013M32,16,CIRCLES,First_hidden,exp,45,15,True,1,0,-,0.5671706000139238,left,-
PB013M32,17,CIRCLES,First_hidden,exp,45,15,True,1,1,5,0.5340397999971174,left,-
PB013M32,18,CIRCLES,First_hidden,exp,45,15,False,0,1,6,0.4504225000127917,left,-
PB013M32,19,CIRCLES,First_hidden,exp,45,15,False,1,0,-,0.5504687000066042,left,-
PB013M32,20,CIRCLES,First_hidden,exp,45,15,True,2,0,-,0.40044789999956265,left,-
PB013M32,21,CIRCLES,First_hidden,exp,45,15,False,2,0,-,0.15050000000337604,right,-
PB013M32,22,CIRCLES,First_hidden,exp,45,15,True,3,0,-,0.4005598999938229,left,-
PB013M32,23,CIRCLES,First_hidden,exp,45,15,True,3,1,7,0.3671870999969542,left,-
PB013M32,24,CIRCLES,First_hidden,exp,45,15,True,2,0,-,0.4674486000003526,right,-
PB013M32,25,CIRCLES,First_hidden,exp,45,15,True,2,0,-,0.46725940000033006,right,-
PB013M32,26,CIRCLES,First_hidden,exp,45,15,True,1,0,-,0.45041330000094604,left,-
PB013M32,27,CIRCLES,First_hidden,exp,45,15,True,1,0,-,0.4172824999986915,right,-
PB013M32,28,CIRCLES,First_hidden,exp,45,15,True,0,0,-,0.5007337999995798,left,-
PB013M32,29,CIRCLES,First_hidden,exp,45,15,True,0,0,-,0.4506299999920884,right,-
PB013M32,30,CIRCLES,First_hidden,exp,45,15,False,-1,1,8,0.5008460999961244,right,-
PB013M32,31,CIRCLES,First_hidden,exp,45,15,True,0,0,-,0.36738080000213813,left,-
PB013M32,32,CIRCLES,First_hidden,exp,45,15,True,0,1,9,0.5339697000017622,right,-
PB013M32,33,CIRCLES,First_hidden,exp,45,15,True,-1,0,-,0.4506383999978425,right,-
PB013M32,34,CIRCLES,First_hidden,exp,45,15,False,-1,1,10,0.45019370000227354,right,-
