PART_ID,Trial,Stimuli,Version,Training,FIXTIME,TIME,Correct,SOA,Reversal,Reversal_count,Latency,stim_name,Rating

PB034M28,1,SQUARES,First_showed,training,45,15,True,8,-,-,0.26725570001872256,left,-

PB034M28,2,SQUARES,First_showed,training,45,15,True,8,-,-,0.3005506999907084,right,-

PB034M28,3,SQUARES,First_showed,training,45,15,True,8,-,-,0.21752960002049804,right,-

PB034M28,4,SQUARES,First_showed,training,45,15,True,8,-,-,0.2007105000084266,right,-

PB034M28,5,SQUARES,First_showed,training,45,15,True,8,-,-,0.10036720003699884,left,-

PB034M28,6,SQUARES,First_showed,training,45,15,True,8,-,-,0.18403420003596693,right,-

PB034M28,7,SQUARES,First_showed,training,45,15,True,8,-,-,0.18368710001232103,left,-

PB034M28,8,SQUARES,First_showed,training,45,15,True,8,-,-,0.2007805000175722,left,-

PB034M28,9,SQUARES,First_showed,training,45,15,True,8,-,-,0.11687079997500405,left,-

PB034M28,10,SQUARES,First_showed,training,45,15,True,8,-,-,0.15038200002163649,left,-

PB034M28,11,SQUARES,First_showed,training,45,15,True,3,-,-,0.23401269997702911,left,-

PB034M28,12,SQUARES,First_showed,training,45,15,True,3,-,-,0.1835822999710217,right,-

PB034M28,13,SQUARES,First_showed,training,45,15,True,3,-,-,0.4505903000244871,right,-

PB034M28,14,SQUARES,First_showed,training,45,15,True,3,-,-,0.33398430002853274,left,-

PB034M28,15,SQUARES,First_showed,training,45,15,True,3,-,-,0.21728039998561144,right,-

PB034M28,16,SQUARES,First_showed,training,45,15,True,3,-,-,0.4505033000023104,right,-

PB034M28,17,SQUARES,First_showed,training,45,15,True,3,-,-,0.18381590000353754,right,-

PB034M28,18,SQUARES,First_showed,training,45,15,True,3,-,-,0.16665309999370947,left,-

PB034M28,19,SQUARES,First_showed,training,45,15,True,3,-,-,0.18388500000583008,right,-

PB034M28,20,SQUARES,First_showed,training,45,15,True,3,-,-,0.5669038000050932,right,-

PB034M28,1,SQUARES,First_showed,exp,45,15,True,3,0,0,0.41730690002441406,right,-

PB034M28,2,SQUARES,First_showed,exp,45,15,True,3,0,-,0.36722889996599406,right,-

PB034M28,3,SQUARES,First_showed,exp,45,15,True,2,0,-,0.6505490000126883,right,-

PB034M28,4,SQUARES,First_showed,exp,45,15,True,2,0,-,0.43389859999297187,right,-

PB034M28,5,SQUARES,First_showed,exp,45,15,True,1,0,-,0.5840011999825947,right,-

PB034M28,6,SQUARES,First_showed,exp,45,15,True,1,0,-,0.5507349999970756,left,-

PB034M28,7,SQUARES,First_showed,exp,45,15,False,0,1,1,0.48410770000191405,right,-

PB034M28,8,SQUARES,First_showed,exp,45,15,False,1,0,-,0.5005720999906771,right,-

PB034M28,9,SQUARES,First_showed,exp,45,15,True,2,0,-,0.41738769999938086,right,-

PB034M28,10,SQUARES,First_showed,exp,45,15,True,2,1,2,0.5675391999538988,left,-

PB034M28,11,SQUARES,First_showed,exp,45,15,False,1,1,3,0.600649899977725,right,-

PB034M28,12,SQUARES,First_showed,exp,45,15,True,2,0,-,0.43405739997979254,left,-

PB034M28,13,SQUARES,First_showed,exp,45,15,True,2,1,4,0.28389820002485067,left,-

PB034M28,14,SQUARES,First_showed,exp,45,15,False,1,1,5,0.3334988000569865,right,-

PB034M28,15,SQUARES,First_showed,exp,45,15,True,2,0,-,0.7006633999990299,left,-

PB034M28,16,SQUARES,First_showed,exp,45,15,True,2,1,6,0.3673189000110142,right,-

PB034M28,17,SQUARES,First_showed,exp,45,15,False,1,1,7,1.1174420000170358,right,-

PB034M28,18,SQUARES,First_showed,exp,45,15,True,2,0,-,1.2340052999788895,left,-

PB034M28,19,SQUARES,First_showed,exp,45,15,True,2,1,8,1.2840941000031307,right,-

PB034M28,20,SQUARES,First_showed,exp,45,15,True,1,0,-,0.8673908999771811,left,-

PB034M28,21,SQUARES,First_showed,exp,45,15,True,1,0,-,0.7006334000034258,left,-

PB034M28,22,SQUARES,First_showed,exp,45,15,False,0,1,9,0.35067770001478493,right,-

PB034M28,23,SQUARES,First_showed,exp,45,15,True,1,0,-,0.583823399967514,left,-

PB034M28,24,SQUARES,First_showed,exp,45,15,True,1,1,10,0.9506749999709427,right,-

PB034M28,1,CIRCLES,First_hidden,training,45,15,True,8,-,-,0.5173168999608606,left,-

PB034M28,2,CIRCLES,First_hidden,training,45,15,True,8,-,-,0.41738830000394955,left,-

PB034M28,3,CIRCLES,First_hidden,training,45,15,True,8,-,-,0.8671609999728389,left,-

PB034M28,4,CIRCLES,First_hidden,training,45,15,True,8,-,-,0.25045029999455437,left,-

PB034M28,5,CIRCLES,First_hidden,training,45,15,True,8,-,-,0.43379710003500804,right,-

PB034M28,6,CIRCLES,First_hidden,training,45,15,True,8,-,-,0.45065180002711713,right,-

PB034M28,7,CIRCLES,First_hidden,training,45,15,True,8,-,-,0.36723209999036044,left,-

PB034M28,8,CIRCLES,First_hidden,training,45,15,True,8,-,-,0.46715430001495406,right,-

PB034M28,9,CIRCLES,First_hidden,training,45,15,True,8,-,-,0.4334069999749772,right,-

PB034M28,10,CIRCLES,First_hidden,training,45,15,True,8,-,-,0.36730629997327924,right,-

PB034M28,11,CIRCLES,First_hidden,training,45,15,True,3,-,-,0.4673829000093974,right,-

PB034M28,12,CIRCLES,First_hidden,training,45,15,True,3,-,-,0.3840176000376232,left,-

PB034M28,13,CIRCLES,First_hidden,training,45,15,True,3,-,-,0.3173034000210464,right,-

PB034M28,14,CIRCLES,First_hidden,training,45,15,True,3,-,-,0.3339597000158392,left,-

PB034M28,15,CIRCLES,First_hidden,training,45,15,True,3,-,-,0.4332890000077896,right,-

PB034M28,16,CIRCLES,First_hidden,training,45,15,True,3,-,-,0.4173433000105433,right,-

PB034M28,17,CIRCLES,First_hidden,training,45,15,True,3,-,-,0.3505579000338912,right,-

PB034M28,18,CIRCLES,First_hidden,training,45,15,True,3,-,-,0.33366549998754635,left,-

PB034M28,19,CIRCLES,First_hidden,training,45,15,True,3,-,-,0.3330547999939881,right,-

PB034M28,20,CIRCLES,First_hidden,training,45,15,True,3,-,-,0.3338007999700494,left,-

PB034M28,1,CIRCLES,First_hidden,exp,45,15,True,3,0,0,0.3839462999603711,left,-

PB034M28,2,CIRCLES,First_hidden,exp,45,15,True,3,0,-,0.31705369998235255,left,-

PB034M28,3,CIRCLES,First_hidden,exp,45,15,True,2,0,-,0.5340523999766447,right,-

PB034M28,4,CIRCLES,First_hidden,exp,45,15,True,2,0,-,0.33377959998324513,left,-

PB034M28,5,CIRCLES,First_hidden,exp,45,15,True,1,0,-,0.46717840002384037,right,-

PB034M28,6,CIRCLES,First_hidden,exp,45,15,False,1,1,1,0.6507412999635562,right,-

PB034M28,7,CIRCLES,First_hidden,exp,45,15,True,2,0,-,0.3838990000076592,right,-

PB034M28,8,CIRCLES,First_hidden,exp,45,15,True,2,1,2,0.3506608000025153,right,-

PB034M28,9,CIRCLES,First_hidden,exp,45,15,True,1,0,-,0.8506956999772228,left,-

PB034M28,10,CIRCLES,First_hidden,exp,45,15,True,1,0,-,0.4005823999759741,left,-

PB034M28,11,CIRCLES,First_hidden,exp,45,15,False,0,1,3,0.4839056000346318,right,-

PB034M28,12,CIRCLES,First_hidden,exp,45,15,True,1,0,-,0.8004972999915481,right,-

PB034M28,13,CIRCLES,First_hidden,exp,45,15,True,1,1,4,0.617238599981647,left,-

PB034M28,14,CIRCLES,First_hidden,exp,45,15,False,0,1,5,0.9840164000052027,left,-

PB034M28,15,CIRCLES,First_hidden,exp,45,15,True,1,0,-,0.8177207000553608,right,-

PB034M28,16,CIRCLES,First_hidden,exp,45,15,True,1,1,6,0.5502156000002287,right,-

PB034M28,17,CIRCLES,First_hidden,exp,45,15,True,0,0,-,0.7504989000153728,left,-

PB034M28,18,CIRCLES,First_hidden,exp,45,15,False,0,1,7,1.7006468999898061,left,-

PB034M28,19,CIRCLES,First_hidden,exp,45,15,True,1,0,-,0.5172602999955416,left,-

PB034M28,20,CIRCLES,First_hidden,exp,45,15,True,1,1,8,0.9506418000091799,right,-

PB034M28,21,CIRCLES,First_hidden,exp,45,15,False,0,1,9,0.6840046999859624,left,-

PB034M28,22,CIRCLES,First_hidden,exp,45,15,False,1,0,-,0.8673461999860592,right,-

PB034M28,23,CIRCLES,First_hidden,exp,45,15,True,2,0,-,0.8839244999689981,right,-

PB034M28,24,CIRCLES,First_hidden,exp,45,15,True,2,1,10,0.549758999957703,left,-
